PE IR       SPECTRUM    SPECTRUM    ASCII       PEDS        1.60        
  -1
C-99E0~1.ASC
17/05/02
11:32:51.00
17/05/02
11:32:51.00
tln
$C-4040-8_t0009$<tbV0>[2.5,-8.0,8.0,0.0,22,1,0]
370.000000
64









2002,4.07    
MIRTGS : RIGHTBACK : INTERNAL 2
MIR : ON : INTERNAL 2
OPTKBR

0.200000
8
8.000000
FILLER
RATIO
SPECTRUM
UNLOCKED 256

DOUBLE
64
COMBINED
1
0
0


1.000000
RATIO


1
0
TRUE
51149
0
LEFT NOT FITTED RIGHT NOT FITTED 0
NONE
NONE
15600
12.000000
4.427000
51148
TRUE
1 0 8 72 0 0 0 0 

15798.010000






#HDR
-1
-1
#GR
CM-1
%T
0.00002384185791015625
0.0
7800.000000
-1.000000
7431
8
79.586076
23.928070
#DATA
7800.000000	71.128630 
7799.000000	71.326184 
7798.000000	71.272397 
7797.000000	70.859813 
7796.000000	70.051741 
7795.000000	68.867349 
7794.000000	67.401170 
7793.000000	65.799283 
7792.000000	64.235115 
7791.000000	62.876605 
7790.000000	61.860585 
7789.000000	61.270642 
7788.000000	61.128258 
7787.000000	61.397814 
7786.000000	61.986136 
7785.000000	62.777352 
7784.000000	63.657021 
7783.000000	64.543151 
7782.000000	65.365743 
7781.000000	66.102051 
7780.000000	66.768598 
7779.000000	67.407727 
7778.000000	68.064832 
7777.000000	68.762493 
7776.000000	69.486594 
7775.000000	70.180296 
7774.000000	70.770621 
7773.000000	71.168851 
7772.000000	71.298074 
7771.000000	71.120643 
7770.000000	70.659589 
7769.000000	69.995665 
7768.000000	69.254803 
7767.000000	68.591737 
7766.000000	68.158960 
7765.000000	68.088674 
7764.000000	68.465900 
7763.000000	69.321918 
7762.000000	70.620775 
7761.000000	72.267913 
7760.000000	74.109864 
7759.000000	75.962400 
7758.000000	77.618741 
7757.000000	78.880667 
7756.000000	79.576063 
7755.000000	79.586076 
7754.000000	78.862810 
7753.000000	77.445244 
7752.000000	75.456261 
7751.000000	73.090314 
7750.000000	70.589399 
7749.000000	68.218564 
7748.000000	66.219139 
7747.000000	64.778351 
7746.000000	64.001417 
7745.000000	63.907384 
7744.000000	64.424371 
7743.000000	65.407109 
7742.000000	66.667151 
7741.000000	68.004393 
7740.000000	69.234633 
7739.000000	70.209431 
7738.000000	70.836424 
7737.000000	71.078705 
7736.000000	70.952153 
7735.000000	70.507788 
7734.000000	69.814491 
7733.000000	68.940973 
7732.000000	67.956423 
7731.000000	66.918277 
7730.000000	65.882611 
7729.000000	64.896488 
7728.000000	64.008140 
7727.000000	63.257884 
7726.000000	62.678575 
7725.000000	62.287807 
7724.000000	62.077236 
7723.000000	62.021136 
7722.000000	62.072014 
7721.000000	62.178754 
7720.000000	62.290239 
7719.000000	62.369060 
7718.000000	62.388849 
7717.000000	62.344574 
7716.000000	62.247872 
7715.000000	62.117719 
7714.000000	61.969089 
7713.000000	61.818122 
7712.000000	61.679172 
7711.000000	61.569976 
7710.000000	61.512565 
7709.000000	61.533451 
7708.000000	61.659932 
7707.000000	61.915922 
7706.000000	62.314510 
7705.000000	62.845253 
7704.000000	63.476991 
7703.000000	64.160394 
7702.000000	64.838814 
7701.000000	65.461897 
7700.000000	65.990591 
7699.000000	66.408014 
7698.000000	66.708278 
7697.000000	66.903591 
7696.000000	66.999149 
7695.000000	66.988277 
7694.000000	66.851615 
7693.000000	66.565895 
7692.000000	66.118884 
7691.000000	65.522050 
7690.000000	64.825916 
7689.000000	64.120650 
7688.000000	63.522028 
7687.000000	63.148689 
7686.000000	63.091993 
7685.000000	63.391208 
7684.000000	64.019823 
7683.000000	64.886832 
7682.000000	65.854382 
7681.000000	66.764998 
7680.000000	67.477941 
7679.000000	67.893099 
7678.000000	67.966866 
7677.000000	67.711782 
7676.000000	67.181396 
7675.000000	66.454911 
7674.000000	65.614676 
7673.000000	64.736175 
7672.000000	63.881611 
7671.000000	63.099741 
7670.000000	62.439799 
7669.000000	61.942672 
7668.000000	61.643147 
7667.000000	61.562871 
7666.000000	61.701631 
7665.000000	62.038874 
7664.000000	62.527561 
7663.000000	63.106966 
7662.000000	63.705348 
7661.000000	64.259099 
7660.000000	64.719080 
7659.000000	65.057563 
7658.000000	65.266990 
7657.000000	65.350818 
7656.000000	65.316867 
7655.000000	65.170121 
7654.000000	64.913392 
7653.000000	64.552450 
7652.000000	64.105081 
7651.000000	63.603353 
7650.000000	63.101768 
7649.000000	62.673974 
7648.000000	62.407875 
7647.000000	62.375855 
7646.000000	62.635397 
7645.000000	63.214993 
7644.000000	64.108109 
7643.000000	65.272808 
7642.000000	66.628217 
7641.000000	68.062329 
7640.000000	69.444704 
7639.000000	70.646333 
7638.000000	71.556973 
7637.000000	72.101545 
7636.000000	72.253370 
7635.000000	72.040081 
7634.000000	71.531891 
7633.000000	70.829224 
7632.000000	70.041847 
7631.000000	69.270920 
7630.000000	68.596148 
7629.000000	68.064999 
7628.000000	67.689752 
7627.000000	67.447090 
7626.000000	67.285013 
7625.000000	67.134094 
7624.000000	66.918706 
7623.000000	66.577339 
7622.000000	66.069912 
7621.000000	65.395665 
7620.000000	64.590001 
7619.000000	63.724780 
7618.000000	62.883186 
7617.000000	62.154030 
7616.000000	61.607170 
7615.000000	61.289095 
7614.000000	61.214494 
7613.000000	61.366343 
7612.000000	61.699676 
7611.000000	62.151479 
7610.000000	62.652087 
7609.000000	63.133263 
7608.000000	63.531684 
7607.000000	63.805675 
7606.000000	63.936686 
7605.000000	63.927698 
7604.000000	63.797593 
7603.000000	63.571429 
7602.000000	63.274145 
7601.000000	62.929773 
7600.000000	62.563514 
7599.000000	62.198829 
7598.000000	61.865544 
7597.000000	61.607003 
7596.000000	61.477279 
7595.000000	61.529040 
7594.000000	61.803698 
7593.000000	62.317466 
7592.000000	63.052487 
7591.000000	63.951921 
7590.000000	64.928150 
7589.000000	65.872979 
7588.000000	66.681575 
7587.000000	67.272973 
7586.000000	67.604756 
7585.000000	67.681908 
7584.000000	67.547583 
7583.000000	67.271232 
7582.000000	66.928386 
7581.000000	66.583776 
7580.000000	66.284370 
7579.000000	66.058087 
7578.000000	65.915894 
7577.000000	65.860962 
7576.000000	65.895271 
7575.000000	66.026020 
7574.000000	66.266012 
7573.000000	66.629862 
7572.000000	67.123413 
7571.000000	67.735815 
7570.000000	68.437051 
7569.000000	69.172835 
7568.000000	69.875836 
7567.000000	70.465970 
7566.000000	70.868301 
7565.000000	71.018028 
7564.000000	70.878934 
7563.000000	70.443964 
7562.000000	69.742608 
7561.000000	68.832540 
7560.000000	67.802095 
7559.000000	66.743087 
7558.000000	65.744733 
7557.000000	64.868545 
7556.000000	64.147901 
7555.000000	63.578462 
7554.000000	63.125371 
7553.000000	62.746238 
7552.000000	62.406492 
7551.000000	62.105083 
7550.000000	61.876535 
7549.000000	61.793851 
7548.000000	61.943149 
7547.000000	62.400650 
7546.000000	63.195729 
7545.000000	64.283204 
7544.000000	65.537214 
7543.000000	66.764163 
7542.000000	67.744970 
7541.000000	68.291425 
7540.000000	68.289351 
7539.000000	67.733073 
7538.000000	66.721320 
7537.000000	65.436434 
7536.000000	64.094114 
7535.000000	62.891459 
7534.000000	61.965703 
7533.000000	61.375761 
7532.000000	61.097478 
7531.000000	61.054635 
7530.000000	61.142277 
7529.000000	61.264348 
7528.000000	61.361312 
7527.000000	61.418294 
7526.000000	61.469125 
7525.000000	61.570453 
7524.000000	61.790466 
7523.000000	62.177085 
7522.000000	62.748908 
7521.000000	63.480544 
7520.000000	64.314198 
7519.000000	65.163660 
7518.000000	65.929579 
7517.000000	66.513180 
7516.000000	66.834330 
7515.000000	66.844010 
7514.000000	66.531658 
7513.000000	65.929222 
7512.000000	65.107393 
7511.000000	64.163637 
7510.000000	63.214421 
7509.000000	62.366724 
7508.000000	61.707663 
7507.000000	61.282706 
7506.000000	61.096811 
7505.000000	61.111712 
7504.000000	61.262249 
7503.000000	61.469316 
7502.000000	61.653971 
7501.000000	61.760926 
7500.000000	61.763334 
7499.000000	61.671233 
7498.000000	61.520147 
7497.000000	61.363267 
7496.000000	61.252546 
7495.000000	61.230921 
7494.000000	61.321806 
7493.000000	61.527466 
7492.000000	61.830544 
7491.000000	62.206268 
7490.000000	62.625288 
7489.000000	63.061118 
7488.000000	63.487744 
7487.000000	63.880038 
7486.000000	64.210557 
7485.000000	64.446711 
7484.000000	64.556598 
7483.000000	64.518713 
7482.000000	64.325070 
7481.000000	63.994002 
7480.000000	63.559842 
7479.000000	63.068819 
7478.000000	62.571096 
7477.000000	62.115812 
7476.000000	61.740946 
7475.000000	61.467123 
7474.000000	61.302471 
7473.000000	61.246061 
7472.000000	61.288905 
7471.000000	61.417293 
7470.000000	61.611294 
7469.000000	61.845684 
7468.000000	62.090277 
7467.000000	62.313055 
7466.000000	62.482714 
7465.000000	62.574768 
7464.000000	62.578225 
7463.000000	62.497210 
7462.000000	62.356424 
7461.000000	62.190198 
7460.000000	62.031173 
7459.000000	61.902165 
7458.000000	61.808347 
7457.000000	61.742186 
7456.000000	61.687994 
7455.000000	61.634540 
7454.000000	61.580109 
7453.000000	61.540913 
7452.000000	61.547541 
7451.000000	61.638784 
7450.000000	61.845731 
7449.000000	62.184166 
7448.000000	62.645196 
7447.000000	63.193178 
7446.000000	63.772296 
7445.000000	64.311838 
7444.000000	64.740347 
7443.000000	65.002512 
7442.000000	65.072989 
7441.000000	64.958977 
7440.000000	64.701509 
7439.000000	64.370226 
7438.000000	64.051938 
7437.000000	63.839650 
7436.000000	63.812732 
7435.000000	64.027190 
7434.000000	64.497280 
7433.000000	65.194988 
7432.000000	66.047286 
7431.000000	66.951417 
7430.000000	67.790126 
7429.000000	68.456721 
7428.000000	68.871021 
7427.000000	68.995308 
7426.000000	68.834280 
7425.000000	68.429875 
7424.000000	67.850470 
7423.000000	67.172813 
7422.000000	66.476297 
7421.000000	65.833973 
7420.000000	65.308666 
7419.000000	64.950203 
7418.000000	64.797282 
7417.000000	64.877939 
7416.000000	65.199780 
7415.000000	65.746498 
7414.000000	66.473150 
7413.000000	67.309689 
7412.000000	68.161392 
7411.000000	68.926239 
7410.000000	69.518804 
7409.000000	69.885420 
7408.000000	70.016813 
7407.000000	69.943761 
7406.000000	69.727444 
7405.000000	69.439220 
7404.000000	69.144892 
7403.000000	68.887138 
7402.000000	68.688058 
7401.000000	68.539690 
7400.000000	68.426752 
7399.000000	68.318438 
7398.000000	68.186926 
7397.000000	68.005895 
7396.000000	67.758488 
7395.000000	67.438530 
7394.000000	67.048406 
7393.000000	66.603183 
7392.000000	66.127181 
7391.000000	65.650939 
7390.000000	65.205359 
7389.000000	64.817452 
7388.000000	64.505863 
7387.000000	64.273166 
7386.000000	64.106893 
7385.000000	63.980937 
7384.000000	63.864350 
7383.000000	63.733291 
7382.000000	63.578248 
7381.000000	63.401079 
7380.000000	63.217592 
7379.000000	63.051486 
7378.000000	62.931418 
7377.000000	62.868738 
7376.000000	62.871837 
7375.000000	62.938427 
7374.000000	63.072395 
7373.000000	63.282990 
7372.000000	63.589549 
7371.000000	64.015460 
7370.000000	64.577293 
7369.000000	65.278363 
7368.000000	66.089701 
7367.000000	66.945934 
7366.000000	67.754793 
7365.000000	68.412494 
7364.000000	68.833971 
7363.000000	68.974328 
7362.000000	68.845915 
7361.000000	68.517041 
7360.000000	68.089461 
7359.000000	67.669272 
7358.000000	67.336416 
7357.000000	67.120790 
7356.000000	66.994810 
7355.000000	66.882681 
7354.000000	66.691088 
7353.000000	66.338658 
7352.000000	65.782880 
7351.000000	65.040826 
7350.000000	64.181256 
7349.000000	63.320970 
7348.000000	62.588882 
7347.000000	62.105703 
7346.000000	61.946392 
7345.000000	62.132692 
7344.000000	62.627387 
7343.000000	63.344836 
7342.000000	64.174365 
7341.000000	64.997386 
7340.000000	65.711736 
7339.000000	66.240692 
7338.000000	66.537714 
7337.000000	66.590142 
7336.000000	66.412615 
7335.000000	66.040086 
7334.000000	65.518045 
7333.000000	64.902830 
7332.000000	64.255023 
7331.000000	63.637781 
7330.000000	63.108825 
7329.000000	62.715601 
7328.000000	62.485432 
7327.000000	62.423920 
7326.000000	62.510442 
7325.000000	62.694644 
7324.000000	62.912106 
7323.000000	63.091182 
7322.000000	63.179492 
7321.000000	63.146901 
7320.000000	63.004827 
7319.000000	62.797904 
7318.000000	62.598276 
7317.000000	62.483763 
7316.000000	62.516951 
7315.000000	62.731146 
7314.000000	63.111543 
7313.000000	63.599681 
7312.000000	64.101362 
7311.000000	64.510345 
7310.000000	64.734935 
7309.000000	64.722871 
7308.000000	64.472317 
7307.000000	64.032268 
7306.000000	63.488078 
7305.000000	62.940025 
7304.000000	62.481379 
7303.000000	62.178421 
7302.000000	62.059903 
7301.000000	62.115502 
7300.000000	62.310385 
7299.000000	62.595438 
7298.000000	62.919402 
7297.000000	63.242650 
7296.000000	63.537120 
7295.000000	63.794398 
7294.000000	64.019155 
7293.000000	64.224386 
7292.000000	64.420866 
7291.000000	64.610290 
7290.000000	64.784812 
7289.000000	64.922738 
7288.000000	64.997220 
7287.000000	64.980721 
7286.000000	64.855384 
7285.000000	64.622497 
7284.000000	64.306139 
7283.000000	63.954949 
7282.000000	63.633394 
7281.000000	63.412809 
7280.000000	63.355231 
7279.000000	63.501477 
7278.000000	63.860130 
7277.000000	64.402270 
7276.000000	65.064549 
7275.000000	65.764045 
7274.000000	66.410303 
7273.000000	66.923880 
7272.000000	67.245221 
7271.000000	67.340373 
7270.000000	67.203450 
7269.000000	66.853785 
7268.000000	66.331505 
7267.000000	65.691304 
7266.000000	64.994573 
7265.000000	64.305472 
7264.000000	63.681650 
7263.000000	63.174128 
7262.000000	62.818050 
7261.000000	62.631082 
7260.000000	62.613272 
7259.000000	62.747383 
7258.000000	63.004970 
7257.000000	63.348126 
7256.000000	63.738465 
7255.000000	64.138722 
7254.000000	64.516305 
7253.000000	64.842653 
7252.000000	65.088319 
7251.000000	65.223360 
7250.000000	65.219974 
7249.000000	65.059256 
7248.000000	64.738249 
7247.000000	64.276599 
7246.000000	63.722252 
7245.000000	63.144397 
7244.000000	62.625813 
7243.000000	62.242865 
7242.000000	62.048935 
7241.000000	62.061047 
7240.000000	62.258100 
7239.000000	62.584757 
7238.000000	62.962102 
7237.000000	63.310194 
7236.000000	63.563013 
7235.000000	63.687658 
7234.000000	63.684606 
7233.000000	63.590264 
7232.000000	63.458847 
7231.000000	63.352823 
7230.000000	63.323879 
7229.000000	63.402438 
7228.000000	63.590192 
7227.000000	63.867235 
7226.000000	64.200735 
7225.000000	64.553642 
7224.000000	64.894509 
7223.000000	65.202927 
7222.000000	65.470528 
7221.000000	65.696954 
7220.000000	65.884590 
7219.000000	66.032028 
7218.000000	66.131424 
7217.000000	66.174125 
7216.000000	66.148209 
7215.000000	66.050457 
7214.000000	65.879654 
7213.000000	65.643501 
7212.000000	65.350866 
7211.000000	65.014243 
7210.000000	64.645457 
7209.000000	64.253497 
7208.000000	63.850164 
7207.000000	63.447570 
7206.000000	63.069057 
7205.000000	62.746357 
7204.000000	62.521648 
7203.000000	62.435054 
7202.000000	62.526202 
7201.000000	62.822008 
7200.000000	63.328027 
7199.000000	64.020347 
7198.000000	64.846444 
7197.000000	65.728759 
7196.000000	66.573095 
7195.000000	67.282319 
7194.000000	67.775511 
7193.000000	67.999291 
7192.000000	67.936372 
7191.000000	67.605638 
7190.000000	67.057180 
7189.000000	66.362071 
7188.000000	65.604066 
7187.000000	64.863634 
7186.000000	64.212989 
7185.000000	63.701987 
7184.000000	63.364362 
7183.000000	63.204789 
7182.000000	63.205504 
7181.000000	63.326215 
7180.000000	63.512158 
7179.000000	63.704895 
7178.000000	63.848805 
7177.000000	63.905501 
7176.000000	63.856697 
7175.000000	63.705325 
7174.000000	63.469171 
7173.000000	63.174295 
7172.000000	62.846040 
7171.000000	62.500548 
7170.000000	62.143421 
7169.000000	61.770129 
7168.000000	61.375188 
7167.000000	60.961484 
7166.000000	60.549426 
7165.000000	60.175395 
7164.000000	59.890198 
7163.000000	59.748959 
7162.000000	59.797096 
7161.000000	60.051727 
7160.000000	60.496330 
7159.000000	61.076092 
7158.000000	61.711168 
7157.000000	62.309718 
7156.000000	62.791299 
7155.000000	63.099193 
7154.000000	63.218212 
7153.000000	63.174962 
7152.000000	63.028860 
7151.000000	62.853956 
7150.000000	62.719678 
7149.000000	62.674188 
7148.000000	62.732696 
7147.000000	62.878441 
7146.000000	63.069915 
7145.000000	63.257646 
7144.000000	63.395214 
7143.000000	63.453698 
7142.000000	63.428354 
7141.000000	63.338899 
7140.000000	63.219785 
7139.000000	63.109469 
7138.000000	63.040471 
7137.000000	63.029122 
7136.000000	63.071537 
7135.000000	63.145303 
7134.000000	63.220095 
7133.000000	63.264989 
7132.000000	63.259506 
7131.000000	63.197660 
7130.000000	63.090372 
7129.000000	62.959432 
7128.000000	62.830877 
7127.000000	62.725448 
7126.000000	62.648916 
7125.000000	62.595367 
7124.000000	62.550711 
7123.000000	62.499141 
7122.000000	62.427949 
7121.000000	62.340259 
7120.000000	62.256288 
7119.000000	62.210106 
7118.000000	62.239909 
7117.000000	62.375497 
7116.000000	62.627363 
7115.000000	62.979626 
7114.000000	63.391184 
7113.000000	63.806056 
7112.000000	64.165592 
7111.000000	64.421725 
7110.000000	64.548468 
7109.000000	64.547395 
7108.000000	64.445567 
7107.000000	64.288449 
7106.000000	64.125657 
7105.000000	63.999056 
7104.000000	63.930106 
7103.000000	63.923621 
7102.000000	63.958978 
7101.000000	64.003872 
7100.000000	64.015626 
7099.000000	63.957691 
7098.000000	63.803410 
7097.000000	63.542819 
7096.000000	63.186645 
7095.000000	62.762069 
7094.000000	62.312412 
7093.000000	61.887073 
7092.000000	61.535096 
7091.000000	61.294746 
7090.000000	61.184692 
7089.000000	61.199522 
7088.000000	61.306786 
7087.000000	61.455321 
7086.000000	61.584281 
7085.000000	61.641597 
7084.000000	61.591529 
7083.000000	61.430883 
7082.000000	61.189460 
7081.000000	60.926985 
7080.000000	60.716629 
7079.000000	60.627222 
7078.000000	60.705518 
7077.000000	60.961318 
7076.000000	61.364936 
7075.000000	61.852049 
7074.000000	62.339997 
7073.000000	62.747311 
7072.000000	63.014340 
7071.000000	63.115382 
7070.000000	63.061618 
7069.000000	62.895989 
7068.000000	62.678050 
7067.000000	62.468981 
7066.000000	62.314963 
7065.000000	62.239193 
7064.000000	62.240028 
7063.000000	62.288904 
7062.000000	62.341928 
7061.000000	62.354969 
7060.000000	62.297749 
7059.000000	62.160158 
7058.000000	61.957025 
7057.000000	61.720848 
7056.000000	61.495876 
7055.000000	61.325144 
7054.000000	61.241436 
7053.000000	61.258697 
7052.000000	61.370229 
7051.000000	61.553406 
7050.000000	61.773610 
7049.000000	61.996364 
7048.000000	62.189698 
7047.000000	62.331700 
7046.000000	62.408614 
7045.000000	62.411165 
7044.000000	62.338376 
7043.000000	62.193965 
7042.000000	61.991739 
7041.000000	61.750102 
7040.000000	61.505389 
7039.000000	61.307740 
7038.000000	61.215639 
7037.000000	61.283469 
7036.000000	61.542987 
7035.000000	61.990356 
7034.000000	62.579035 
7033.000000	63.225293 
7032.000000	63.817310 
7031.000000	64.243674 
7030.000000	64.419364 
7029.000000	64.311122 
7028.000000	63.949561 
7027.000000	63.421654 
7026.000000	62.854719 
7025.000000	62.376546 
7024.000000	62.087392 
7023.000000	62.025833 
7022.000000	62.168574 
7021.000000	62.428665 
7020.000000	62.687945 
7019.000000	62.823367 
7018.000000	62.746882 
7017.000000	62.422466 
7016.000000	61.873459 
7015.000000	61.175084 
7014.000000	60.427284 
7013.000000	59.737205 
7012.000000	59.189939 
7011.000000	58.841252 
7010.000000	58.709287 
7009.000000	58.786582 
7008.000000	59.048008 
7007.000000	59.463095 
7006.000000	60.000491 
7005.000000	60.624051 
7004.000000	61.292767 
7003.000000	61.951351 
7002.000000	62.538766 
7001.000000	62.993288 
7000.000000	63.267374 
6999.000000	63.337588 
6998.000000	63.212418 
6997.000000	62.936258 
6996.000000	62.577605 
6995.000000	62.217473 
6994.000000	61.930155 
6993.000000	61.770772 
6992.000000	61.763024 
6991.000000	61.901926 
6990.000000	62.153434 
6989.000000	62.469029 
6988.000000	62.794065 
6987.000000	63.081479 
6986.000000	63.298344 
6985.000000	63.429188 
6984.000000	63.476681 
6983.000000	63.456487 
6982.000000	63.394594 
6981.000000	63.319611 
6980.000000	63.263678 
6979.000000	63.254022 
6978.000000	63.309216 
6977.000000	63.432240 
6976.000000	63.611364 
6975.000000	63.818335 
6974.000000	64.016103 
6973.000000	64.162516 
6972.000000	64.219927 
6971.000000	64.160823 
6970.000000	63.975238 
6969.000000	63.670539 
6968.000000	63.271164 
6967.000000	62.812399 
6966.000000	62.333726 
6965.000000	61.872887 
6964.000000	61.461019 
6963.000000	61.119890 
6962.000000	60.860753 
6961.000000	60.687232 
6960.000000	60.597610 
6959.000000	60.586571 
6958.000000	60.646319 
6957.000000	60.765004 
6956.000000	60.925602 
6955.000000	61.110687 
6954.000000	61.303138 
6953.000000	61.486697 
6952.000000	61.647891 
6951.000000	61.777520 
6950.000000	61.873006 
6949.000000	61.936283 
6948.000000	61.976146 
6947.000000	62.006974 
6946.000000	62.047481 
6945.000000	62.117910 
6944.000000	62.235474 
6943.000000	62.410449 
6942.000000	62.643194 
6941.000000	62.923574 
6940.000000	63.232731 
6939.000000	63.548707 
6938.000000	63.847517 
6937.000000	64.110517 
6936.000000	64.321494 
6935.000000	64.468789 
6934.000000	64.544463 
6933.000000	64.546203 
6932.000000	64.474415 
6931.000000	64.333009 
6930.000000	64.131569 
6929.000000	63.886523 
6928.000000	63.618278 
6927.000000	63.349318 
6926.000000	63.100886 
6925.000000	62.889742 
6924.000000	62.725234 
6923.000000	62.609171 
6922.000000	62.534236 
6921.000000	62.489414 
6920.000000	62.465286 
6919.000000	62.456321 
6918.000000	62.462091 
6917.000000	62.484335 
6916.000000	62.522768 
6915.000000	62.572908 
6914.000000	62.620925 
6913.000000	62.649297 
6912.000000	62.639832 
6911.000000	62.580227 
6910.000000	62.467765 
6909.000000	62.312579 
6908.000000	62.136411 
6907.000000	61.968183 
6906.000000	61.836099 
6905.000000	61.764168 
6904.000000	61.766505 
6903.000000	61.845469 
6902.000000	61.991262 
6901.000000	62.182784 
6900.000000	62.391400 
6899.000000	62.586236 
6898.000000	62.739801 
6897.000000	62.828993 
6896.000000	62.841010 
6895.000000	62.775135 
6894.000000	62.644410 
6893.000000	62.472867 
6892.000000	62.290954 
6891.000000	62.133574 
6890.000000	62.028527 
6889.000000	61.992502 
6888.000000	62.024497 
6887.000000	62.107777 
6886.000000	62.213110 
6885.000000	62.306499 
6884.000000	62.358760 
6883.000000	62.351584 
6882.000000	62.284588 
6881.000000	62.173867 
6880.000000	62.048768 
6879.000000	61.941790 
6878.000000	61.882805 
6877.000000	61.890077 
6876.000000	61.969208 
6875.000000	62.112331 
6874.000000	62.302947 
6873.000000	62.520790 
6872.000000	62.747550 
6871.000000	62.970042 
6870.000000	63.180565 
6869.000000	63.375997 
6868.000000	63.553428 
6867.000000	63.709712 
6866.000000	63.839578 
6865.000000	63.936972 
6864.000000	64.000344 
6863.000000	64.030313 
6862.000000	64.033293 
6861.000000	64.015865 
6860.000000	63.988518 
6859.000000	63.955879 
6858.000000	63.916683 
6857.000000	63.862657 
6856.000000	63.781595 
6855.000000	63.663554 
6854.000000	63.505768 
6853.000000	63.317418 
6852.000000	63.119745 
6851.000000	62.942314 
6850.000000	62.816715 
6849.000000	62.765789 
6848.000000	62.796854 
6847.000000	62.898111 
6846.000000	63.041853 
6845.000000	63.189721 
6844.000000	63.304853 
6843.000000	63.364505 
6842.000000	63.368368 
6841.000000	63.336372 
6840.000000	63.305401 
6839.000000	63.319015 
6838.000000	63.414978 
6837.000000	63.612389 
6836.000000	63.906025 
6835.000000	64.267444 
6834.000000	64.650559 
6833.000000	65.005588 
6832.000000	65.287709 
6831.000000	65.469336 
6830.000000	65.542531 
6829.000000	65.520024 
6828.000000	65.427494 
6827.000000	65.295052 
6826.000000	65.149521 
6825.000000	65.009689 
6824.000000	64.882993 
6823.000000	64.768576 
6822.000000	64.658713 
6821.000000	64.545249 
6820.000000	64.417386 
6819.000000	64.265894 
6818.000000	64.081597 
6817.000000	63.859319 
6816.000000	63.597464 
6815.000000	63.302731 
6814.000000	62.989902 
6813.000000	62.683439 
6812.000000	62.415027 
6811.000000	62.218499 
6810.000000	62.120604 
6809.000000	62.136125 
6808.000000	62.261843 
6807.000000	62.478327 
6806.000000	62.749195 
6805.000000	63.033080 
6804.000000	63.291049 
6803.000000	63.495445 
6802.000000	63.633012 
6801.000000	63.705921 
6800.000000	63.728070 
6799.000000	63.717651 
6798.000000	63.689589 
6797.000000	63.652372 
6796.000000	63.606667 
6795.000000	63.549208 
6794.000000	63.477563 
6793.000000	63.394117 
6792.000000	63.308072 
6791.000000	63.235831 
6790.000000	63.196659 
6789.000000	63.204145 
6788.000000	63.261747 
6787.000000	63.360881 
6786.000000	63.481998 
6785.000000	63.598799 
6784.000000	63.684773 
6783.000000	63.721680 
6782.000000	63.701796 
6781.000000	63.629460 
6780.000000	63.518118 
6779.000000	63.384056 
6778.000000	63.244390 
6777.000000	63.112759 
6776.000000	62.998318 
6775.000000	62.905550 
6774.000000	62.835717 
6773.000000	62.791037 
6772.000000	62.771415 
6771.000000	62.775278 
6770.000000	62.797689 
6769.000000	62.830567 
6768.000000	62.862849 
6767.000000	62.882328 
6766.000000	62.882924 
6765.000000	62.866997 
6764.000000	62.848925 
6763.000000	62.851285 
6762.000000	62.899541 
6761.000000	63.012480 
6760.000000	63.196206 
6759.000000	63.437294 
6758.000000	63.703608 
6757.000000	63.947939 
6756.000000	64.121842 
6755.000000	64.183068 
6754.000000	64.106059 
6753.000000	63.887214 
6752.000000	63.547945 
6751.000000	63.128352 
6750.000000	62.678599 
6749.000000	62.248945 
6748.000000	61.880731 
6747.000000	61.599183 
6746.000000	61.412739 
6745.000000	61.313128 
6744.000000	61.281895 
6743.000000	61.295223 
6742.000000	61.330914 
6741.000000	61.371421 
6740.000000	61.405277 
6739.000000	61.429691 
6738.000000	61.448836 
6737.000000	61.470437 
6736.000000	61.503529 
6735.000000	61.555886 
6734.000000	61.633586 
6733.000000	61.738991 
6732.000000	61.873197 
6731.000000	62.036252 
6730.000000	62.228965 
6729.000000	62.454056 
6728.000000	62.713122 
6727.000000	63.004875 
6726.000000	63.321018 
6725.000000	63.647580 
6724.000000	63.961815 
6723.000000	64.237689 
6722.000000	64.445924 
6721.000000	64.563894 
6720.000000	64.574646 
6719.000000	64.472365 
6718.000000	64.263796 
6717.000000	63.970923 
6716.000000	63.624334 
6715.000000	63.259291 
6714.000000	62.910318 
6713.000000	62.607049 
6712.000000	62.367486 
6711.000000	62.197756 
6710.000000	62.090945 
6709.000000	62.033176 
6708.000000	62.008857 
6707.000000	62.009048 
6706.000000	62.030172 
6705.000000	62.079071 
6704.000000	62.169528 
6703.000000	62.318038 
6702.000000	62.534689 
6701.000000	62.817788 
6700.000000	63.149213 
6699.000000	63.496899 
6698.000000	63.818597 
6697.000000	64.073801 
6696.000000	64.234995 
6695.000000	64.293622 
6694.000000	64.262604 
6693.000000	64.172387 
6692.000000	64.064359 
6691.000000	63.977932 
6690.000000	63.940382 
6689.000000	63.963007 
6688.000000	64.041447 
6687.000000	64.157366 
6686.000000	64.286112 
6685.000000	64.399862 
6684.000000	64.474344 
6683.000000	64.491152 
6682.000000	64.441204 
6681.000000	64.320945 
6680.000000	64.135265 
6679.000000	63.896799 
6678.000000	63.627362 
6677.000000	63.357257 
6676.000000	63.120675 
6675.000000	62.953042 
6674.000000	62.879967 
6673.000000	62.913918 
6672.000000	63.045501 
6671.000000	63.245582 
6670.000000	63.467574 
6669.000000	63.656258 
6668.000000	63.760089 
6667.000000	63.743376 
6666.000000	63.592720 
6665.000000	63.320183 
6664.000000	62.957286 
6663.000000	62.546062 
6662.000000	62.130236 
6661.000000	61.746120 
6660.000000	61.417841 
6659.000000	61.155819 
6658.000000	60.963630 
6657.000000	60.842084 
6656.000000	60.794425 
6655.000000	60.826301 
6654.000000	60.940814 
6653.000000	61.134314 
6652.000000	61.387991 
6651.000000	61.670804 
6650.000000	61.937522 
6649.000000	62.144947 
6648.000000	62.257933 
6647.000000	62.266755 
6646.000000	62.189722 
6645.000000	62.073850 
6644.000000	61.985301 
6643.000000	61.990165 
6642.000000	62.138938 
6641.000000	62.446141 
6640.000000	62.889122 
6639.000000	63.403415 
6638.000000	63.900327 
6637.000000	64.283537 
6636.000000	64.475679 
6635.000000	64.432764 
6634.000000	64.155650 
6633.000000	63.689088 
6632.000000	63.111114 
6631.000000	62.515354 
6630.000000	61.990594 
6629.000000	61.606597 
6628.000000	61.402201 
6627.000000	61.384725 
6626.000000	61.531662 
6625.000000	61.803078 
6624.000000	62.149024 
6623.000000	62.517476 
6622.000000	62.862944 
6621.000000	63.144707 
6620.000000	63.336920 
6619.000000	63.425254 
6618.000000	63.412690 
6617.000000	63.312745 
6616.000000	63.152360 
6615.000000	62.967872 
6614.000000	62.798500 
6613.000000	62.681245 
6612.000000	62.643051 
6611.000000	62.698721 
6610.000000	62.845540 
6609.000000	63.066625 
6608.000000	63.330173 
6607.000000	63.596844 
6606.000000	63.824868 
6605.000000	63.978433 
6604.000000	64.034199 
6603.000000	63.986325 
6602.000000	63.847398 
6601.000000	63.646221 
6600.000000	63.422679 
6599.000000	63.218998 
6598.000000	63.074779 
6597.000000	63.016104 
6596.000000	63.053154 
6595.000000	63.174581 
6594.000000	63.353061 
6593.000000	63.547611 
6592.000000	63.713288 
6591.000000	63.810038 
6590.000000	63.808131 
6589.000000	63.698029 
6588.000000	63.490390 
6587.000000	63.216257 
6586.000000	62.917590 
6585.000000	62.641429 
6584.000000	62.428808 
6583.000000	62.309026 
6582.000000	62.294912 
6581.000000	62.382888 
6580.000000	62.556099 
6579.000000	62.789297 
6578.000000	63.054537 
6577.000000	63.323378 
6576.000000	63.569903 
6575.000000	63.769268 
6574.000000	63.899588 
6573.000000	63.942766 
6572.000000	63.887882 
6571.000000	63.733315 
6570.000000	63.490033 
6569.000000	63.182783 
6568.000000	62.847661 
6567.000000	62.530326 
6566.000000	62.274742 
6565.000000	62.116217 
6564.000000	62.071704 
6563.000000	62.136197 
6562.000000	62.284350 
6561.000000	62.476682 
6560.000000	62.669587 
6559.000000	62.822508 
6558.000000	62.911343 
6557.000000	62.931156 
6556.000000	62.897729 
6555.000000	62.839984 
6554.000000	62.792086 
6553.000000	62.781977 
6552.000000	62.825036 
6551.000000	62.920331 
6550.000000	63.049697 
6549.000000	63.183665 
6548.000000	63.290596 
6547.000000	63.345837 
6546.000000	63.338398 
6545.000000	63.274145 
6544.000000	63.173413 
6543.000000	63.065147 
6542.000000	62.980079 
6541.000000	62.940001 
6540.000000	62.954068 
6539.000000	63.012290 
6538.000000	63.090777 
6537.000000	63.154244 
6536.000000	63.167738 
6535.000000	63.103437 
6534.000000	62.947988 
6533.000000	62.707161 
6532.000000	62.404131 
6531.000000	62.076139 
6530.000000	61.763834 
6529.000000	61.506247 
6528.000000	61.331772 
6527.000000	61.255788 
6526.000000	61.278581 
6525.000000	61.389064 
6524.000000	61.568784 
6523.000000	61.796832 
6522.000000	62.053346 
6521.000000	62.321138 
6520.000000	62.585902 
6519.000000	62.835383 
6518.000000	63.057780 
6517.000000	63.240694 
6516.000000	63.370656 
6515.000000	63.436627 
6514.000000	63.430094 
6513.000000	63.350701 
6512.000000	63.204121 
6511.000000	63.002896 
6510.000000	62.764620 
6509.000000	62.510824 
6508.000000	62.265634 
6507.000000	62.051200 
6506.000000	61.889719 
6505.000000	61.798238 
6504.000000	61.792421 
6503.000000	61.883783 
6502.000000	62.078380 
6501.000000	62.373590 
6500.000000	62.755632 
6499.000000	63.198375 
6498.000000	63.664627 
6497.000000	64.110040 
6496.000000	64.489126 
6495.000000	64.762377 
6494.000000	64.903974 
6493.000000	64.906167 
6492.000000	64.779901 
6491.000000	64.553189 
6490.000000	64.266085 
6489.000000	63.964176 
6488.000000	63.692951 
6487.000000	63.489413 
6486.000000	63.380670 
6485.000000	63.376569 
6484.000000	63.473105 
6483.000000	63.649225 
6482.000000	63.873147 
6481.000000	64.105486 
6480.000000	64.305329 
6479.000000	64.438295 
6478.000000	64.480209 
6477.000000	64.423751 
6476.000000	64.277243 
6475.000000	64.064598 
6474.000000	63.819766 
6473.000000	63.578391 
6472.000000	63.370990 
6471.000000	63.217043 
6470.000000	63.122868 
6469.000000	63.085103 
6468.000000	63.095140 
6467.000000	63.142228 
6466.000000	63.218116 
6465.000000	63.321161 
6464.000000	63.455200 
6463.000000	63.622665 
6462.000000	63.822221 
6461.000000	64.045667 
6460.000000	64.277195 
6459.000000	64.495182 
6458.000000	64.675784 
6457.000000	64.797925 
6456.000000	64.847755 
6455.000000	64.824604 
6454.000000	64.738512 
6453.000000	64.608693 
6452.000000	64.458775 
6451.000000	64.312052 
6450.000000	64.187932 
6449.000000	64.100527 
6448.000000	64.056324 
6447.000000	64.056134 
6446.000000	64.094066 
6445.000000	64.160227 
6444.000000	64.240360 
6443.000000	64.318537 
6442.000000	64.375400 
6441.000000	64.390778 
6440.000000	64.346933 
6439.000000	64.232397 
6438.000000	64.044284 
6437.000000	63.791370 
6436.000000	63.492727 
6435.000000	63.177061 
6434.000000	62.880158 
6433.000000	62.637734 
6432.000000	62.478184 
6431.000000	62.416815 
6430.000000	62.454032 
6429.000000	62.573981 
6428.000000	62.747740 
6427.000000	62.939381 
6426.000000	63.112473 
6425.000000	63.237977 
6424.000000	63.296985 
6423.000000	63.286352 
6422.000000	63.214731 
6421.000000	63.103842 
6420.000000	62.980914 
6419.000000	62.876057 
6418.000000	62.815141 
6417.000000	62.817478 
6416.000000	62.892341 
6415.000000	63.036322 
6414.000000	63.233160 
6413.000000	63.455104 
6412.000000	63.666605 
6411.000000	63.826990 
6410.000000	63.898324 
6409.000000	63.851666 
6408.000000	63.675284 
6407.000000	63.376736 
6406.000000	62.985253 
6405.000000	62.548542 
6404.000000	62.124013 
6403.000000	61.767148 
6402.000000	61.521768 
6401.000000	61.412739 
6400.000000	61.442184 
6399.000000	61.590433 
6398.000000	61.822676 
6397.000000	62.096810 
6396.000000	62.373447 
6395.000000	62.621927 
6394.000000	62.824416 
6393.000000	62.973189 
6392.000000	63.071060 
6391.000000	63.125538 
6390.000000	63.145804 
6389.000000	63.138914 
6388.000000	63.111352 
6387.000000	63.069009 
6386.000000	63.020038 
6385.000000	62.974953 
6384.000000	62.945318 
6383.000000	62.942028 
6382.000000	62.972307 
6381.000000	63.038301 
6380.000000	63.136553 
6379.000000	63.258457 
6378.000000	63.392043 
6377.000000	63.524770 
6376.000000	63.645482 
6375.000000	63.746595 
6374.000000	63.825130 
6373.000000	63.881874 
6372.000000	63.920474 
6371.000000	63.945126 
6370.000000	63.960814 
6369.000000	63.969111 
6368.000000	63.969707 
6367.000000	63.957667 
6366.000000	63.926339 
6365.000000	63.867831 
6364.000000	63.777041 
6363.000000	63.651967 
6362.000000	63.495874 
6361.000000	63.318967 
6360.000000	63.137674 
6359.000000	62.972831 
6358.000000	62.845826 
6357.000000	62.772989 
6356.000000	62.762165 
6355.000000	62.810468 
6354.000000	62.904953 
6353.000000	63.026237 
6352.000000	63.152074 
6351.000000	63.262081 
6350.000000	63.340711 
6349.000000	63.379430 
6348.000000	63.376283 
6347.000000	63.333439 
6346.000000	63.255953 
6345.000000	63.150644 
6344.000000	63.023400 
6343.000000	62.880158 
6342.000000	62.725186 
6341.000000	62.562894 
6340.000000	62.398290 
6339.000000	62.237739 
6338.000000	62.090420 
6337.000000	61.967396 
6336.000000	61.881756 
6335.000000	61.845731 
6334.000000	61.871170 
6333.000000	61.965751 
6332.000000	62.131142 
6331.000000	62.360024 
6330.000000	62.634563 
6329.000000	62.927222 
6328.000000	63.204622 
6327.000000	63.432478 
6326.000000	63.581395 
6325.000000	63.632512 
6324.000000	63.583207 
6323.000000	63.446021 
6322.000000	63.244676 
6321.000000	63.010096 
6320.000000	62.774896 
6319.000000	62.567877 
6318.000000	62.410998 
6317.000000	62.316107 
6316.000000	62.287735 
6315.000000	62.320303 
6314.000000	62.402057 
6313.000000	62.515020 
6312.000000	62.638545 
6311.000000	62.750339 
6310.000000	62.828803 
6309.000000	62.857055 
6308.000000	62.825036 
6307.000000	62.732529 
6306.000000	62.589359 
6305.000000	62.415051 
6304.000000	62.235641 
6303.000000	62.078166 
6302.000000	61.966776 
6301.000000	61.916708 
6300.000000	61.934447 
6299.000000	62.019181 
6298.000000	62.164926 
6297.000000	62.361788 
6296.000000	62.598562 
6295.000000	62.863874 
6294.000000	63.146066 
6293.000000	63.431096 
6292.000000	63.703918 
6291.000000	63.947534 
6290.000000	64.145970 
6289.000000	64.287090 
6288.000000	64.363837 
6287.000000	64.376473 
6286.000000	64.332604 
6285.000000	64.247679 
6284.000000	64.141058 
6283.000000	64.033532 
6282.000000	63.943362 
6281.000000	63.883757 
6280.000000	63.861513 
6279.000000	63.876366 
6278.000000	63.920998 
6277.000000	63.982534 
6276.000000	64.043354 
6275.000000	64.084959 
6274.000000	64.089322 
6273.000000	64.044809 
6272.000000	63.947796 
6271.000000	63.806319 
6270.000000	63.638734 
6269.000000	63.471221 
6268.000000	63.333153 
6267.000000	63.249254 
6266.000000	63.234686 
6265.000000	63.290143 
6264.000000	63.402581 
6263.000000	63.546895 
6262.000000	63.691806 
6261.000000	63.807439 
6260.000000	63.872027 
6259.000000	63.876295 
6258.000000	63.824081 
6257.000000	63.729810 
6256.000000	63.613462 
6255.000000	63.494610 
6254.000000	63.387227 
6253.000000	63.298130 
6252.000000	63.226890 
6251.000000	63.169050 
6250.000000	63.119196 
6249.000000	63.073420 
6248.000000	63.030862 
6247.000000	62.993288 
6246.000000	62.964296 
6245.000000	62.945938 
6244.000000	62.938833 
6243.000000	62.939238 
6242.000000	62.942767 
6241.000000	62.944293 
6240.000000	62.942624 
6239.000000	62.940573 
6238.000000	62.946772 
6237.000000	62.972593 
6236.000000	63.030791 
6235.000000	63.131046 
6234.000000	63.276791 
6233.000000	63.462901 
6232.000000	63.675117 
6231.000000	63.892817 
6230.000000	64.091372 
6229.000000	64.247560 
6228.000000	64.342808 
6227.000000	64.367270 
6226.000000	64.321780 
6225.000000	64.217567 
6224.000000	64.074254 
6223.000000	63.915634 
6222.000000	63.765001 
6221.000000	63.640761 
6220.000000	63.554310 
6219.000000	63.508105 
6218.000000	63.497900 
6217.000000	63.514232 
6216.000000	63.545250 
6215.000000	63.580179 
6214.000000	63.610553 
6213.000000	63.632822 
6212.000000	63.646245 
6211.000000	63.654375 
6210.000000	63.661551 
6209.000000	63.673329 
6208.000000	63.693499 
6207.000000	63.724446 
6206.000000	63.766837 
6205.000000	63.818502 
6204.000000	63.875746 
6203.000000	63.931417 
6202.000000	63.976383 
6201.000000	64.000725 
6200.000000	63.995862 
6199.000000	63.957142 
6198.000000	63.884949 
6197.000000	63.785409 
6196.000000	63.668584 
6195.000000	63.545727 
6194.000000	63.426423 
6193.000000	63.315987 
6192.000000	63.215589 
6191.000000	63.122630 
6190.000000	63.034105 
6189.000000	62.949347 
6188.000000	62.871837 
6187.000000	62.809014 
6186.000000	62.770557 
6185.000000	62.764239 
6184.000000	62.794089 
6183.000000	62.856507 
6182.000000	62.942481 
6181.000000	63.035821 
6180.000000	63.121962 
6179.000000	63.190793 
6178.000000	63.241505 
6177.000000	63.282084 
6176.000000	63.327455 
6175.000000	63.394331 
6174.000000	63.495421 
6173.000000	63.634300 
6172.000000	63.803386 
6171.000000	63.984751 
6170.000000	64.154911 
6169.000000	64.290261 
6168.000000	64.372801 
6167.000000	64.394140 
6166.000000	64.357519 
6165.000000	64.276051 
6164.000000	64.168882 
6163.000000	64.056038 
6162.000000	63.954949 
6161.000000	63.875794 
6160.000000	63.822221 
6159.000000	63.789200 
6158.000000	63.768196 
6157.000000	63.747024 
6156.000000	63.714575 
6155.000000	63.662528 
6154.000000	63.585591 
6153.000000	63.485312 
6152.000000	63.367795 
6151.000000	63.245368 
6150.000000	63.132953 
6149.000000	63.046884 
6148.000000	63.001346 
6147.000000	63.005256 
6146.000000	63.059616 
6145.000000	63.157129 
6144.000000	63.283419 
6143.000000	63.418912 
6142.000000	63.542985 
6141.000000	63.638758 
6140.000000	63.696002 
6139.000000	63.712716 
6138.000000	63.693189 
6137.000000	63.646674 
6136.000000	63.582229 
6135.000000	63.506841 
6134.000000	63.421940 
6133.000000	63.323664 
6132.000000	63.205242 
6131.000000	63.062047 
6130.000000	62.894415 
6129.000000	62.709069 
6128.000000	62.521052 
6127.000000	62.351346 
6126.000000	62.223291 
6125.000000	62.155723 
6124.000000	62.160038 
6123.000000	62.236189 
6122.000000	62.373352 
6121.000000	62.551498 
6120.000000	62.745571 
6119.000000	62.930059 
6118.000000	63.082766 
6117.000000	63.188314 
6116.000000	63.238811 
6115.000000	63.234472 
6114.000000	63.182330 
6113.000000	63.094735 
6112.000000	62.987184 
6111.000000	62.876319 
6110.000000	62.778949 
6109.000000	62.709903 
6108.000000	62.680578 
6107.000000	62.697982 
6106.000000	62.763643 
6105.000000	62.874484 
6104.000000	63.022446 
6103.000000	63.197445 
6102.000000	63.387537 
6101.000000	63.581466 
6100.000000	63.770174 
6099.000000	63.945341 
6098.000000	64.098739 
6097.000000	64.221906 
6096.000000	64.307475 
6095.000000	64.348316 
6094.000000	64.339566 
6093.000000	64.280462 
6092.000000	64.176273 
6091.000000	64.037537 
6090.000000	63.879561 
6089.000000	63.719153 
6088.000000	63.572025 
6087.000000	63.450932 
6086.000000	63.363623 
6085.000000	63.311004 
6084.000000	63.288354 
6083.000000	63.287186 
6082.000000	63.298463 
6081.000000	63.313293 
6080.000000	63.326478 
6079.000000	63.334989 
6078.000000	63.340759 
6077.000000	63.346791 
6076.000000	63.359260 
6075.000000	63.384270 
6074.000000	63.428092 
6073.000000	63.494610 
6072.000000	63.585257 
6071.000000	63.699293 
6070.000000	63.831639 
6069.000000	63.973212 
6068.000000	64.111924 
6067.000000	64.234995 
6066.000000	64.329791 
6065.000000	64.386200 
6064.000000	64.397954 
6063.000000	64.363598 
6062.000000	64.287209 
6061.000000	64.177513 
6060.000000	64.045643 
6059.000000	63.903570 
6058.000000	63.763332 
6057.000000	63.635802 
6056.000000	63.529205 
6055.000000	63.449501 
6054.000000	63.400864 
6053.000000	63.385510 
6052.000000	63.404083 
6051.000000	63.454365 
6050.000000	63.530635 
6049.000000	63.622975 
6048.000000	63.717699 
6047.000000	63.798451 
6046.000000	63.847637 
6045.000000	63.851261 
6044.000000	63.801598 
6043.000000	63.699960 
6042.000000	63.556528 
6041.000000	63.389945 
6040.000000	63.223791 
6039.000000	63.082122 
6038.000000	62.984728 
6037.000000	62.944841 
6036.000000	62.967252 
6035.000000	63.048124 
6034.000000	63.176321 
6033.000000	63.336539 
6032.000000	63.511705 
6031.000000	63.685512 
6030.000000	63.843989 
6029.000000	63.975262 
6028.000000	64.070558 
6027.000000	64.124941 
6026.000000	64.136767 
6025.000000	64.107561 
6024.000000	64.041256 
6023.000000	63.946652 
6022.000000	63.833165 
6021.000000	63.711452 
6020.000000	63.590145 
6019.000000	63.475966 
6018.000000	63.372516 
6017.000000	63.282036 
6016.000000	63.204669 
6015.000000	63.139724 
6014.000000	63.086438 
6013.000000	63.044381 
6012.000000	63.013315 
6011.000000	62.992715 
6010.000000	62.981295 
6009.000000	62.976980 
6008.000000	62.977480 
6007.000000	62.981176 
6006.000000	62.987399 
6005.000000	62.997770 
6004.000000	63.015460 
6003.000000	63.045430 
6002.000000	63.093543 
6001.000000	63.165020 
6000.000000	63.262391 
5999.000000	63.383626 
5998.000000	63.523125 
5997.000000	63.669633 
5996.000000	63.810110 
5995.000000	63.928294 
5994.000000	64.008498 
5993.000000	64.036846 
5992.000000	64.005041 
5991.000000	63.911557 
5990.000000	63.762617 
5989.000000	63.572716 
5988.000000	63.363337 
5987.000000	63.159537 
5986.000000	62.986111 
5985.000000	62.863802 
5984.000000	62.806034 
5983.000000	62.816119 
5982.000000	62.886857 
5981.000000	63.001418 
5980.000000	63.136935 
5979.000000	63.267707 
5978.000000	63.371157 
5977.000000	63.430213 
5976.000000	63.438200 
5975.000000	63.398647 
5974.000000	63.325715 
5973.000000	63.239717 
5972.000000	63.163590 
5971.000000	63.118600 
5970.000000	63.118553 
5969.000000	63.168382 
5968.000000	63.261675 
5967.000000	63.384270 
5966.000000	63.515853 
5965.000000	63.634896 
5964.000000	63.723397 
5963.000000	63.770699 
5962.000000	63.774991 
5961.000000	63.742256 
5960.000000	63.684725 
5959.000000	63.616991 
5958.000000	63.552713 
5957.000000	63.501453 
5956.000000	63.467121 
5955.000000	63.447928 
5954.000000	63.439297 
5953.000000	63.436317 
5952.000000	63.434958 
5951.000000	63.433909 
5950.000000	63.435006 
5949.000000	63.441681 
5948.000000	63.456773 
5947.000000	63.480567 
5946.000000	63.510084 
5945.000000	63.538718 
5944.000000	63.557338 
5943.000000	63.556766 
5942.000000	63.531255 
5941.000000	63.479280 
5940.000000	63.405013 
5939.000000	63.316178 
5938.000000	63.222885 
5937.000000	63.133978 
5936.000000	63.056039 
5935.000000	62.990856 
5934.000000	62.935042 
5933.000000	62.883281 
5932.000000	62.830972 
5931.000000	62.776374 
5930.000000	62.722158 
5929.000000	62.675428 
5928.000000	62.646245 
5927.000000	62.644934 
5926.000000	62.679815 
5925.000000	62.753939 
5924.000000	62.865376 
5923.000000	63.007450 
5922.000000	63.171482 
5921.000000	63.349199 
5920.000000	63.534212 
5919.000000	63.723683 
5918.000000	63.915205 
5917.000000	64.106678 
5916.000000	64.291024 
5915.000000	64.458012 
5914.000000	64.590787 
5913.000000	64.670753 
5912.000000	64.678764 
5911.000000	64.602780 
5910.000000	64.439725 
5909.000000	64.199519 
5908.000000	63.904213 
5907.000000	63.585662 
5906.000000	63.279986 
5905.000000	63.021445 
5904.000000	62.837362 
5903.000000	62.743687 
5902.000000	62.743258 
5901.000000	62.826561 
5900.000000	62.974715 
5899.000000	63.163709 
5898.000000	63.367629 
5897.000000	63.563394 
5896.000000	63.732123 
5895.000000	63.862156 
5894.000000	63.948702 
5893.000000	63.993930 
5892.000000	64.004874 
5891.000000	63.991308 
5890.000000	63.965535 
5889.000000	63.937258 
5888.000000	63.914299 
5887.000000	63.898491 
5886.000000	63.888478 
5885.000000	63.878130 
5884.000000	63.860082 
5883.000000	63.827347 
5882.000000	63.776183 
5881.000000	63.708019 
5880.000000	63.628911 
5879.000000	63.549685 
5878.000000	63.482856 
5877.000000	63.440823 
5876.000000	63.432812 
5875.000000	63.463878 
5874.000000	63.533735 
5873.000000	63.638377 
5872.000000	63.770365 
5871.000000	63.919782 
5870.000000	64.075112 
5869.000000	64.224362 
5868.000000	64.355897 
5867.000000	64.459252 
5866.000000	64.526414 
5865.000000	64.551782 
5864.000000	64.534282 
5863.000000	64.478850 
5862.000000	64.395523 
5861.000000	64.298939 
5860.000000	64.205193 
5859.000000	64.130663 
5858.000000	64.086961 
5857.000000	64.080452 
5856.000000	64.108753 
5855.000000	64.162564 
5854.000000	64.226174 
5853.000000	64.282202 
5852.000000	64.313817 
5851.000000	64.308261 
5850.000000	64.259696 
5849.000000	64.169931 
5848.000000	64.048671 
5847.000000	63.911437 
5846.000000	63.777065 
5845.000000	63.663887 
5844.000000	63.587689 
5843.000000	63.557982 
5842.000000	63.577175 
5841.000000	63.639330 
5840.000000	63.732028 
5839.000000	63.837909 
5838.000000	63.937306 
5837.000000	64.012122 
5836.000000	64.047718 
5835.000000	64.036798 
5834.000000	63.979220 
5833.000000	63.883447 
5832.000000	63.763856 
5831.000000	63.638949 
5830.000000	63.527441 
5829.000000	63.445234 
5828.000000	63.403177 
5827.000000	63.404679 
5826.000000	63.446450 
5825.000000	63.518667 
5824.000000	63.607907 
5823.000000	63.698959 
5822.000000	63.777399 
5821.000000	63.832044 
5820.000000	63.856315 
5819.000000	63.847947 
5818.000000	63.809108 
5817.000000	63.744258 
5816.000000	63.660335 
5815.000000	63.566398 
5814.000000	63.474130 
5813.000000	63.396811 
5812.000000	63.348507 
5811.000000	63.343119 
5810.000000	63.390183 
5809.000000	63.492989 
5808.000000	63.645243 
5807.000000	63.830637 
5806.000000	64.024949 
5805.000000	64.200115 
5804.000000	64.329671 
5803.000000	64.394283 
5802.000000	64.385318 
5801.000000	64.306497 
5800.000000	64.172124 
5799.000000	64.004445 
5798.000000	63.826298 
5797.000000	63.656449 
5796.000000	63.507151 
5795.000000	63.383603 
5794.000000	63.286972 
5793.000000	63.217568 
5792.000000	63.177490 
5791.000000	63.171625 
5790.000000	63.206553 
5789.000000	63.287615 
5788.000000	63.413405 
5787.000000	63.574409 
5786.000000	63.752365 
5785.000000	63.923311 
5784.000000	64.062070 
5783.000000	64.147830 
5782.000000	64.168381 
5781.000000	64.123749 
5780.000000	64.025878 
5779.000000	63.896465 
5778.000000	63.761281 
5777.000000	63.645792 
5776.000000	63.569474 
5775.000000	63.543367 
5774.000000	63.570499 
5773.000000	63.645052 
5772.000000	63.756155 
5771.000000	63.888502 
5770.000000	64.025783 
5769.000000	64.151573 
5768.000000	64.251613 
5767.000000	64.314484 
5766.000000	64.332461 
5765.000000	64.303040 
5764.000000	64.228606 
5763.000000	64.115357 
5762.000000	63.972544 
5761.000000	63.811659 
5760.000000	63.645648 
5759.000000	63.488626 
5758.000000	63.354158 
5757.000000	63.254523 
5756.000000	63.198399 
5755.000000	63.190436 
5754.000000	63.229227 
5753.000000	63.306355 
5752.000000	63.408279 
5751.000000	63.517546 
5750.000000	63.617420 
5749.000000	63.692593 
5748.000000	63.735198 
5747.000000	63.744807 
5746.000000	63.729548 
5745.000000	63.703608 
5744.000000	63.682246 
5743.000000	63.677358 
5742.000000	63.694214 
5741.000000	63.730382 
5740.000000	63.777446 
5739.000000	63.824033 
5738.000000	63.859367 
5737.000000	63.876318 
5736.000000	63.872504 
5735.000000	63.850283 
5734.000000	63.814687 
5733.000000	63.771915 
5732.000000	63.727283 
5731.000000	63.684272 
5730.000000	63.644957 
5729.000000	63.609719 
5728.000000	63.578057 
5727.000000	63.549160 
5726.000000	63.522863 
5725.000000	63.499999 
5724.000000	63.481259 
5723.000000	63.468718 
5722.000000	63.463830 
5721.000000	63.469290 
5720.000000	63.488221 
5719.000000	63.523316 
5718.000000	63.576006 
5717.000000	63.644504 
5716.000000	63.723516 
5715.000000	63.803839 
5714.000000	63.873696 
5713.000000	63.922333 
5712.000000	63.942241 
5711.000000	63.932299 
5710.000000	63.897848 
5709.000000	63.849020 
5708.000000	63.797783 
5707.000000	63.754677 
5706.000000	63.726091 
5705.000000	63.712501 
5704.000000	63.709044 
5703.000000	63.708162 
5702.000000	63.701820 
5701.000000	63.684749 
5700.000000	63.655591 
5699.000000	63.617396 
5698.000000	63.576579 
5697.000000	63.540053 
5696.000000	63.514018 
5695.000000	63.500642 
5694.000000	63.499402 
5693.000000	63.507318 
5692.000000	63.520503 
5691.000000	63.535690 
5690.000000	63.550496 
5689.000000	63.563871 
5688.000000	63.575315 
5687.000000	63.584256 
5686.000000	63.590359 
5685.000000	63.593554 
5684.000000	63.594889 
5683.000000	63.596987 
5682.000000	63.604521 
5681.000000	63.623285 
5680.000000	63.658881 
5679.000000	63.714528 
5678.000000	63.790416 
5677.000000	63.881683 
5676.000000	63.979625 
5675.000000	64.071869 
5674.000000	64.145040 
5673.000000	64.186859 
5672.000000	64.189934 
5671.000000	64.152097 
5670.000000	64.077544 
5669.000000	63.975071 
5668.000000	63.856792 
5667.000000	63.735175 
5666.000000	63.620924 
5665.000000	63.522195 
5664.000000	63.444042 
5663.000000	63.389372 
5662.000000	63.359570 
5661.000000	63.355374 
5660.000000	63.377046 
5659.000000	63.423609 
5658.000000	63.492107 
5657.000000	63.575983 
5656.000000	63.665223 
5655.000000	63.747191 
5654.000000	63.808989 
5653.000000	63.839554 
5652.000000	63.832855 
5651.000000	63.790345 
5650.000000	63.720774 
5649.000000	63.638448 
5648.000000	63.559579 
5647.000000	63.499045 
5646.000000	63.466215 
5645.000000	63.462948 
5644.000000	63.483977 
5643.000000	63.519334 
5642.000000	63.557362 
5641.000000	63.588714 
5640.000000	63.608360 
5639.000000	63.616180 
5638.000000	63.616800 
5637.000000	63.617157 
5636.000000	63.623833 
5635.000000	63.639974 
5634.000000	63.665556 
5633.000000	63.697266 
5632.000000	63.729023 
5631.000000	63.753652 
5630.000000	63.765215 
5629.000000	63.760089 
5628.000000	63.737130 
5627.000000	63.696932 
5626.000000	63.640761 
5625.000000	63.569593 
5624.000000	63.484406 
5623.000000	63.386273 
5622.000000	63.276529 
5621.000000	63.158273 
5620.000000	63.036727 
5619.000000	62.920093 
5618.000000	62.817645 
5617.000000	62.739682 
5616.000000	62.694644 
5615.000000	62.688827 
5614.000000	62.723827 
5613.000000	62.797355 
5612.000000	62.901949 
5611.000000	63.028216 
5610.000000	63.165354 
5609.000000	63.304471 
5608.000000	63.439035 
5607.000000	63.565993 
5606.000000	63.684773 
5605.000000	63.795495 
5604.000000	63.897061 
5603.000000	63.986301 
5602.000000	64.057207 
5601.000000	64.101147 
5600.000000	64.108324 
5599.000000	64.071989 
5598.000000	63.989949 
5597.000000	63.866877 
5596.000000	63.713526 
5595.000000	63.546395 
5594.000000	63.383936 
5593.000000	63.242936 
5592.000000	63.135981 
5591.000000	63.068675 
5590.000000	63.041329 
5589.000000	63.049960 
5588.000000	63.089275 
5587.000000	63.154053 
5586.000000	63.240766 
5585.000000	63.346815 
5584.000000	63.469791 
5583.000000	63.604855 
5582.000000	63.744854 
5581.000000	63.879728 
5580.000000	63.998436 
5579.000000	64.090442 
5578.000000	64.150762 
5577.000000	64.181566 
5576.000000	64.192128 
5575.000000	64.196300 
5574.000000	64.209890 
5573.000000	64.245295 
5572.000000	64.308738 
5571.000000	64.396858 
5570.000000	64.498829 
5569.000000	64.596676 
5568.000000	64.671993 
5567.000000	64.707779 
5566.000000	64.692711 
5565.000000	64.622926 
5564.000000	64.502501 
5563.000000	64.343237 
5562.000000	64.161610 
5561.000000	63.977265 
5560.000000	63.809776 
5559.000000	63.675642 
5558.000000	63.586950 
5557.000000	63.547968 
5556.000000	63.556075 
5555.000000	63.599920 
5554.000000	63.662123 
5553.000000	63.721919 
5552.000000	63.759136 
5551.000000	63.759493 
5550.000000	63.717555 
5549.000000	63.638615 
5548.000000	63.537168 
5547.000000	63.434004 
5546.000000	63.350749 
5545.000000	63.304257 
5544.000000	63.302707 
5543.000000	63.344812 
5542.000000	63.420128 
5541.000000	63.512659 
5540.000000	63.604211 
5539.000000	63.679718 
5538.000000	63.728904 
5537.000000	63.747167 
5536.000000	63.735151 
5535.000000	63.696122 
5534.000000	63.635945 
5533.000000	63.560199 
5532.000000	63.476204 
5531.000000	63.391590 
5530.000000	63.316988 
5529.000000	63.265824 
5528.000000	63.251829 
5527.000000	63.286280 
5526.000000	63.374996 
5525.000000	63.516163 
5524.000000	63.698792 
5523.000000	63.903880 
5522.000000	64.107894 
5521.000000	64.286923 
5520.000000	64.421105 
5519.000000	64.497351 
5518.000000	64.511990 
5517.000000	64.468979 
5516.000000	64.377379 
5515.000000	64.248371 
5514.000000	64.093518 
5513.000000	63.923478 
5512.000000	63.747930 
5511.000000	63.576555 
5510.000000	63.420581 
5509.000000	63.292503 
5508.000000	63.205766 
5507.000000	63.171911 
5506.000000	63.196587 
5505.000000	63.278985 
5504.000000	63.409709 
5503.000000	63.572955 
5502.000000	63.747239 
5501.000000	63.911604 
5500.000000	64.048695 
5499.000000	64.148545 
5498.000000	64.209342 
5497.000000	64.237475 
5496.000000	64.244937 
5495.000000	64.245653 
5494.000000	64.251804 
5493.000000	64.272117 
5492.000000	64.309978 
5491.000000	64.364576 
5490.000000	64.430737 
5489.000000	64.502358 
5488.000000	64.572644 
5487.000000	64.635968 
5486.000000	64.687371 
5485.000000	64.723157 
5484.000000	64.740324 
5483.000000	64.737534 
5482.000000	64.714050 
5481.000000	64.669942 
5480.000000	64.606094 
5479.000000	64.526295 
5478.000000	64.434313 
5477.000000	64.334726 
5476.000000	64.231038 
5475.000000	64.126157 
5474.000000	64.021515 
5473.000000	63.917803 
5472.000000	63.815188 
5471.000000	63.714027 
5470.000000	63.616681 
5469.000000	63.527822 
5468.000000	63.452720 
5467.000000	63.396525 
5466.000000	63.363242 
5465.000000	63.354730 
5464.000000	63.368868 
5463.000000	63.400721 
5462.000000	63.443040 
5461.000000	63.488864 
5460.000000	63.531494 
5459.000000	63.567352 
5458.000000	63.596510 
5457.000000	63.622689 
5456.000000	63.650584 
5455.000000	63.685154 
5454.000000	63.729739 
5453.000000	63.784885 
5452.000000	63.848400 
5451.000000	63.914918 
5450.000000	63.977646 
5449.000000	64.029121 
5448.000000	64.063882 
5447.000000	64.077758 
5446.000000	64.068651 
5445.000000	64.036870 
5444.000000	63.985490 
5443.000000	63.919210 
5442.000000	63.843750 
5441.000000	63.766479 
5440.000000	63.694763 
5439.000000	63.634943 
5438.000000	63.590216 
5437.000000	63.560461 
5436.000000	63.540983 
5435.000000	63.522791 
5434.000000	63.494634 
5433.000000	63.444519 
5432.000000	63.364267 
5431.000000	63.251304 
5430.000000	63.111543 
5429.000000	62.957620 
5428.000000	62.808084 
5427.000000	62.682628 
5426.000000	62.598538 
5425.000000	62.565803 
5424.000000	62.586331 
5423.000000	62.652826 
5422.000000	62.751865 
5421.000000	62.866568 
5420.000000	62.981343 
5419.000000	63.084459 
5418.000000	63.170194 
5417.000000	63.238239 
5416.000000	63.292145 
5415.000000	63.336348 
5414.000000	63.373923 
5413.000000	63.404536 
5412.000000	63.424324 
5411.000000	63.426828 
5410.000000	63.406372 
5409.000000	63.359689 
5408.000000	63.286995 
5407.000000	63.193321 
5406.000000	63.088297 
5405.000000	62.984824 
5404.000000	62.896037 
5403.000000	62.833452 
5402.000000	62.805008 
5401.000000	62.813544 
5400.000000	62.856101 
5399.000000	62.925362 
5398.000000	63.010573 
5397.000000	63.100838 
5396.000000	63.186573 
5395.000000	63.261699 
5394.000000	63.324213 
5393.000000	63.375139 
5392.000000	63.416695 
5391.000000	63.451242 
5390.000000	63.479733 
5389.000000	63.501334 
5388.000000	63.514137 
5387.000000	63.515782 
5386.000000	63.505315 
5385.000000	63.484954 
5384.000000	63.460516 
5383.000000	63.440418 
5382.000000	63.434195 
5381.000000	63.450741 
5380.000000	63.495731 
5379.000000	63.569593 
5378.000000	63.667035 
5377.000000	63.778090 
5376.000000	63.889670 
5375.000000	63.988518 
5374.000000	64.063143 
5373.000000	64.105677 
5372.000000	64.113807 
5371.000000	64.090323 
5370.000000	64.043831 
5369.000000	63.987016 
5368.000000	63.934230 
5367.000000	63.899087 
5366.000000	63.891530 
5365.000000	63.916707 
5364.000000	63.973283 
5363.000000	64.054059 
5362.000000	64.147090 
5361.000000	64.238262 
5360.000000	64.313697 
5359.000000	64.362192 
5358.000000	64.376425 
5357.000000	64.353752 
5356.000000	64.295315 
5355.000000	64.205694 
5354.000000	64.091849 
5353.000000	63.962388 
5352.000000	63.827085 
5351.000000	63.696098 
5350.000000	63.579988 
5349.000000	63.487792 
5348.000000	63.426828 
5347.000000	63.399887 
5346.000000	63.404893 
5345.000000	63.433957 
5344.000000	63.473653 
5343.000000	63.508892 
5342.000000	63.524389 
5341.000000	63.511228 
5340.000000	63.467860 
5339.000000	63.403058 
5338.000000	63.333320 
5337.000000	63.279819 
5336.000000	63.262295 
5335.000000	63.293480 
5334.000000	63.374972 
5333.000000	63.495492 
5332.000000	63.633298 
5331.000000	63.761067 
5330.000000	63.853120 
5329.000000	63.891553 
5328.000000	63.871431 
5327.000000	63.803052 
5326.000000	63.708162 
5325.000000	63.613295 
5324.000000	63.542556 
5323.000000	63.510537 
5322.000000	63.520169 
5321.000000	63.561320 
5320.000000	63.618230 
5319.000000	63.675212 
5318.000000	63.723683 
5317.000000	63.766503 
5316.000000	63.815689 
5315.000000	63.887715 
5314.000000	63.996052 
5313.000000	64.144444 
5312.000000	64.323282 
5311.000000	64.509582 
5310.000000	64.673113 
5309.000000	64.784121 
5308.000000	64.822483 
5307.000000	64.783382 
5306.000000	64.679360 
5305.000000	64.535903 
5304.000000	64.383101 
5303.000000	64.245820 
5302.000000	64.136624 
5301.000000	64.051818 
5300.000000	63.974928 
5299.000000	63.881468 
5298.000000	63.749623 
5297.000000	63.566851 
5296.000000	63.333392 
5295.000000	63.065457 
5294.000000	62.790083 
5293.000000	62.541794 
5292.000000	62.350440 
5291.000000	62.239336 
5290.000000	62.218904 
5289.000000	62.286424 
5288.000000	62.426996 
5287.000000	62.616682 
5286.000000	62.826299 
5285.000000	63.028597 
5284.000000	63.202571 
5283.000000	63.334774 
5282.000000	63.418507 
5281.000000	63.456153 
5280.000000	63.456106 
5279.000000	63.429784 
5278.000000	63.388013 
5277.000000	63.339138 
5276.000000	63.288140 
5275.000000	63.235354 
5274.000000	63.180875 
5273.000000	63.126707 
5272.000000	63.082599 
5271.000000	63.063430 
5270.000000	63.091969 
5269.000000	63.193249 
5268.000000	63.389611 
5267.000000	63.693594 
5266.000000	64.100766 
5265.000000	64.588999 
5264.000000	65.115404 
5263.000000	65.626740 
5262.000000	66.060900 
5261.000000	66.360211 
5260.000000	66.479372 
5259.000000	66.397404 
5258.000000	66.118383 
5257.000000	65.672087 
5256.000000	65.109586 
5255.000000	64.495229 
5254.000000	63.894724 
5253.000000	63.364744 
5252.000000	62.945747 
5251.000000	62.656497 
5250.000000	62.492918 
5249.000000	62.430810 
5248.000000	62.432193 
5247.000000	62.454271 
5246.000000	62.454795 
5245.000000	62.403464 
5244.000000	62.280845 
5243.000000	62.088012 
5242.000000	61.839509 
5241.000000	61.566090 
5240.000000	61.303091 
5239.000000	61.087775 
5238.000000	60.950613 
5237.000000	60.910511 
5236.000000	60.970926 
5235.000000	61.120462 
5234.000000	61.335062 
5233.000000	61.584901 
5232.000000	61.838102 
5231.000000	62.072253 
5230.000000	62.276554 
5229.000000	62.454104 
5228.000000	62.616825 
5227.000000	62.782549 
5226.000000	62.967181 
5225.000000	63.179707 
5224.000000	63.418149 
5223.000000	63.669610 
5222.000000	63.912534 
5221.000000	64.125776 
5220.000000	64.291715 
5219.000000	64.400386 
5218.000000	64.450383 
5217.000000	64.450144 
5216.000000	64.414358 
5215.000000	64.359378 
5214.000000	64.300847 
5213.000000	64.251732 
5212.000000	64.221310 
5211.000000	64.215636 
5210.000000	64.237737 
5209.000000	64.291644 
5208.000000	64.377927 
5207.000000	64.494371 
5206.000000	64.632773 
5205.000000	64.779853 
5204.000000	64.916253 
5203.000000	65.019845 
5202.000000	65.067911 
5201.000000	65.041732 
5200.000000	64.931273 
5199.000000	64.738392 
5198.000000	64.475107 
5197.000000	64.162087 
5196.000000	63.826894 
5195.000000	63.499522 
5194.000000	63.206148 
5193.000000	62.966799 
5192.000000	62.793493 
5191.000000	62.691402 
5190.000000	62.657213 
5189.000000	62.684845 
5188.000000	62.766599 
5187.000000	62.896847 
5186.000000	63.067984 
5185.000000	63.274025 
5184.000000	63.506293 
5183.000000	63.754868 
5182.000000	64.005875 
5181.000000	64.243769 
5180.000000	64.451980 
5179.000000	64.615702 
5178.000000	64.725637 
5177.000000	64.776492 
5176.000000	64.769148 
5175.000000	64.707875 
5174.000000	64.600920 
5173.000000	64.456105 
5172.000000	64.280819 
5171.000000	64.081931 
5170.000000	63.866829 
5169.000000	63.644909 
5168.000000	63.428282 
5167.000000	63.232111 
5166.000000	63.072395 
5165.000000	62.962150 
5164.000000	62.908649 
5163.000000	62.910342 
5162.000000	62.957787 
5161.000000	63.032984 
5160.000000	63.115954 
5159.000000	63.186788 
5158.000000	63.233160 
5157.000000	63.250660 
5156.000000	63.245749 
5155.000000	63.231086 
5154.000000	63.223862 
5153.000000	63.239812 
5152.000000	63.289570 
5151.000000	63.375329 
5150.000000	63.491630 
5149.000000	63.627648 
5148.000000	63.769078 
5147.000000	63.902020 
5146.000000	64.014720 
5145.000000	64.099502 
5144.000000	64.152169 
5143.000000	64.171695 
5142.000000	64.158916 
5141.000000	64.115524 
5140.000000	64.044976 
5139.000000	63.951253 
5138.000000	63.839673 
5137.000000	63.716101 
5136.000000	63.588261 
5135.000000	63.464641 
5134.000000	63.353037 
5133.000000	63.261151 
5132.000000	63.195013 
5131.000000	63.159966 
5130.000000	63.159441 
5129.000000	63.195157 
5128.000000	63.266110 
5127.000000	63.367915 
5126.000000	63.491940 
5125.000000	63.626050 
5124.000000	63.754940 
5123.000000	63.863754 
5122.000000	63.940024 
5121.000000	63.976955 
5120.000000	63.974261 
5119.000000	63.938021 
5118.000000	63.878607 
5117.000000	63.807535 
5116.000000	63.734269 
5115.000000	63.664340 
5114.000000	63.598251 
5113.000000	63.532614 
5112.000000	63.462114 
5111.000000	63.382530 
5110.000000	63.293242 
5109.000000	63.198399 
5108.000000	63.107156 
5107.000000	63.030123 
5106.000000	62.978696 
5105.000000	62.960076 
5104.000000	62.978005 
5103.000000	63.030481 
5102.000000	63.112163 
5101.000000	63.214993 
5100.000000	63.330411 
5099.000000	63.450002 
5098.000000	63.566589 
5097.000000	63.674330 
5096.000000	63.768506 
5095.000000	63.845109 
5094.000000	63.900732 
5093.000000	63.932752 
5092.000000	63.939762 
5091.000000	63.922286 
5090.000000	63.883185 
5089.000000	63.828158 
5088.000000	63.765048 
5087.000000	63.703060 
5086.000000	63.651633 
5085.000000	63.618540 
5084.000000	63.608527 
5083.000000	63.622140 
5082.000000	63.655877 
5081.000000	63.702559 
5080.000000	63.752317 
5079.000000	63.794922 
5078.000000	63.821268 
5077.000000	63.826298 
5076.000000	63.809275 
5075.000000	63.775229 
5074.000000	63.732957 
5073.000000	63.693881 
5072.000000	63.669133 
5071.000000	63.667249 
5070.000000	63.692021 
5069.000000	63.742494 
5068.000000	63.813662 
5067.000000	63.897514 
5066.000000	63.984704 
5065.000000	64.066839 
5064.000000	64.137649 
5063.000000	64.193320 
5062.000000	64.232134 
5061.000000	64.253854 
5060.000000	64.258790 
5059.000000	64.247679 
5058.000000	64.221262 
5057.000000	64.180541 
5056.000000	64.126920 
5055.000000	64.063978 
5054.000000	63.996219 
5053.000000	63.929200 
5052.000000	63.868284 
5051.000000	63.817954 
5050.000000	63.780975 
5049.000000	63.758039 
5048.000000	63.747930 
5047.000000	63.747382 
5046.000000	63.752508 
5045.000000	63.759517 
5044.000000	63.765764 
5043.000000	63.769483 
5042.000000	63.770365 
5041.000000	63.769054 
5040.000000	63.767004 
5039.000000	63.765478 
5038.000000	63.766074 
5037.000000	63.770103 
5036.000000	63.778829 
5035.000000	63.793253 
5034.000000	63.814711 
5033.000000	63.844585 
5032.000000	63.883972 
5031.000000	63.932847 
5030.000000	63.990378 
5029.000000	64.054131 
5028.000000	64.120483 
5027.000000	64.184331 
5026.000000	64.239835 
5025.000000	64.280986 
5024.000000	64.303326 
5023.000000	64.304327 
5022.000000	64.284110 
5021.000000	64.245581 
5020.000000	64.194488 
5019.000000	64.137792 
5018.000000	64.082765 
5017.000000	64.035058 
5016.000000	63.998317 
5015.000000	63.973355 
5014.000000	63.958883 
5013.000000	63.951683 
5012.000000	63.947749 
5011.000000	63.943672 
5010.000000	63.937520 
5009.000000	63.928914 
5008.000000	63.919043 
5007.000000	63.910245 
5006.000000	63.905501 
5005.000000	63.907241 
5004.000000	63.916945 
5003.000000	63.934683 
5002.000000	63.959240 
5001.000000	63.988256 
5000.000000	64.018487 
4999.000000	64.047145 
4998.000000	64.071631 
4997.000000	64.089941 
4996.000000	64.100599 
4995.000000	64.103269 
4994.000000	64.097762 
4993.000000	64.084362 
4992.000000	64.063000 
4991.000000	64.033794 
4990.000000	63.996648 
4989.000000	63.951945 
4988.000000	63.900136 
4987.000000	63.841986 
4986.000000	63.779067 
4985.000000	63.713979 
4984.000000	63.649725 
4983.000000	63.589429 
4982.000000	63.536548 
4981.000000	63.494396 
4980.000000	63.465738 
4979.000000	63.452339 
4978.000000	63.454866 
4977.000000	63.472175 
4976.000000	63.501167 
4975.000000	63.536739 
4974.000000	63.572311 
4973.000000	63.601112 
4972.000000	63.616752 
4971.000000	63.615179 
4970.000000	63.594603 
4969.000000	63.556528 
4968.000000	63.505148 
4967.000000	63.446855 
4966.000000	63.388729 
4965.000000	63.337731 
4964.000000	63.299536 
4963.000000	63.278245 
4962.000000	63.275742 
4961.000000	63.292193 
4960.000000	63.326382 
4959.000000	63.375949 
4958.000000	63.437724 
4957.000000	63.507890 
4956.000000	63.582205 
4955.000000	63.656377 
4954.000000	63.726305 
4953.000000	63.788819 
4952.000000	63.841843 
4951.000000	63.885188 
4950.000000	63.919687 
4949.000000	63.947200 
4948.000000	63.969111 
4947.000000	63.986706 
4946.000000	63.999891 
4945.000000	64.007973 
4944.000000	64.009332 
4943.000000	64.003157 
4942.000000	63.989090 
4941.000000	63.968586 
4940.000000	63.943719 
4939.000000	63.917732 
4938.000000	63.893127 
4937.000000	63.871335 
4936.000000	63.851904 
4935.000000	63.833093 
4934.000000	63.812255 
4933.000000	63.786911 
4932.000000	63.755965 
4931.000000	63.720226 
4930.000000	63.682246 
4929.000000	63.645720 
4928.000000	63.614034 
4927.000000	63.589286 
4926.000000	63.571882 
4925.000000	63.560628 
4924.000000	63.552808 
4923.000000	63.545513 
4922.000000	63.536787 
4921.000000	63.526296 
4920.000000	63.515400 
4919.000000	63.506960 
4918.000000	63.503718 
4917.000000	63.508176 
4916.000000	63.520884 
4915.000000	63.541150 
4914.000000	63.566398 
4913.000000	63.593602 
4912.000000	63.619995 
4911.000000	63.643550 
4910.000000	63.663816 
4909.000000	63.681149 
4908.000000	63.696455 
4907.000000	63.710355 
4906.000000	63.722634 
4905.000000	63.732218 
4904.000000	63.737297 
4903.000000	63.736009 
4902.000000	63.727116 
4901.000000	63.710689 
4900.000000	63.688516 
4899.000000	63.664102 
4898.000000	63.642311 
4897.000000	63.628149 
4896.000000	63.626456 
4895.000000	63.640475 
4894.000000	63.671851 
4893.000000	63.720297 
4892.000000	63.783645 
4891.000000	63.858437 
4890.000000	63.939714 
4889.000000	64.022088 
4888.000000	64.099192 
4887.000000	64.164876 
4886.000000	64.213585 
4885.000000	64.240980 
4884.000000	64.244747 
4883.000000	64.225411 
4882.000000	64.186143 
4881.000000	64.132976 
4880.000000	64.073228 
4879.000000	64.014577 
4878.000000	63.962912 
4877.000000	63.921570 
4876.000000	63.890194 
4875.000000	63.865423 
4874.000000	63.841724 
4873.000000	63.813567 
4872.000000	63.777446 
4871.000000	63.733673 
4870.000000	63.686323 
4869.000000	63.642477 
4868.000000	63.610076 
4867.000000	63.595724 
4866.000000	63.602352 
4865.000000	63.628339 
4864.000000	63.667249 
4863.000000	63.709735 
4862.000000	63.745498 
4861.000000	63.766098 
4860.000000	63.766813 
4859.000000	63.747763 
4858.000000	63.713026 
4857.000000	63.670158 
4856.000000	63.627719 
4855.000000	63.593411 
4854.000000	63.572120 
4853.000000	63.565087 
4852.000000	63.570141 
4851.000000	63.582301 
4850.000000	63.595438 
4849.000000	63.603138 
4848.000000	63.600301 
4847.000000	63.583803 
4846.000000	63.553452 
4845.000000	63.511610 
4844.000000	63.463258 
4843.000000	63.415288 
4842.000000	63.375520 
4841.000000	63.351202 
4840.000000	63.347911 
4839.000000	63.368487 
4838.000000	63.412165 
4837.000000	63.474678 
4836.000000	63.548731 
4835.000000	63.625144 
4834.000000	63.694596 
4833.000000	63.748979 
4832.000000	63.783192 
4831.000000	63.795471 
4830.000000	63.788008 
4829.000000	63.766050 
4828.000000	63.736629 
4827.000000	63.707089 
4826.000000	63.682913 
4825.000000	63.667201 
4824.000000	63.659787 
4823.000000	63.658332 
4822.000000	63.658905 
4821.000000	63.657641 
4820.000000	63.651847 
4819.000000	63.641214 
4818.000000	63.627672 
4817.000000	63.614749 
4816.000000	63.606667 
4815.000000	63.606619 
4814.000000	63.615775 
4813.000000	63.632440 
4812.000000	63.652682 
4811.000000	63.671064 
4810.000000	63.682055 
4809.000000	63.681602 
4808.000000	63.668012 
4807.000000	63.642716 
4806.000000	63.609838 
4805.000000	63.575053 
4804.000000	63.543891 
4803.000000	63.520717 
4802.000000	63.507914 
4801.000000	63.505101 
4800.000000	63.509702 
4799.000000	63.517618 
4798.000000	63.524413 
4797.000000	63.526701 
4796.000000	63.522911 
4795.000000	63.514018 
4794.000000	63.502907 
4793.000000	63.494038 
4792.000000	63.491940 
4791.000000	63.500332 
4790.000000	63.521075 
4789.000000	63.553571 
4788.000000	63.594722 
4787.000000	63.639640 
4786.000000	63.682556 
4785.000000	63.718175 
4784.000000	63.742351 
4783.000000	63.752794 
4782.000000	63.749241 
4781.000000	63.733458 
4780.000000	63.708305 
4779.000000	63.677000 
4778.000000	63.642835 
4777.000000	63.608622 
4776.000000	63.577103 
4775.000000	63.550996 
4774.000000	63.533043 
4773.000000	63.526082 
4772.000000	63.531827 
4771.000000	63.550376 
4770.000000	63.579535 
4769.000000	63.614988 
4768.000000	63.650345 
4767.000000	63.678121 
4766.000000	63.691520 
4765.000000	63.685894 
4764.000000	63.659954 
4763.000000	63.616037 
4762.000000	63.560032 
4761.000000	63.500022 
4760.000000	63.444614 
4759.000000	63.401699 
4758.000000	63.376426 
4757.000000	63.370847 
4756.000000	63.384413 
4755.000000	63.413786 
4754.000000	63.454222 
4753.000000	63.499975 
4752.000000	63.545370 
4751.000000	63.585662 
4750.000000	63.616490 
4749.000000	63.635849 
4748.000000	63.643622 
4747.000000	63.642382 
4746.000000	63.636255 
4745.000000	63.630843 
4744.000000	63.631844 
4743.000000	63.643741 
4742.000000	63.668870 
4741.000000	63.707137 
4740.000000	63.755917 
4739.000000	63.810658 
4738.000000	63.865613 
4737.000000	63.914823 
4736.000000	63.952994 
4735.000000	63.976454 
4734.000000	63.983345 
4733.000000	63.973450 
4732.000000	63.948035 
4731.000000	63.910293 
4730.000000	63.864278 
4729.000000	63.814282 
4728.000000	63.764286 
4727.000000	63.718867 
4726.000000	63.681268 
4725.000000	63.653445 
4724.000000	63.635277 
4723.000000	63.625025 
4722.000000	63.619303 
4721.000000	63.614010 
4720.000000	63.604736 
4719.000000	63.587331 
4718.000000	63.559103 
4717.000000	63.519263 
4716.000000	63.468885 
4715.000000	63.410496 
4714.000000	63.348603 
4713.000000	63.289117 
4712.000000	63.238239 
4711.000000	63.201904 
4710.000000	63.184881 
4709.000000	63.190793 
4708.000000	63.220643 
4707.000000	63.273906 
4706.000000	63.348460 
4705.000000	63.441514 
4704.000000	63.549351 
4703.000000	63.667774 
4702.000000	63.792037 
4701.000000	63.916730 
4700.000000	64.035987 
4699.000000	64.143395 
4698.000000	64.232683 
4697.000000	64.298152 
4696.000000	64.336562 
4695.000000	64.346385 
4694.000000	64.329075 
4693.000000	64.288020 
4692.000000	64.229249 
4691.000000	64.158678 
4690.000000	64.082002 
4689.000000	64.003276 
4688.000000	63.925266 
4687.000000	63.849091 
4686.000000	63.775134 
4685.000000	63.703846 
4684.000000	63.636541 
4683.000000	63.575410 
4682.000000	63.523650 
4681.000000	63.484239 
4680.000000	63.460016 
4679.000000	63.452911 
4678.000000	63.463830 
4677.000000	63.491344 
4676.000000	63.532567 
4675.000000	63.583159 
4674.000000	63.638234 
4673.000000	63.691949 
4672.000000	63.739037 
4671.000000	63.775730 
4670.000000	63.799905 
4669.000000	63.811016 
4668.000000	63.810181 
4667.000000	63.799858 
4666.000000	63.783144 
4665.000000	63.763022 
4664.000000	63.741946 
4663.000000	63.721728 
4662.000000	63.703608 
4661.000000	63.688683 
4660.000000	63.677644 
4659.000000	63.670611 
4658.000000	63.667678 
4657.000000	63.668370 
4656.000000	63.670730 
4655.000000	63.670969 
4654.000000	63.664293 
4653.000000	63.645601 
4652.000000	63.610053 
4651.000000	63.554954 
4650.000000	63.480806 
4649.000000	63.391804 
4648.000000	63.295173 
4647.000000	63.200712 
4646.000000	63.117957 
4645.000000	63.055253 
4644.000000	63.017773 
4643.000000	63.006949 
4642.000000	63.019537 
4641.000000	63.049840 
4640.000000	63.090324 
4639.000000	63.134384 
4638.000000	63.176631 
4637.000000	63.214778 
4636.000000	63.248944 
4635.000000	63.281464 
4634.000000	63.315010 
4633.000000	63.351845 
4632.000000	63.392329 
4631.000000	63.435149 
4630.000000	63.477492 
4629.000000	63.515686 
4628.000000	63.546466 
4627.000000	63.567924 
4626.000000	63.579821 
4625.000000	63.583683 
4624.000000	63.581681 
4623.000000	63.576483 
4622.000000	63.569569 
4621.000000	63.561105 
4620.000000	63.549590 
4619.000000	63.533163 
4618.000000	63.510131 
4617.000000	63.480043 
4616.000000	63.444471 
4615.000000	63.407492 
4614.000000	63.374662 
4613.000000	63.351440 
4612.000000	63.342380 
4611.000000	63.349819 
4610.000000	63.373327 
4609.000000	63.409924 
4608.000000	63.454699 
4607.000000	63.501691 
4606.000000	63.545560 
4605.000000	63.582444 
4604.000000	63.610005 
4603.000000	63.627266 
4602.000000	63.634371 
4601.000000	63.632273 
4600.000000	63.621997 
4599.000000	63.604831 
4598.000000	63.582777 
4597.000000	63.558530 
4596.000000	63.535594 
4595.000000	63.517665 
4594.000000	63.508486 
4593.000000	63.510847 
4592.000000	63.525485 
4591.000000	63.551473 
4590.000000	63.586306 
4589.000000	63.626623 
4588.000000	63.668918 
4587.000000	63.710141 
4586.000000	63.748073 
4585.000000	63.781213 
4584.000000	63.808941 
4583.000000	63.829994 
4582.000000	63.842606 
4581.000000	63.844323 
4580.000000	63.832879 
4579.000000	63.806819 
4578.000000	63.766384 
4577.000000	63.714051 
4576.000000	63.654518 
4575.000000	63.594269 
4574.000000	63.540244 
4573.000000	63.498353 
4572.000000	63.472008 
4571.000000	63.461971 
4570.000000	63.465690 
4569.000000	63.478159 
4568.000000	63.492465 
4567.000000	63.501381 
4566.000000	63.498735 
4565.000000	63.479900 
4564.000000	63.443851 
4563.000000	63.392329 
4562.000000	63.331246 
4561.000000	63.268518 
4560.000000	63.214230 
4559.000000	63.178324 
4558.000000	63.169121 
4557.000000	63.191366 
4556.000000	63.244628 
4555.000000	63.323402 
4554.000000	63.417124 
4553.000000	63.512325 
4552.000000	63.595151 
4551.000000	63.654065 
4550.000000	63.682174 
4549.000000	63.678383 
4548.000000	63.647413 
4547.000000	63.598108 
4546.000000	63.541221 
4545.000000	63.486433 
4544.000000	63.440299 
4543.000000	63.404870 
4542.000000	63.378834 
4541.000000	63.357949 
4540.000000	63.337564 
4539.000000	63.314008 
4538.000000	63.286304 
4537.000000	63.256239 
4536.000000	63.227033 
4535.000000	63.203096 
4534.000000	63.187336 
4533.000000	63.181591 
4532.000000	63.185191 
4531.000000	63.196420 
4530.000000	63.213324 
4529.000000	63.233971 
4528.000000	63.257098 
4527.000000	63.281774 
4526.000000	63.307023 
4525.000000	63.330841 
4524.000000	63.349866 
4523.000000	63.359451 
4522.000000	63.354682 
4521.000000	63.332343 
4520.000000	63.292264 
4519.000000	63.238167 
4518.000000	63.177251 
4517.000000	63.118696 
4516.000000	63.071703 
4515.000000	63.043165 
4514.000000	63.036394 
4513.000000	63.049745 
4512.000000	63.078260 
4511.000000	63.114857 
4510.000000	63.152933 
4509.000000	63.187909 
4508.000000	63.218712 
4507.000000	63.247013 
4506.000000	63.276672 
4505.000000	63.311696 
4504.000000	63.354492 
4503.000000	63.404536 
4502.000000	63.457798 
4501.000000	63.507652 
4500.000000	63.546562 
4499.000000	63.568353 
4498.000000	63.569211 
4497.000000	63.548946 
4496.000000	63.511037 
4495.000000	63.462090 
4494.000000	63.410496 
4493.000000	63.364744 
4492.000000	63.332176 
4491.000000	63.317465 
4490.000000	63.322114 
4489.000000	63.343977 
4488.000000	63.378739 
4487.000000	63.420009 
4486.000000	63.460850 
4485.000000	63.494586 
4484.000000	63.516092 
4483.000000	63.522195 
4482.000000	63.511466 
4481.000000	63.484740 
4480.000000	63.444137 
4479.000000	63.393902 
4478.000000	63.340258 
4477.000000	63.290405 
4476.000000	63.251495 
4475.000000	63.229799 
4474.000000	63.230013 
4473.000000	63.253879 
4472.000000	63.299584 
4471.000000	63.361954 
4470.000000	63.433265 
4469.000000	63.504600 
4468.000000	63.567590 
4467.000000	63.615727 
4466.000000	63.645815 
4465.000000	63.658165 
4464.000000	63.656663 
4463.000000	63.648080 
4462.000000	63.640332 
4461.000000	63.641238 
4460.000000	63.656020 
4459.000000	63.687086 
4458.000000	63.731861 
4457.000000	63.784885 
4456.000000	63.836693 
4455.000000	63.876891 
4454.000000	63.894772 
4453.000000	63.882112 
4452.000000	63.834357 
4451.000000	63.751411 
4450.000000	63.638639 
4449.000000	63.505840 
4448.000000	63.366985 
4447.000000	63.237786 
4446.000000	63.134241 
4445.000000	63.069868 
4444.000000	63.053131 
4443.000000	63.085460 
4442.000000	63.161778 
4441.000000	63.271188 
4440.000000	63.395881 
4439.000000	63.514661 
4438.000000	63.609910 
4437.000000	63.669824 
4436.000000	63.685369 
4435.000000	63.653945 
4434.000000	63.581943 
4433.000000	63.482022 
4432.000000	63.371205 
4431.000000	63.266634 
4430.000000	63.180518 
4429.000000	63.119912 
4428.000000	63.090085 
4427.000000	63.090586 
4426.000000	63.115239 
4425.000000	63.155269 
4424.000000	63.205909 
4423.000000	63.260054 
4422.000000	63.301277 
4421.000000	63.322162 
4420.000000	63.329029 
4419.000000	63.332939 
4418.000000	63.346910 
4417.000000	63.382744 
4416.000000	63.450074 
4415.000000	63.562464 
4414.000000	63.741135 
4413.000000	64.023208 
4412.000000	64.453768 
4411.000000	65.090322 
4410.000000	65.970826 
4409.000000	67.088961 
4408.000000	68.375897 
4407.000000	69.701290 
4406.000000	70.892286 
4405.000000	71.775197 
4404.000000	72.205543 
4403.000000	72.128796 
4402.000000	71.556830 
4401.000000	70.588111 
4400.000000	69.337630 
4399.000000	67.933487 
4398.000000	66.440749 
4397.000000	64.861774 
4396.000000	63.134717 
4395.000000	61.174249 
4394.000000	58.926558 
4393.000000	56.415224 
4392.000000	53.778314 
4391.000000	51.257371 
4390.000000	49.168539 
4389.000000	47.831225 
4388.000000	47.487592 
4387.000000	48.236870 
4386.000000	50.005292 
4385.000000	52.556133 
4384.000000	55.529665 
4383.000000	58.524656 
4382.000000	61.177515 
4381.000000	63.236021 
4380.000000	64.583873 
4379.000000	65.251922 
4378.000000	65.374016 
4377.000000	65.143585 
4376.000000	64.751768 
4375.000000	64.344429 
4374.000000	64.016985 
4373.000000	63.791251 
4372.000000	63.668274 
4371.000000	63.610911 
4370.000000	63.591289 
4369.000000	63.583207 
4368.000000	63.581895 
4367.000000	63.589358 
4366.000000	63.604879 
4365.000000	63.629889 
4364.000000	63.662648 
4363.000000	63.695716 
4362.000000	63.715124 
4361.000000	63.713097 
4360.000000	63.690304 
4359.000000	63.652205 
4358.000000	63.608646 
4357.000000	63.572812 
4356.000000	63.557052 
4355.000000	63.569355 
4354.000000	63.611650 
4353.000000	63.675308 
4352.000000	63.746070 
4351.000000	63.817787 
4350.000000	63.885903 
4349.000000	63.940501 
4348.000000	63.973283 
4347.000000	63.981485 
4346.000000	63.964867 
4345.000000	63.924932 
4344.000000	63.865089 
4343.000000	63.789391 
4342.000000	63.704085 
4341.000000	63.618588 
4340.000000	63.542366 
4339.000000	63.484025 
4338.000000	63.448548 
4337.000000	63.436484 
4336.000000	63.442611 
4335.000000	63.457345 
4334.000000	63.468313 
4333.000000	63.463592 
4332.000000	63.434553 
4331.000000	63.378334 
4330.000000	63.298368 
4329.000000	63.203644 
4328.000000	63.106417 
4327.000000	63.019227 
4326.000000	62.951803 
4325.000000	62.909030 
4324.000000	62.890124 
4323.000000	62.889575 
4322.000000	62.899327 
4321.000000	62.911105 
4320.000000	62.918472 
4319.000000	62.918591 
4318.000000	62.911677 
4317.000000	62.901282 
4316.000000	62.892174 
4315.000000	62.889432 
4314.000000	62.896275 
4313.000000	62.913513 
4312.000000	62.938880 
4311.000000	62.968277 
4310.000000	62.996840 
4309.000000	63.019943 
4308.000000	63.034272 
4307.000000	63.038563 
4306.000000	63.033986 
4305.000000	63.023042 
4304.000000	63.009095 
4303.000000	62.995648 
4302.000000	62.985515 
4301.000000	62.981033 
4300.000000	62.983584 
4299.000000	62.993645 
4298.000000	63.010692 
4297.000000	63.033413 
4296.000000	63.059926 
4295.000000	63.087677 
4294.000000	63.114047 
4293.000000	63.136196 
4292.000000	63.151979 
4291.000000	63.160443 
4290.000000	63.162112 
4289.000000	63.159132 
4288.000000	63.154721 
4287.000000	63.152742 
4286.000000	63.155984 
4285.000000	63.165593 
4284.000000	63.180565 
4283.000000	63.198208 
4282.000000	63.214993 
4281.000000	63.227558 
4280.000000	63.233852 
4279.000000	63.233232 
4278.000000	63.226079 
4277.000000	63.213157 
4276.000000	63.194489 
4275.000000	63.169002 
4274.000000	63.134694 
4273.000000	63.089489 
4272.000000	63.032245 
4271.000000	62.963771 
4270.000000	62.887382 
4269.000000	62.808895 
4268.000000	62.735438 
4267.000000	62.674379 
4266.000000	62.631678 
4265.000000	62.611103 
4264.000000	62.612462 
4263.000000	62.632989 
4262.000000	62.667989 
4261.000000	62.712287 
4260.000000	62.760829 
4259.000000	62.809848 
4258.000000	62.856769 
4257.000000	62.900209 
4256.000000	62.939310 
4255.000000	62.973618 
4254.000000	63.002562 
4253.000000	63.025856 
4252.000000	63.043355 
4251.000000	63.055062 
4250.000000	63.061189 
4249.000000	63.062429 
4248.000000	63.059782 
4247.000000	63.054466 
4246.000000	63.047289 
4245.000000	63.039422 
4244.000000	63.031291 
4243.000000	63.022756 
4242.000000	63.012433 
4241.000000	62.998938 
4240.000000	62.980246 
4239.000000	62.954258 
4238.000000	62.919640 
4237.000000	62.876224 
4236.000000	62.825798 
4235.000000	62.771916 
4234.000000	62.719964 
4233.000000	62.675929 
4232.000000	62.645387 
4231.000000	62.632250 
4230.000000	62.637877 
4229.000000	62.660455 
4228.000000	62.696170 
4227.000000	62.740111 
4226.000000	62.787437 
4225.000000	62.834382 
4224.000000	62.878966 
4223.000000	62.921023 
4222.000000	62.961483 
4221.000000	63.001894 
4220.000000	63.043665 
4219.000000	63.087511 
4218.000000	63.133406 
4217.000000	63.180088 
4216.000000	63.226056 
4215.000000	63.269090 
4214.000000	63.307476 
4213.000000	63.339042 
4212.000000	63.361740 
4211.000000	63.373231 
4210.000000	63.371849 
4209.000000	63.356494 
4208.000000	63.327097 
4207.000000	63.285064 
4206.000000	63.233923 
4205.000000	63.178062 
4204.000000	63.122653 
4203.000000	63.072586 
4202.000000	63.032031 
4201.000000	63.003849 
4200.000000	62.989473 
4199.000000	62.988781 
4198.000000	63.000297 
4197.000000	63.021469 
4196.000000	63.049292 
4195.000000	63.079833 
4194.000000	63.108944 
4193.000000	63.132810 
4192.000000	63.148665 
4191.000000	63.154458 
4190.000000	63.149833 
4189.000000	63.136458 
4188.000000	63.117790 
4187.000000	63.098311 
4186.000000	63.082599 
4185.000000	63.074684 
4184.000000	63.077187 
4183.000000	63.090515 
4182.000000	63.113617 
4181.000000	63.144731 
4180.000000	63.181495 
4179.000000	63.221955 
4178.000000	63.264036 
4177.000000	63.305330 
4176.000000	63.342952 
4175.000000	63.373351 
4174.000000	63.392686 
4173.000000	63.397216 
4172.000000	63.384652 
4171.000000	63.354706 
4170.000000	63.309264 
4169.000000	63.252019 
4168.000000	63.188195 
4167.000000	63.123369 
4166.000000	63.062548 
4165.000000	63.009119 
4164.000000	62.964558 
4163.000000	62.928295 
4162.000000	62.898659 
4161.000000	62.873411 
4160.000000	62.850451 
4159.000000	62.828683 
4158.000000	62.807726 
4157.000000	62.788510 
4156.000000	62.772130 
4155.000000	62.760138 
4154.000000	62.753462 
4153.000000	62.752795 
4152.000000	62.757897 
4151.000000	62.767934 
4150.000000	62.781333 
4149.000000	62.796330 
4148.000000	62.811017 
4147.000000	62.824106 
4146.000000	62.835216 
4145.000000	62.844514 
4144.000000	62.852573 
4143.000000	62.859892 
4142.000000	62.866592 
4141.000000	62.871956 
4140.000000	62.874507 
4139.000000	62.872362 
4138.000000	62.863850 
4137.000000	62.848615 
4136.000000	62.827825 
4135.000000	62.804007 
4134.000000	62.781000 
4133.000000	62.763381 
4132.000000	62.755441 
4131.000000	62.759923 
4130.000000	62.777543 
4129.000000	62.806963 
4128.000000	62.844848 
4127.000000	62.886762 
4126.000000	62.927794 
4125.000000	62.963747 
4124.000000	62.991380 
4123.000000	63.009023 
4122.000000	63.016128 
4121.000000	63.012957 
4120.000000	63.000130 
4119.000000	62.978434 
4118.000000	62.948656 
4117.000000	62.911939 
4116.000000	62.870097 
4115.000000	62.825918 
4114.000000	62.782812 
4113.000000	62.744736 
4112.000000	62.715625 
4111.000000	62.698864 
4110.000000	62.696099 
4109.000000	62.707448 
4108.000000	62.730908 
4107.000000	62.763452 
4106.000000	62.801146 
4105.000000	62.840390 
4104.000000	62.878274 
4103.000000	62.912940 
4102.000000	62.943434 
4101.000000	62.969136 
4100.000000	62.989163 
4099.000000	63.002204 
4098.000000	63.006615 
4097.000000	63.001036 
4096.000000	62.985348 
4095.000000	62.960982 
4094.000000	62.931275 
4093.000000	62.900400 
4092.000000	62.872695 
4091.000000	62.851119 
4090.000000	62.836503 
4089.000000	62.827277 
4088.000000	62.819886 
4087.000000	62.810015 
4086.000000	62.793946 
4085.000000	62.769818 
4084.000000	62.738442 
4083.000000	62.703394 
4082.000000	62.670016 
4081.000000	62.644052 
4080.000000	62.630200 
4079.000000	62.630772 
4078.000000	62.645030 
4077.000000	62.669467 
4076.000000	62.698411 
4075.000000	62.725400 
4074.000000	62.744879 
4073.000000	62.753343 
4072.000000	62.750101 
4071.000000	62.736821 
4070.000000	62.717509 
4069.000000	62.697196 
4068.000000	62.681078 
4067.000000	62.672996 
4066.000000	62.674856 
4065.000000	62.686347 
4064.000000	62.705063 
4063.000000	62.727141 
4062.000000	62.747931 
4061.000000	62.763047 
4060.000000	62.769198 
4059.000000	62.765121 
4058.000000	62.751626 
4057.000000	62.731552 
4056.000000	62.709212 
4055.000000	62.689328 
4054.000000	62.676072 
4053.000000	62.671732 
4052.000000	62.676715 
4051.000000	62.688827 
4050.000000	62.704348 
4049.000000	62.718653 
4048.000000	62.727451 
4047.000000	62.727761 
4046.000000	62.718534 
4045.000000	62.700867 
4044.000000	62.677478 
4043.000000	62.652325 
4042.000000	62.629628 
4041.000000	62.612986 
4040.000000	62.604689 
4039.000000	62.605428 
4038.000000	62.614369 
4037.000000	62.629485 
4036.000000	62.648057 
4035.000000	62.667083 
4034.000000	62.683725 
4033.000000	62.695860 
4032.000000	62.702202 
4031.000000	62.702393 
4030.000000	62.697052 
4029.000000	62.687587 
4028.000000	62.675738 
4027.000000	62.663483 
4026.000000	62.652206 
4025.000000	62.643074 
4024.000000	62.635874 
4023.000000	62.629723 
4022.000000	62.622952 
4021.000000	62.613606 
4020.000000	62.600207 
4019.000000	62.582182 
4018.000000	62.560343 
4017.000000	62.536668 
4016.000000	62.514328 
4015.000000	62.496757 
4014.000000	62.487030 
4013.000000	62.487053 
4012.000000	62.497115 
4011.000000	62.515830 
4010.000000	62.540483 
4009.000000	62.567734 
4008.000000	62.594270 
4007.000000	62.617683 
4006.000000	62.636876 
4005.000000	62.652087 
4004.000000	62.664628 
4003.000000	62.676286 
4002.000000	62.688755 
4001.000000	62.702965 
4000.000000	62.718772 
3999.000000	62.735009 
3998.000000	62.749838 
3997.000000	62.761092 
3996.000000	62.766838 
3995.000000	62.765836 
3994.000000	62.757825 
3993.000000	62.743711 
3992.000000	62.725210 
3991.000000	62.704610 
3990.000000	62.684392 
3989.000000	62.666726 
3988.000000	62.653088 
3987.000000	62.644243 
3986.000000	62.640213 
3985.000000	62.640380 
3984.000000	62.643647 
3983.000000	62.648940 
3982.000000	62.655496 
3981.000000	62.663030 
3980.000000	62.671756 
3979.000000	62.682104 
3978.000000	62.694358 
3977.000000	62.708640 
3976.000000	62.724494 
3975.000000	62.740564 
3974.000000	62.754678 
3973.000000	62.764692 
3972.000000	62.768530 
3971.000000	62.764835 
3970.000000	62.753248 
3969.000000	62.734651 
3968.000000	62.711071 
3967.000000	62.685203 
3966.000000	62.660002 
3965.000000	62.638235 
3964.000000	62.622117 
3963.000000	62.612915 
3962.000000	62.611055 
3961.000000	62.616133 
3960.000000	62.627243 
3959.000000	62.643122 
3958.000000	62.662172 
3957.000000	62.682509 
3956.000000	62.701988 
3955.000000	62.718486 
3954.000000	62.729716 
3953.000000	62.733507 
3952.000000	62.728452 
3951.000000	62.713956 
3950.000000	62.690687 
3949.000000	62.660312 
3948.000000	62.625646 
3947.000000	62.590003 
3946.000000	62.556385 
3945.000000	62.526988 
3944.000000	62.503027 
3943.000000	62.484383 
3942.000000	62.469983 
3941.000000	62.458252 
3940.000000	62.447595 
3939.000000	62.437057 
3938.000000	62.426352 
3937.000000	62.416505 
3936.000000	62.408828 
3935.000000	62.405180 
3934.000000	62.407040 
3933.000000	62.415194 
3932.000000	62.429451 
3931.000000	62.448906 
3930.000000	62.471818 
3929.000000	62.496042 
3928.000000	62.519502 
3927.000000	62.540245 
3926.000000	62.557077 
3925.000000	62.569427 
3924.000000	62.577652 
3923.000000	62.583208 
3922.000000	62.588214 
3921.000000	62.595152 
3920.000000	62.605977 
3919.000000	62.621712 
3918.000000	62.641501 
3917.000000	62.663292 
3916.000000	62.683773 
3915.000000	62.699317 
3914.000000	62.706875 
3913.000000	62.705206 
3912.000000	62.694668 
3911.000000	62.677240 
3910.000000	62.655687 
3909.000000	62.633132 
3908.000000	62.611889 
3907.000000	62.593126 
3906.000000	62.576842 
3905.000000	62.562322 
3904.000000	62.548828 
3903.000000	62.536263 
3902.000000	62.525606 
3901.000000	62.518525 
3900.000000	62.516808 
3899.000000	62.521338 
3898.000000	62.531471 
3897.000000	62.544631 
3896.000000	62.556886 
3895.000000	62.563681 
3894.000000	62.561130 
3893.000000	62.547039 
3892.000000	62.521815 
3891.000000	62.488651 
3890.000000	62.452745 
3889.000000	62.419939 
3888.000000	62.395715 
3887.000000	62.383675 
3886.000000	62.384915 
3885.000000	62.397789 
3884.000000	62.418627 
3883.000000	62.442588 
3882.000000	62.464761 
3881.000000	62.481451 
3880.000000	62.490582 
3879.000000	62.492156 
3878.000000	62.487888 
3877.000000	62.480449 
3876.000000	62.472558 
3875.000000	62.466931 
3874.000000	62.465381 
3873.000000	62.468528 
3872.000000	62.475609 
3871.000000	62.485027 
3870.000000	62.494444 
3869.000000	62.501168 
3868.000000	62.502884 
3867.000000	62.497711 
3866.000000	62.484979 
3865.000000	62.465739 
3864.000000	62.442564 
3863.000000	62.418985 
3862.000000	62.398767 
3861.000000	62.385272 
3860.000000	62.380313 
3859.000000	62.383937 
3858.000000	62.393999 
3857.000000	62.406802 
3856.000000	62.418341 
3855.000000	62.425088 
3854.000000	62.425851 
3853.000000	62.421774 
3852.000000	62.416768 
3851.000000	62.416315 
3850.000000	62.426400 
3849.000000	62.451910 
3848.000000	62.495040 
3847.000000	62.554502 
3846.000000	62.625598 
3845.000000	62.700676 
3844.000000	62.770795 
3843.000000	62.827062 
3842.000000	62.862253 
3841.000000	62.871599 
3840.000000	62.853670 
3839.000000	62.810325 
3838.000000	62.745976 
3837.000000	62.666845 
3836.000000	62.580370 
3835.000000	62.493920 
3834.000000	62.414383 
3833.000000	62.347102 
3832.000000	62.296080 
3831.000000	62.262940 
3830.000000	62.247467 
3829.000000	62.247443 
3828.000000	62.259030 
3827.000000	62.278056 
3826.000000	62.300276 
3825.000000	62.322235 
3824.000000	62.341332 
3823.000000	62.356162 
3822.000000	62.366342 
3821.000000	62.371730 
3820.000000	62.372303 
3819.000000	62.367916 
3818.000000	62.358355 
3817.000000	62.343621 
3816.000000	62.324309 
3815.000000	62.302136 
3814.000000	62.279844 
3813.000000	62.260580 
3812.000000	62.247753 
3811.000000	62.244224 
3810.000000	62.251639 
3809.000000	62.269663 
3808.000000	62.296247 
3807.000000	62.328004 
3806.000000	62.361001 
3805.000000	62.391567 
3804.000000	62.416791 
3803.000000	62.434697 
3802.000000	62.444472 
3801.000000	62.446594 
3800.000000	62.442016 
3799.000000	62.431907 
3798.000000	62.417578 
3797.000000	62.400412 
3796.000000	62.381958 
3795.000000	62.363719 
3794.000000	62.347483 
3793.000000	62.335038 
3792.000000	62.327814 
3791.000000	62.326526 
3790.000000	62.330985 
3789.000000	62.339830 
3788.000000	62.350797 
3787.000000	62.360858 
3786.000000	62.366867 
3785.000000	62.365913 
3784.000000	62.355780 
3783.000000	62.335252 
3782.000000	62.304162 
3781.000000	62.263751 
3780.000000	62.216186 
3779.000000	62.164783 
3778.000000	62.113094 
3777.000000	62.065076 
3776.000000	62.024569 
3775.000000	61.994934 
3774.000000	61.978197 
3773.000000	61.975288 
3772.000000	61.985969 
3771.000000	62.008881 
3770.000000	62.041592 
3769.000000	62.081408 
3768.000000	62.125682 
3767.000000	62.172269 
3766.000000	62.219333 
3765.000000	62.265539 
3764.000000	62.309408 
3763.000000	62.349700 
3762.000000	62.384772 
3761.000000	62.413120 
3760.000000	62.433218 
3759.000000	62.444162 
3758.000000	62.445592 
3757.000000	62.438201 
3756.000000	62.423038 
3755.000000	62.402009 
3754.000000	62.376523 
3753.000000	62.347912 
3752.000000	62.316584 
3751.000000	62.282848 
3750.000000	62.246465 
3749.000000	62.207269 
3748.000000	62.165665 
3747.000000	62.122917 
3746.000000	62.081146 
3745.000000	62.042665 
3744.000000	62.010192 
3743.000000	61.986088 
3742.000000	61.972332 
3741.000000	61.970019 
3740.000000	61.979413 
3739.000000	61.999583 
3738.000000	62.028789 
3737.000000	62.064266 
3736.000000	62.102293 
3735.000000	62.138390 
3734.000000	62.167954 
3733.000000	62.186980 
3732.000000	62.192320 
3731.000000	62.182521 
3730.000000	62.158441 
3729.000000	62.123298 
3728.000000	62.082004 
3727.000000	62.040567 
3726.000000	62.004995 
3725.000000	61.980152 
3724.000000	61.969184 
3723.000000	61.972689 
3722.000000	61.988973 
3721.000000	62.014508 
3720.000000	62.045168 
3719.000000	62.076687 
3718.000000	62.105512 
3717.000000	62.129354 
3716.000000	62.147307 
3715.000000	62.159752 
3714.000000	62.167596 
3713.000000	62.172126 
3712.000000	62.174367 
3711.000000	62.174654 
3710.000000	62.172389 
3709.000000	62.166547 
3708.000000	62.155699 
3707.000000	62.138581 
3706.000000	62.114429 
3705.000000	62.083244 
3704.000000	62.046003 
3703.000000	62.004613 
3702.000000	61.962008 
3701.000000	61.921238 
3700.000000	61.885547 
3699.000000	61.857700 
3698.000000	61.840128 
3697.000000	61.833834 
3696.000000	61.839032 
3695.000000	61.854720 
3694.000000	61.879014 
3693.000000	61.909151 
3692.000000	61.941862 
3691.000000	61.973619 
3690.000000	62.001204 
3689.000000	62.021851 
3688.000000	62.034106 
3687.000000	62.037849 
3686.000000	62.034296 
3685.000000	62.025952 
3684.000000	62.015986 
3683.000000	62.007522 
3682.000000	62.003326 
3681.000000	62.004733 
3680.000000	62.011790 
3679.000000	62.022781 
3678.000000	62.035155 
3677.000000	62.045550 
3676.000000	62.050628 
3675.000000	62.047743 
3674.000000	62.035489 
3673.000000	62.013721 
3672.000000	61.983561 
3671.000000	61.947107 
3670.000000	61.907219 
3669.000000	61.866974 
3668.000000	61.829280 
3667.000000	61.796569 
3666.000000	61.770653 
3665.000000	61.752557 
3664.000000	61.742687 
3663.000000	61.740779 
3662.000000	61.745882 
3661.000000	61.756968 
3660.000000	61.773014 
3659.000000	61.792969 
3658.000000	61.815738 
3657.000000	61.840224 
3656.000000	61.865186 
3655.000000	61.889243 
3654.000000	61.910772 
3653.000000	61.928296 
3652.000000	61.940717 
3651.000000	61.947536 
3650.000000	61.949110 
3649.000000	61.946606 
3648.000000	61.941742 
3647.000000	61.936736 
3646.000000	61.933374 
3645.000000	61.933135 
3644.000000	61.936163 
3643.000000	61.941742 
3642.000000	61.947751 
3641.000000	61.951661 
3640.000000	61.950612 
3639.000000	61.942148 
3638.000000	61.924791 
3637.000000	61.898255 
3636.000000	61.863780 
3635.000000	61.823844 
3634.000000	61.781954 
3633.000000	61.742067 
3632.000000	61.708021 
3631.000000	61.682891 
3630.000000	61.668443 
3629.000000	61.665153 
3628.000000	61.671805 
3627.000000	61.686134 
3626.000000	61.705136 
3625.000000	61.725687 
3624.000000	61.744928 
3623.000000	61.760663 
3622.000000	61.771416 
3621.000000	61.776399 
3620.000000	61.775302 
3619.000000	61.767816 
3618.000000	61.753916 
3617.000000	61.733555 
3616.000000	61.706900 
3615.000000	61.674427 
3614.000000	61.637330 
3613.000000	61.597394 
3612.000000	61.557030 
3611.000000	61.518836 
3610.000000	61.485576 
3609.000000	61.459469 
3608.000000	61.442089 
3607.000000	61.434102 
3606.000000	61.435341 
3605.000000	61.445093 
3604.000000	61.462140 
3603.000000	61.484932 
3602.000000	61.511659 
3601.000000	61.540460 
3600.000000	61.569571 
3599.000000	61.597156 
3598.000000	61.621618 
3597.000000	61.641645 
3596.000000	61.656308 
3595.000000	61.665081 
3594.000000	61.667776 
3593.000000	61.664700 
3592.000000	61.656236 
3591.000000	61.643028 
3590.000000	61.625528 
3589.000000	61.604166 
3588.000000	61.579370 
3587.000000	61.551499 
3586.000000	61.521172 
3585.000000	61.489319 
3584.000000	61.457395 
3583.000000	61.427092 
3582.000000	61.400628 
3581.000000	61.380195 
3580.000000	61.367702 
3579.000000	61.364459 
3578.000000	61.370825 
3577.000000	61.386060 
3576.000000	61.408329 
3575.000000	61.434817 
3574.000000	61.462187 
3573.000000	61.487197 
3572.000000	61.507225 
3571.000000	61.520648 
3570.000000	61.527061 
3569.000000	61.527132 
3568.000000	61.522698 
3567.000000	61.515688 
3566.000000	61.507773 
3565.000000	61.499786 
3564.000000	61.491870 
3563.000000	61.483049 
3562.000000	61.471867 
3561.000000	61.456704 
3560.000000	61.436843 
3559.000000	61.412501 
3558.000000	61.385059 
3557.000000	61.356663 
3556.000000	61.329746 
3555.000000	61.306571 
3554.000000	61.288666 
3553.000000	61.276531 
3552.000000	61.269783 
3551.000000	61.267590 
3550.000000	61.269140 
3549.000000	61.274123 
3548.000000	61.282849 
3547.000000	61.296248 
3546.000000	61.315298 
3545.000000	61.340236 
3544.000000	61.370038 
3543.000000	61.402249 
3542.000000	61.432814 
3541.000000	61.457252 
3540.000000	61.470937 
3539.000000	61.470293 
3538.000000	61.453342 
3537.000000	61.420559 
3536.000000	61.374449 
3535.000000	61.319255 
3534.000000	61.260104 
3533.000000	61.202168 
3532.000000	61.150097 
3531.000000	61.107254 
3530.000000	61.075687 
3529.000000	61.055850 
3528.000000	61.046957 
3527.000000	61.047267 
3526.000000	61.054134 
3525.000000	61.064600 
3524.000000	61.075973 
3523.000000	61.086487 
3522.000000	61.095619 
3521.000000	61.104273 
3520.000000	61.114883 
3519.000000	61.130428 
3518.000000	61.153602 
3517.000000	61.184978 
3516.000000	61.222934 
3515.000000	61.262917 
3514.000000	61.298298 
3513.000000	61.321544 
3512.000000	61.326003 
3511.000000	61.307621 
3510.000000	61.266279 
3509.000000	61.206126 
3508.000000	61.134815 
3507.000000	61.062216 
3506.000000	60.998344 
3505.000000	60.951161 
3504.000000	60.925340 
3503.000000	60.921263 
3502.000000	60.935473 
3501.000000	60.962319 
3500.000000	60.995531 
3499.000000	61.030197 
3498.000000	61.063838 
3497.000000	61.096811 
3496.000000	61.131596 
3495.000000	61.171340 
3494.000000	61.218094 
3493.000000	61.271643 
3492.000000	61.328744 
3491.000000	61.383748 
3490.000000	61.429405 
3489.000000	61.459088 
3488.000000	61.468076 
3487.000000	61.455202 
3486.000000	61.422753 
3485.000000	61.376261 
3484.000000	61.322951 
3483.000000	61.270427 
3482.000000	61.224889 
3481.000000	61.190128 
3480.000000	61.167025 
3479.000000	61.154174 
3478.000000	61.148476 
3477.000000	61.146807 
3476.000000	61.146616 
3475.000000	61.146569 
3474.000000	61.146903 
3473.000000	61.148977 
3472.000000	61.154961 
3471.000000	61.166596 
3470.000000	61.185097 
3469.000000	61.210298 
3468.000000	61.241102 
3467.000000	61.275386 
3466.000000	61.310386 
3465.000000	61.342883 
3464.000000	61.369943 
3463.000000	61.388921 
3462.000000	61.397886 
3461.000000	61.395359 
3460.000000	61.380839 
3459.000000	61.354637 
3458.000000	61.318063 
3457.000000	61.273431 
3456.000000	61.224150 
3455.000000	61.174345 
3454.000000	61.128497 
3453.000000	61.090493 
3452.000000	61.063241 
3451.000000	61.048030 
3450.000000	61.044430 
3449.000000	61.050438 
3448.000000	61.062979 
3447.000000	61.078596 
3446.000000	61.094164 
3445.000000	61.107540 
3444.000000	61.117792 
3443.000000	61.125135 
3442.000000	61.130356 
3441.000000	61.134409 
3440.000000	61.137890 
3439.000000	61.140727 
3438.000000	61.142277 
3437.000000	61.141419 
3436.000000	61.137223 
3435.000000	61.129403 
3434.000000	61.118435 
3433.000000	61.105728 
3432.000000	61.093235 
3431.000000	61.083197 
3430.000000	61.077237 
3429.000000	61.076211 
3428.000000	61.079597 
3427.000000	61.085915 
3426.000000	61.092638 
3425.000000	61.096858 
3424.000000	61.095857 
3423.000000	61.087822 
3422.000000	61.072349 
3421.000000	61.050319 
3420.000000	61.023926 
3419.000000	60.996246 
3418.000000	60.970449 
3417.000000	60.949277 
3416.000000	60.934329 
3415.000000	60.925912 
3414.000000	60.923314 
3413.000000	60.925102 
3412.000000	60.929512 
3411.000000	60.935187 
3410.000000	60.941314 
3409.000000	60.947847 
3408.000000	60.955190 
3407.000000	60.963845 
3406.000000	60.974121 
3405.000000	60.985779 
3404.000000	60.997700 
3403.000000	61.008262 
3402.000000	61.015748 
3401.000000	61.018753 
3400.000000	61.016583 
3399.000000	61.009430 
3398.000000	60.998439 
3397.000000	60.985326 
3396.000000	60.971975 
3395.000000	60.959959 
3394.000000	60.950088 
3393.000000	60.942220 
3392.000000	60.935449 
3391.000000	60.928153 
3390.000000	60.918784 
3389.000000	60.905981 
3388.000000	60.889410 
3387.000000	60.869717 
3386.000000	60.848569 
3385.000000	60.828447 
3384.000000	60.811948 
3383.000000	60.801124 
3382.000000	60.796952 
3381.000000	60.798978 
3380.000000	60.805344 
3379.000000	60.813021 
3378.000000	60.818338 
3377.000000	60.817813 
3376.000000	60.808968 
3375.000000	60.790634 
3374.000000	60.763692 
3373.000000	60.730528 
3372.000000	60.694956 
3371.000000	60.661315 
3370.000000	60.633754 
3369.000000	60.615396 
3368.000000	60.607600 
3367.000000	60.609936 
3366.000000	60.619926 
3365.000000	60.633850 
3364.000000	60.647273 
3363.000000	60.656046 
3362.000000	60.657000 
3361.000000	60.648512 
3360.000000	60.631132 
3359.000000	60.607457 
3358.000000	60.581207 
3357.000000	60.556721 
3356.000000	60.538005 
3355.000000	60.527944 
3354.000000	60.527825 
3353.000000	60.537028 
3352.000000	60.553479 
3351.000000	60.574388 
3350.000000	60.596609 
3349.000000	60.617852 
3348.000000	60.636615 
3347.000000	60.652637 
3346.000000	60.666608 
3345.000000	60.679769 
3344.000000	60.693287 
3343.000000	60.707807 
3342.000000	60.723471 
3341.000000	60.739541 
3340.000000	60.754585 
3339.000000	60.766863 
3338.000000	60.774755 
3337.000000	60.776638 
3336.000000	60.771036 
3335.000000	60.756802 
3334.000000	60.733222 
3333.000000	60.700082 
3332.000000	60.658097 
3331.000000	60.608673 
3330.000000	60.554218 
3329.000000	60.497951 
3328.000000	60.443568 
3327.000000	60.394787 
3326.000000	60.354971 
3325.000000	60.326361 
3324.000000	60.310554 
3323.000000	60.307264 
3322.000000	60.315775 
3321.000000	60.334277 
3320.000000	60.360956 
3319.000000	60.393524 
3318.000000	60.430073 
3317.000000	60.468864 
3316.000000	60.508394 
3315.000000	60.546827 
3314.000000	60.582423 
3313.000000	60.613346 
3312.000000	60.637736 
3311.000000	60.654091 
3310.000000	60.661387 
3309.000000	60.659623 
3308.000000	60.649752 
3307.000000	60.633492 
3306.000000	60.613417 
3305.000000	60.592198 
3304.000000	60.572528 
3303.000000	60.556340 
3302.000000	60.544633 
3301.000000	60.537242 
3300.000000	60.533094 
3299.000000	60.530591 
3298.000000	60.528016 
3297.000000	60.524034 
3296.000000	60.518097 
3295.000000	60.510540 
3294.000000	60.502219 
3293.000000	60.494470 
3292.000000	60.488486 
3291.000000	60.485148 
3290.000000	60.484766 
3289.000000	60.486602 
3288.000000	60.489416 
3287.000000	60.491108 
3286.000000	60.489463 
3285.000000	60.482239 
3284.000000	60.467815 
3283.000000	60.445618 
3282.000000	60.416388 
3281.000000	60.382008 
3280.000000	60.345292 
3279.000000	60.309290 
3278.000000	60.276770 
3277.000000	60.249543 
3276.000000	60.228347 
3275.000000	60.212850 
3274.000000	60.201954 
3273.000000	60.194182 
3272.000000	60.188245 
3271.000000	60.183334 
3270.000000	60.179352 
3269.000000	60.176301 
3268.000000	60.174632 
3267.000000	60.174369 
3266.000000	60.175299 
3265.000000	60.176730 
3264.000000	60.177803 
3263.000000	60.177803 
3262.000000	60.176444 
3261.000000	60.174107 
3260.000000	60.171794 
3259.000000	60.170960 
3258.000000	60.173058 
3257.000000	60.179257 
3256.000000	60.189795 
3255.000000	60.203909 
3254.000000	60.219955 
3253.000000	60.235786 
3252.000000	60.248827 
3251.000000	60.256528 
3250.000000	60.257029 
3249.000000	60.248851 
3248.000000	60.231351 
3247.000000	60.204482 
3246.000000	60.168981 
3245.000000	60.126543 
3244.000000	60.079741 
3243.000000	60.031843 
3242.000000	59.986734 
3241.000000	59.948134 
3240.000000	59.919404 
3239.000000	59.902358 
3238.000000	59.897136 
3237.000000	59.901928 
3236.000000	59.913229 
3235.000000	59.926772 
3234.000000	59.938097 
3233.000000	59.944200 
3232.000000	59.943938 
3231.000000	59.938335 
3230.000000	59.930348 
3229.000000	59.923887 
3228.000000	59.922456 
3227.000000	59.928393 
3226.000000	59.941983 
3225.000000	59.961605 
3224.000000	59.983968 
3223.000000	60.005116 
3222.000000	60.021209 
3221.000000	60.029387 
3220.000000	60.028314 
3219.000000	60.017943 
3218.000000	59.999632 
3217.000000	59.975624 
3216.000000	59.948754 
3215.000000	59.921932 
3214.000000	59.897971 
3213.000000	59.879112 
3212.000000	59.867000 
3211.000000	59.862685 
3210.000000	59.866261 
3209.000000	59.876823 
3208.000000	59.892630 
3207.000000	59.911155 
3206.000000	59.929943 
3205.000000	59.946680 
3204.000000	59.959983 
3203.000000	59.969353 
3202.000000	59.975266 
3201.000000	59.978818 
3200.000000	59.981179 
3199.000000	59.983277 
3198.000000	59.985446 
3197.000000	59.987449 
3196.000000	59.988522 
3195.000000	59.987664 
3194.000000	59.983944 
3193.000000	59.976720 
3192.000000	59.965920 
3191.000000	59.952092 
3190.000000	59.936738 
3189.000000	59.921526 
3188.000000	59.908509 
3187.000000	59.899139 
3186.000000	59.894299 
3185.000000	59.893751 
3184.000000	59.896326 
3183.000000	59.899973 
3182.000000	59.902143 
3181.000000	59.900474 
3180.000000	59.893512 
3179.000000	59.881067 
3178.000000	59.864377 
3177.000000	59.845900 
3176.000000	59.828805 
3175.000000	59.815979 
3174.000000	59.809374 
3173.000000	59.809398 
3172.000000	59.814715 
3171.000000	59.822797 
3170.000000	59.830498 
3169.000000	59.834933 
3168.000000	59.834027 
3167.000000	59.827113 
3166.000000	59.814977 
3165.000000	59.799218 
3164.000000	59.781837 
3163.000000	59.764528 
3162.000000	59.748625 
3161.000000	59.734654 
3160.000000	59.722781 
3159.000000	59.712862 
3158.000000	59.705042 
3157.000000	59.699892 
3156.000000	59.698367 
3155.000000	59.701228 
3154.000000	59.708881 
3153.000000	59.720897 
3152.000000	59.735846 
3151.000000	59.751558 
3150.000000	59.765505 
3149.000000	59.775280 
3148.000000	59.779167 
3147.000000	59.776377 
3146.000000	59.767150 
3145.000000	59.752583 
3144.000000	59.733963 
3143.000000	59.712529 
3142.000000	59.689068 
3141.000000	59.663915 
3140.000000	59.637069 
3139.000000	59.608364 
3138.000000	59.578061 
3137.000000	59.546899 
3136.000000	59.516310 
3135.000000	59.488248 
3134.000000	59.464669 
3133.000000	59.447264 
3132.000000	59.437036 
3131.000000	59.434080 
3130.000000	59.437513 
3129.000000	59.445643 
3128.000000	59.456300 
3127.000000	59.467267 
3126.000000	59.476494 
3125.000000	59.482598 
3124.000000	59.484982 
3123.000000	59.483814 
3122.000000	59.479784 
3121.000000	59.474110 
3120.000000	59.468078 
3119.000000	59.462904 
3118.000000	59.459447 
3117.000000	59.457921 
3116.000000	59.457993 
3115.000000	59.458947 
3114.000000	59.459757 
3113.000000	59.459447 
3112.000000	59.457445 
3111.000000	59.453725 
3110.000000	59.448719 
3109.000000	59.443306 
3108.000000	59.438395 
3107.000000	59.434890 
3106.000000	59.433007 
3105.000000	59.432578 
3104.000000	59.432744 
3103.000000	59.432601 
3102.000000	59.431052 
3101.000000	59.427046 
3100.000000	59.419918 
3099.000000	59.409809 
3098.000000	59.397387 
3097.000000	59.383773 
3096.000000	59.370374 
3095.000000	59.358668 
3094.000000	59.349942 
3093.000000	59.345197 
3092.000000	59.344840 
3091.000000	59.348392 
3090.000000	59.354734 
3089.000000	59.362030 
3088.000000	59.367966 
3087.000000	59.370136 
3086.000000	59.366440 
3085.000000	59.355616 
3084.000000	59.337401 
3083.000000	59.312725 
3082.000000	59.283471 
3081.000000	59.252405 
3080.000000	59.222412 
3079.000000	59.196591 
3078.000000	59.177374 
3077.000000	59.166741 
3076.000000	59.165716 
3075.000000	59.174442 
3074.000000	59.192276 
3073.000000	59.217834 
3072.000000	59.248828 
3071.000000	59.282469 
3070.000000	59.315514 
3069.000000	59.344387 
3068.000000	59.365725 
3067.000000	59.376668 
3066.000000	59.375262 
3065.000000	59.361076 
3064.000000	59.335160 
3063.000000	59.299850 
3062.000000	59.258437 
3061.000000	59.214758 
3060.000000	59.172677 
3059.000000	59.135484 
3058.000000	59.105372 
3057.000000	59.083461 
3056.000000	59.069705 
3055.000000	59.062933 
3054.000000	59.061336 
3053.000000	59.062767 
3052.000000	59.065222 
3051.000000	59.067034 
3050.000000	59.067130 
3049.000000	59.064984 
3048.000000	59.060502 
3047.000000	59.053802 
3046.000000	59.045052 
3045.000000	59.034299 
3044.000000	59.021639 
3043.000000	59.007263 
3042.000000	58.991599 
3041.000000	58.975410 
3040.000000	58.960199 
3039.000000	58.947849 
3038.000000	58.940362 
3037.000000	58.939361 
3036.000000	58.945488 
3035.000000	58.958363 
3034.000000	58.976411 
3033.000000	58.997058 
3032.000000	59.017276 
3031.000000	59.034419 
3030.000000	59.046745 
3029.000000	59.053778 
3028.000000	59.056305 
3027.000000	59.056091 
3026.000000	59.055256 
3025.000000	59.055709 
3024.000000	59.058260 
3023.000000	59.062623 
3022.000000	59.067511 
3021.000000	59.070777 
3020.000000	59.070396 
3019.000000	59.064388 
3018.000000	59.052014 
3017.000000	59.033083 
3016.000000	59.008145 
3015.000000	58.978199 
3014.000000	58.944511 
3013.000000	58.908605 
3012.000000	58.872246 
3011.000000	58.837461 
3010.000000	58.806633 
3009.000000	58.782291 
3008.000000	58.766651 
3007.000000	58.761096 
3006.000000	58.765625 
3005.000000	58.778429 
3004.000000	58.796215 
3003.000000	58.814334 
3002.000000	58.828115 
3001.000000	58.833789 
3000.000000	58.829498 
2999.000000	58.815503 
2998.000000	58.794283 
2997.000000	58.769679 
2996.000000	58.746004 
2995.000000	58.726930 
2994.000000	58.714795 
2993.000000	58.710169 
2992.000000	58.712053 
2991.000000	58.718442 
2990.000000	58.726882 
2989.000000	58.735156 
2988.000000	58.741307 
2987.000000	58.744144 
2986.000000	58.742761 
2985.000000	58.736491 
2984.000000	58.724999 
2983.000000	58.708190 
2982.000000	58.686351 
2981.000000	58.660411 
2980.000000	58.632254 
2979.000000	58.604264 
2978.000000	58.578991 
2977.000000	58.558344 
2976.000000	58.543419 
2975.000000	58.533906 
2974.000000	58.528447 
2973.000000	58.524870 
2972.000000	58.520698 
2971.000000	58.514237 
2970.000000	58.504748 
2969.000000	58.492588 
2968.000000	58.478879 
2967.000000	58.465075 
2966.000000	58.452200 
2965.000000	58.440542 
2964.000000	58.429336 
2963.000000	58.417296 
2962.000000	58.402943 
2961.000000	58.385467 
2960.000000	58.365130 
2959.000000	58.343362 
2958.000000	58.322548 
2957.000000	58.305239 
2956.000000	58.293509 
2955.000000	58.288264 
2954.000000	58.288979 
2953.000000	58.293771 
2952.000000	58.299922 
2951.000000	58.304691 
2950.000000	58.305835 
2949.000000	58.302545 
2948.000000	58.295035 
2947.000000	58.284235 
2946.000000	58.271408 
2945.000000	58.257555 
2944.000000	58.243036 
2943.000000	58.227658 
2942.000000	58.210802 
2941.000000	58.192133 
2940.000000	58.171439 
2939.000000	58.149003 
2938.000000	58.125638 
2937.000000	58.102416 
2936.000000	58.080935 
2935.000000	58.062744 
2934.000000	58.049273 
2933.000000	58.041524 
2932.000000	58.039546 
2931.000000	58.042240 
2930.000000	58.047366 
2929.000000	58.052015 
2928.000000	58.053088 
2927.000000	58.048057 
2926.000000	58.035588 
2925.000000	58.015775 
2924.000000	57.990026 
2923.000000	57.960867 
2922.000000	57.931351 
2921.000000	57.904529 
2920.000000	57.882952 
2919.000000	57.868242 
2918.000000	57.861161 
2917.000000	57.861614 
2916.000000	57.868742 
2915.000000	57.881283 
2914.000000	57.897686 
2913.000000	57.916355 
2912.000000	57.935547 
2911.000000	57.953715 
2910.000000	57.969331 
2909.000000	57.981371 
2908.000000	57.989168 
2907.000000	57.992720 
2906.000000	57.992577 
2905.000000	57.989501 
2904.000000	57.984256 
2903.000000	57.977557 
2902.000000	57.969975 
2901.000000	57.961773 
2900.000000	57.953262 
2899.000000	57.944989 
2898.000000	57.937717 
2897.000000	57.932615 
2896.000000	57.930922 
2895.000000	57.933664 
2894.000000	57.941508 
2893.000000	57.954239 
2892.000000	57.970762 
2891.000000	57.989239 
2890.000000	58.007264 
2889.000000	58.022379 
2888.000000	58.032441 
2887.000000	58.035945 
2886.000000	58.032321 
2885.000000	58.021879 
2884.000000	58.005619 
2883.000000	57.984972 
2882.000000	57.961893 
2881.000000	57.938528 
2880.000000	57.917046 
2879.000000	57.899403 
2878.000000	57.887125 
2877.000000	57.881188 
2876.000000	57.881712 
2875.000000	57.888126 
2874.000000	57.899236 
2873.000000	57.913279 
2872.000000	57.928466 
2871.000000	57.942914 
2870.000000	57.955050 
2869.000000	57.963585 
2868.000000	57.967543 
2867.000000	57.966184 
2866.000000	57.958889 
2865.000000	57.945275 
2864.000000	57.925200 
2863.000000	57.898879 
2862.000000	57.867264 
2861.000000	57.831811 
2860.000000	57.794547 
2859.000000	57.757735 
2858.000000	57.723641 
2857.000000	57.694172 
2856.000000	57.670569 
2855.000000	57.653594 
2854.000000	57.643461 
2853.000000	57.640123 
2852.000000	57.643246 
2851.000000	57.652139 
2850.000000	57.665538 
2849.000000	57.681798 
2848.000000	57.698774 
2847.000000	57.714200 
2846.000000	57.726025 
2845.000000	57.732868 
2844.000000	57.734227 
2843.000000	57.730555 
2842.000000	57.723116 
2841.000000	57.713699 
2840.000000	57.703804 
2839.000000	57.694625 
2838.000000	57.686495 
2837.000000	57.679033 
2836.000000	57.671356 
2835.000000	57.662606 
2834.000000	57.652258 
2833.000000	57.640504 
2832.000000	57.628345 
2831.000000	57.617187 
2830.000000	57.608652 
2829.000000	57.603955 
2828.000000	57.603645 
2827.000000	57.607412 
2826.000000	57.614159 
2825.000000	57.622337 
2824.000000	57.630181 
2823.000000	57.636046 
2822.000000	57.638788 
2821.000000	57.637858 
2820.000000	57.633519 
2819.000000	57.626771 
2818.000000	57.618999 
2817.000000	57.611799 
2816.000000	57.606601 
2815.000000	57.604479 
2814.000000	57.605862 
2813.000000	57.610392 
2812.000000	57.617235 
2811.000000	57.624959 
2810.000000	57.632040 
2809.000000	57.637047 
2808.000000	57.638883 
2807.000000	57.637119 
2806.000000	57.631850 
2805.000000	57.623672 
2804.000000	57.613635 
2803.000000	57.602667 
2802.000000	57.591462 
2801.000000	57.580256 
2800.000000	57.569003 
2799.000000	57.557225 
2798.000000	57.544326 
2797.000000	57.529926 
2796.000000	57.514047 
2795.000000	57.497239 
2794.000000	57.480382 
2793.000000	57.464861 
2792.000000	57.452011 
2791.000000	57.442879 
2790.000000	57.437968 
2789.000000	57.437086 
2788.000000	57.439565 
2787.000000	57.444167 
2786.000000	57.449626 
2785.000000	57.455015 
2784.000000	57.459473 
2783.000000	57.462835 
2782.000000	57.464933 
2781.000000	57.465481 
2780.000000	57.463788 
2779.000000	57.458758 
2778.000000	57.448768 
2777.000000	57.432270 
2776.000000	57.408022 
2775.000000	57.375836 
2774.000000	57.336854 
2773.000000	57.293438 
2772.000000	57.248997 
2771.000000	57.207298 
2770.000000	57.171940 
2769.000000	57.145524 
2768.000000	57.129263 
2767.000000	57.122755 
2766.000000	57.124352 
2765.000000	57.131505 
2764.000000	57.141304 
2763.000000	57.151126 
2762.000000	57.158875 
2761.000000	57.163214 
2760.000000	57.163405 
2759.000000	57.159566 
2758.000000	57.152128 
2757.000000	57.141828 
2756.000000	57.129788 
2755.000000	57.117319 
2754.000000	57.105922 
2753.000000	57.096838 
2752.000000	57.091331 
2751.000000	57.089734 
2750.000000	57.091641 
2749.000000	57.095503 
2748.000000	57.099151 
2747.000000	57.100033 
2746.000000	57.095766 
2745.000000	57.085084 
2744.000000	57.068037 
2743.000000	57.046031 
2742.000000	57.021617 
2741.000000	56.997942 
2740.000000	56.978058 
2739.000000	56.964206 
2738.000000	56.957340 
2737.000000	56.957030 
2736.000000	56.961941 
2735.000000	56.969952 
2734.000000	56.978988 
2733.000000	56.987428 
2732.000000	56.994509 
2731.000000	57.000160 
2730.000000	57.005238 
2729.000000	57.010626 
2728.000000	57.017230 
2727.000000	57.025480 
2726.000000	57.035017 
2725.000000	57.044959 
2724.000000	57.053494 
2723.000000	57.058906 
2722.000000	57.059311 
2721.000000	57.053399 
2720.000000	57.040524 
2719.000000	57.021045 
2718.000000	56.996321 
2717.000000	56.968331 
2716.000000	56.939578 
2715.000000	56.912636 
2714.000000	56.889748 
2713.000000	56.872534 
2712.000000	56.861734 
2711.000000	56.857371 
2710.000000	56.858777 
2709.000000	56.865000 
2708.000000	56.874895 
2707.000000	56.887340 
2706.000000	56.901359 
2705.000000	56.916022 
2704.000000	56.930589 
2703.000000	56.943917 
2702.000000	56.954765 
2701.000000	56.961345 
2700.000000	56.961798 
2699.000000	56.954264 
2698.000000	56.937456 
2697.000000	56.910943 
2696.000000	56.875562 
2695.000000	56.833291 
2694.000000	56.787037 
2693.000000	56.740188 
2692.000000	56.695961 
2691.000000	56.656932 
2690.000000	56.624627 
2689.000000	56.599378 
2688.000000	56.580781 
2687.000000	56.567883 
2686.000000	56.559658 
2685.000000	56.555390 
2684.000000	56.554913 
2683.000000	56.558108 
2682.000000	56.564974 
2681.000000	56.574892 
2680.000000	56.586885 
2679.000000	56.599020 
2678.000000	56.609392 
2677.000000	56.616473 
2676.000000	56.619358 
2675.000000	56.618380 
2674.000000	56.614613 
2673.000000	56.609749 
2672.000000	56.605100 
2671.000000	56.601333 
2670.000000	56.598067 
2669.000000	56.594014 
2668.000000	56.587433 
2667.000000	56.576776 
2666.000000	56.561040 
2665.000000	56.540226 
2664.000000	56.515288 
2663.000000	56.488084 
2662.000000	56.460571 
2661.000000	56.434321 
2660.000000	56.410264 
2659.000000	56.388664 
2658.000000	56.369161 
2657.000000	56.351137 
2656.000000	56.334209 
2655.000000	56.318593 
2654.000000	56.304812 
2653.000000	56.293725 
2652.000000	56.286025 
2651.000000	56.282186 
2650.000000	56.281924 
2649.000000	56.284475 
2648.000000	56.288361 
2647.000000	56.292033 
2646.000000	56.293916 
2645.000000	56.292700 
2644.000000	56.287527 
2643.000000	56.278228 
2642.000000	56.265306 
2641.000000	56.249880 
2640.000000	56.233358 
2639.000000	56.217098 
2638.000000	56.202220 
2637.000000	56.189489 
2636.000000	56.179165 
2635.000000	56.171154 
2634.000000	56.165099 
2633.000000	56.160688 
2632.000000	56.157875 
2631.000000	56.156969 
2630.000000	56.158685 
2629.000000	56.163907 
2628.000000	56.173419 
2627.000000	56.187582 
2626.000000	56.205892 
2625.000000	56.227159 
2624.000000	56.249475 
2623.000000	56.270575 
2622.000000	56.288051 
2621.000000	56.299924 
2620.000000	56.304645 
2619.000000	56.301450 
2618.000000	56.290245 
2617.000000	56.271624 
2616.000000	56.246924 
2615.000000	56.218075 
2614.000000	56.187510 
2613.000000	56.158018 
2612.000000	56.132149 
2611.000000	56.112051 
2610.000000	56.098890 
2609.000000	56.092762 
2608.000000	56.092429 
2607.000000	56.095623 
2606.000000	56.099629 
2605.000000	56.101775 
2604.000000	56.100153 
2603.000000	56.094002 
2602.000000	56.083846 
2601.000000	56.071090 
2600.000000	56.057739 
2599.000000	56.045460 
2598.000000	56.035137 
2597.000000	56.026482 
2596.000000	56.018400 
2595.000000	56.009173 
2594.000000	55.997276 
2593.000000	55.981731 
2592.000000	55.962896 
2591.000000	55.942153 
2590.000000	55.921626 
2589.000000	55.903816 
2588.000000	55.890655 
2587.000000	55.883169 
2586.000000	55.881166 
2585.000000	55.883336 
2584.000000	55.887436 
2583.000000	55.891013 
2582.000000	55.892133 
2581.000000	55.889439 
2580.000000	55.882334 
2579.000000	55.871033 
2578.000000	55.856132 
2577.000000	55.838608 
2576.000000	55.819487 
2575.000000	55.799651 
2574.000000	55.779910 
2573.000000	55.761146 
2572.000000	55.744266 
2571.000000	55.730056 
2570.000000	55.719280 
2569.000000	55.712342 
2568.000000	55.709147 
2567.000000	55.709075 
2566.000000	55.710983 
2565.000000	55.713343 
2564.000000	55.714678 
2563.000000	55.713677 
2562.000000	55.709934 
2561.000000	55.703735 
2560.000000	55.696272 
2559.000000	55.689382 
2558.000000	55.684804 
2557.000000	55.683875 
2556.000000	55.687046 
2555.000000	55.693674 
2554.000000	55.702090 
2553.000000	55.709910 
2552.000000	55.714464 
2551.000000	55.713391 
2550.000000	55.705022 
2549.000000	55.688834 
2548.000000	55.665302 
2547.000000	55.635857 
2546.000000	55.602860 
2545.000000	55.568957 
2544.000000	55.536866 
2543.000000	55.508780 
2542.000000	55.486154 
2541.000000	55.469632 
2540.000000	55.458855 
2539.000000	55.452895 
2538.000000	55.450439 
2537.000000	55.450248 
2536.000000	55.451369 
2535.000000	55.453133 
2534.000000	55.455207 
2533.000000	55.457687 
2532.000000	55.460429 
2531.000000	55.463504 
2530.000000	55.466914 
2529.000000	55.470538 
2528.000000	55.474233 
2527.000000	55.477571 
2526.000000	55.479979 
2525.000000	55.480766 
2524.000000	55.479240 
2523.000000	55.474710 
2522.000000	55.466771 
2521.000000	55.455303 
2520.000000	55.440640 
2519.000000	55.423498 
2518.000000	55.404949 
2517.000000	55.386233 
2516.000000	55.368614 
2515.000000	55.353045 
2514.000000	55.340123 
2513.000000	55.330181 
2512.000000	55.323123 
2511.000000	55.318546 
2510.000000	55.315971 
2509.000000	55.314779 
2508.000000	55.314326 
2507.000000	55.313992 
2506.000000	55.313181 
2505.000000	55.311203 
2504.000000	55.307435 
2503.000000	55.301213 
2502.000000	55.292105 
2501.000000	55.279946 
2500.000000	55.264711 
2499.000000	55.246710 
2498.000000	55.226445 
2497.000000	55.204582 
2496.000000	55.181837 
2495.000000	55.159091 
2494.000000	55.137228 
2493.000000	55.117154 
2492.000000	55.099630 
2491.000000	55.085396 
2490.000000	55.074977 
2489.000000	55.068635 
2488.000000	55.066275 
2487.000000	55.067420 
2486.000000	55.071187 
2485.000000	55.076098 
2484.000000	55.080366 
2483.000000	55.082368 
2482.000000	55.080533 
2481.000000	55.073928 
2480.000000	55.062365 
2479.000000	55.046629 
2478.000000	55.028319 
2477.000000	55.009508 
2476.000000	54.992532 
2475.000000	54.979300 
2474.000000	54.970979 
2473.000000	54.967617 
2472.000000	54.968476 
2471.000000	54.971861 
2470.000000	54.975771 
2469.000000	54.978227 
2468.000000	54.977679 
2467.000000	54.973435 
2466.000000	54.965591 
2465.000000	54.954886 
2464.000000	54.942297 
2463.000000	54.928970 
2462.000000	54.915738 
2461.000000	54.902935 
2460.000000	54.890537 
2459.000000	54.878091 
2458.000000	54.865360 
2457.000000	54.852318 
2456.000000	54.839468 
2455.000000	54.827547 
2454.000000	54.817318 
2453.000000	54.809498 
2452.000000	54.804086 
2451.000000	54.800462 
2450.000000	54.796981 
2449.000000	54.791665 
2448.000000	54.782414 
2447.000000	54.767680 
2446.000000	54.747033 
2445.000000	54.721355 
2444.000000	54.692745 
2443.000000	54.664206 
2442.000000	54.639053 
2441.000000	54.620146 
2440.000000	54.609322 
2439.000000	54.607057 
2438.000000	54.612469 
2437.000000	54.623603 
2436.000000	54.637885 
2435.000000	54.652357 
2434.000000	54.664254 
2433.000000	54.671168 
2432.000000	54.671287 
2431.000000	54.663586 
2430.000000	54.647707 
2429.000000	54.624390 
2428.000000	54.595232 
2427.000000	54.562592 
2426.000000	54.529500 
2425.000000	54.498982 
2424.000000	54.474091 
2423.000000	54.456806 
2422.000000	54.447889 
2421.000000	54.446721 
2420.000000	54.451322 
2419.000000	54.459095 
2418.000000	54.467034 
2417.000000	54.472708 
2416.000000	54.474616 
2415.000000	54.472303 
2414.000000	54.466366 
2413.000000	54.458093 
2412.000000	54.448938 
2411.000000	54.440045 
2410.000000	54.431939 
2409.000000	54.424405 
2408.000000	54.416799 
2407.000000	54.408335 
2406.000000	54.398345 
2405.000000	54.386591 
2404.000000	54.373502 
2403.000000	54.360151 
2402.000000	54.347944 
2401.000000	54.338335 
2400.000000	54.332399 
2399.000000	54.330778 
2398.000000	54.333400 
2397.000000	54.339551 
2396.000000	54.347896 
2395.000000	54.356718 
2394.000000	54.364275 
2393.000000	54.368972 
2392.000000	54.369759 
2391.000000	54.366374 
2390.000000	54.359149 
2389.000000	54.349112 
2388.000000	54.337739 
2387.000000	54.326415 
2386.000000	54.316258 
2385.000000	54.307675 
2384.000000	54.300427 
2383.000000	54.293680 
2382.000000	54.286193 
2381.000000	54.276776 
2380.000000	54.264760 
2379.000000	54.250311 
2378.000000	54.234242 
2377.000000	54.218244 
2376.000000	54.204154 
2375.000000	54.193758 
2374.000000	54.188299 
2373.000000	54.188084 
2372.000000	54.192519 
2371.000000	54.200172 
2370.000000	54.209113 
2369.000000	54.217076 
2368.000000	54.222059 
2367.000000	54.222393 
2366.000000	54.217123 
2365.000000	54.206156 
2364.000000	54.190254 
2363.000000	54.170799 
2362.000000	54.149627 
2361.000000	54.128694 
2360.000000	54.109454 
2359.000000	54.092979 
2358.000000	54.079389 
2357.000000	54.067993 
2356.000000	54.057478 
2355.000000	54.046225 
2354.000000	54.032874 
2353.000000	54.016637 
2352.000000	53.997826 
2351.000000	53.977632 
2350.000000	53.957986 
2349.000000	53.941154 
2348.000000	53.928995 
2347.000000	53.922486 
2346.000000	53.921437 
2345.000000	53.924536 
2344.000000	53.929400 
2343.000000	53.933334 
2342.000000	53.933572 
2341.000000	53.928112 
2340.000000	53.916001 
2339.000000	53.897309 
2338.000000	53.873443 
2337.000000	53.846740 
2336.000000	53.820109 
2335.000000	53.796291 
2334.000000	53.777527 
2333.000000	53.765296 
2332.000000	53.759860 
2331.000000	53.760552 
2330.000000	53.765797 
2329.000000	53.773665 
2328.000000	53.781986 
2327.000000	53.788971 
2326.000000	53.793478 
2325.000000	53.794860 
2324.000000	53.793191 
2323.000000	53.788852 
2322.000000	53.782272 
2321.000000	53.773880 
2320.000000	53.763914 
2319.000000	53.752470 
2318.000000	53.739619 
2317.000000	53.725290 
2316.000000	53.709912 
2315.000000	53.693723 
2314.000000	53.677082 
2313.000000	53.660082 
2312.000000	53.642702 
2311.000000	53.624773 
2310.000000	53.606176 
2309.000000	53.586935 
2308.000000	53.567290 
2307.000000	53.547930 
2306.000000	53.529620 
2305.000000	53.513216 
2304.000000	53.499627 
2303.000000	53.489303 
2302.000000	53.482437 
2301.000000	53.478670 
2300.000000	53.477525 
2299.000000	53.478217 
2298.000000	53.480219 
2297.000000	53.482770 
2296.000000	53.485345 
2295.000000	53.487277 
2294.000000	53.487968 
2293.000000	53.486704 
2292.000000	53.482961 
2291.000000	53.476333 
2290.000000	53.467059 
2289.000000	53.455734 
2288.000000	53.443479 
2287.000000	53.431510 
2286.000000	53.420948 
2285.000000	53.412556 
2284.000000	53.406405 
2283.000000	53.402090 
2282.000000	53.398680 
2281.000000	53.395104 
2280.000000	53.390288 
2279.000000	53.383517 
2278.000000	53.374600 
2277.000000	53.363895 
2276.000000	53.351974 
2275.000000	53.339481 
2274.000000	53.326892 
2273.000000	53.314495 
2272.000000	53.302073 
2271.000000	53.289151 
2270.000000	53.275346 
2269.000000	53.260350 
2268.000000	53.244280 
2267.000000	53.227591 
2266.000000	53.211045 
2265.000000	53.195524 
2264.000000	53.181838 
2263.000000	53.170347 
2262.000000	53.160858 
2261.000000	53.152561 
2260.000000	53.144049 
2259.000000	53.133749 
2258.000000	53.120207 
2257.000000	53.102660 
2256.000000	53.081107 
2255.000000	53.056621 
2254.000000	53.031158 
2253.000000	53.007125 
2252.000000	52.987051 
2251.000000	52.972936 
2250.000000	52.965927 
2249.000000	52.966165 
2248.000000	52.972745 
2247.000000	52.983999 
2246.000000	52.997708 
2245.000000	53.011751 
2244.000000	53.024220 
2243.000000	53.033638 
2242.000000	53.038859 
2241.000000	53.039216 
2240.000000	53.034210 
2239.000000	53.023719 
2238.000000	53.007745 
2237.000000	52.986764 
2236.000000	52.961564 
2235.000000	52.933621 
2234.000000	52.904820 
2233.000000	52.877330 
2232.000000	52.853250 
2231.000000	52.834320 
2230.000000	52.821397 
2229.000000	52.814388 
2228.000000	52.812290 
2227.000000	52.813410 
2226.000000	52.815771 
2225.000000	52.817416 
2224.000000	52.817034 
2223.000000	52.814006 
2222.000000	52.808213 
2221.000000	52.800059 
2220.000000	52.790141 
2219.000000	52.779054 
2218.000000	52.766990 
2217.000000	52.754020 
2216.000000	52.739906 
2215.000000	52.724552 
2214.000000	52.708077 
2213.000000	52.690863 
2212.000000	52.673411 
2211.000000	52.656197 
2210.000000	52.639627 
2209.000000	52.623677 
2208.000000	52.608060 
2207.000000	52.592206 
2206.000000	52.575659 
2205.000000	52.558302 
2204.000000	52.540493 
2203.000000	52.523159 
2202.000000	52.507448 
2201.000000	52.494549 
2200.000000	52.485346 
2199.000000	52.480006 
2198.000000	52.477955 
2197.000000	52.478122 
2196.000000	52.478885 
2195.000000	52.478623 
2194.000000	52.475953 
2193.000000	52.470040 
2192.000000	52.460575 
2191.000000	52.447891 
2190.000000	52.432489 
2189.000000	52.415060 
2188.000000	52.396273 
2187.000000	52.376580 
2186.000000	52.356529 
2185.000000	52.336478 
2184.000000	52.317166 
2183.000000	52.299499 
2182.000000	52.284431 
2181.000000	52.272939 
2180.000000	52.265691 
2179.000000	52.262711 
2178.000000	52.263474 
2177.000000	52.266740 
2176.000000	52.270841 
2175.000000	52.273988 
2174.000000	52.274608 
2173.000000	52.271890 
2172.000000	52.265787 
2171.000000	52.257132 
2170.000000	52.247428 
2169.000000	52.238464 
2168.000000	52.231812 
2167.000000	52.228379 
2166.000000	52.228450 
2165.000000	52.231121 
2164.000000	52.235126 
2163.000000	52.238321 
2162.000000	52.238917 
2161.000000	52.235198 
2160.000000	52.225947 
2159.000000	52.210640 
2158.000000	52.189540 
2157.000000	52.163529 
2156.000000	52.134013 
2155.000000	52.102875 
2154.000000	52.072048 
2153.000000	52.043390 
2152.000000	52.018594 
2151.000000	51.998853 
2150.000000	51.984667 
2149.000000	51.975822 
2148.000000	51.971387 
2147.000000	51.969933 
2146.000000	51.969742 
2145.000000	51.969027 
2144.000000	51.966428 
2143.000000	51.961207 
2142.000000	51.953339 
2141.000000	51.943635 
2140.000000	51.933407 
2139.000000	51.924133 
2138.000000	51.917338 
2137.000000	51.913928 
2136.000000	51.914095 
2135.000000	51.917505 
2134.000000	51.922869 
2133.000000	51.928710 
2132.000000	51.933026 
2131.000000	51.934218 
2130.000000	51.930785 
2129.000000	51.921701 
2128.000000	51.906442 
2127.000000	51.885080 
2126.000000	51.858115 
2125.000000	51.826643 
2124.000000	51.792216 
2123.000000	51.756811 
2122.000000	51.722788 
2121.000000	51.692771 
2120.000000	51.669192 
2119.000000	51.654052 
2118.000000	51.648449 
2117.000000	51.652383 
2116.000000	51.664543 
2115.000000	51.682496 
2114.000000	51.702952 
2113.000000	51.722741 
2112.000000	51.738810 
2111.000000	51.749134 
2110.000000	51.753020 
2109.000000	51.751065 
2108.000000	51.744771 
2107.000000	51.736164 
2106.000000	51.727247 
2105.000000	51.719498 
2104.000000	51.713705 
2103.000000	51.709723 
2102.000000	51.706862 
2101.000000	51.704001 
2100.000000	51.700139 
2099.000000	51.694536 
2098.000000	51.686668 
2097.000000	51.676416 
2096.000000	51.663708 
2095.000000	51.648521 
2094.000000	51.630783 
2093.000000	51.610541 
2092.000000	51.587986 
2091.000000	51.563715 
2090.000000	51.538848 
2089.000000	51.514792 
2088.000000	51.493167 
2087.000000	51.475405 
2086.000000	51.462173 
2085.000000	51.453137 
2084.000000	51.447176 
2083.000000	51.442337 
2082.000000	51.436662 
2081.000000	51.428270 
2080.000000	51.416492 
2079.000000	51.401996 
2078.000000	51.386785 
2077.000000	51.373600 
2076.000000	51.365256 
2075.000000	51.363921 
2074.000000	51.370334 
2073.000000	51.383566 
2072.000000	51.401162 
2071.000000	51.419758 
2070.000000	51.435637 
2069.000000	51.445603 
2068.000000	51.447510 
2067.000000	51.440429 
2066.000000	51.424741 
2065.000000	51.401805 
2064.000000	51.373624 
2063.000000	51.342558 
2062.000000	51.311087 
2061.000000	51.281476 
2060.000000	51.255798 
2059.000000	51.235437 
2058.000000	51.221275 
2057.000000	51.213312 
2056.000000	51.210641 
2055.000000	51.211452 
2054.000000	51.213002 
2053.000000	51.212334 
2052.000000	51.206994 
2051.000000	51.195311 
2050.000000	51.176738 
2049.000000	51.152205 
2048.000000	51.123642 
2047.000000	51.093769 
2046.000000	51.065182 
2045.000000	51.040077 
2044.000000	51.019716 
2043.000000	51.004433 
2042.000000	50.993680 
2041.000000	50.986289 
2040.000000	50.980901 
2039.000000	50.976133 
2038.000000	50.971055 
2037.000000	50.965332 
2036.000000	50.958943 
2035.000000	50.952363 
2034.000000	50.946068 
2033.000000	50.940442 
2032.000000	50.935387 
2031.000000	50.930786 
2030.000000	50.925755 
2029.000000	50.919198 
2028.000000	50.909733 
2027.000000	50.896143 
2026.000000	50.877547 
2025.000000	50.853681 
2024.000000	50.825071 
2023.000000	50.793027 
2022.000000	50.759625 
2021.000000	50.727319 
2020.000000	50.698781 
2019.000000	50.676226 
2018.000000	50.661277 
2017.000000	50.654792 
2016.000000	50.656628 
2015.000000	50.665569 
2014.000000	50.679445 
2013.000000	50.695443 
2012.000000	50.710415 
2011.000000	50.721549 
2010.000000	50.726699 
2009.000000	50.724864 
2008.000000	50.716447 
2007.000000	50.703024 
2006.000000	50.687026 
2005.000000	50.671148 
2004.000000	50.657939 
2003.000000	50.649094 
2002.000000	50.645256 
2001.000000	50.645685 
2000.000000	50.648927 
1999.000000	50.652837 
1998.000000	50.655269 
1997.000000	50.654506 
1996.000000	50.649404 
1995.000000	50.639486 
1994.000000	50.624752 
1993.000000	50.605750 
1992.000000	50.582981 
1991.000000	50.557231 
1990.000000	50.529217 
1989.000000	50.499963 
1988.000000	50.470757 
1987.000000	50.443267 
1986.000000	50.419378 
1985.000000	50.400733 
1984.000000	50.388550 
1983.000000	50.383234 
1982.000000	50.384163 
1981.000000	50.389671 
1980.000000	50.397348 
1979.000000	50.404620 
1978.000000	50.409317 
1977.000000	50.409889 
1976.000000	50.405812 
1975.000000	50.397372 
1974.000000	50.385642 
1973.000000	50.371861 
1972.000000	50.357127 
1971.000000	50.342440 
1970.000000	50.328207 
1969.000000	50.314450 
1968.000000	50.300931 
1967.000000	50.287461 
1966.000000	50.273942 
1965.000000	50.260329 
1964.000000	50.246810 
1963.000000	50.233697 
1962.000000	50.221467 
1961.000000	50.210547 
1960.000000	50.201082 
1959.000000	50.192975 
1958.000000	50.186014 
1957.000000	50.179767 
1956.000000	50.173640 
1955.000000	50.166940 
1954.000000	50.159096 
1953.000000	50.149798 
1952.000000	50.138902 
1951.000000	50.126552 
1950.000000	50.113248 
1949.000000	50.099372 
1948.000000	50.085496 
1947.000000	50.071835 
1946.000000	50.058555 
1945.000000	50.045299 
1944.000000	50.031566 
1943.000000	50.016617 
1942.000000	49.999809 
1941.000000	49.980616 
1940.000000	49.958682 
1939.000000	49.934124 
1938.000000	49.907350 
1937.000000	49.879503 
1936.000000	49.852061 
1935.000000	49.826908 
1934.000000	49.805855 
1933.000000	49.790596 
1932.000000	49.782133 
1931.000000	49.780654 
1930.000000	49.785399 
1929.000000	49.794769 
1928.000000	49.806571 
1927.000000	49.818372 
1926.000000	49.828076 
1925.000000	49.834132 
1924.000000	49.835968 
1923.000000	49.833965 
1922.000000	49.829173 
1921.000000	49.823117 
1920.000000	49.817228 
1919.000000	49.812698 
1918.000000	49.809908 
1917.000000	49.808645 
1916.000000	49.807810 
1915.000000	49.806141 
1914.000000	49.802064 
1913.000000	49.794244 
1912.000000	49.781799 
1911.000000	49.764585 
1910.000000	49.743247 
1909.000000	49.719023 
1908.000000	49.693775 
1907.000000	49.669599 
1906.000000	49.648451 
1905.000000	49.631762 
1904.000000	49.620342 
1903.000000	49.614143 
1902.000000	49.612307 
1901.000000	49.613308 
1900.000000	49.615311 
1899.000000	49.616456 
1898.000000	49.615192 
1897.000000	49.610400 
1896.000000	49.601674 
1895.000000	49.589037 
1894.000000	49.573063 
1893.000000	49.554657 
1892.000000	49.534845 
1891.000000	49.514341 
1890.000000	49.494028 
1889.000000	49.474430 
1888.000000	49.456000 
1887.000000	49.439096 
1886.000000	49.424219 
1885.000000	49.411964 
1884.000000	49.402713 
1883.000000	49.396920 
1882.000000	49.394631 
1881.000000	49.395585 
1880.000000	49.399137 
1879.000000	49.404335 
1878.000000	49.409985 
1877.000000	49.414968 
1876.000000	49.418330 
1875.000000	49.419593 
1874.000000	49.418592 
1873.000000	49.415588 
1872.000000	49.411153 
1871.000000	49.406051 
1870.000000	49.400925 
1869.000000	49.396252 
1868.000000	49.392223 
1867.000000	49.389028 
1866.000000	49.386358 
1865.000000	49.383831 
1864.000000	49.380636 
1863.000000	49.375796 
1862.000000	49.368143 
1861.000000	49.356555 
1860.000000	49.340057 
1859.000000	49.318170 
1858.000000	49.291086 
1857.000000	49.259948 
1856.000000	49.226450 
1855.000000	49.192786 
1854.000000	49.161124 
1853.000000	49.133396 
1852.000000	49.110913 
1851.000000	49.094200 
1850.000000	49.083018 
1849.000000	49.076390 
1848.000000	49.073028 
1847.000000	49.071526 
1846.000000	49.070477 
1845.000000	49.068689 
1844.000000	49.065065 
1843.000000	49.058794 
1842.000000	49.049162 
1841.000000	49.035763 
1840.000000	49.018597 
1839.000000	48.998284 
1838.000000	48.975968 
1837.000000	48.953390 
1836.000000	48.932456 
1835.000000	48.915004 
1834.000000	48.902344 
1833.000000	48.895025 
1832.000000	48.892593 
1831.000000	48.893952 
1830.000000	48.897480 
1829.000000	48.901271 
1828.000000	48.903727 
1827.000000	48.903632 
1826.000000	48.900461 
1825.000000	48.894214 
1824.000000	48.885345 
1823.000000	48.874473 
1822.000000	48.862314 
1821.000000	48.849463 
1820.000000	48.836469 
1819.000000	48.823904 
1818.000000	48.812270 
1817.000000	48.802280 
1816.000000	48.794579 
1815.000000	48.789834 
1814.000000	48.788166 
1813.000000	48.789381 
1812.000000	48.792552 
1811.000000	48.796033 
1810.000000	48.797965 
1809.000000	48.796534 
1808.000000	48.790454 
1807.000000	48.779153 
1806.000000	48.763155 
1805.000000	48.743748 
1804.000000	48.722791 
1803.000000	48.702335 
1802.000000	48.684191 
1801.000000	48.669648 
1800.000000	48.659300 
1799.000000	48.652887 
1798.000000	48.649430 
1797.000000	48.647308 
1796.000000	48.644685 
1795.000000	48.639774 
1794.000000	48.631358 
1793.000000	48.618984 
1792.000000	48.602962 
1791.000000	48.584270 
1790.000000	48.564171 
1789.000000	48.543834 
1788.000000	48.524117 
1787.000000	48.505330 
1786.000000	48.487544 
1785.000000	48.470544 
1784.000000	48.454165 
1783.000000	48.438405 
1782.000000	48.423647 
1781.000000	48.410558 
1780.000000	48.399686 
1779.000000	48.391413 
1778.000000	48.385787 
1777.000000	48.382353 
1776.000000	48.380255 
1775.000000	48.378396 
1774.000000	48.375868 
1773.000000	48.372030 
1772.000000	48.366856 
1771.000000	48.360657 
1770.000000	48.353934 
1769.000000	48.347139 
1768.000000	48.340415 
1767.000000	48.333525 
1766.000000	48.325800 
1765.000000	48.316383 
1764.000000	48.304224 
1763.000000	48.288822 
1762.000000	48.270034 
1761.000000	48.248171 
1760.000000	48.223948 
1759.000000	48.198390 
1758.000000	48.172307 
1757.000000	48.146414 
1756.000000	48.121190 
1755.000000	48.096561 
1754.000000	48.072290 
1753.000000	48.048305 
1752.000000	48.024678 
1751.000000	48.001670 
1750.000000	47.980141 
1749.000000	47.960901 
1748.000000	47.944974 
1747.000000	47.933006 
1746.000000	47.925257 
1745.000000	47.921323 
1744.000000	47.920393 
1743.000000	47.921228 
1742.000000	47.922348 
1741.000000	47.922253 
1740.000000	47.919535 
1739.000000	47.912979 
1738.000000	47.901606 
1737.000000	47.884964 
1736.000000	47.863078 
1735.000000	47.836542 
1734.000000	47.806596 
1733.000000	47.775197 
1732.000000	47.744607 
1731.000000	47.717308 
1730.000000	47.695684 
1729.000000	47.681689 
1728.000000	47.676372 
1727.000000	47.680020 
1726.000000	47.691702 
1725.000000	47.709727 
1724.000000	47.731542 
1723.000000	47.754311 
1722.000000	47.775053 
1721.000000	47.791123 
1720.000000	47.800254 
1719.000000	47.801065 
1718.000000	47.793102 
1717.000000	47.776889 
1716.000000	47.753906 
1715.000000	47.726464 
1714.000000	47.697257 
1713.000000	47.668981 
1712.000000	47.643804 
1711.000000	47.623133 
1710.000000	47.607445 
1709.000000	47.596383 
1708.000000	47.589182 
1707.000000	47.584629 
1706.000000	47.581624 
1705.000000	47.579288 
1704.000000	47.577023 
1703.000000	47.574281 
1702.000000	47.570800 
1701.000000	47.566056 
1700.000000	47.559571 
1699.000000	47.550702 
1698.000000	47.539281 
1697.000000	47.525477 
1696.000000	47.510027 
1695.000000	47.494339 
1694.000000	47.479844 
1693.000000	47.468066 
1692.000000	47.459769 
1691.000000	47.455024 
1690.000000	47.453045 
1689.000000	47.452521 
1688.000000	47.451853 
1687.000000	47.449588 
1686.000000	47.444748 
1685.000000	47.436976 
1684.000000	47.426295 
1683.000000	47.413349 
1682.000000	47.398662 
1681.000000	47.382760 
1680.000000	47.365808 
1679.000000	47.347903 
1678.000000	47.328972 
1677.000000	47.308897 
1676.000000	47.288084 
1675.000000	47.266912 
1674.000000	47.246193 
1673.000000	47.226810 
1672.000000	47.209429 
1671.000000	47.194671 
1670.000000	47.182917 
1669.000000	47.174334 
1668.000000	47.168803 
1667.000000	47.166085 
1666.000000	47.165799 
1665.000000	47.167348 
1664.000000	47.170019 
1663.000000	47.172999 
1662.000000	47.175431 
1661.000000	47.176551 
1660.000000	47.175598 
1659.000000	47.171902 
1658.000000	47.164893 
1657.000000	47.154068 
1656.000000	47.139334 
1655.000000	47.120761 
1654.000000	47.098779 
1653.000000	47.074174 
1652.000000	47.048044 
1651.000000	47.021818 
1650.000000	46.996951 
1649.000000	46.974921 
1648.000000	46.956849 
1647.000000	46.943283 
1646.000000	46.934175 
1645.000000	46.928834 
1644.000000	46.926212 
1643.000000	46.924996 
1642.000000	46.923732 
1641.000000	46.921396 
1640.000000	46.917080 
1639.000000	46.910190 
1638.000000	46.900320 
1637.000000	46.887421 
1636.000000	46.871733 
1635.000000	46.853804 
1634.000000	46.834588 
1633.000000	46.815299 
1632.000000	46.797370 
1631.000000	46.782302 
1630.000000	46.771121 
1629.000000	46.764326 
1628.000000	46.761584 
1627.000000	46.761941 
1626.000000	46.763706 
1625.000000	46.765136 
1624.000000	46.764636 
1623.000000	46.761178 
1622.000000	46.754574 
1621.000000	46.745038 
1620.000000	46.733307 
1619.000000	46.720170 
1618.000000	46.706175 
1617.000000	46.691608 
1616.000000	46.676540 
1615.000000	46.660995 
1614.000000	46.645212 
1613.000000	46.629905 
1612.000000	46.615934 
1611.000000	46.604442 
1610.000000	46.596384 
1609.000000	46.591806 
1608.000000	46.590113 
1607.000000	46.589660 
1606.000000	46.588182 
1605.000000	46.583247 
1604.000000	46.572756 
1603.000000	46.555662 
1602.000000	46.532130 
1601.000000	46.503400 
1600.000000	46.471667 
1599.000000	46.439433 
1598.000000	46.409082 
1597.000000	46.382451 
1596.000000	46.360492 
1595.000000	46.343302 
1594.000000	46.330046 
1593.000000	46.319007 
1592.000000	46.308326 
1591.000000	46.296000 
1590.000000	46.280765 
1589.000000	46.262049 
1588.000000	46.240448 
1587.000000	46.217346 
1586.000000	46.194791 
1585.000000	46.174693 
1584.000000	46.158623 
1583.000000	46.147179 
1582.000000	46.140241 
1581.000000	46.136856 
1580.000000	46.135687 
1579.000000	46.135425 
1578.000000	46.134877 
1577.000000	46.133470 
1576.000000	46.130919 
1575.000000	46.127295 
1574.000000	46.122550 
1573.000000	46.116709 
1572.000000	46.109366 
1571.000000	46.100258 
1570.000000	46.089053 
1569.000000	46.075797 
1568.000000	46.061086 
1567.000000	46.046042 
1566.000000	46.031975 
1565.000000	46.020436 
1564.000000	46.012639 
1563.000000	46.009230 
1562.000000	46.010088 
1561.000000	46.014332 
1560.000000	46.020483 
1559.000000	46.026611 
1558.000000	46.030902 
1557.000000	46.031737 
1556.000000	46.028113 
1555.000000	46.019387 
1554.000000	46.005392 
1553.000000	45.986366 
1552.000000	45.962905 
1551.000000	45.936131 
1550.000000	45.907497 
1549.000000	45.878815 
1548.000000	45.851826 
1547.000000	45.828199 
1546.000000	45.809006 
1545.000000	45.794558 
1544.000000	45.784306 
1543.000000	45.777201 
1542.000000	45.771741 
1541.000000	45.766329 
1540.000000	45.759725 
1539.000000	45.750689 
1538.000000	45.738673 
1537.000000	45.723319 
1536.000000	45.704770 
1535.000000	45.683455 
1534.000000	45.660376 
1533.000000	45.636677 
1532.000000	45.614027 
1531.000000	45.594072 
1530.000000	45.578217 
1529.000000	45.567488 
1528.000000	45.562100 
1527.000000	45.561361 
1526.000000	45.563936 
1525.000000	45.567750 
1524.000000	45.570778 
1523.000000	45.571351 
1522.000000	45.568704 
1521.000000	45.562934 
1520.000000	45.554900 
1519.000000	45.545840 
1518.000000	45.537018 
1517.000000	45.529270 
1516.000000	45.523047 
1515.000000	45.518136 
1514.000000	45.513939 
1513.000000	45.509672 
1512.000000	45.504665 
1511.000000	45.498180 
1510.000000	45.489907 
1509.000000	45.479655 
1508.000000	45.467495 
1507.000000	45.453596 
1506.000000	45.438194 
1505.000000	45.421385 
1504.000000	45.403361 
1503.000000	45.384311 
1502.000000	45.364403 
1501.000000	45.343995 
1500.000000	45.323586 
1499.000000	45.303726 
1498.000000	45.285129 
1497.000000	45.268511 
1496.000000	45.254468 
1495.000000	45.243334 
1494.000000	45.235109 
1493.000000	45.229244 
1492.000000	45.224642 
1491.000000	45.219802 
1490.000000	45.213079 
1489.000000	45.203018 
1488.000000	45.188903 
1487.000000	45.170712 
1486.000000	45.149588 
1485.000000	45.127296 
1484.000000	45.105862 
1483.000000	45.087409 
1482.000000	45.073294 
1481.000000	45.064067 
1480.000000	45.058798 
1479.000000	45.055747 
1478.000000	45.052266 
1477.000000	45.045614 
1476.000000	45.033574 
1475.000000	45.014953 
1474.000000	44.990158 
1473.000000	44.961071 
1472.000000	44.930863 
1471.000000	44.903373 
1470.000000	44.882345 
1469.000000	44.870615 
1468.000000	44.869518 
1467.000000	44.878554 
1466.000000	44.895648 
1465.000000	44.917607 
1464.000000	44.940614 
1463.000000	44.961142 
1462.000000	44.976472 
1461.000000	44.985151 
1460.000000	44.986867 
1459.000000	44.982433 
1458.000000	44.973444 
1457.000000	44.961547 
1456.000000	44.948410 
1455.000000	44.934988 
1454.000000	44.921779 
1453.000000	44.908547 
1452.000000	44.894909 
1451.000000	44.880342 
1450.000000	44.864749 
1449.000000	44.848394 
1448.000000	44.832015 
1447.000000	44.816589 
1446.000000	44.803023 
1445.000000	44.791913 
1444.000000	44.783568 
1443.000000	44.777584 
1442.000000	44.773197 
1441.000000	44.769430 
1440.000000	44.765162 
1439.000000	44.759321 
1438.000000	44.751191 
1437.000000	44.740247 
1436.000000	44.726181 
1435.000000	44.709086 
1434.000000	44.689226 
1433.000000	44.667124 
1432.000000	44.643545 
1431.000000	44.619560 
1430.000000	44.596242 
1429.000000	44.574689 
1428.000000	44.555950 
1427.000000	44.540524 
1426.000000	44.528603 
1425.000000	44.519853 
1424.000000	44.513630 
1423.000000	44.509267 
1422.000000	44.506287 
1421.000000	44.504499 
1420.000000	44.503951 
1419.000000	44.504714 
1418.000000	44.506764 
1417.000000	44.509649 
1416.000000	44.512486 
1415.000000	44.513893 
1414.000000	44.512295 
1413.000000	44.506072 
1412.000000	44.494152 
1411.000000	44.476270 
1410.000000	44.453001 
1409.000000	44.426083 
1408.000000	44.398164 
1407.000000	44.372248 
1406.000000	44.351434 
1405.000000	44.338035 
1404.000000	44.333171 
1403.000000	44.336485 
1402.000000	44.346070 
1401.000000	44.358777 
1400.000000	44.370841 
1399.000000	44.378542 
1398.000000	44.379258 
1397.000000	44.371771 
1396.000000	44.356536 
1395.000000	44.335627 
1394.000000	44.312119 
1393.000000	44.289159 
1392.000000	44.269299 
1391.000000	44.253706 
1390.000000	44.241976 
1389.000000	44.232273 
1388.000000	44.221901 
1387.000000	44.208002 
1386.000000	44.188618 
1385.000000	44.163227 
1384.000000	44.132924 
1383.000000	44.100165 
1382.000000	44.068264 
1381.000000	44.040441 
1380.000000	44.019246 
1379.000000	44.005680 
1378.000000	43.999457 
1377.000000	43.999052 
1376.000000	44.002270 
1375.000000	44.006896 
1374.000000	44.011163 
1373.000000	44.014143 
1372.000000	44.015502 
1371.000000	44.015383 
1370.000000	44.014048 
1369.000000	44.011282 
1368.000000	44.006633 
1367.000000	43.999218 
1366.000000	43.988132 
1365.000000	43.972730 
1364.000000	43.953084 
1363.000000	43.929862 
1362.000000	43.904256 
1361.000000	43.877935 
1360.000000	43.852424 
1359.000000	43.828821 
1358.000000	43.807601 
1357.000000	43.788599 
1356.000000	43.771338 
1355.000000	43.755245 
1354.000000	43.739986 
1353.000000	43.725562 
1352.000000	43.712282 
1351.000000	43.700718 
1350.000000	43.690896 
1349.000000	43.682909 
1348.000000	43.676280 
1347.000000	43.670511 
1346.000000	43.665337 
1345.000000	43.660974 
1344.000000	43.658065 
1343.000000	43.657445 
1342.000000	43.659758 
1341.000000	43.664860 
1340.000000	43.671679 
1339.000000	43.678283 
1338.000000	43.682193 
1337.000000	43.681073 
1336.000000	43.673229 
1335.000000	43.658208 
1334.000000	43.636775 
1333.000000	43.610763 
1332.000000	43.582558 
1331.000000	43.554520 
1330.000000	43.528485 
1329.000000	43.505501 
1328.000000	43.485760 
1327.000000	43.468880 
1326.000000	43.454146 
1325.000000	43.441176 
1324.000000	43.429660 
1323.000000	43.419432 
1322.000000	43.410396 
1321.000000	43.402051 
1320.000000	43.393683 
1319.000000	43.384385 
1318.000000	43.373441 
1317.000000	43.360400 
1316.000000	43.345403 
1315.000000	43.329215 
1314.000000	43.312931 
1313.000000	43.297767 
1312.000000	43.284559 
1311.000000	43.273615 
1310.000000	43.264460 
1309.000000	43.255949 
1308.000000	43.246436 
1307.000000	43.234324 
1306.000000	43.218398 
1305.000000	43.198394 
1304.000000	43.175101 
1303.000000	43.150281 
1302.000000	43.126320 
1301.000000	43.105673 
1300.000000	43.090081 
1299.000000	43.080306 
1298.000000	43.075871 
1297.000000	43.075275 
1296.000000	43.076014 
1295.000000	43.075513 
1294.000000	43.071603 
1293.000000	43.062877 
1292.000000	43.048906 
1291.000000	43.030333 
1290.000000	43.008613 
1289.000000	42.985510 
1288.000000	42.962670 
1287.000000	42.941451 
1286.000000	42.922520 
1285.000000	42.905974 
1284.000000	42.891645 
1283.000000	42.879033 
1282.000000	42.867565 
1281.000000	42.856693 
1280.000000	42.846012 
1279.000000	42.835307 
1278.000000	42.824482 
1277.000000	42.813730 
1276.000000	42.803454 
1275.000000	42.794275 
1274.000000	42.786908 
1273.000000	42.781996 
1272.000000	42.779874 
1271.000000	42.780470 
1270.000000	42.783284 
1269.000000	42.787313 
1268.000000	42.791366 
1267.000000	42.794394 
1266.000000	42.795634 
1265.000000	42.794990 
1264.000000	42.792534 
1263.000000	42.788815 
1262.000000	42.783904 
1261.000000	42.777681 
1260.000000	42.769145 
1259.000000	42.756986 
1258.000000	42.739772 
1257.000000	42.716574 
1256.000000	42.687654 
1255.000000	42.654585 
1254.000000	42.620086 
1253.000000	42.587542 
1252.000000	42.560124 
1251.000000	42.540073 
1250.000000	42.528319 
1249.000000	42.524337 
1248.000000	42.526054 
1247.000000	42.530822 
1246.000000	42.535805 
1245.000000	42.539048 
1244.000000	42.539525 
1243.000000	42.537498 
1242.000000	42.534232 
1241.000000	42.531228 
1240.000000	42.529797 
1239.000000	42.530417 
1238.000000	42.532348 
1237.000000	42.533850 
1236.000000	42.532539 
1235.000000	42.526221 
1234.000000	42.513585 
1233.000000	42.494511 
1232.000000	42.470312 
1231.000000	42.443513 
1230.000000	42.417287 
1229.000000	42.394471 
1228.000000	42.377066 
1227.000000	42.365503 
1226.000000	42.358589 
1225.000000	42.353916 
1224.000000	42.348480 
1223.000000	42.339301 
1222.000000	42.324542 
1221.000000	42.303586 
1220.000000	42.277526 
1219.000000	42.248702 
1218.000000	42.220282 
1217.000000	42.195224 
1216.000000	42.176008 
1215.000000	42.164111 
1214.000000	42.159914 
1213.000000	42.162442 
1212.000000	42.169713 
1211.000000	42.179417 
1210.000000	42.188858 
1209.000000	42.195487 
1208.000000	42.197299 
1207.000000	42.192769 
1206.000000	42.181253 
1205.000000	42.162966 
1204.000000	42.138981 
1203.000000	42.111158 
1202.000000	42.082023 
1201.000000	42.054390 
1200.000000	42.030906 
1199.000000	42.013406 
1198.000000	42.002844 
1197.000000	41.998982 
1196.000000	42.000293 
1195.000000	42.004370 
1194.000000	42.008209 
1193.000000	42.008733 
1192.000000	42.003536 
1191.000000	41.991162 
1190.000000	41.971230 
1189.000000	41.944599 
1188.000000	41.912937 
1187.000000	41.878485 
1186.000000	41.843652 
1185.000000	41.810536 
1184.000000	41.780447 
1183.000000	41.754031 
1182.000000	41.731357 
1181.000000	41.712188 
1180.000000	41.696047 
1179.000000	41.682767 
1178.000000	41.672348 
1177.000000	41.665196 
1176.000000	41.661739 
1175.000000	41.662096 
1174.000000	41.665792 
1173.000000	41.671705 
1172.000000	41.678023 
1171.000000	41.682338 
1170.000000	41.682171 
1169.000000	41.675448 
1168.000000	41.660690 
1167.000000	41.637563 
1166.000000	41.606974 
1165.000000	41.570782 
1164.000000	41.531658 
1163.000000	41.492533 
1162.000000	41.456389 
1161.000000	41.425681 
1160.000000	41.402220 
1159.000000	41.386938 
1158.000000	41.380143 
1157.000000	41.381621 
1156.000000	41.390585 
1155.000000	41.405797 
1154.000000	41.425514 
1153.000000	41.447329 
1152.000000	41.468572 
1151.000000	41.486167 
1150.000000	41.497325 
1149.000000	41.499829 
1148.000000	41.492533 
1147.000000	41.475510 
1146.000000	41.449832 
1145.000000	41.417574 
1144.000000	41.381192 
1143.000000	41.343235 
1142.000000	41.305923 
1141.000000	41.271042 
1140.000000	41.240119 
1139.000000	41.214227 
1138.000000	41.194558 
1137.000000	41.182041 
1136.000000	41.177296 
1135.000000	41.180324 
1134.000000	41.190147 
1133.000000	41.204929 
1132.000000	41.221666 
1131.000000	41.237092 
1130.000000	41.247916 
1129.000000	41.251826 
1128.000000	41.247868 
1127.000000	41.236782 
1126.000000	41.220664 
1125.000000	41.202378 
1124.000000	41.184997 
1123.000000	41.170907 
1122.000000	41.161298 
1121.000000	41.156220 
1120.000000	41.154527 
1119.000000	41.154623 
1118.000000	41.154837 
1117.000000	41.153955 
1116.000000	41.151356 
1115.000000	41.146922 
1114.000000	41.140627 
1113.000000	41.132330 
1112.000000	41.121530 
1111.000000	41.107439 
1110.000000	41.089105 
1109.000000	41.066288 
1108.000000	41.039204 
1107.000000	41.008806 
1106.000000	40.976762 
1105.000000	40.945172 
1104.000000	40.916275 
1103.000000	40.892148 
1102.000000	40.874266 
1101.000000	40.863037 
1100.000000	40.858101 
1099.000000	40.858268 
1098.000000	40.862035 
1097.000000	40.867471 
1096.000000	40.873026 
1095.000000	40.877723 
1094.000000	40.881228 
1093.000000	40.883564 
1092.000000	40.884995 
1091.000000	40.885710 
1090.000000	40.885424 
1089.000000	40.883421 
1088.000000	40.878462 
1087.000000	40.869355 
1086.000000	40.855288 
1085.000000	40.836524 
1084.000000	40.814614 
1083.000000	40.792322 
1082.000000	40.773272 
1081.000000	40.760850 
1080.000000	40.757203 
1079.000000	40.762233 
1078.000000	40.773630 
1077.000000	40.786886 
1076.000000	40.796446 
1075.000000	40.796947 
1074.000000	40.784716 
1073.000000	40.758657 
1072.000000	40.720605 
1071.000000	40.674734 
1070.000000	40.626692 
1069.000000	40.582299 
1068.000000	40.546107 
1067.000000	40.520691 
1066.000000	40.505862 
1065.000000	40.499305 
1064.000000	40.497374 
1063.000000	40.496015 
1062.000000	40.492081 
1061.000000	40.483808 
1060.000000	40.471315 
1059.000000	40.456104 
1058.000000	40.440773 
1057.000000	40.427947 
1056.000000	40.419960 
1055.000000	40.418004 
1054.000000	40.421843 
1053.000000	40.430212 
1052.000000	40.440869 
1051.000000	40.451359 
1050.000000	40.459275 
1049.000000	40.462875 
1048.000000	40.461087 
1047.000000	40.453648 
1046.000000	40.440678 
1045.000000	40.422439 
1044.000000	40.399098 
1043.000000	40.370702 
1042.000000	40.337538 
1041.000000	40.300273 
1040.000000	40.260386 
1039.000000	40.220117 
1038.000000	40.182375 
1037.000000	40.150070 
1036.000000	40.125823 
1035.000000	40.111255 
1034.000000	40.106678 
1033.000000	40.110898 
1032.000000	40.121388 
1031.000000	40.134620 
1030.000000	40.146756 
1029.000000	40.154242 
1028.000000	40.154385 
1027.000000	40.145683 
1026.000000	40.128183 
1025.000000	40.103292 
1024.000000	40.073275 
1023.000000	40.041065 
1022.000000	40.009689 
1021.000000	39.981651 
1020.000000	39.958691 
1019.000000	39.941287 
1018.000000	39.928913 
1017.000000	39.920210 
1016.000000	39.913320 
1015.000000	39.906215 
1014.000000	39.897251 
1013.000000	39.885425 
1012.000000	39.870572 
1011.000000	39.852929 
1010.000000	39.833188 
1009.000000	39.812111 
1008.000000	39.790511 
1007.000000	39.769101 
1006.000000	39.748406 
1005.000000	39.728975 
1004.000000	39.711332 
1003.000000	39.695763 
1002.000000	39.682102 
1001.000000	39.669752 
1000.000000	39.657616 
999.000000	 39.644026 
998.000000	 39.627242 
997.000000	 39.605593 
996.000000	 39.578390 
995.000000	 39.546179 
994.000000	 39.510941 
993.000000	 39.475846 
992.000000	 39.444756 
991.000000	 39.421343 
990.000000	 39.408278 
989.000000	 39.406681 
988.000000	 39.415788 
987.000000	 39.433312 
986.000000	 39.455747 
985.000000	 39.479136 
984.000000	 39.499592 
983.000000	 39.514112 
982.000000	 39.520835 
981.000000	 39.519190 
980.000000	 39.510035 
979.000000	 39.494943 
978.000000	 39.476418 
977.000000	 39.456748 
976.000000	 39.437961 
975.000000	 39.420771 
974.000000	 39.405679 
973.000000	 39.391875 
972.000000	 39.378333 
971.000000	 39.363527 
970.000000	 39.346575 
969.000000	 39.326906 
968.000000	 39.304685 
967.000000	 39.280414 
966.000000	 39.255023 
965.000000	 39.229154 
964.000000	 39.202880 
963.000000	 39.175820 
962.000000	 39.147257 
961.000000	 39.116549 
960.000000	 39.083361 
959.000000	 39.048218 
958.000000	 39.012432 
957.000000	 38.978028 
956.000000	 38.947486 
955.000000	 38.922834 
954.000000	 38.905525 
953.000000	 38.896346 
952.000000	 38.895559 
951.000000	 38.902640 
950.000000	 38.916492 
949.000000	 38.935804 
948.000000	 38.958883 
947.000000	 38.983750 
946.000000	 39.007925 
945.000000	 39.028525 
944.000000	 39.042830 
943.000000	 39.048480 
942.000000	 39.044880 
941.000000	 39.032912 
940.000000	 39.015698 
939.000000	 38.998103 
938.000000	 38.985538 
937.000000	 38.982701 
936.000000	 38.992071 
935.000000	 39.013361 
934.000000	 39.042687 
933.000000	 39.073610 
932.000000	 39.098143 
931.000000	 39.108729 
930.000000	 39.100003 
929.000000	 39.069843 
928.000000	 39.019656 
927.000000	 38.954019 
926.000000	 38.879632 
925.000000	 38.803935 
924.000000	 38.733339 
923.000000	 38.672471 
922.000000	 38.623738 
921.000000	 38.587689 
920.000000	 38.563394 
919.000000	 38.549447 
918.000000	 38.544607 
917.000000	 38.548088 
916.000000	 38.558888 
915.000000	 38.576078 
914.000000	 38.597440 
913.000000	 38.620543 
912.000000	 38.642215 
911.000000	 38.659620 
910.000000	 38.670229 
909.000000	 38.672947 
908.000000	 38.668513 
907.000000	 38.658142 
906.000000	 38.642883 
905.000000	 38.622665 
904.000000	 38.595986 
903.000000	 38.560104 
902.000000	 38.511896 
901.000000	 38.448739 
900.000000	 38.370037 
899.000000	 38.278436 
898.000000	 38.179922 
897.000000	 38.082575 
896.000000	 37.994933 
895.000000	 37.924146 
894.000000	 37.874722 
893.000000	 37.846589 
892.000000	 37.836766 
891.000000	 37.839412 
890.000000	 37.849688 
889.000000	 37.863564 
888.000000	 37.881422 
887.000000	 37.906765 
886.000000	 37.946438 
885.000000	 38.007092 
884.000000	 38.094115 
883.000000	 38.208484 
882.000000	 38.345909 
881.000000	 38.496661 
880.000000	 38.646197 
879.000000	 38.777875 
878.000000	 38.875603 
877.000000	 38.927173 
876.000000	 38.925838 
875.000000	 38.871431 
874.000000	 38.770151 
873.000000	 38.632893 
872.000000	 38.472867 
871.000000	 38.302922 
870.000000	 38.135051 
869.000000	 37.978506 
868.000000	 37.839841 
867.000000	 37.722682 
866.000000	 37.629342 
865.000000	 37.560558 
864.000000	 37.515711 
863.000000	 37.493276 
862.000000	 37.489080 
861.000000	 37.498450 
860.000000	 37.515044 
859.000000	 37.533497 
858.000000	 37.548303 
857.000000	 37.557315 
856.000000	 37.561178 
855.000000	 37.563204 
854.000000	 37.567877 
853.000000	 37.578630 
852.000000	 37.596607 
851.000000	 37.618994 
850.000000	 37.639522 
849.000000	 37.650799 
848.000000	 37.646675 
847.000000	 37.624573 
846.000000	 37.586832 
845.000000	 37.541079 
844.000000	 37.497949 
843.000000	 37.468647 
842.000000	 37.461090 
841.000000	 37.477111 
840.000000	 37.511181 
839.000000	 37.552547 
838.000000	 37.586784 
837.000000	 37.599301 
836.000000	 37.579274 
835.000000	 37.522959 
834.000000	 37.433934 
833.000000	 37.322187 
832.000000	 37.201905 
831.000000	 37.087631 
830.000000	 36.992001 
829.000000	 36.922931 
828.000000	 36.882996 
827.000000	 36.869645 
826.000000	 36.876416 
825.000000	 36.895155 
824.000000	 36.917328 
823.000000	 36.935806 
822.000000	 36.945629 
821.000000	 36.944723 
820.000000	 36.933040 
819.000000	 36.912155 
818.000000	 36.885094 
817.000000	 36.855268 
816.000000	 36.826181 
815.000000	 36.800527 
814.000000	 36.780595 
813.000000	 36.767506 
812.000000	 36.761355 
811.000000	 36.761260 
810.000000	 36.765742 
809.000000	 36.772894 
808.000000	 36.780691 
807.000000	 36.787080 
806.000000	 36.790180 
805.000000	 36.788392 
804.000000	 36.780714 
803.000000	 36.767005 
802.000000	 36.747956 
801.000000	 36.725616 
800.000000	 36.703205 
799.000000	 36.684083 
798.000000	 36.671233 
797.000000	 36.666393 
796.000000	 36.669731 
795.000000	 36.679291 
794.000000	 36.691260 
793.000000	 36.700630 
792.000000	 36.702132 
791.000000	 36.691856 
790.000000	 36.667823 
789.000000	 36.630415 
788.000000	 36.581873 
787.000000	 36.525869 
786.000000	 36.466741 
785.000000	 36.408042 
784.000000	 36.352801 
783.000000	 36.303114 
782.000000	 36.260700 
781.000000	 36.227297 
780.000000	 36.204457 
779.000000	 36.193871 
778.000000	 36.196422 
777.000000	 36.211776 
776.000000	 36.237740 
775.000000	 36.270093 
774.000000	 36.303043 
773.000000	 36.329817 
772.000000	 36.344337 
771.000000	 36.342620 
770.000000	 36.323380 
769.000000	 36.288213 
768.000000	 36.241149 
767.000000	 36.187505 
766.000000	 36.132407 
765.000000	 36.079621 
764.000000	 36.031317 
763.000000	 35.987591 
762.000000	 35.947442 
761.000000	 35.909032 
760.000000	 35.871052 
759.000000	 35.833311 
758.000000	 35.796260 
757.000000	 35.761904 
756.000000	 35.732698 
755.000000	 35.711479 
754.000000	 35.700273 
753.000000	 35.700154 
752.000000	 35.710620 
751.000000	 35.729408 
750.000000	 35.752964 
749.000000	 35.776281 
748.000000	 35.793852 
747.000000	 35.800147 
746.000000	 35.790562 
745.000000	 35.762071 
744.000000	 35.714006 
743.000000	 35.648179 
742.000000	 35.568761 
741.000000	 35.481667 
740.000000	 35.393500 
739.000000	 35.310435 
738.000000	 35.237121 
737.000000	 35.176157 
736.000000	 35.127687 
735.000000	 35.089755 
734.000000	 35.058975 
733.000000	 35.031366 
732.000000	 35.003709 
731.000000	 34.973454 
730.000000	 34.940361 
729.000000	 34.905385 
728.000000	 34.871172 
727.000000	 34.840583 
726.000000	 34.816265 
725.000000	 34.799408 
724.000000	 34.789752 
723.000000	 34.785485 
722.000000	 34.783816 
721.000000	 34.781742 
720.000000	 34.776878 
719.000000	 34.767770 
718.000000	 34.754514 
717.000000	 34.738397 
716.000000	 34.721302 
715.000000	 34.704923 
714.000000	 34.689950 
713.000000	 34.675502 
712.000000	 34.659576 
711.000000	 34.639239 
710.000000	 34.611201 
709.000000	 34.572768 
708.000000	 34.522938 
707.000000	 34.462904 
706.000000	 34.395241 
705.000000	 34.324288 
704.000000	 34.255313 
703.000000	 34.194135 
702.000000	 34.145784 
701.000000	 34.114360 
700.000000	 34.102225 
699.000000	 34.109306 
698.000000	 34.132909 
697.000000	 34.167671 
696.000000	 34.206318 
695.000000	 34.240603 
694.000000	 34.262585 
693.000000	 34.266281 
692.000000	 34.248399 
691.000000	 34.209752 
690.000000	 34.154772 
689.000000	 34.090781 
688.000000	 34.026265 
687.000000	 33.969616 
686.000000	 33.927273 
685.000000	 33.902525 
684.000000	 33.895349 
683.000000	 33.902835 
682.000000	 33.920574 
681.000000	 33.943700 
680.000000	 33.968234 
679.000000	 33.991289 
678.000000	 34.011697 
677.000000	 34.029269 
676.000000	 34.044885 
675.000000	 34.059333 
674.000000	 34.073233 
673.000000	 34.086894 
672.000000	 34.099483 
671.000000	 34.109520 
670.000000	 34.114623 
669.000000	 34.112477 
668.000000	 34.100675 
667.000000	 34.077715 
666.000000	 34.042859 
665.000000	 33.996438 
664.000000	 33.939504 
663.000000	 33.874058 
662.000000	 33.802151 
661.000000	 33.725810 
660.000000	 33.647227 
659.000000	 33.568739 
658.000000	 33.492970 
657.000000	 33.422851 
656.000000	 33.361363 
655.000000	 33.311343 
654.000000	 33.275008 
653.000000	 33.253383 
652.000000	 33.246064 
651.000000	 33.250832 
650.000000	 33.263540 
649.000000	 33.278942 
648.000000	 33.291459 
647.000000	 33.296084 
646.000000	 33.288717 
645.000000	 33.267378 
644.000000	 33.232522 
643.000000	 33.186411 
642.000000	 33.132767 
641.000000	 33.075261 
640.000000	 33.017253 
639.000000	 32.960557 
638.000000	 32.905745 
637.000000	 32.852077 
636.000000	 32.798409 
635.000000	 32.743954 
634.000000	 32.688951 
633.000000	 32.635116 
632.000000	 32.585406 
631.000000	 32.543206 
630.000000	 32.511663 
629.000000	 32.492685 
628.000000	 32.486510 
627.000000	 32.491350 
626.000000	 32.503485 
625.000000	 32.518339 
624.000000	 32.530784 
623.000000	 32.536458 
622.000000	 32.531714 
621.000000	 32.513904 
620.000000	 32.481670 
619.000000	 32.434844 
618.000000	 32.374858 
617.000000	 32.304430 
616.000000	 32.227849 
615.000000	 32.150530 
614.000000	 32.078814 
613.000000	 32.019281 
612.000000	 31.977224 
611.000000	 31.955814 
610.000000	 31.954765 
609.000000	 31.970357 
608.000000	 31.995677 
607.000000	 32.021570 
606.000000	 32.038307 
605.000000	 32.037234 
604.000000	 32.012367 
603.000000	 31.961679 
602.000000	 31.886720 
601.000000	 31.792712 
600.000000	 31.686973 
599.000000	 31.578326 
598.000000	 31.475663 
597.000000	 31.387472 
596.000000	 31.320524 
595.000000	 31.279468 
594.000000	 31.266617 
593.000000	 31.280994 
592.000000	 31.318545 
591.000000	 31.371736 
590.000000	 31.430745 
589.000000	 31.484246 
588.000000	 31.521010 
587.000000	 31.531906 
586.000000	 31.510758 
585.000000	 31.456565 
584.000000	 31.373453 
583.000000	 31.270384 
582.000000	 31.159496 
581.000000	 31.053829 
580.000000	 30.964803 
579.000000	 30.899906 
578.000000	 30.861449 
577.000000	 30.846190 
576.000000	 30.846381 
575.000000	 30.852222 
574.000000	 30.853939 
573.000000	 30.844211 
572.000000	 30.819535 
571.000000	 30.780339 
570.000000	 30.730605 
569.000000	 30.675792 
568.000000	 30.621767 
567.000000	 30.572223 
566.000000	 30.529093 
565.000000	 30.492162 
564.000000	 30.460476 
563.000000	 30.433559 
562.000000	 30.411720 
561.000000	 30.396723 
560.000000	 30.390238 
559.000000	 30.393338 
558.000000	 30.404186 
557.000000	 30.417799 
556.000000	 30.426335 
555.000000	 30.420780 
554.000000	 30.393075 
553.000000	 30.338430 
552.000000	 30.256795 
551.000000	 30.153203 
550.000000	 30.037426 
549.000000	 29.922032 
548.000000	 29.819488 
547.000000	 29.739785 
546.000000	 29.688620 
545.000000	 29.666638 
544.000000	 29.669666 
543.000000	 29.689836 
542.000000	 29.717421 
541.000000	 29.742741 
540.000000	 29.758286 
539.000000	 29.759454 
538.000000	 29.743695 
537.000000	 29.711294 
536.000000	 29.664111 
535.000000	 29.605150 
534.000000	 29.537391 
533.000000	 29.464006 
532.000000	 29.388189 
531.000000	 29.313063 
530.000000	 29.241991 
529.000000	 29.177999 
528.000000	 29.123830 
527.000000	 29.081487 
526.000000	 29.052019 
525.000000	 29.035711 
524.000000	 29.031848 
523.000000	 29.039168 
522.000000	 29.055738 
521.000000	 29.078960 
520.000000	 29.105448 
519.000000	 29.131507 
518.000000	 29.152560 
517.000000	 29.163813 
516.000000	 29.159832 
515.000000	 29.135775 
514.000000	 29.087233 
513.000000	 29.012227 
512.000000	 28.910565 
511.000000	 28.784108 
510.000000	 28.637385 
509.000000	 28.477883 
508.000000	 28.315162 
507.000000	 28.159499 
506.000000	 28.021454 
505.000000	 27.910232 
504.000000	 27.832555 
503.000000	 27.791523 
502.000000	 27.785849 
501.000000	 27.809953 
500.000000	 27.854919 
499.000000	 27.910113 
498.000000	 27.965068 
497.000000	 28.011345 
496.000000	 28.044247 
495.000000	 28.062844 
494.000000	 28.069829 
493.000000	 28.068804 
492.000000	 28.063249 
491.000000	 28.052449 
490.000000	 28.032350 
489.000000	 27.993559 
488.000000	 27.924942 
487.000000	 27.815365 
486.000000	 27.658033 
485.000000	 27.453184 
484.000000	 27.209806 
483.000000	 26.945495 
482.000000	 26.683545 
481.000000	 26.449227 
480.000000	 26.264190 
479.000000	 26.142930 
478.000000	 26.089239 
477.000000	 26.097273 
476.000000	 26.153159 
475.000000	 26.238679 
474.000000	 26.334595 
473.000000	 26.425838 
472.000000	 26.503396 
471.000000	 26.564049 
470.000000	 26.608610 
469.000000	 26.639366 
468.000000	 26.657533 
467.000000	 26.662349 
466.000000	 26.650571 
465.000000	 26.618719 
464.000000	 26.564073 
463.000000	 26.487112 
462.000000	 26.391506 
461.000000	 26.286554 
460.000000	 26.182723 
459.000000	 26.089763 
458.000000	 26.013493 
457.000000	 25.954556 
456.000000	 25.908398 
455.000000	 25.865650 
454.000000	 25.817394 
453.000000	 25.756287 
452.000000	 25.683760 
451.000000	 25.609993 
450.000000	 25.553512 
449.000000	 25.535726 
448.000000	 25.575542 
447.000000	 25.682806 
446.000000	 25.854039 
445.000000	 26.071286 
444.000000	 26.303768 
443.000000	 26.514768 
442.000000	 26.670098 
441.000000	 26.747322 
440.000000	 26.741051 
439.000000	 26.665329 
438.000000	 26.549553 
437.000000	 26.431798 
436.000000	 26.350831 
435.000000	 26.335120 
434.000000	 26.397538 
433.000000	 26.530265 
432.000000	 26.712274 
431.000000	 26.908349 
430.000000	 27.083444 
429.000000	 27.201581 
428.000000	 27.234363 
427.000000	 27.163076 
426.000000	 26.982069 
425.000000	 26.698803 
424.000000	 26.330733 
423.000000	 25.907683 
422.000000	 25.467634 
421.000000	 25.054812 
420.000000	 24.713826 
419.000000	 24.483966 
418.000000	 24.392509 
417.000000	 24.452805 
416.000000	 24.660158 
415.000000	 24.989485 
414.000000	 25.397038 
413.000000	 25.824666 
412.000000	 26.208138 
411.000000	 26.489162 
410.000000	 26.624870 
409.000000	 26.583647 
408.000000	 26.359438 
407.000000	 25.984168 
406.000000	 25.516700 
405.000000	 25.013041 
404.000000	 24.535822 
403.000000	 24.161386 
402.000000	 23.951005 
401.000000	 23.928070 
400.000000	 24.091219 
399.000000	 24.428677 
398.000000	 24.902796 
397.000000	 25.448465 
396.000000	 25.999832 
395.000000	 26.511120 
394.000000	 26.927947 
393.000000	 27.186250 
392.000000	 27.244067 
391.000000	 27.090740 
390.000000	 26.733422 
389.000000	 26.205778 
388.000000	 25.566482 
387.000000	 24.905085 
386.000000	 24.337005 
385.000000	 24.012136 
384.000000	 24.028372 
383.000000	 24.491310 
382.000000	 25.515127 
381.000000	 27.234697 
380.000000	 29.756450 
379.000000	 33.154869 
378.000000	 37.407612 
377.000000	 42.411923 
376.000000	 47.918462 
375.000000	 53.641343 
374.000000	 59.274005 
373.000000	 64.585661 
372.000000	 69.459509 
371.000000	 73.887801 
370.000000	 77.932643 

