PE IR       SPECTRUM    SPECTRUM    ASCII       PEDS        1.60        
  -1
C-99EE~1.ASC
17/05/02
11:13:31.00
17/05/02
11:13:31.00
tln
$C-4040-8_t0005$<tbV0>[-7.5,-13.0,8.0,0.0,22,1,0]
370.000000
64









2002,4.07    
MIRTGS : RIGHTBACK : INTERNAL 2
MIR : ON : INTERNAL 2
OPTKBR

0.200000
8
8.000000
FILLER
RATIO
SPECTRUM
UNLOCKED 256

DOUBLE
64
COMBINED
1
0
0


1.000000
RATIO


1
0
TRUE
51149
0
LEFT NOT FITTED RIGHT NOT FITTED 0
NONE
NONE
15600
12.000000
4.427000
51148
TRUE
1 0 8 72 0 0 0 0 

15798.010000






#HDR
-1
-1
#GR
CM-1
%T
0.00002384185791015625
0.0
7800.000000
-1.000000
7431
8
77.096080
35.784649
#DATA
7800.000000	63.657617 
7799.000000	63.861942 
7798.000000	64.444923 
7797.000000	65.215063 
7796.000000	65.995597 
7795.000000	66.638994 
7794.000000	67.068958 
7793.000000	67.274093 
7792.000000	67.277908 
7791.000000	67.112255 
7790.000000	66.809225 
7789.000000	66.384768 
7788.000000	65.841269 
7787.000000	65.173387 
7786.000000	64.380478 
7785.000000	63.479161 
7784.000000	62.531137 
7783.000000	61.623120 
7782.000000	60.846948 
7781.000000	60.277676 
7780.000000	59.951090 
7779.000000	59.860324 
7778.000000	59.935331 
7777.000000	60.094165 
7776.000000	60.255455 
7775.000000	60.384392 
7774.000000	60.501766 
7773.000000	60.678696 
7772.000000	60.998606 
7771.000000	61.541938 
7770.000000	62.347388 
7769.000000	63.402318 
7768.000000	64.633536 
7767.000000	65.937972 
7766.000000	67.205452 
7765.000000	68.352746 
7764.000000	69.339513 
7763.000000	70.170593 
7762.000000	70.880556 
7761.000000	71.514368 
7760.000000	72.098207 
7759.000000	72.628355 
7758.000000	73.058748 
7757.000000	73.323798 
7756.000000	73.344492 
7755.000000	73.077178 
7754.000000	72.508120 
7753.000000	71.672201 
7752.000000	70.639586 
7751.000000	69.505405 
7750.000000	68.374419 
7749.000000	67.340278 
7748.000000	66.479587 
7747.000000	65.845394 
7746.000000	65.463662 
7745.000000	65.336227 
7744.000000	65.440726 
7743.000000	65.731668 
7742.000000	66.154742 
7741.000000	66.652250 
7740.000000	67.163825 
7739.000000	67.628574 
7738.000000	67.988204 
7737.000000	68.191957 
7736.000000	68.203711 
7735.000000	68.007946 
7734.000000	67.620944 
7733.000000	67.085623 
7732.000000	66.465544 
7731.000000	65.828728 
7730.000000	65.241336 
7729.000000	64.749598 
7728.000000	64.367747 
7727.000000	64.085459 
7726.000000	63.875174 
7725.000000	63.710165 
7724.000000	63.575625 
7723.000000	63.476204 
7722.000000	63.436841 
7721.000000	63.485288 
7720.000000	63.642430 
7719.000000	63.895273 
7718.000000	64.183068 
7717.000000	64.418077 
7716.000000	64.501118 
7715.000000	64.364981 
7714.000000	63.994359 
7713.000000	63.459253 
7712.000000	62.903356 
7711.000000	62.512612 
7710.000000	62.461757 
7709.000000	62.862420 
7708.000000	63.718914 
7707.000000	64.914059 
7706.000000	66.227006 
7705.000000	67.381906 
7704.000000	68.115854 
7703.000000	68.248224 
7702.000000	67.726016 
7701.000000	66.639184 
7700.000000	65.195202 
7699.000000	63.656568 
7698.000000	62.284374 
7697.000000	61.271333 
7696.000000	60.715222 
7695.000000	60.609698 
7694.000000	60.868358 
7693.000000	61.369013 
7692.000000	61.993074 
7691.000000	62.658524 
7690.000000	63.336825 
7689.000000	64.037084 
7688.000000	64.802646 
7687.000000	65.673041 
7686.000000	66.668987 
7685.000000	67.767763 
7684.000000	68.903779 
7683.000000	69.974207 
7682.000000	70.862627 
7681.000000	71.461915 
7680.000000	71.700143 
7679.000000	71.555447 
7678.000000	71.063518 
7677.000000	70.309829 
7676.000000	69.413447 
7675.000000	68.504166 
7674.000000	67.704248 
7673.000000	67.103242 
7672.000000	66.757869 
7671.000000	66.673827 
7670.000000	66.819906 
7669.000000	67.127490 
7668.000000	67.506837 
7667.000000	67.867064 
7666.000000	68.126869 
7665.000000	68.240189 
7664.000000	68.194890 
7663.000000	68.022918 
7662.000000	67.783141 
7661.000000	67.552328 
7660.000000	67.403459 
7659.000000	67.384123 
7658.000000	67.503571 
7657.000000	67.730855 
7656.000000	68.003487 
7655.000000	68.240284 
7654.000000	68.364334 
7653.000000	68.322610 
7652.000000	68.103027 
7651.000000	67.732810 
7650.000000	67.277574 
7649.000000	66.825389 
7648.000000	66.466712 
7647.000000	66.274499 
7646.000000	66.283607 
7645.000000	66.489744 
7644.000000	66.840434 
7643.000000	67.259621 
7642.000000	67.648243 
7641.000000	67.905664 
7640.000000	67.950463 
7639.000000	67.734289 
7638.000000	67.258834 
7637.000000	66.571235 
7636.000000	65.762972 
7635.000000	64.948463 
7634.000000	64.245915 
7633.000000	63.753223 
7632.000000	63.527822 
7631.000000	63.577532 
7630.000000	63.864636 
7629.000000	64.318919 
7628.000000	64.855122 
7627.000000	65.393471 
7626.000000	65.873932 
7625.000000	66.265368 
7624.000000	66.559982 
7623.000000	66.768932 
7622.000000	66.910266 
7621.000000	66.999673 
7620.000000	67.041277 
7619.000000	67.029380 
7618.000000	66.956686 
7617.000000	66.819310 
7616.000000	66.628646 
7615.000000	66.410541 
7614.000000	66.205835 
7613.000000	66.059827 
7612.000000	66.016030 
7611.000000	66.097426 
7610.000000	66.298675 
7609.000000	66.585135 
7608.000000	66.901206 
7607.000000	67.180037 
7606.000000	67.359757 
7605.000000	67.397379 
7604.000000	67.279076 
7603.000000	67.018914 
7602.000000	66.654396 
7601.000000	66.237688 
7600.000000	65.821933 
7599.000000	65.454626 
7598.000000	65.163230 
7597.000000	64.957475 
7596.000000	64.820313 
7595.000000	64.716768 
7594.000000	64.597630 
7593.000000	64.405465 
7592.000000	64.097070 
7591.000000	63.646984 
7590.000000	63.072514 
7589.000000	62.421703 
7588.000000	61.785316 
7587.000000	61.270427 
7586.000000	60.989904 
7585.000000	61.033320 
7584.000000	61.445569 
7583.000000	62.212514 
7582.000000	63.255548 
7581.000000	64.444804 
7580.000000	65.618896 
7579.000000	66.616463 
7578.000000	67.305970 
7577.000000	67.610144 
7576.000000	67.518925 
7575.000000	67.086529 
7574.000000	66.418910 
7573.000000	65.646600 
7572.000000	64.897274 
7571.000000	64.268016 
7570.000000	63.819742 
7569.000000	63.566422 
7568.000000	63.482213 
7567.000000	63.516736 
7566.000000	63.615989 
7565.000000	63.741040 
7564.000000	63.871765 
7563.000000	64.016938 
7562.000000	64.196276 
7561.000000	64.439439 
7560.000000	64.766907 
7559.000000	65.181207 
7558.000000	65.657758 
7557.000000	66.148185 
7556.000000	66.592526 
7555.000000	66.927790 
7554.000000	67.104458 
7553.000000	67.098236 
7552.000000	66.917943 
7551.000000	66.604256 
7550.000000	66.222095 
7549.000000	65.851140 
7548.000000	65.570449 
7547.000000	65.444779 
7546.000000	65.513277 
7545.000000	65.787076 
7544.000000	66.247296 
7543.000000	66.854166 
7542.000000	67.550849 
7541.000000	68.271374 
7540.000000	68.948268 
7539.000000	69.524288 
7538.000000	69.952702 
7537.000000	70.204949 
7536.000000	70.262694 
7535.000000	70.125436 
7534.000000	69.796061 
7533.000000	69.289636 
7532.000000	68.621110 
7531.000000	67.811775 
7530.000000	66.890072 
7529.000000	65.899205 
7528.000000	64.896059 
7527.000000	63.949346 
7526.000000	63.135361 
7525.000000	62.527751 
7524.000000	62.185239 
7523.000000	62.139248 
7522.000000	62.392807 
7521.000000	62.918257 
7520.000000	63.659167 
7519.000000	64.539027 
7518.000000	65.472793 
7517.000000	66.378641 
7516.000000	67.185282 
7515.000000	67.838859 
7514.000000	68.306636 
7513.000000	68.573093 
7512.000000	68.642210 
7511.000000	68.524551 
7510.000000	68.241500 
7509.000000	67.811918 
7508.000000	67.261743 
7507.000000	66.614484 
7506.000000	65.902948 
7505.000000	65.161991 
7504.000000	64.433097 
7503.000000	63.760137 
7502.000000	63.187050 
7501.000000	62.752413 
7500.000000	62.483644 
7499.000000	62.390828 
7498.000000	62.461686 
7497.000000	62.666201 
7496.000000	62.960553 
7495.000000	63.287901 
7494.000000	63.586902 
7493.000000	63.803648 
7492.000000	63.901329 
7491.000000	63.861870 
7490.000000	63.691902 
7489.000000	63.420391 
7488.000000	63.095068 
7487.000000	62.775015 
7486.000000	62.517333 
7485.000000	62.369513 
7484.000000	62.354207 
7483.000000	62.472677 
7482.000000	62.693667 
7481.000000	62.965083 
7480.000000	63.217282 
7479.000000	63.378167 
7478.000000	63.389372 
7477.000000	63.216018 
7476.000000	62.861609 
7475.000000	62.362122 
7474.000000	61.790537 
7473.000000	61.239027 
7472.000000	60.806965 
7471.000000	60.579109 
7470.000000	60.611724 
7469.000000	60.921072 
7468.000000	61.483621 
7467.000000	62.243008 
7466.000000	63.118362 
7465.000000	64.022660 
7464.000000	64.882397 
7463.000000	65.648484 
7462.000000	66.297006 
7461.000000	66.826057 
7460.000000	67.247986 
7459.000000	67.576146 
7458.000000	67.820453 
7457.000000	67.977428 
7456.000000	68.036818 
7455.000000	67.982721 
7454.000000	67.814326 
7453.000000	67.541289 
7452.000000	67.194390 
7451.000000	66.815447 
7450.000000	66.457486 
7449.000000	66.165041 
7448.000000	65.968322 
7447.000000	65.870261 
7446.000000	65.850257 
7445.000000	65.860533 
7444.000000	65.839457 
7443.000000	65.723180 
7442.000000	65.462589 
7441.000000	65.026831 
7440.000000	64.412021 
7439.000000	63.641285 
7438.000000	62.764000 
7437.000000	61.846995 
7436.000000	60.967731 
7435.000000	60.198307 
7434.000000	59.600329 
7433.000000	59.220147 
7432.000000	59.082722 
7431.000000	59.182596 
7430.000000	59.489870 
7429.000000	59.952783 
7428.000000	60.509347 
7427.000000	61.084866 
7426.000000	61.616516 
7425.000000	62.054276 
7424.000000	62.376904 
7423.000000	62.584781 
7422.000000	62.704563 
7421.000000	62.774729 
7420.000000	62.842273 
7419.000000	62.948346 
7418.000000	63.127779 
7417.000000	63.403511 
7416.000000	63.784694 
7415.000000	64.266538 
7414.000000	64.823484 
7413.000000	65.412592 
7412.000000	65.976142 
7411.000000	66.451621 
7410.000000	66.785335 
7409.000000	66.940712 
7408.000000	66.911196 
7407.000000	66.715073 
7406.000000	66.388821 
7405.000000	65.976786 
7404.000000	65.525937 
7403.000000	65.075063 
7402.000000	64.652729 
7401.000000	64.275097 
7400.000000	63.956618 
7399.000000	63.703107 
7398.000000	63.519716 
7397.000000	63.402557 
7396.000000	63.340115 
7395.000000	63.309955 
7394.000000	63.279938 
7393.000000	63.213801 
7392.000000	63.073921 
7391.000000	62.839555 
7390.000000	62.512421 
7389.000000	62.117624 
7388.000000	61.697816 
7387.000000	61.298751 
7386.000000	60.957622 
7385.000000	60.689520 
7384.000000	60.487055 
7383.000000	60.327816 
7382.000000	60.185480 
7381.000000	60.042476 
7380.000000	59.897875 
7379.000000	59.766745 
7378.000000	59.677672 
7377.000000	59.655499 
7376.000000	59.719586 
7375.000000	59.869074 
7374.000000	60.090374 
7373.000000	60.358214 
7372.000000	60.644745 
7371.000000	60.926938 
7370.000000	61.189198 
7369.000000	61.429786 
7368.000000	61.647939 
7367.000000	61.838722 
7366.000000	61.988806 
7365.000000	62.075972 
7364.000000	62.077379 
7363.000000	61.976885 
7362.000000	61.778616 
7361.000000	61.511540 
7360.000000	61.222982 
7359.000000	60.969948 
7358.000000	60.804986 
7357.000000	60.764765 
7356.000000	60.860633 
7355.000000	61.078000 
7354.000000	61.383819 
7353.000000	61.735033 
7352.000000	62.087869 
7351.000000	62.408375 
7350.000000	62.676572 
7349.000000	62.889003 
7348.000000	63.053774 
7347.000000	63.184976 
7346.000000	63.296031 
7345.000000	63.393068 
7344.000000	63.472342 
7343.000000	63.522577 
7342.000000	63.532662 
7341.000000	63.495850 
7340.000000	63.416767 
7339.000000	63.311696 
7338.000000	63.207197 
7337.000000	63.134503 
7336.000000	63.122534 
7335.000000	63.188886 
7334.000000	63.334512 
7333.000000	63.543772 
7332.000000	63.787889 
7331.000000	64.030122 
7330.000000	64.234924 
7329.000000	64.378643 
7328.000000	64.453744 
7327.000000	64.467620 
7326.000000	64.439392 
7325.000000	64.391326 
7324.000000	64.345049 
7323.000000	64.312410 
7322.000000	64.300084 
7321.000000	64.312291 
7320.000000	64.354109 
7319.000000	64.433884 
7318.000000	64.562296 
7317.000000	64.752030 
7316.000000	65.009379 
7315.000000	65.328264 
7314.000000	65.689277 
7313.000000	66.061210 
7312.000000	66.405463 
7311.000000	66.684913 
7310.000000	66.868638 
7309.000000	66.938567 
7308.000000	66.890788 
7307.000000	66.736030 
7306.000000	66.489028 
7305.000000	66.164541 
7304.000000	65.775036 
7303.000000	65.330672 
7302.000000	64.841747 
7301.000000	64.322423 
7300.000000	63.796830 
7299.000000	63.297104 
7298.000000	62.861013 
7297.000000	62.524080 
7296.000000	62.308287 
7295.000000	62.218666 
7294.000000	62.240624 
7293.000000	62.342667 
7292.000000	62.478852 
7291.000000	62.602114 
7290.000000	62.670540 
7289.000000	62.660408 
7288.000000	62.563443 
7287.000000	62.397217 
7286.000000	62.196016 
7285.000000	62.008523 
7284.000000	61.882519 
7283.000000	61.860895 
7282.000000	61.971211 
7281.000000	62.222194 
7280.000000	62.602162 
7279.000000	63.082194 
7278.000000	63.622140 
7277.000000	64.177918 
7276.000000	64.708256 
7275.000000	65.180587 
7274.000000	65.571594 
7273.000000	65.871453 
7272.000000	66.076207 
7271.000000	66.183972 
7270.000000	66.189742 
7269.000000	66.089749 
7268.000000	65.879487 
7267.000000	65.563678 
7266.000000	65.154528 
7265.000000	64.682626 
7264.000000	64.185976 
7263.000000	63.706946 
7262.000000	63.284039 
7261.000000	62.945318 
7260.000000	62.706112 
7259.000000	62.567305 
7258.000000	62.519693 
7257.000000	62.546896 
7256.000000	62.631535 
7255.000000	62.757420 
7254.000000	62.912225 
7253.000000	63.085985 
7252.000000	63.272571 
7251.000000	63.466501 
7250.000000	63.662862 
7249.000000	63.854074 
7248.000000	64.032077 
7247.000000	64.184904 
7246.000000	64.297914 
7245.000000	64.352679 
7244.000000	64.333152 
7243.000000	64.227056 
7242.000000	64.026594 
7241.000000	63.736534 
7240.000000	63.376760 
7239.000000	62.983608 
7238.000000	62.606430 
7237.000000	62.298965 
7236.000000	62.107801 
7235.000000	62.063694 
7234.000000	62.174940 
7233.000000	62.424468 
7232.000000	62.771344 
7231.000000	63.162016 
7230.000000	63.541078 
7229.000000	63.862347 
7228.000000	64.095306 
7227.000000	64.232563 
7226.000000	64.286947 
7225.000000	64.286971 
7224.000000	64.265465 
7223.000000	64.251947 
7222.000000	64.261579 
7221.000000	64.292526 
7220.000000	64.323616 
7219.000000	64.322972 
7218.000000	64.255619 
7217.000000	64.091920 
7216.000000	63.820743 
7215.000000	63.453364 
7214.000000	63.028645 
7213.000000	62.604451 
7212.000000	62.249445 
7211.000000	62.026214 
7210.000000	61.978316 
7209.000000	62.119984 
7208.000000	62.431359 
7207.000000	62.859964 
7206.000000	63.336038 
7205.000000	63.786554 
7204.000000	64.154291 
7203.000000	64.406585 
7202.000000	64.544463 
7201.000000	64.597105 
7200.000000	64.609217 
7199.000000	64.624929 
7198.000000	64.674520 
7197.000000	64.766812 
7196.000000	64.886856 
7195.000000	65.005278 
7194.000000	65.096902 
7193.000000	65.151667 
7192.000000	65.184354 
7191.000000	65.228819 
7190.000000	65.329885 
7189.000000	65.522861 
7188.000000	65.819907 
7187.000000	66.197395 
7186.000000	66.599559 
7185.000000	66.945695 
7184.000000	67.154979 
7183.000000	67.160916 
7182.000000	66.933250 
7181.000000	66.482782 
7180.000000	65.864467 
7179.000000	65.158629 
7178.000000	64.451766 
7177.000000	63.819146 
7176.000000	63.310480 
7175.000000	62.944793 
7174.000000	62.713980 
7173.000000	62.588477 
7172.000000	62.530303 
7171.000000	62.498092 
7170.000000	62.457442 
7169.000000	62.378430 
7168.000000	62.241530 
7167.000000	62.039709 
7166.000000	61.780309 
7165.000000	61.481404 
7164.000000	61.169123 
7163.000000	60.873985 
7162.000000	60.623168 
7161.000000	60.433340 
7160.000000	60.309410 
7159.000000	60.241937 
7158.000000	60.216069 
7157.000000	60.211634 
7156.000000	60.218191 
7155.000000	60.235238 
7154.000000	60.278344 
7153.000000	60.371184 
7152.000000	60.540556 
7151.000000	60.803008 
7150.000000	61.160206 
7149.000000	61.593246 
7148.000000	62.065577 
7147.000000	62.528181 
7146.000000	62.933921 
7145.000000	63.247895 
7144.000000	63.445949 
7143.000000	63.516807 
7142.000000	63.460731 
7141.000000	63.286662 
7140.000000	63.008022 
7139.000000	62.641763 
7138.000000	62.210440 
7137.000000	61.741995 
7136.000000	61.271739 
7135.000000	60.838508 
7134.000000	60.484361 
7133.000000	60.244345 
7132.000000	60.138201 
7131.000000	60.167503 
7130.000000	60.311675 
7129.000000	60.536670 
7128.000000	60.796594 
7127.000000	61.051058 
7126.000000	61.267542 
7125.000000	61.435103 
7124.000000	61.561298 
7123.000000	61.670351 
7122.000000	61.790227 
7121.000000	61.947584 
7120.000000	62.157607 
7119.000000	62.418961 
7118.000000	62.713050 
7117.000000	63.007020 
7116.000000	63.261508 
7115.000000	63.438320 
7114.000000	63.509654 
7113.000000	63.463616 
7112.000000	63.308405 
7111.000000	63.069391 
7110.000000	62.786960 
7109.000000	62.507653 
7108.000000	62.277579 
7107.000000	62.138175 
7106.000000	62.115812 
7105.000000	62.219142 
7104.000000	62.434267 
7103.000000	62.732219 
7102.000000	63.068199 
7101.000000	63.390588 
7100.000000	63.648438 
7099.000000	63.798761 
7098.000000	63.816070 
7097.000000	63.695096 
7096.000000	63.453865 
7095.000000	63.127827 
7094.000000	62.767148 
7093.000000	62.426948 
7092.000000	62.157511 
7091.000000	61.995482 
7090.000000	61.956667 
7089.000000	62.035036 
7088.000000	62.203931 
7087.000000	62.424826 
7086.000000	62.656354 
7085.000000	62.866449 
7084.000000	63.035225 
7083.000000	63.161420 
7082.000000	63.260245 
7081.000000	63.356637 
7080.000000	63.476395 
7079.000000	63.634181 
7078.000000	63.828587 
7077.000000	64.037942 
7076.000000	64.228510 
7075.000000	64.359569 
7074.000000	64.397311 
7073.000000	64.322996 
7072.000000	64.141297 
7071.000000	63.879489 
7070.000000	63.581538 
7069.000000	63.299489 
7068.000000	63.080763 
7067.000000	62.960577 
7066.000000	62.954998 
7065.000000	63.059949 
7064.000000	63.254165 
7063.000000	63.502597 
7062.000000	63.764142 
7061.000000	63.998579 
7060.000000	64.173460 
7059.000000	64.266562 
7058.000000	64.269685 
7057.000000	64.185237 
7056.000000	64.026665 
7055.000000	63.820099 
7054.000000	63.596439 
7053.000000	63.385844 
7052.000000	63.211202 
7051.000000	63.087201 
7050.000000	63.017010 
7049.000000	62.994432 
7048.000000	63.007593 
7047.000000	63.040471 
7046.000000	63.082313 
7045.000000	63.129353 
7044.000000	63.186860 
7043.000000	63.265323 
7042.000000	63.376069 
7041.000000	63.524174 
7040.000000	63.706970 
7039.000000	63.911509 
7038.000000	64.119911 
7037.000000	64.312505 
7036.000000	64.474511 
7035.000000	64.596271 
7034.000000	64.676594 
7033.000000	64.714789 
7032.000000	64.701581 
7031.000000	64.614653 
7030.000000	64.417099 
7029.000000	64.070510 
7028.000000	63.546252 
7027.000000	62.847876 
7026.000000	62.015581 
7025.000000	61.135935 
7024.000000	60.329222 
7023.000000	59.728884 
7022.000000	59.452867 
7021.000000	59.572672 
7020.000000	60.091662 
7019.000000	60.939002 
7018.000000	61.979269 
7017.000000	63.043498 
7016.000000	63.963985 
7015.000000	64.611458 
7014.000000	64.918231 
7013.000000	64.888978 
7012.000000	64.589405 
7011.000000	64.129209 
7010.000000	63.629555 
7009.000000	63.203907 
7008.000000	62.931871 
7007.000000	62.855887 
7006.000000	62.973165 
7005.000000	63.239431 
7004.000000	63.580322 
7003.000000	63.908457 
7002.000000	64.145088 
7001.000000	64.232683 
7000.000000	64.152002 
6999.000000	63.919997 
6998.000000	63.589167 
6997.000000	63.230729 
6996.000000	62.918686 
6995.000000	62.711739 
6994.000000	62.639403 
6993.000000	62.698817 
6992.000000	62.855768 
6991.000000	63.059186 
6990.000000	63.253140 
6989.000000	63.392567 
6988.000000	63.453745 
6987.000000	63.436555 
6986.000000	63.364124 
6985.000000	63.272905 
6984.000000	63.201284 
6983.000000	63.176774 
6982.000000	63.220906 
6981.000000	63.345527 
6980.000000	63.557076 
6979.000000	63.855385 
6978.000000	64.235305 
6977.000000	64.682197 
6976.000000	65.172410 
6975.000000	65.668582 
6974.000000	66.122198 
6973.000000	66.476559 
6972.000000	66.677832 
6971.000000	66.683888 
6970.000000	66.476726 
6969.000000	66.066670 
6968.000000	65.496754 
6967.000000	64.833140 
6966.000000	64.154291 
6965.000000	63.537669 
6964.000000	63.048100 
6963.000000	62.726402 
6962.000000	62.586903 
6961.000000	62.615704 
6960.000000	62.778973 
6959.000000	63.026714 
6958.000000	63.303542 
6957.000000	63.555455 
6956.000000	63.737344 
6955.000000	63.820981 
6954.000000	63.797044 
6953.000000	63.675665 
6952.000000	63.481307 
6951.000000	63.247203 
6950.000000	63.007283 
6949.000000	62.788105 
6948.000000	62.606620 
6947.000000	62.470865 
6946.000000	62.382912 
6945.000000	62.341499 
6944.000000	62.347292 
6943.000000	62.404680 
6942.000000	62.520432 
6941.000000	62.699460 
6940.000000	62.940239 
6939.000000	63.229513 
6938.000000	63.542723 
6937.000000	63.843703 
6936.000000	64.094901 
6935.000000	64.262628 
6934.000000	64.331007 
6933.000000	64.306473 
6932.000000	64.217782 
6931.000000	64.108681 
6930.000000	64.028286 
6929.000000	64.018225 
6928.000000	64.098191 
6927.000000	64.259672 
6926.000000	64.465975 
6925.000000	64.661741 
6924.000000	64.788103 
6923.000000	64.799594 
6922.000000	64.675807 
6921.000000	64.429569 
6920.000000	64.102911 
6919.000000	63.758993 
6918.000000	63.465499 
6917.000000	63.278937 
6916.000000	63.231873 
6915.000000	63.324356 
6914.000000	63.529753 
6913.000000	63.797163 
6912.000000	64.066219 
6911.000000	64.279437 
6910.000000	64.393973 
6909.000000	64.392089 
6908.000000	64.280986 
6907.000000	64.091610 
6906.000000	63.865709 
6905.000000	63.651394 
6904.000000	63.491177 
6903.000000	63.413596 
6902.000000	63.428211 
6901.000000	63.524127 
6900.000000	63.674116 
6899.000000	63.840150 
6898.000000	63.983297 
6897.000000	64.071321 
6896.000000	64.086651 
6895.000000	64.027118 
6894.000000	63.907504 
6893.000000	63.751912 
6892.000000	63.591003 
6891.000000	63.452792 
6890.000000	63.360762 
6889.000000	63.331055 
6888.000000	63.370537 
6887.000000	63.482236 
6886.000000	63.658237 
6885.000000	63.881683 
6884.000000	64.125537 
6883.000000	64.356923 
6882.000000	64.540338 
6881.000000	64.643406 
6880.000000	64.643979 
6879.000000	64.533948 
6878.000000	64.324617 
6877.000000	64.045357 
6876.000000	63.737893 
6875.000000	63.447904 
6874.000000	63.214349 
6873.000000	63.061690 
6872.000000	62.994074 
6871.000000	62.996888 
6870.000000	63.043189 
6869.000000	63.103246 
6868.000000	63.150691 
6867.000000	63.172578 
6866.000000	63.169860 
6865.000000	63.160133 
6864.000000	63.166022 
6863.000000	63.213992 
6862.000000	63.323402 
6861.000000	63.503885 
6860.000000	63.754129 
6859.000000	64.058542 
6858.000000	64.390969 
6857.000000	64.717125 
6856.000000	65.003156 
6855.000000	65.218448 
6854.000000	65.341901 
6853.000000	65.364289 
6852.000000	65.289974 
6851.000000	65.134167 
6850.000000	64.919900 
6849.000000	64.672732 
6848.000000	64.416813 
6847.000000	64.167189 
6846.000000	63.928318 
6845.000000	63.694095 
6844.000000	63.452291 
6843.000000	63.187837 
6842.000000	62.891983 
6841.000000	62.564587 
6840.000000	62.221717 
6839.000000	61.893081 
6838.000000	61.621165 
6837.000000	61.447310 
6836.000000	61.406993 
6835.000000	61.519122 
6834.000000	61.781764 
6833.000000	62.167739 
6832.000000	62.631225 
6831.000000	63.114428 
6830.000000	63.560223 
6829.000000	63.919949 
6828.000000	64.165759 
6827.000000	64.292001 
6826.000000	64.316654 
6825.000000	64.272546 
6824.000000	64.201641 
6823.000000	64.144134 
6822.000000	64.130282 
6821.000000	64.175033 
6820.000000	64.273619 
6819.000000	64.403843 
6818.000000	64.532804 
6817.000000	64.624333 
6816.000000	64.644479 
6815.000000	64.569258 
6814.000000	64.389061 
6813.000000	64.111661 
6812.000000	63.759565 
6811.000000	63.367295 
6810.000000	62.975168 
6809.000000	62.622737 
6808.000000	62.341809 
6807.000000	62.151885 
6806.000000	62.059235 
6805.000000	62.056207 
6804.000000	62.123775 
6803.000000	62.236690 
6802.000000	62.366795 
6801.000000	62.490415 
6800.000000	62.588810 
6799.000000	62.653779 
6798.000000	62.683439 
6797.000000	62.686324 
6796.000000	62.676286 
6795.000000	62.671136 
6794.000000	62.686920 
6793.000000	62.734937 
6792.000000	62.817621 
6791.000000	62.927937 
6790.000000	63.049602 
6789.000000	63.158321 
6788.000000	63.227248 
6787.000000	63.232469 
6786.000000	63.160157 
6785.000000	63.010215 
6784.000000	62.798905 
6783.000000	62.555789 
6782.000000	62.318587 
6781.000000	62.123656 
6780.000000	62.000322 
6779.000000	61.963844 
6778.000000	62.016129 
6777.000000	62.145376 
6776.000000	62.333393 
6775.000000	62.559866 
6774.000000	62.808656 
6773.000000	63.069128 
6772.000000	63.336753 
6771.000000	63.608884 
6770.000000	63.882613 
6769.000000	64.150810 
6768.000000	64.400982 
6767.000000	64.615750 
6766.000000	64.777374 
6765.000000	64.872074 
6764.000000	64.893913 
6763.000000	64.846849 
6762.000000	64.744544 
6761.000000	64.607477 
6760.000000	64.458799 
6759.000000	64.319157 
6758.000000	64.205384 
6757.000000	64.125347 
6756.000000	64.080762 
6755.000000	64.064240 
6754.000000	64.063143 
6753.000000	64.060759 
6752.000000	64.040708 
6751.000000	63.990545 
6750.000000	63.902497 
6749.000000	63.778495 
6748.000000	63.628673 
6747.000000	63.471102 
6746.000000	63.327002 
6745.000000	63.216400 
6744.000000	63.153243 
6743.000000	63.142013 
6742.000000	63.177299 
6741.000000	63.242149 
6740.000000	63.311910 
6739.000000	63.360142 
6738.000000	63.364934 
6737.000000	63.312220 
6736.000000	63.199281 
6735.000000	63.034796 
6734.000000	62.837243 
6733.000000	62.629938 
6732.000000	62.437415 
6731.000000	62.279748 
6730.000000	62.171292 
6729.000000	62.119126 
6728.000000	62.124180 
6727.000000	62.182044 
6726.000000	62.285780 
6725.000000	62.425684 
6724.000000	62.592530 
6723.000000	62.776732 
6722.000000	62.968945 
6721.000000	63.158845 
6720.000000	63.334679 
6719.000000	63.482737 
6718.000000	63.589572 
6717.000000	63.645124 
6716.000000	63.643074 
6715.000000	63.582801 
6714.000000	63.470983 
6713.000000	63.322114 
6712.000000	63.154911 
6711.000000	62.990713 
6710.000000	62.850999 
6709.000000	62.755155 
6708.000000	62.719392 
6707.000000	62.753725 
6706.000000	62.862110 
6705.000000	63.038420 
6704.000000	63.267517 
6703.000000	63.523149 
6702.000000	63.771533 
6701.000000	63.974785 
6700.000000	64.094614 
6699.000000	64.103460 
6698.000000	63.988065 
6697.000000	63.758611 
6696.000000	63.447141 
6695.000000	63.104987 
6694.000000	62.792563 
6693.000000	62.567281 
6692.000000	62.472701 
6691.000000	62.527394 
6690.000000	62.721395 
6689.000000	63.020300 
6688.000000	63.374209 
6687.000000	63.729190 
6686.000000	64.039063 
6685.000000	64.273452 
6684.000000	64.421272 
6683.000000	64.487934 
6682.000000	64.490056 
6681.000000	64.447307 
6680.000000	64.376902 
6679.000000	64.291572 
6678.000000	64.198350 
6677.000000	64.103364 
6676.000000	64.011621 
6675.000000	63.933825 
6674.000000	63.880634 
6673.000000	63.863849 
6672.000000	63.888549 
6671.000000	63.949680 
6670.000000	64.031958 
6669.000000	64.111566 
6668.000000	64.162683 
6667.000000	64.162087 
6666.000000	64.098572 
6665.000000	63.976287 
6664.000000	63.814735 
6663.000000	63.644433 
6662.000000	63.497710 
6661.000000	63.399839 
6660.000000	63.363838 
6659.000000	63.387608 
6658.000000	63.456702 
6657.000000	63.549613 
6656.000000	63.644719 
6655.000000	63.726329 
6654.000000	63.787889 
6653.000000	63.832020 
6652.000000	63.866090 
6651.000000	63.898849 
6650.000000	63.935446 
6649.000000	63.975286 
6648.000000	64.013743 
6647.000000	64.041638 
6646.000000	64.050555 
6645.000000	64.032292 
6644.000000	63.984370 
6643.000000	63.906908 
6642.000000	63.802194 
6641.000000	63.674759 
6640.000000	63.529300 
6639.000000	63.373851 
6638.000000	63.218450 
6637.000000	63.077402 
6636.000000	62.968087 
6635.000000	62.907123 
6634.000000	62.906670 
6633.000000	62.970352 
6632.000000	63.091254 
6631.000000	63.254785 
6630.000000	63.441920 
6629.000000	63.633489 
6628.000000	63.814711 
6627.000000	63.978838 
6626.000000	64.126873 
6625.000000	64.264845 
6624.000000	64.399623 
6623.000000	64.535236 
6622.000000	64.669227 
6621.000000	64.792895 
6620.000000	64.892435 
6619.000000	64.954018 
6618.000000	64.967894 
6617.000000	64.933156 
6616.000000	64.859127 
6615.000000	64.764928 
6614.000000	64.675927 
6613.000000	64.617872 
6612.000000	64.611935 
6611.000000	64.670205 
6610.000000	64.791917 
6609.000000	64.965796 
6608.000000	65.166473 
6607.000000	65.360522 
6606.000000	65.509986 
6605.000000	65.580677 
6604.000000	65.548276 
6603.000000	65.404510 
6602.000000	65.158128 
6601.000000	64.834618 
6600.000000	64.473605 
6599.000000	64.121723 
6598.000000	63.823270 
6597.000000	63.612055 
6596.000000	63.508915 
6595.000000	63.515663 
6594.000000	63.617205 
6593.000000	63.783097 
6592.000000	63.972806 
6591.000000	64.145302 
6590.000000	64.263510 
6589.000000	64.306163 
6588.000000	64.266729 
6587.000000	64.159727 
6586.000000	64.012575 
6585.000000	63.863873 
6584.000000	63.753962 
6583.000000	63.714957 
6582.000000	63.764619 
6581.000000	63.898634 
6580.000000	64.092969 
6579.000000	64.305663 
6578.000000	64.487600 
6577.000000	64.590501 
6576.000000	64.578294 
6575.000000	64.433312 
6574.000000	64.160656 
6573.000000	63.784790 
6572.000000	63.346767 
6571.000000	62.894606 
6570.000000	62.478637 
6569.000000	62.143731 
6568.000000	61.925435 
6567.000000	61.847949 
6566.000000	61.920070 
6565.000000	62.136363 
6564.000000	62.474441 
6563.000000	62.897801 
6562.000000	63.357949 
6561.000000	63.798213 
6560.000000	64.163351 
6559.000000	64.405345 
6558.000000	64.494371 
6557.000000	64.421677 
6556.000000	64.204502 
6555.000000	63.883090 
6554.000000	63.511443 
6553.000000	63.146877 
6552.000000	62.839746 
6551.000000	62.625312 
6550.000000	62.518501 
6549.000000	62.514448 
6548.000000	62.593269 
6547.000000	62.726354 
6546.000000	62.882995 
6545.000000	63.035798 
6544.000000	63.162708 
6543.000000	63.249039 
6542.000000	63.284444 
6541.000000	63.264346 
6540.000000	63.186311 
6539.000000	63.054037 
6538.000000	62.874650 
6537.000000	62.664532 
6536.000000	62.447309 
6535.000000	62.254905 
6534.000000	62.122797 
6533.000000	62.084817 
6532.000000	62.165236 
6531.000000	62.373352 
6530.000000	62.699723 
6529.000000	63.115096 
6528.000000	63.573813 
6527.000000	64.022612 
6526.000000	64.410328 
6525.000000	64.697146 
6524.000000	64.861202 
6523.000000	64.902663 
6522.000000	64.841437 
6521.000000	64.713072 
6520.000000	64.558768 
6519.000000	64.416766 
6518.000000	64.312148 
6517.000000	64.256215 
6516.000000	64.242315 
6515.000000	64.251756 
6514.000000	64.258003 
6513.000000	64.235973 
6512.000000	64.168715 
6511.000000	64.050507 
6510.000000	63.891077 
6509.000000	63.709807 
6508.000000	63.535308 
6507.000000	63.396191 
6506.000000	63.317084 
6505.000000	63.312053 
6504.000000	63.381934 
6503.000000	63.515257 
6502.000000	63.688659 
6501.000000	63.872885 
6500.000000	64.036822 
6499.000000	64.153861 
6498.000000	64.205145 
6497.000000	64.182186 
6496.000000	64.087247 
6495.000000	63.931989 
6494.000000	63.734817 
6493.000000	63.517928 
6492.000000	63.304495 
6491.000000	63.116383 
6490.000000	62.972426 
6489.000000	62.887001 
6488.000000	62.869191 
6487.000000	62.921738 
6486.000000	63.041329 
6485.000000	63.217592 
6484.000000	63.433837 
6483.000000	63.668012 
6482.000000	63.894200 
6481.000000	64.086008 
6480.000000	64.219832 
6479.000000	64.278745 
6478.000000	64.254975 
6477.000000	64.151597 
6476.000000	63.980531 
6475.000000	63.764381 
6474.000000	63.532853 
6473.000000	63.320279 
6472.000000	63.160157 
6471.000000	63.082170 
6470.000000	63.107538 
6469.000000	63.245940 
6468.000000	63.492989 
6467.000000	63.829064 
6466.000000	64.221334 
6465.000000	64.628911 
6464.000000	65.008664 
6463.000000	65.320754 
6462.000000	65.534710 
6461.000000	65.633606 
6460.000000	65.615296 
6459.000000	65.492868 
6458.000000	65.289497 
6457.000000	65.034699 
6456.000000	64.758634 
6455.000000	64.488983 
6454.000000	64.248609 
6453.000000	64.055967 
6452.000000	63.924789 
6451.000000	63.864421 
6450.000000	63.881015 
6449.000000	63.976955 
6448.000000	64.149999 
6447.000000	64.390754 
6446.000000	64.683198 
6445.000000	65.003871 
6444.000000	65.323901 
6443.000000	65.611529 
6442.000000	65.834951 
6441.000000	65.966629 
6440.000000	65.988039 
6439.000000	65.892767 
6438.000000	65.687441 
6437.000000	65.391349 
6436.000000	65.035104 
6435.000000	64.655327 
6434.000000	64.292168 
6433.000000	63.980507 
6432.000000	63.746237 
6431.000000	63.600564 
6430.000000	63.540601 
6429.000000	63.550448 
6428.000000	63.603639 
6427.000000	63.673186 
6426.000000	63.735055 
6425.000000	63.777613 
6424.000000	63.799595 
6423.000000	63.812160 
6422.000000	63.831281 
6421.000000	63.873457 
6420.000000	63.947606 
6419.000000	64.052987 
6418.000000	64.178276 
6417.000000	64.304828 
6416.000000	64.411854 
6415.000000	64.484429 
6414.000000	64.517903 
6413.000000	64.518737 
6412.000000	64.502358 
6411.000000	64.488267 
6410.000000	64.493656 
6409.000000	64.527678 
6408.000000	64.588809 
6407.000000	64.665341 
6406.000000	64.738798 
6405.000000	64.792919 
6404.000000	64.815568 
6403.000000	64.801931 
6402.000000	64.754676 
6401.000000	64.684009 
6400.000000	64.602088 
6399.000000	64.518618 
6398.000000	64.438438 
6397.000000	64.361500 
6396.000000	64.282941 
6395.000000	64.197254 
6394.000000	64.099287 
6393.000000	63.988161 
6392.000000	63.866281 
6391.000000	63.739657 
6390.000000	63.614845 
6389.000000	63.496947 
6388.000000	63.389492 
6387.000000	63.294506 
6386.000000	63.213419 
6385.000000	63.148570 
6384.000000	63.105154 
6383.000000	63.091397 
6382.000000	63.115978 
6381.000000	63.186526 
6380.000000	63.306903 
6379.000000	63.475251 
6378.000000	63.681650 
6377.000000	63.909721 
6376.000000	64.138627 
6375.000000	64.346861 
6374.000000	64.515924 
6373.000000	64.633965 
6372.000000	64.698123 
6371.000000	64.713859 
6370.000000	64.693498 
6369.000000	64.651703 
6368.000000	64.602422 
6367.000000	64.555096 
6366.000000	64.515447 
6365.000000	64.482450 
6364.000000	64.450883 
6363.000000	64.414310 
6362.000000	64.369082 
6361.000000	64.314961 
6360.000000	64.255905 
6359.000000	64.199638 
6358.000000	64.154982 
6357.000000	64.127993 
6356.000000	64.119863 
6355.000000	64.125537 
6354.000000	64.135050 
6353.000000	64.137625 
6352.000000	64.123487 
6351.000000	64.086675 
6350.000000	64.025759 
6349.000000	63.944721 
6348.000000	63.850951 
6347.000000	63.751220 
6346.000000	63.652467 
6345.000000	63.559484 
6344.000000	63.477110 
6343.000000	63.409042 
6342.000000	63.360881 
6341.000000	63.339304 
6340.000000	63.352680 
6339.000000	63.408660 
6338.000000	63.511705 
6337.000000	63.659715 
6336.000000	63.845014 
6335.000000	64.053940 
6334.000000	64.269566 
6333.000000	64.473319 
6332.000000	64.649200 
6331.000000	64.784169 
6330.000000	64.868354 
6329.000000	64.893746 
6328.000000	64.854550 
6327.000000	64.746689 
6326.000000	64.569425 
6325.000000	64.326763 
6324.000000	64.030957 
6323.000000	63.702416 
6322.000000	63.368654 
6321.000000	63.061618 
6320.000000	62.812042 
6319.000000	62.646150 
6318.000000	62.578964 
6317.000000	62.615156 
6316.000000	62.744545 
6315.000000	62.950158 
6314.000000	63.209724 
6313.000000	63.502359 
6312.000000	63.809037 
6311.000000	64.115929 
6310.000000	64.412331 
6309.000000	64.689064 
6308.000000	64.935970 
6307.000000	65.141415 
6306.000000	65.292429 
6305.000000	65.378737 
6304.000000	65.395092 
6303.000000	65.343189 
6302.000000	65.232276 
6301.000000	65.079951 
6300.000000	64.908766 
6299.000000	64.744186 
6298.000000	64.608764 
6297.000000	64.519786 
6296.000000	64.484548 
6295.000000	64.501404 
6294.000000	64.558267 
6293.000000	64.637589 
6292.000000	64.717483 
6291.000000	64.776921 
6290.000000	64.798092 
6289.000000	64.769458 
6288.000000	64.687204 
6287.000000	64.553618 
6286.000000	64.379191 
6285.000000	64.179158 
6284.000000	63.974976 
6283.000000	63.791012 
6282.000000	63.652873 
6281.000000	63.582921 
6280.000000	63.600063 
6279.000000	63.715910 
6278.000000	63.930583 
6277.000000	64.230370 
6276.000000	64.588689 
6275.000000	64.968609 
6274.000000	65.326714 
6273.000000	65.620374 
6272.000000	65.815854 
6271.000000	65.893030 
6270.000000	65.849924 
6269.000000	65.699958 
6268.000000	65.468692 
6267.000000	65.187454 
6266.000000	64.888739 
6265.000000	64.600038 
6264.000000	64.342093 
6263.000000	64.127349 
6262.000000	63.964724 
6261.000000	63.857126 
6260.000000	63.804292 
6259.000000	63.802027 
6258.000000	63.842296 
6257.000000	63.913297 
6256.000000	63.999438 
6255.000000	64.082884 
6254.000000	64.145064 
6253.000000	64.171886 
6252.000000	64.156031 
6251.000000	64.099621 
6250.000000	64.013075 
6249.000000	63.912820 
6248.000000	63.816213 
6247.000000	63.737797 
6246.000000	63.684821 
6245.000000	63.655900 
6244.000000	63.642120 
6243.000000	63.629055 
6242.000000	63.604021 
6241.000000	63.559389 
6240.000000	63.498663 
6239.000000	63.433241 
6238.000000	63.384294 
6237.000000	63.376188 
6236.000000	63.431119 
6235.000000	63.563156 
6234.000000	63.770604 
6233.000000	64.034748 
6232.000000	64.320755 
6231.000000	64.585781 
6230.000000	64.785075 
6229.000000	64.882516 
6228.000000	64.857840 
6227.000000	64.711570 
6226.000000	64.465832 
6225.000000	64.159941 
6224.000000	63.842701 
6223.000000	63.562631 
6222.000000	63.361167 
6221.000000	63.264393 
6220.000000	63.280367 
6219.000000	63.397765 
6218.000000	63.591051 
6217.000000	63.825082 
6216.000000	64.061021 
6215.000000	64.264750 
6214.000000	64.409780 
6213.000000	64.483785 
6212.000000	64.486074 
6211.000000	64.428806 
6210.000000	64.331412 
6209.000000	64.217090 
6208.000000	64.109396 
6207.000000	64.024925 
6206.000000	63.972663 
6205.000000	63.950705 
6204.000000	63.950920 
6203.000000	63.957715 
6202.000000	63.953447 
6201.000000	63.922166 
6200.000000	63.853716 
6199.000000	63.746213 
6198.000000	63.605952 
6197.000000	63.445425 
6196.000000	63.278937 
6195.000000	63.117671 
6194.000000	62.966561 
6193.000000	62.823677 
6192.000000	62.682175 
6191.000000	62.532305 
6190.000000	62.367987 
6189.000000	62.189936 
6188.000000	62.009429 
6187.000000	61.844682 
6186.000000	61.720156 
6185.000000	61.656045 
6184.000000	61.668920 
6183.000000	61.764550 
6182.000000	61.939573 
6181.000000	62.177515 
6180.000000	62.457156 
6179.000000	62.755942 
6178.000000	63.054180 
6177.000000	63.336801 
6176.000000	63.594031 
6175.000000	63.819360 
6174.000000	64.009380 
6173.000000	64.161920 
6172.000000	64.275479 
6171.000000	64.348840 
6170.000000	64.384436 
6169.000000	64.388537 
6168.000000	64.370608 
6167.000000	64.341664 
6166.000000	64.314150 
6165.000000	64.298629 
6164.000000	64.302301 
6163.000000	64.326477 
6162.000000	64.369893 
6161.000000	64.425253 
6160.000000	64.483237 
6159.000000	64.530062 
6158.000000	64.552879 
6157.000000	64.537215 
6156.000000	64.470195 
6155.000000	64.342260 
6154.000000	64.148545 
6153.000000	63.894224 
6152.000000	63.594222 
6151.000000	63.275384 
6150.000000	62.971854 
6149.000000	62.722611 
6148.000000	62.564206 
6147.000000	62.522673 
6146.000000	62.607073 
6145.000000	62.808442 
6144.000000	63.100934 
6143.000000	63.444781 
6142.000000	63.794159 
6141.000000	64.106082 
6140.000000	64.348220 
6139.000000	64.502644 
6138.000000	64.568018 
6137.000000	64.556574 
6136.000000	64.489483 
6135.000000	64.392352 
6134.000000	64.287376 
6133.000000	64.190983 
6132.000000	64.109492 
6131.000000	64.044713 
6130.000000	63.991427 
6129.000000	63.943266 
6128.000000	63.893628 
6127.000000	63.839340 
6126.000000	63.781118 
6125.000000	63.722252 
6124.000000	63.668632 
6123.000000	63.626194 
6122.000000	63.599514 
6121.000000	63.589739 
6120.000000	63.595032 
6119.000000	63.610672 
6118.000000	63.629460 
6117.000000	63.643550 
6116.000000	63.645911 
6115.000000	63.632750 
6114.000000	63.604712 
6113.000000	63.568019 
6112.000000	63.532233 
6111.000000	63.509941 
6110.000000	63.514637 
6109.000000	63.557791 
6108.000000	63.644742 
6107.000000	63.773894 
6106.000000	63.937520 
6105.000000	64.122200 
6104.000000	64.311361 
6103.000000	64.488434 
6102.000000	64.639258 
6101.000000	64.755272 
6100.000000	64.834690 
6099.000000	64.881610 
6098.000000	64.904499 
6097.000000	64.912915 
6096.000000	64.916300 
6095.000000	64.919495 
6094.000000	64.922690 
6093.000000	64.921236 
6092.000000	64.908432 
6091.000000	64.876914 
6090.000000	64.822006 
6089.000000	64.743709 
6088.000000	64.647841 
6087.000000	64.545297 
6086.000000	64.449429 
6085.000000	64.373111 
6084.000000	64.324927 
6083.000000	64.306855 
6082.000000	64.313459 
6081.000000	64.333081 
6080.000000	64.351367 
6079.000000	64.354729 
6078.000000	64.334797 
6077.000000	64.289855 
6076.000000	64.226150 
6075.000000	64.155054 
6074.000000	64.090800 
6073.000000	64.044547 
6072.000000	64.023828 
6071.000000	64.031028 
6070.000000	64.062833 
6069.000000	64.110994 
6068.000000	64.165735 
6067.000000	64.219093 
6066.000000	64.265179 
6065.000000	64.301276 
6064.000000	64.327478 
6063.000000	64.345669 
6062.000000	64.357972 
6061.000000	64.365887 
6060.000000	64.369916 
6059.000000	64.369845 
6058.000000	64.366316 
6057.000000	64.361023 
6056.000000	64.356637 
6055.000000	64.356923 
6054.000000	64.366841 
6053.000000	64.390921 
6052.000000	64.432406 
6051.000000	64.490842 
6050.000000	64.563655 
6049.000000	64.642643 
6048.000000	64.716410 
6047.000000	64.769530 
6046.000000	64.786458 
6045.000000	64.753317 
6044.000000	64.661979 
6043.000000	64.511823 
6042.000000	64.311194 
6041.000000	64.075708 
6040.000000	63.826131 
6039.000000	63.585090 
6038.000000	63.373661 
6037.000000	63.207960 
6036.000000	63.097357 
6035.000000	63.043785 
6034.000000	63.043284 
6033.000000	63.088178 
6032.000000	63.169765 
6031.000000	63.278818 
6030.000000	63.407874 
6029.000000	63.549447 
6028.000000	63.697052 
6027.000000	63.842988 
6026.000000	63.979148 
6025.000000	64.097690 
6024.000000	64.190721 
6023.000000	64.253091 
6022.000000	64.280652 
6021.000000	64.271783 
6020.000000	64.226889 
6019.000000	64.149141 
6018.000000	64.045143 
6017.000000	63.924884 
6016.000000	63.802266 
6015.000000	63.693881 
6014.000000	63.616704 
6013.000000	63.585495 
6012.000000	63.609385 
6011.000000	63.689899 
6010.000000	63.819026 
6009.000000	63.980317 
6008.000000	64.151930 
6007.000000	64.311313 
6006.000000	64.439606 
6005.000000	64.525365 
6004.000000	64.567112 
6003.000000	64.572405 
6002.000000	64.554738 
6001.000000	64.529323 
6000.000000	64.508390 
5999.000000	64.498400 
5998.000000	64.501285 
5997.000000	64.513254 
5996.000000	64.528918 
5995.000000	64.542365 
5994.000000	64.551210 
5993.000000	64.556002 
5992.000000	64.559459 
5991.000000	64.565944 
5990.000000	64.580059 
5989.000000	64.604306 
5988.000000	64.638066 
5987.000000	64.676904 
5986.000000	64.713668 
5985.000000	64.740300 
5984.000000	64.750242 
5983.000000	64.739871 
5982.000000	64.709615 
5981.000000	64.664435 
5980.000000	64.612483 
5979.000000	64.563035 
5978.000000	64.524126 
5977.000000	64.500570 
5976.000000	64.492630 
5975.000000	64.496302 
5974.000000	64.503979 
5973.000000	64.506649 
5972.000000	64.495515 
5971.000000	64.465045 
5970.000000	64.412927 
5969.000000	64.340615 
5968.000000	64.251804 
5967.000000	64.151215 
5966.000000	64.043545 
5965.000000	63.931655 
5964.000000	63.818621 
5963.000000	63.707995 
5962.000000	63.605070 
5961.000000	63.516688 
5960.000000	63.451099 
5959.000000	63.416051 
5958.000000	63.416957 
5957.000000	63.454699 
5956.000000	63.525700 
5955.000000	63.621878 
5954.000000	63.732624 
5953.000000	63.847017 
5952.000000	63.955783 
5951.000000	64.052891 
5950.000000	64.136958 
5949.000000	64.209485 
5948.000000	64.273214 
5947.000000	64.329147 
5946.000000	64.377093 
5945.000000	64.412784 
5944.000000	64.429688 
5943.000000	64.419388 
5942.000000	64.376020 
5941.000000	64.296984 
5940.000000	64.184999 
5939.000000	64.048147 
5938.000000	63.899517 
5937.000000	63.754463 
5936.000000	63.627696 
5935.000000	63.530826 
5934.000000	63.470673 
5933.000000	63.447928 
5932.000000	63.457512 
5931.000000	63.490962 
5930.000000	63.538718 
5929.000000	63.592910 
5928.000000	63.649249 
5927.000000	63.707852 
5926.000000	63.772630 
5925.000000	63.850259 
5924.000000	63.947486 
5923.000000	64.067864 
5922.000000	64.209842 
5921.000000	64.367389 
5920.000000	64.529633 
5919.000000	64.683032 
5918.000000	64.813756 
5917.000000	64.911723 
5916.000000	64.971852 
5915.000000	64.995789 
5914.000000	64.990520 
5913.000000	64.967155 
5912.000000	64.937353 
5911.000000	64.911985 
5910.000000	64.897871 
5909.000000	64.897537 
5908.000000	64.909577 
5907.000000	64.930748 
5906.000000	64.957070 
5905.000000	64.985656 
5904.000000	65.015625 
5903.000000	65.048384 
5902.000000	65.085291 
5901.000000	65.126347 
5900.000000	65.168499 
5899.000000	65.205216 
5898.000000	65.227508 
5897.000000	65.225577 
5896.000000	65.191197 
5895.000000	65.120363 
5894.000000	65.015554 
5893.000000	64.885973 
5892.000000	64.744758 
5891.000000	64.608025 
5890.000000	64.492464 
5889.000000	64.411902 
5888.000000	64.373350 
5887.000000	64.377164 
5886.000000	64.417338 
5885.000000	64.483547 
5884.000000	64.562606 
5883.000000	64.642810 
5882.000000	64.715194 
5881.000000	64.775657 
5880.000000	64.824080 
5879.000000	64.863562 
5878.000000	64.897561 
5877.000000	64.928793 
5876.000000	64.957761 
5875.000000	64.983177 
5874.000000	65.002489 
5873.000000	65.013837 
5872.000000	65.016341 
5871.000000	65.011072 
5870.000000	64.998960 
5869.000000	64.981365 
5868.000000	64.956569 
5867.000000	64.918899 
5866.000000	64.859390 
5865.000000	64.767384 
5864.000000	64.635276 
5863.000000	64.461135 
5862.000000	64.252996 
5861.000000	64.028215 
5860.000000	63.812637 
5859.000000	63.634967 
5858.000000	63.521862 
5857.000000	63.490438 
5856.000000	63.545370 
5855.000000	63.676738 
5854.000000	63.862299 
5853.000000	64.071559 
5852.000000	64.272570 
5851.000000	64.438080 
5850.000000	64.550256 
5849.000000	64.602494 
5848.000000	64.599657 
5847.000000	64.555191 
5846.000000	64.487481 
5845.000000	64.415025 
5844.000000	64.354348 
5843.000000	64.316582 
5842.000000	64.308643 
5841.000000	64.330792 
5840.000000	64.378929 
5839.000000	64.443826 
5838.000000	64.514112 
5837.000000	64.576983 
5836.000000	64.620113 
5835.000000	64.633774 
5834.000000	64.612364 
5833.000000	64.555668 
5832.000000	64.468050 
5831.000000	64.358568 
5830.000000	64.239549 
5829.000000	64.124417 
5828.000000	64.025449 
5827.000000	63.951897 
5826.000000	63.909268 
5825.000000	63.897871 
5824.000000	63.913869 
5823.000000	63.949441 
5822.000000	63.994693 
5821.000000	64.039635 
5820.000000	64.076042 
5819.000000	64.098405 
5818.000000	64.104819 
5817.000000	64.096736 
5816.000000	64.078736 
5815.000000	64.057588 
5814.000000	64.040637 
5813.000000	64.034104 
5812.000000	64.041543 
5811.000000	64.063501 
5810.000000	64.097261 
5809.000000	64.138364 
5808.000000	64.180850 
5807.000000	64.218902 
5806.000000	64.247465 
5805.000000	64.263653 
5804.000000	64.266157 
5803.000000	64.255714 
5802.000000	64.233374 
5801.000000	64.199948 
5800.000000	64.156079 
5799.000000	64.102935 
5798.000000	64.042282 
5797.000000	63.976454 
5796.000000	63.911008 
5795.000000	63.854598 
5794.000000	63.819289 
5793.000000	63.818359 
5792.000000	63.864159 
5791.000000	63.964080 
5790.000000	64.118790 
5789.000000	64.319205 
5788.000000	64.546465 
5787.000000	64.773368 
5786.000000	64.969539 
5785.000000	65.106296 
5784.000000	65.162181 
5783.000000	65.127539 
5782.000000	65.006399 
5781.000000	64.816522 
5780.000000	64.585876 
5779.000000	64.348149 
5778.000000	64.136505 
5777.000000	63.978695 
5776.000000	63.893413 
5775.000000	63.888168 
5774.000000	63.959932 
5773.000000	64.096784 
5772.000000	64.281320 
5771.000000	64.493346 
5770.000000	64.712595 
5769.000000	64.920425 
5768.000000	65.100479 
5767.000000	65.239858 
5766.000000	65.328907 
5765.000000	65.361905 
5764.000000	65.336966 
5763.000000	65.256881 
5762.000000	65.128421 
5761.000000	64.962959 
5760.000000	64.774847 
5759.000000	64.580917 
5758.000000	64.398026 
5757.000000	64.241170 
5756.000000	64.121913 
5755.000000	64.047122 
5754.000000	64.019298 
5753.000000	64.035606 
5752.000000	64.090681 
5751.000000	64.176678 
5750.000000	64.285778 
5749.000000	64.409947 
5748.000000	64.541602 
5747.000000	64.672422 
5746.000000	64.794111 
5745.000000	64.898204 
5744.000000	64.976882 
5743.000000	65.023803 
5742.000000	65.035176 
5741.000000	65.010762 
5740.000000	64.954304 
5739.000000	64.873433 
5738.000000	64.777183 
5737.000000	64.674806 
5736.000000	64.574122 
5735.000000	64.480996 
5734.000000	64.398074 
5733.000000	64.326453 
5732.000000	64.267253 
5731.000000	64.223146 
5730.000000	64.198160 
5729.000000	64.198136 
5728.000000	64.228296 
5727.000000	64.292502 
5726.000000	64.390110 
5725.000000	64.515876 
5724.000000	64.659070 
5723.000000	64.805221 
5722.000000	64.938831 
5721.000000	65.045213 
5720.000000	65.113449 
5719.000000	65.137410 
5718.000000	65.117168 
5717.000000	65.057539 
5716.000000	64.967012 
5715.000000	64.856314 
5714.000000	64.736747 
5713.000000	64.618921 
5712.000000	64.511585 
5711.000000	64.421081 
5710.000000	64.350795 
5709.000000	64.300203 
5708.000000	64.264941 
5707.000000	64.237403 
5706.000000	64.208579 
5705.000000	64.168858 
5704.000000	64.111423 
5703.000000	64.032483 
5702.000000	63.933992 
5701.000000	63.823270 
5700.000000	63.712239 
5699.000000	63.613057 
5698.000000	63.537383 
5697.000000	63.492584 
5696.000000	63.482213 
5695.000000	63.503670 
5694.000000	63.552236 
5693.000000	63.622069 
5692.000000	63.708829 
5691.000000	63.809704 
5690.000000	63.923621 
5689.000000	64.049434 
5688.000000	64.184641 
5687.000000	64.323687 
5686.000000	64.458131 
5685.000000	64.577341 
5684.000000	64.672183 
5683.000000	64.736390 
5682.000000	64.768505 
5681.000000	64.770221 
5680.000000	64.747524 
5679.000000	64.705610 
5678.000000	64.646577 
5677.000000	64.567518 
5676.000000	64.462041 
5675.000000	64.322662 
5674.000000	64.144968 
5673.000000	63.931155 
5672.000000	63.693261 
5671.000000	63.451528 
5670.000000	63.230466 
5669.000000	63.054347 
5668.000000	62.939953 
5667.000000	62.895035 
5666.000000	62.914514 
5665.000000	62.985277 
5664.000000	63.088274 
5663.000000	63.205885 
5662.000000	63.325190 
5661.000000	63.440656 
5660.000000	63.552737 
5659.000000	63.665628 
5658.000000	63.783168 
5657.000000	63.903999 
5656.000000	64.020085 
5655.000000	64.118885 
5654.000000	64.186382 
5653.000000	64.212083 
5652.000000	64.192628 
5651.000000	64.134931 
5650.000000	64.054584 
5649.000000	63.973021 
5648.000000	63.911485 
5647.000000	63.885736 
5646.000000	63.901901 
5645.000000	63.955616 
5644.000000	64.033651 
5643.000000	64.117813 
5642.000000	64.190602 
5641.000000	64.240312 
5640.000000	64.263892 
5639.000000	64.266800 
5638.000000	64.261054 
5637.000000	64.261102 
5636.000000	64.277696 
5635.000000	64.313864 
5634.000000	64.364194 
5633.000000	64.416289 
5632.000000	64.453411 
5631.000000	64.459657 
5630.000000	64.424324 
5629.000000	64.345288 
5628.000000	64.229559 
5627.000000	64.092040 
5626.000000	63.951230 
5625.000000	63.825583 
5624.000000	63.730263 
5623.000000	63.673686 
5622.000000	63.656759 
5621.000000	63.672542 
5620.000000	63.709664 
5619.000000	63.753557 
5618.000000	63.789701 
5617.000000	63.806056 
5616.000000	63.793611 
5615.000000	63.750123 
5614.000000	63.677668 
5613.000000	63.585925 
5612.000000	63.488245 
5611.000000	63.402557 
5610.000000	63.346767 
5609.000000	63.337397 
5608.000000	63.385963 
5607.000000	63.496637 
5606.000000	63.664984 
5605.000000	63.878536 
5604.000000	64.118361 
5603.000000	64.362144 
5602.000000	64.587163 
5601.000000	64.773917 
5600.000000	64.907908 
5599.000000	64.981389 
5598.000000	64.993047 
5597.000000	64.947557 
5596.000000	64.853787 
5595.000000	64.724898 
5594.000000	64.575123 
5593.000000	64.419460 
5592.000000	64.271545 
5591.000000	64.144539 
5590.000000	64.048933 
5589.000000	63.992738 
5588.000000	63.979983 
5587.000000	64.009642 
5586.000000	64.076828 
5585.000000	64.172959 
5584.000000	64.287114 
5583.000000	64.406728 
5582.000000	64.519810 
5581.000000	64.615821 
5580.000000	64.687228 
5579.000000	64.729714 
5578.000000	64.741873 
5577.000000	64.724826 
5576.000000	64.681768 
5575.000000	64.617586 
5574.000000	64.538288 
5573.000000	64.450812 
5572.000000	64.362955 
5571.000000	64.282846 
5570.000000	64.219641 
5569.000000	64.180994 
5568.000000	64.172744 
5567.000000	64.195942 
5566.000000	64.246416 
5565.000000	64.314103 
5564.000000	64.384627 
5563.000000	64.441895 
5562.000000	64.470410 
5561.000000	64.459872 
5560.000000	64.407038 
5559.000000	64.317703 
5558.000000	64.205145 
5557.000000	64.087891 
5556.000000	63.985109 
5555.000000	63.913583 
5554.000000	63.884615 
5553.000000	63.901782 
5552.000000	63.960528 
5551.000000	64.051175 
5550.000000	64.161658 
5549.000000	64.279842 
5548.000000	64.396286 
5547.000000	64.504504 
5546.000000	64.601922 
5545.000000	64.688205 
5544.000000	64.764952 
5543.000000	64.833950 
5542.000000	64.896583 
5541.000000	64.954876 
5540.000000	65.009403 
5539.000000	65.060782 
5538.000000	65.107536 
5537.000000	65.148925 
5536.000000	65.181469 
5535.000000	65.201234 
5534.000000	65.201807 
5533.000000	65.177512 
5532.000000	65.122485 
5531.000000	65.033221 
5530.000000	64.908695 
5529.000000	64.752244 
5528.000000	64.571118 
5527.000000	64.376306 
5526.000000	64.181971 
5525.000000	64.003658 
5524.000000	63.857221 
5523.000000	63.756346 
5522.000000	63.710951 
5521.000000	63.725352 
5520.000000	63.797283 
5519.000000	63.918042 
5518.000000	64.071798 
5517.000000	64.238882 
5516.000000	64.398598 
5515.000000	64.533686 
5514.000000	64.631104 
5513.000000	64.685940 
5512.000000	64.701485 
5511.000000	64.688086 
5510.000000	64.659786 
5509.000000	64.630746 
5508.000000	64.612960 
5507.000000	64.612579 
5506.000000	64.630198 
5505.000000	64.660882 
5504.000000	64.697289 
5503.000000	64.731645 
5502.000000	64.759159 
5501.000000	64.778184 
5500.000000	64.790534 
5499.000000	64.799904 
5498.000000	64.810132 
5497.000000	64.822578 
5496.000000	64.835095 
5495.000000	64.843177 
5494.000000	64.841055 
5493.000000	64.823460 
5492.000000	64.787268 
5491.000000	64.733982 
5490.000000	64.668703 
5489.000000	64.598655 
5488.000000	64.530491 
5487.000000	64.468646 
5486.000000	64.413833 
5485.000000	64.363455 
5484.000000	64.312529 
5483.000000	64.255666 
5482.000000	64.189529 
5481.000000	64.114713 
5480.000000	64.036011 
5479.000000	63.960838 
5478.000000	63.898301 
5477.000000	63.856053 
5476.000000	63.838553 
5475.000000	63.845276 
5474.000000	63.871240 
5473.000000	63.908123 
5472.000000	63.946461 
5471.000000	63.978171 
5470.000000	63.998508 
5469.000000	64.007401 
5468.000000	64.008784 
5467.000000	64.009737 
5466.000000	64.018678 
5465.000000	64.043426 
5464.000000	64.089345 
5463.000000	64.158082 
5462.000000	64.247298 
5461.000000	64.350986 
5460.000000	64.461088 
5459.000000	64.568591 
5458.000000	64.665746 
5457.000000	64.746403 
5456.000000	64.807319 
5455.000000	64.846897 
5454.000000	64.865064 
5453.000000	64.862537 
5452.000000	64.840936 
5451.000000	64.802479 
5450.000000	64.750862 
5449.000000	64.690899 
5448.000000	64.629435 
5447.000000	64.573407 
5446.000000	64.529466 
5445.000000	64.501929 
5444.000000	64.492321 
5443.000000	64.498209 
5442.000000	64.513993 
5441.000000	64.531993 
5440.000000	64.544630 
5439.000000	64.546990 
5438.000000	64.537858 
5437.000000	64.520049 
5436.000000	64.498376 
5435.000000	64.477872 
5434.000000	64.461350 
5433.000000	64.448070 
5432.000000	64.433670 
5431.000000	64.412093 
5430.000000	64.377188 
5429.000000	64.325904 
5428.000000	64.259099 
5427.000000	64.182305 
5426.000000	64.104151 
5425.000000	64.033365 
5424.000000	63.977813 
5423.000000	63.942551 
5422.000000	63.928842 
5421.000000	63.933682 
5420.000000	63.951873 
5419.000000	63.977670 
5418.000000	64.005732 
5417.000000	64.032363 
5416.000000	64.055085 
5415.000000	64.072275 
5414.000000	64.082431 
5413.000000	64.084196 
5412.000000	64.076042 
5411.000000	64.057278 
5410.000000	64.029192 
5409.000000	63.995599 
5408.000000	63.962531 
5407.000000	63.937592 
5406.000000	63.928484 
5405.000000	63.940978 
5404.000000	63.977980 
5403.000000	64.037132 
5402.000000	64.112424 
5401.000000	64.192676 
5400.000000	64.263868 
5399.000000	64.310789 
5398.000000	64.320635 
5397.000000	64.285039 
5396.000000	64.201784 
5395.000000	64.075875 
5394.000000	63.919019 
5393.000000	63.747334 
5392.000000	63.578152 
5391.000000	63.427710 
5390.000000	63.308763 
5389.000000	63.229036 
5388.000000	63.190722 
5387.000000	63.191366 
5386.000000	63.225007 
5385.000000	63.283562 
5384.000000	63.358306 
5383.000000	63.440108 
5382.000000	63.520741 
5381.000000	63.592457 
5380.000000	63.649439 
5379.000000	63.686490 
5378.000000	63.701415 
5377.000000	63.695287 
5376.000000	63.672852 
5375.000000	63.642191 
5374.000000	63.612389 
5373.000000	63.592433 
5372.000000	63.588666 
5371.000000	63.603997 
5370.000000	63.637256 
5369.000000	63.684058 
5368.000000	63.738226 
5367.000000	63.793992 
5366.000000	63.846802 
5365.000000	63.894057 
5364.000000	63.935923 
5363.000000	63.974595 
5362.000000	64.013504 
5361.000000	64.055633 
5360.000000	64.103412 
5359.000000	64.157271 
5358.000000	64.215469 
5357.000000	64.272952 
5356.000000	64.322447 
5355.000000	64.354968 
5354.000000	64.361858 
5353.000000	64.336276 
5352.000000	64.274406 
5351.000000	64.177656 
5350.000000	64.053368 
5349.000000	63.914585 
5348.000000	63.778305 
5347.000000	63.662600 
5346.000000	63.582324 
5345.000000	63.547420 
5344.000000	63.560843 
5343.000000	63.619089 
5342.000000	63.712739 
5341.000000	63.829588 
5340.000000	63.956236 
5339.000000	64.081954 
5338.000000	64.200305 
5337.000000	64.307522 
5336.000000	64.400982 
5335.000000	64.478468 
5334.000000	64.536571 
5333.000000	64.570379 
5332.000000	64.573502 
5331.000000	64.539551 
5330.000000	64.463400 
5329.000000	64.344835 
5328.000000	64.189314 
5327.000000	64.006304 
5326.000000	63.810753 
5325.000000	63.620209 
5324.000000	63.455796 
5323.000000	63.336634 
5322.000000	63.280797 
5321.000000	63.303184 
5320.000000	63.411641 
5319.000000	63.605141 
5318.000000	63.869929 
5317.000000	64.182901 
5316.000000	64.507579 
5315.000000	64.799237 
5314.000000	65.010261 
5313.000000	65.098404 
5312.000000	65.036725 
5311.000000	64.820337 
5310.000000	64.469552 
5309.000000	64.027380 
5308.000000	63.554525 
5307.000000	63.118886 
5306.000000	62.781739 
5305.000000	62.587165 
5304.000000	62.557125 
5303.000000	62.689423 
5302.000000	62.957811 
5301.000000	63.321685 
5300.000000	63.734626 
5299.000000	64.156556 
5298.000000	64.555335 
5297.000000	64.915895 
5296.000000	65.233182 
5295.000000	65.515208 
5294.000000	65.775346 
5293.000000	66.027307 
5292.000000	66.280698 
5291.000000	66.534352 
5290.000000	66.783404 
5289.000000	67.009186 
5288.000000	67.188572 
5287.000000	67.292714 
5286.000000	67.298316 
5285.000000	67.190122 
5284.000000	66.968226 
5283.000000	66.647863 
5282.000000	66.259098 
5281.000000	65.837645 
5280.000000	65.417909 
5279.000000	65.024232 
5278.000000	64.667439 
5277.000000	64.341139 
5276.000000	64.029431 
5275.000000	63.711738 
5274.000000	63.377404 
5273.000000	63.032150 
5272.000000	62.705159 
5271.000000	62.437129 
5270.000000	62.278246 
5269.000000	62.273073 
5268.000000	62.450170 
5267.000000	62.804174 
5266.000000	63.301682 
5265.000000	63.885784 
5264.000000	64.487504 
5263.000000	65.038061 
5262.000000	65.483331 
5261.000000	65.791869 
5260.000000	65.959143 
5259.000000	66.002488 
5258.000000	65.956902 
5257.000000	65.863513 
5256.000000	65.763497 
5255.000000	65.690517 
5254.000000	65.664434 
5253.000000	65.688586 
5252.000000	65.754914 
5251.000000	65.845036 
5250.000000	65.929245 
5249.000000	65.970301 
5248.000000	65.931463 
5247.000000	65.781021 
5246.000000	65.495824 
5245.000000	65.067982 
5244.000000	64.509391 
5243.000000	63.852381 
5242.000000	63.143968 
5241.000000	62.442159 
5240.000000	61.806035 
5239.000000	61.288380 
5238.000000	60.926508 
5237.000000	60.738682 
5236.000000	60.719418 
5235.000000	60.845732 
5234.000000	61.079597 
5233.000000	61.379575 
5232.000000	61.700487 
5231.000000	62.013387 
5230.000000	62.305283 
5229.000000	62.581682 
5228.000000	62.857151 
5227.000000	63.154268 
5226.000000	63.491988 
5225.000000	63.878583 
5224.000000	64.305186 
5223.000000	64.746069 
5222.000000	65.161895 
5221.000000	65.510535 
5220.000000	65.755796 
5219.000000	65.877580 
5218.000000	65.876269 
5217.000000	65.775823 
5216.000000	65.616130 
5215.000000	65.443301 
5214.000000	65.298414 
5213.000000	65.213274 
5212.000000	65.200114 
5211.000000	65.252971 
5210.000000	65.348553 
5209.000000	65.461540 
5208.000000	65.561389 
5207.000000	65.621137 
5206.000000	65.619564 
5205.000000	65.545415 
5204.000000	65.395951 
5203.000000	65.175962 
5202.000000	64.896655 
5201.000000	64.572930 
5200.000000	64.224910 
5199.000000	63.876223 
5198.000000	63.549923 
5197.000000	63.266491 
5196.000000	63.042879 
5195.000000	62.891149 
5194.000000	62.813067 
5193.000000	62.803649 
5192.000000	62.852096 
5191.000000	62.947344 
5190.000000	63.074970 
5189.000000	63.225269 
5188.000000	63.392114 
5187.000000	63.575911 
5186.000000	63.776803 
5185.000000	63.997220 
5184.000000	64.236998 
5183.000000	64.493298 
5182.000000	64.759898 
5181.000000	65.025591 
5180.000000	65.276098 
5179.000000	65.494537 
5178.000000	65.666675 
5177.000000	65.779781 
5176.000000	65.826702 
5175.000000	65.805172 
5174.000000	65.719604 
5173.000000	65.578341 
5172.000000	65.392971 
5171.000000	65.177798 
5170.000000	64.948391 
5169.000000	64.719247 
5168.000000	64.502620 
5167.000000	64.309215 
5166.000000	64.146733 
5165.000000	64.018821 
5164.000000	63.925528 
5163.000000	63.862776 
5162.000000	63.824605 
5161.000000	63.802599 
5160.000000	63.789892 
5159.000000	63.779258 
5158.000000	63.768219 
5157.000000	63.757586 
5156.000000	63.752174 
5155.000000	63.757801 
5154.000000	63.779687 
5153.000000	63.819813 
5152.000000	63.875675 
5151.000000	63.939213 
5150.000000	64.000177 
5149.000000	64.048814 
5148.000000	64.077758 
5147.000000	64.083981 
5146.000000	64.069581 
5145.000000	64.040756 
5144.000000	64.005303 
5143.000000	63.970136 
5142.000000	63.938713 
5141.000000	63.910126 
5140.000000	63.880777 
5139.000000	63.845944 
5138.000000	63.801264 
5137.000000	63.745450 
5136.000000	63.681674 
5135.000000	63.617825 
5134.000000	63.563203 
5133.000000	63.528871 
5132.000000	63.523483 
5131.000000	63.553977 
5130.000000	63.623356 
5129.000000	63.730788 
5128.000000	63.872027 
5127.000000	64.037775 
5126.000000	64.214992 
5125.000000	64.386844 
5124.000000	64.534640 
5123.000000	64.641141 
5122.000000	64.693522 
5121.000000	64.687037 
5120.000000	64.626145 
5119.000000	64.525508 
5118.000000	64.407014 
5117.000000	64.295458 
5116.000000	64.212894 
5115.000000	64.173674 
5114.000000	64.181160 
5113.000000	64.227485 
5112.000000	64.296007 
5111.000000	64.365887 
5110.000000	64.417958 
5109.000000	64.439749 
5108.000000	64.428257 
5107.000000	64.389324 
5106.000000	64.335680 
5105.000000	64.281725 
5104.000000	64.240527 
5103.000000	64.219927 
5102.000000	64.221692 
5101.000000	64.242410 
5100.000000	64.274477 
5099.000000	64.310073 
5098.000000	64.341664 
5097.000000	64.364504 
5096.000000	64.375758 
5095.000000	64.374589 
5094.000000	64.360189 
5093.000000	64.331102 
5092.000000	64.286017 
5091.000000	64.224386 
5090.000000	64.148211 
5089.000000	64.062786 
5088.000000	63.976621 
5087.000000	63.900351 
5086.000000	63.844799 
5085.000000	63.818645 
5084.000000	63.825774 
5083.000000	63.864350 
5082.000000	63.926744 
5081.000000	64.001488 
5080.000000	64.075660 
5079.000000	64.138078 
5078.000000	64.181184 
5077.000000	64.202737 
5076.000000	64.205718 
5075.000000	64.196610 
5074.000000	64.183354 
5073.000000	64.172363 
5072.000000	64.166569 
5071.000000	64.165425 
5070.000000	64.165377 
5069.000000	64.162564 
5068.000000	64.154863 
5067.000000	64.143657 
5066.000000	64.134383 
5065.000000	64.135694 
5064.000000	64.157009 
5063.000000	64.205312 
5062.000000	64.282441 
5061.000000	64.383530 
5060.000000	64.497041 
5059.000000	64.607095 
5058.000000	64.696741 
5057.000000	64.751696 
5056.000000	64.763927 
5055.000000	64.734053 
5054.000000	64.670991 
5053.000000	64.589381 
5052.000000	64.506435 
5051.000000	64.438676 
5050.000000	64.397406 
5049.000000	64.387965 
5048.000000	64.407634 
5047.000000	64.448261 
5046.000000	64.497232 
5045.000000	64.541649 
5044.000000	64.570426 
5043.000000	64.576482 
5042.000000	64.558362 
5041.000000	64.519548 
5040.000000	64.467453 
5039.000000	64.410829 
5038.000000	64.357614 
5037.000000	64.313054 
5036.000000	64.278721 
5035.000000	64.252972 
5034.000000	64.232158 
5033.000000	64.212775 
5032.000000	64.192891 
5031.000000	64.173793 
5030.000000	64.159893 
5029.000000	64.158034 
5028.000000	64.174818 
5027.000000	64.214920 
5026.000000	64.278888 
5025.000000	64.362549 
5024.000000	64.456701 
5023.000000	64.549446 
5022.000000	64.629316 
5021.000000	64.687228 
5020.000000	64.718866 
5019.000000	64.724612 
5018.000000	64.709091 
5017.000000	64.679312 
5016.000000	64.642500 
5015.000000	64.605045 
5014.000000	64.571475 
5013.000000	64.544034 
5012.000000	64.523506 
5011.000000	64.509510 
5010.000000	64.501547 
5009.000000	64.499258 
5008.000000	64.503073 
5007.000000	64.513111 
5006.000000	64.529514 
5005.000000	64.552092 
5004.000000	64.580368 
5003.000000	64.613413 
5002.000000	64.649295 
5001.000000	64.686036 
5000.000000	64.720273 
4999.000000	64.747905 
4998.000000	64.763689 
4997.000000	64.762091 
4996.000000	64.738464 
4995.000000	64.690923 
4994.000000	64.620375 
4993.000000	64.531326 
4992.000000	64.430856 
4991.000000	64.328074 
4990.000000	64.231920 
4989.000000	64.149141 
4988.000000	64.084434 
4987.000000	64.039897 
4986.000000	64.016008 
4985.000000	64.012193 
4984.000000	64.027857 
4983.000000	64.062619 
4982.000000	64.116072 
4981.000000	64.187264 
4980.000000	64.273405 
4979.000000	64.369750 
4978.000000	64.469242 
4977.000000	64.563846 
4976.000000	64.645671 
4975.000000	64.708256 
4974.000000	64.748907 
4973.000000	64.767384 
4972.000000	64.766454 
4971.000000	64.749312 
4970.000000	64.719486 
4969.000000	64.678573 
4968.000000	64.626574 
4967.000000	64.562129 
4966.000000	64.484524 
4965.000000	64.394712 
4964.000000	64.296889 
4963.000000	64.198327 
4962.000000	64.108848 
4961.000000	64.038944 
4960.000000	63.996911 
4959.000000	63.987541 
4958.000000	64.010238 
4957.000000	64.059329 
4956.000000	64.124941 
4955.000000	64.195537 
4954.000000	64.260578 
4953.000000	64.312624 
4952.000000	64.348983 
4951.000000	64.370918 
4950.000000	64.383029 
4949.000000	64.391160 
4948.000000	64.401078 
4947.000000	64.416313 
4946.000000	64.437651 
4945.000000	64.464259 
4944.000000	64.493346 
4943.000000	64.522528 
4942.000000	64.548969 
4941.000000	64.570736 
4940.000000	64.585900 
4939.000000	64.592981 
4938.000000	64.590454 
4937.000000	64.576601 
4936.000000	64.550685 
4935.000000	64.513611 
4934.000000	64.468479 
4933.000000	64.420437 
4932.000000	64.376091 
4931.000000	64.342522 
4930.000000	64.324951 
4929.000000	64.325332 
4928.000000	64.341449 
4927.000000	64.367318 
4926.000000	64.394497 
4925.000000	64.414167 
4924.000000	64.419531 
4923.000000	64.407873 
4922.000000	64.380669 
4921.000000	64.343714 
4920.000000	64.305162 
4919.000000	64.273858 
4918.000000	64.256882 
4917.000000	64.258337 
4916.000000	64.278578 
4915.000000	64.314413 
4914.000000	64.360332 
4913.000000	64.409708 
4912.000000	64.456534 
4911.000000	64.496278 
4910.000000	64.526724 
4909.000000	64.547324 
4908.000000	64.558362 
4907.000000	64.560341 
4906.000000	64.553475 
4905.000000	64.537119 
4904.000000	64.510321 
4903.000000	64.472413 
4902.000000	64.424467 
4901.000000	64.369750 
4900.000000	64.314293 
4899.000000	64.266777 
4898.000000	64.237165 
4897.000000	64.235091 
4896.000000	64.267516 
4895.000000	64.336633 
4894.000000	64.439058 
4893.000000	64.565801 
4892.000000	64.703702 
4891.000000	64.838099 
4890.000000	64.955568 
4889.000000	65.046238 
4888.000000	65.105104 
4887.000000	65.132570 
4886.000000	65.132617 
4885.000000	65.111875 
4884.000000	65.076446 
4883.000000	65.031075 
4882.000000	64.977550 
4881.000000	64.915847 
4880.000000	64.844226 
4879.000000	64.761686 
4878.000000	64.668583 
4877.000000	64.568185 
4876.000000	64.465761 
4875.000000	64.368081 
4874.000000	64.281940 
4873.000000	64.213061 
4872.000000	64.164924 
4871.000000	64.138746 
4870.000000	64.133596 
4869.000000	64.146971 
4868.000000	64.175128 
4867.000000	64.213895 
4866.000000	64.258575 
4865.000000	64.304447 
4864.000000	64.347100 
4863.000000	64.382433 
4862.000000	64.406394 
4861.000000	64.415884 
4860.000000	64.409422 
4859.000000	64.387202 
4858.000000	64.351272 
4857.000000	64.305663 
4856.000000	64.256119 
4855.000000	64.209437 
4854.000000	64.172506 
4853.000000	64.150857 
4852.000000	64.147734 
4851.000000	64.163756 
4850.000000	64.197230 
4849.000000	64.243936 
4848.000000	64.298152 
4847.000000	64.353919 
4846.000000	64.406061 
4845.000000	64.451098 
4844.000000	64.487361 
4843.000000	64.515209 
4842.000000	64.535927 
4841.000000	64.550638 
4840.000000	64.559412 
4839.000000	64.561295 
4838.000000	64.554166 
4837.000000	64.536070 
4836.000000	64.505720 
4835.000000	64.463710 
4834.000000	64.413142 
4833.000000	64.359474 
4832.000000	64.310216 
4831.000000	64.272570 
4830.000000	64.253425 
4829.000000	64.257645 
4828.000000	64.287447 
4827.000000	64.341521 
4826.000000	64.415359 
4825.000000	64.502024 
4824.000000	64.592862 
4823.000000	64.678835 
4822.000000	64.751195 
4821.000000	64.802718 
4820.000000	64.828586 
4819.000000	64.827084 
4818.000000	64.799761 
4817.000000	64.751148 
4816.000000	64.688467 
4815.000000	64.619898 
4814.000000	64.553737 
4813.000000	64.496254 
4812.000000	64.451503 
4811.000000	64.420175 
4810.000000	64.400720 
4809.000000	64.389157 
4808.000000	64.380788 
4807.000000	64.370751 
4806.000000	64.355134 
4805.000000	64.331626 
4804.000000	64.299297 
4803.000000	64.259219 
4802.000000	64.213800 
4801.000000	64.166808 
4800.000000	64.122366 
4799.000000	64.084792 
4798.000000	64.057707 
4797.000000	64.043736 
4796.000000	64.043951 
4795.000000	64.058017 
4794.000000	64.084172 
4793.000000	64.119601 
4792.000000	64.161133 
4791.000000	64.206433 
4790.000000	64.254426 
4789.000000	64.305043 
4788.000000	64.358568 
4787.000000	64.415001 
4786.000000	64.472770 
4785.000000	64.528656 
4784.000000	64.577722 
4783.000000	64.614248 
4782.000000	64.632606 
4781.000000	64.629983 
4780.000000	64.606118 
4779.000000	64.563679 
4778.000000	64.507722 
4777.000000	64.445352 
4776.000000	64.383721 
4775.000000	64.328742 
4774.000000	64.284324 
4773.000000	64.252138 
4772.000000	64.232039 
4771.000000	64.222764 
4770.000000	64.222598 
4769.000000	64.229917 
4768.000000	64.243268 
4767.000000	64.261198 
4766.000000	64.281821 
4765.000000	64.302587 
4764.000000	64.320802 
4763.000000	64.333915 
4762.000000	64.339685 
4761.000000	64.336872 
4760.000000	64.325189 
4759.000000	64.305758 
4758.000000	64.280295 
4757.000000	64.251947 
4756.000000	64.224600 
4755.000000	64.203023 
4754.000000	64.191865 
4753.000000	64.195203 
4752.000000	64.215946 
4751.000000	64.254641 
4750.000000	64.309215 
4749.000000	64.374637 
4748.000000	64.443683 
4747.000000	64.508056 
4746.000000	64.559841 
4745.000000	64.593076 
4744.000000	64.604783 
4743.000000	64.595580 
4742.000000	64.569449 
4741.000000	64.532279 
4740.000000	64.490485 
4739.000000	64.449429 
4738.000000	64.412689 
4737.000000	64.381814 
4736.000000	64.356684 
4735.000000	64.336657 
4734.000000	64.321160 
4733.000000	64.310288 
4732.000000	64.305114 
4731.000000	64.306664 
4730.000000	64.315938 
4729.000000	64.332914 
4728.000000	64.356493 
4727.000000	64.384174 
4726.000000	64.413022 
4725.000000	64.439725 
4724.000000	64.461636 
4723.000000	64.477562 
4722.000000	64.487385 
4721.000000	64.491844 
4720.000000	64.491868 
4719.000000	64.488148 
4718.000000	64.480781 
4717.000000	64.469552 
4716.000000	64.453983 
4715.000000	64.433813 
4714.000000	64.410042 
4713.000000	64.385128 
4712.000000	64.362549 
4711.000000	64.346289 
4710.000000	64.340376 
4709.000000	64.347743 
4708.000000	64.369392 
4707.000000	64.403939 
4706.000000	64.447307 
4705.000000	64.494061 
4704.000000	64.537930 
4703.000000	64.574122 
4702.000000	64.599967 
4701.000000	64.616131 
4700.000000	64.625883 
4699.000000	64.634776 
4698.000000	64.648890 
4697.000000	64.672946 
4696.000000	64.709448 
4695.000000	64.756965 
4694.000000	64.811062 
4693.000000	64.864444 
4692.000000	64.909315 
4691.000000	64.938116 
4690.000000	64.945936 
4689.000000	64.930367 
4688.000000	64.892220 
4687.000000	64.834570 
4686.000000	64.762353 
4685.000000	64.681100 
4684.000000	64.596533 
4683.000000	64.514398 
4682.000000	64.440274 
4681.000000	64.379644 
4680.000000	64.337205 
4679.000000	64.316010 
4678.000000	64.316892 
4677.000000	64.337372 
4676.000000	64.372324 
4675.000000	64.414525 
4674.000000	64.456439 
4673.000000	64.490675 
4672.000000	64.512681 
4671.000000	64.521241 
4670.000000	64.518761 
4669.000000	64.510130 
4668.000000	64.501237 
4667.000000	64.497113 
4666.000000	64.500069 
4665.000000	64.509534 
4664.000000	64.521479 
4663.000000	64.530181 
4662.000000	64.529347 
4661.000000	64.514398 
4660.000000	64.483499 
4659.000000	64.438223 
4658.000000	64.383244 
4657.000000	64.325451 
4656.000000	64.272713 
4655.000000	64.231729 
4654.000000	64.207291 
4653.000000	64.200472 
4652.000000	64.208459 
4651.000000	64.225006 
4650.000000	64.241623 
4649.000000	64.249992 
4648.000000	64.243197 
4647.000000	64.218568 
4646.000000	64.177274 
4645.000000	64.125537 
4644.000000	64.072632 
4643.000000	64.029216 
4642.000000	64.004659 
4641.000000	64.004850 
4640.000000	64.030694 
4639.000000	64.078116 
4638.000000	64.138913 
4637.000000	64.202952 
4636.000000	64.260625 
4635.000000	64.304757 
4634.000000	64.332032 
4633.000000	64.342665 
4632.000000	64.339590 
4631.000000	64.326810 
4630.000000	64.307975 
4629.000000	64.285516 
4628.000000	64.260196 
4627.000000	64.232182 
4626.000000	64.201593 
4625.000000	64.169216 
4624.000000	64.136648 
4623.000000	64.106941 
4622.000000	64.083409 
4621.000000	64.068102 
4620.000000	64.061999 
4619.000000	64.063739 
4618.000000	64.071202 
4617.000000	64.081764 
4616.000000	64.093732 
4615.000000	64.106869 
4614.000000	64.122247 
4613.000000	64.141488 
4612.000000	64.165997 
4611.000000	64.195752 
4610.000000	64.229202 
4609.000000	64.262866 
4608.000000	64.292478 
4607.000000	64.313817 
4606.000000	64.323878 
4605.000000	64.321660 
4604.000000	64.308261 
4603.000000	64.286613 
4602.000000	64.261078 
4601.000000	64.236521 
4600.000000	64.217495 
4599.000000	64.207434 
4598.000000	64.208555 
4597.000000	64.221286 
4596.000000	64.245104 
4595.000000	64.278078 
4594.000000	64.316987 
4593.000000	64.358091 
4592.000000	64.397072 
4591.000000	64.430522 
4590.000000	64.456081 
4589.000000	64.473390 
4588.000000	64.483857 
4587.000000	64.490151 
4586.000000	64.495372 
4585.000000	64.501857 
4584.000000	64.510631 
4583.000000	64.520883 
4582.000000	64.530634 
4581.000000	64.536952 
4580.000000	64.537191 
4579.000000	64.529514 
4578.000000	64.513564 
4577.000000	64.490413 
4576.000000	64.462494 
4575.000000	64.433145 
4574.000000	64.406156 
4573.000000	64.384770 
4572.000000	64.371323 
4571.000000	64.367198 
4570.000000	64.372372 
4569.000000	64.385604 
4568.000000	64.404296 
4567.000000	64.424633 
4566.000000	64.442372 
4565.000000	64.453029 
4564.000000	64.453220 
4563.000000	64.441227 
4562.000000	64.417743 
4561.000000	64.385628 
4560.000000	64.349436 
4559.000000	64.314603 
4558.000000	64.285802 
4557.000000	64.265823 
4556.000000	64.255380 
4555.000000	64.253425 
4554.000000	64.257264 
4553.000000	64.263367 
4552.000000	64.268708 
4551.000000	64.271187 
4550.000000	64.269900 
4549.000000	64.264893 
4548.000000	64.256834 
4547.000000	64.246416 
4546.000000	64.234066 
4545.000000	64.219784 
4544.000000	64.202785 
4543.000000	64.182305 
4542.000000	64.158272 
4541.000000	64.132046 
4540.000000	64.106369 
4539.000000	64.085125 
4538.000000	64.072966 
4537.000000	64.073586 
4536.000000	64.088773 
4535.000000	64.117145 
4534.000000	64.154601 
4533.000000	64.193964 
4532.000000	64.226818 
4531.000000	64.244532 
4530.000000	64.240789 
4529.000000	64.211726 
4528.000000	64.156937 
4527.000000	64.079475 
4526.000000	63.985252 
4525.000000	63.882398 
4524.000000	63.780045 
4523.000000	63.687348 
4522.000000	63.612461 
4521.000000	63.562107 
4520.000000	63.540816 
4519.000000	63.550019 
4518.000000	63.588285 
4517.000000	63.651442 
4516.000000	63.733363 
4515.000000	63.825702 
4514.000000	63.920068 
4513.000000	64.008188 
4512.000000	64.084124 
4511.000000	64.143610 
4510.000000	64.185786 
4509.000000	64.212560 
4508.000000	64.228200 
4507.000000	64.238214 
4506.000000	64.248037 
4505.000000	64.261770 
4504.000000	64.281368 
4503.000000	64.307117 
4502.000000	64.336752 
4501.000000	64.366888 
4500.000000	64.393258 
4499.000000	64.412307 
4498.000000	64.420700 
4497.000000	64.416170 
4496.000000	64.397263 
4495.000000	64.363431 
4494.000000	64.315009 
4493.000000	64.253139 
4492.000000	64.180350 
4491.000000	64.100337 
4490.000000	64.017248 
4489.000000	63.935232 
4488.000000	63.858318 
4487.000000	63.789439 
4486.000000	63.729810 
4485.000000	63.679003 
4484.000000	63.634324 
4483.000000	63.593220 
4482.000000	63.553214 
4481.000000	63.514447 
4480.000000	63.478159 
4479.000000	63.448834 
4478.000000	63.432240 
4477.000000	63.434863 
4476.000000	63.461327 
4475.000000	63.513183 
4474.000000	63.587546 
4473.000000	63.676953 
4472.000000	63.770461 
4471.000000	63.854908 
4470.000000	63.917636 
4469.000000	63.948941 
4468.000000	63.944554 
4467.000000	63.907051 
4466.000000	63.845467 
4465.000000	63.774156 
4464.000000	63.709139 
4463.000000	63.664722 
4462.000000	63.649868 
4461.000000	63.667249 
4460.000000	63.711619 
4459.000000	63.772106 
4458.000000	63.834428 
4457.000000	63.885211 
4456.000000	63.914847 
4455.000000	63.918185 
4454.000000	63.896965 
4453.000000	63.858008 
4452.000000	63.812708 
4451.000000	63.773155 
4450.000000	63.750624 
4449.000000	63.752818 
4448.000000	63.782858 
4447.000000	63.839292 
4446.000000	63.916110 
4445.000000	64.004659 
4444.000000	64.094305 
4443.000000	64.174461 
4442.000000	64.236879 
4441.000000	64.277124 
4440.000000	64.293265 
4439.000000	64.285826 
4438.000000	64.261674 
4437.000000	64.230847 
4436.000000	64.199423 
4435.000000	64.170646 
4434.000000	64.147114 
4433.000000	64.130926 
4432.000000	64.124822 
4431.000000	64.132308 
4430.000000	64.158082 
4429.000000	64.205646 
4428.000000	64.278030 
4427.000000	64.373517 
4426.000000	64.481472 
4425.000000	64.587259 
4424.000000	64.681077 
4423.000000	64.749789 
4422.000000	64.772057 
4421.000000	64.738750 
4420.000000	64.660739 
4419.000000	64.555907 
4418.000000	64.444732 
4417.000000	64.352107 
4416.000000	64.304852 
4415.000000	64.332032 
4414.000000	64.465117 
4413.000000	64.744997 
4412.000000	65.212440 
4411.000000	65.910816 
4410.000000	66.860079 
4409.000000	68.030691 
4408.000000	69.339156 
4407.000000	70.652580 
4406.000000	71.815133 
4405.000000	72.686791 
4404.000000	73.164033 
4403.000000	73.235940 
4402.000000	72.935128 
4401.000000	72.350907 
4400.000000	71.548223 
4399.000000	70.577216 
4398.000000	69.404387 
4397.000000	67.941546 
4396.000000	66.058206 
4395.000000	63.648629 
4394.000000	60.676527 
4393.000000	57.220172 
4392.000000	53.490781 
4391.000000	49.808096 
4390.000000	46.558380 
4389.000000	44.118094 
4388.000000	42.774868 
4387.000000	42.668032 
4386.000000	43.766069 
4385.000000	45.880079 
4384.000000	48.694372 
4383.000000	51.842355 
4382.000000	54.967117 
4381.000000	57.792305 
4380.000000	60.129666 
4379.000000	61.910176 
4378.000000	63.145947 
4377.000000	63.919425 
4376.000000	64.333939 
4375.000000	64.494705 
4374.000000	64.503264 
4373.000000	64.431571 
4372.000000	64.357399 
4371.000000	64.324569 
4370.000000	64.371418 
4369.000000	64.506459 
4368.000000	64.730072 
4367.000000	65.016341 
4366.000000	65.322494 
4365.000000	65.601348 
4364.000000	65.815901 
4363.000000	65.934944 
4362.000000	65.938258 
4361.000000	65.825986 
4360.000000	65.617918 
4359.000000	65.340352 
4358.000000	65.022492 
4357.000000	64.700150 
4356.000000	64.407634 
4355.000000	64.172530 
4354.000000	64.012670 
4353.000000	63.931179 
4352.000000	63.920116 
4351.000000	63.973188 
4350.000000	64.080429 
4349.000000	64.217710 
4348.000000	64.361286 
4347.000000	64.495325 
4346.000000	64.609956 
4345.000000	64.696621 
4344.000000	64.752936 
4343.000000	64.780855 
4342.000000	64.784693 
4341.000000	64.768600 
4340.000000	64.736771 
4339.000000	64.693117 
4338.000000	64.641642 
4337.000000	64.587259 
4336.000000	64.535546 
4335.000000	64.492559 
4334.000000	64.463162 
4333.000000	64.450025 
4332.000000	64.453387 
4331.000000	64.470529 
4330.000000	64.495873 
4329.000000	64.521574 
4328.000000	64.538192 
4327.000000	64.536929 
4326.000000	64.511990 
4325.000000	64.462065 
4324.000000	64.389777 
4323.000000	64.302372 
4322.000000	64.210844 
4321.000000	64.127111 
4320.000000	64.061594 
4319.000000	64.021182 
4318.000000	64.007711 
4317.000000	64.018344 
4316.000000	64.047026 
4315.000000	64.085531 
4314.000000	64.125394 
4313.000000	64.159274 
4312.000000	64.182305 
4311.000000	64.191889 
4310.000000	64.187359 
4309.000000	64.170026 
4308.000000	64.142370 
4307.000000	64.108133 
4306.000000	64.071559 
4305.000000	64.037489 
4304.000000	64.010596 
4303.000000	63.995146 
4302.000000	63.994121 
4301.000000	64.008426 
4300.000000	64.036488 
4299.000000	64.074587 
4298.000000	64.117407 
4297.000000	64.158558 
4296.000000	64.192271 
4295.000000	64.214611 
4294.000000	64.224004 
4293.000000	64.221358 
4292.000000	64.209556 
4291.000000	64.192938 
4290.000000	64.175820 
4289.000000	64.161252 
4288.000000	64.150881 
4287.000000	64.145040 
4286.000000	64.142394 
4285.000000	64.140939 
4284.000000	64.138054 
4283.000000	64.131760 
4282.000000	64.120531 
4281.000000	64.104032 
4280.000000	64.082336 
4279.000000	64.056181 
4278.000000	64.026808 
4277.000000	63.996243 
4276.000000	63.967323 
4275.000000	63.943791 
4274.000000	63.930320 
4273.000000	63.931798 
4272.000000	63.952374 
4271.000000	63.994145 
4270.000000	64.056181 
4269.000000	64.133858 
4268.000000	64.218902 
4267.000000	64.301228 
4266.000000	64.371061 
4265.000000	64.421033 
4264.000000	64.447665 
4263.000000	64.452171 
4262.000000	64.440059 
4261.000000	64.419126 
4260.000000	64.397668 
4259.000000	64.381623 
4258.000000	64.373397 
4257.000000	64.371252 
4256.000000	64.370417 
4255.000000	64.364361 
4254.000000	64.347314 
4253.000000	64.316010 
4252.000000	64.271187 
4251.000000	64.217185 
4250.000000	64.160919 
4249.000000	64.110207 
4248.000000	64.071464 
4247.000000	64.047908 
4246.000000	64.038491 
4245.000000	64.038968 
4244.000000	64.042520 
4243.000000	64.041590 
4242.000000	64.030051 
4241.000000	64.004516 
4240.000000	63.965606 
4239.000000	63.917398 
4238.000000	63.866686 
4237.000000	63.820672 
4236.000000	63.785672 
4235.000000	63.765645 
4234.000000	63.761329 
4233.000000	63.770270 
4232.000000	63.787817 
4231.000000	63.808608 
4230.000000	63.827991 
4229.000000	63.843059 
4228.000000	63.853049 
4227.000000	63.859009 
4226.000000	63.863611 
4225.000000	63.870215 
4224.000000	63.881802 
4223.000000	63.900709 
4222.000000	63.928413 
4221.000000	63.965296 
4220.000000	64.011216 
4219.000000	64.064812 
4218.000000	64.124464 
4217.000000	64.187169 
4216.000000	64.248895 
4215.000000	64.304399 
4214.000000	64.348292 
4213.000000	64.375519 
4212.000000	64.382743 
4211.000000	64.369058 
4210.000000	64.336991 
4209.000000	64.291572 
4208.000000	64.239835 
4207.000000	64.189291 
4206.000000	64.146876 
4205.000000	64.117598 
4204.000000	64.104032 
4203.000000	64.106440 
4202.000000	64.123368 
4201.000000	64.152455 
4200.000000	64.190912 
4199.000000	64.236044 
4198.000000	64.285230 
4197.000000	64.335751 
4196.000000	64.384365 
4195.000000	64.427208 
4194.000000	64.459800 
4193.000000	64.477777 
4192.000000	64.477562 
4191.000000	64.457297 
4190.000000	64.417433 
4189.000000	64.361810 
4188.000000	64.296627 
4187.000000	64.229726 
4186.000000	64.169049 
4185.000000	64.121937 
4184.000000	64.093112 
4183.000000	64.084219 
4182.000000	64.093446 
4181.000000	64.116430 
4180.000000	64.146876 
4179.000000	64.178037 
4178.000000	64.203929 
4177.000000	64.220142 
4176.000000	64.225077 
4175.000000	64.219784 
4174.000000	64.208388 
4173.000000	64.196681 
4172.000000	64.191627 
4171.000000	64.199137 
4170.000000	64.222764 
4169.000000	64.261913 
4168.000000	64.311957 
4167.000000	64.364409 
4166.000000	64.409208 
4165.000000	64.436364 
4164.000000	64.438390 
4163.000000	64.411997 
4162.000000	64.358639 
4161.000000	64.284443 
4160.000000	64.198803 
4159.000000	64.112377 
4158.000000	64.035129 
4157.000000	63.974308 
4156.000000	63.933968 
4155.000000	63.914203 
4154.000000	63.912248 
4153.000000	63.923239 
4152.000000	63.941860 
4151.000000	63.963365 
4150.000000	63.984131 
4149.000000	64.002466 
4148.000000	64.017939 
4147.000000	64.031910 
4146.000000	64.046430 
4145.000000	64.063715 
4144.000000	64.085054 
4143.000000	64.110016 
4142.000000	64.136242 
4141.000000	64.159679 
4140.000000	64.175748 
4139.000000	64.180445 
4138.000000	64.171910 
4137.000000	64.151501 
4136.000000	64.123749 
4135.000000	64.095520 
4134.000000	64.074087 
4133.000000	64.065694 
4132.000000	64.073133 
4131.000000	64.095044 
4130.000000	64.126038 
4129.000000	64.157986 
4128.000000	64.182257 
4127.000000	64.191961 
4126.000000	64.184141 
4125.000000	64.160585 
4124.000000	64.127564 
4123.000000	64.093828 
4122.000000	64.068317 
4121.000000	64.057731 
4120.000000	64.064931 
4119.000000	64.088535 
4118.000000	64.123392 
4117.000000	64.162445 
4116.000000	64.198756 
4115.000000	64.227581 
4114.000000	64.247107 
4113.000000	64.259076 
4112.000000	64.267611 
4111.000000	64.277791 
4110.000000	64.294147 
4109.000000	64.318728 
4108.000000	64.350891 
4107.000000	64.386749 
4106.000000	64.421272 
4105.000000	64.448332 
4104.000000	64.463305 
4103.000000	64.462852 
4102.000000	64.446711 
4101.000000	64.416313 
4100.000000	64.374589 
4099.000000	64.324998 
4098.000000	64.270687 
4097.000000	64.214634 
4096.000000	64.159440 
4095.000000	64.107418 
4094.000000	64.060807 
4093.000000	64.021468 
4092.000000	63.990855 
4091.000000	63.969492 
4090.000000	63.956809 
4089.000000	63.951349 
4088.000000	63.951206 
4087.000000	63.954281 
4086.000000	63.959121 
4085.000000	63.965487 
4084.000000	63.974571 
4083.000000	63.988137 
4082.000000	64.008188 
4081.000000	64.036607 
4080.000000	64.074254 
4079.000000	64.120411 
4078.000000	64.172840 
4077.000000	64.227819 
4076.000000	64.280724 
4075.000000	64.327192 
4074.000000	64.363288 
4073.000000	64.386510 
4072.000000	64.395856 
4071.000000	64.391946 
4070.000000	64.376521 
4069.000000	64.352130 
4068.000000	64.321660 
4067.000000	64.288353 
4066.000000	64.255166 
4065.000000	64.224481 
4064.000000	64.198207 
4063.000000	64.177656 
4062.000000	64.163017 
4061.000000	64.153409 
4060.000000	64.146924 
4059.000000	64.141178 
4058.000000	64.133572 
4057.000000	64.122319 
4056.000000	64.106488 
4055.000000	64.086961 
4054.000000	64.066004 
4053.000000	64.047050 
4052.000000	64.033699 
4051.000000	64.028763 
4050.000000	64.033746 
4049.000000	64.048409 
4048.000000	64.070367 
4047.000000	64.096164 
4046.000000	64.122223 
4045.000000	64.145445 
4044.000000	64.163613 
4043.000000	64.175963 
4042.000000	64.182877 
4041.000000	64.185380 
4040.000000	64.184474 
4039.000000	64.180850 
4038.000000	64.174747 
4037.000000	64.166378 
4036.000000	64.155936 
4035.000000	64.143943 
4034.000000	64.131402 
4033.000000	64.119863 
4032.000000	64.111208 
4031.000000	64.106655 
4030.000000	64.106822 
4029.000000	64.111375 
4028.000000	64.119148 
4027.000000	64.128232 
4026.000000	64.136195 
4025.000000	64.141154 
4024.000000	64.141178 
4023.000000	64.134788 
4022.000000	64.120769 
4021.000000	64.098358 
4020.000000	64.067459 
4019.000000	64.029121 
4018.000000	63.985395 
4017.000000	63.939332 
4016.000000	63.894653 
4015.000000	63.855242 
4014.000000	63.824415 
4013.000000	63.804221 
4012.000000	63.795280 
4011.000000	63.796734 
4010.000000	63.806605 
4009.000000	63.822388 
4008.000000	63.841390 
4007.000000	63.861680 
4006.000000	63.882040 
4005.000000	63.902521 
4004.000000	63.923597 
4003.000000	63.946509 
4002.000000	63.972473 
4001.000000	64.002513 
4000.000000	64.037132 
3999.000000	64.075636 
3998.000000	64.116883 
3997.000000	64.158082 
3996.000000	64.195585 
3995.000000	64.224696 
3994.000000	64.241027 
3993.000000	64.240932 
3992.000000	64.222764 
3991.000000	64.187645 
3990.000000	64.139771 
3989.000000	64.085507 
3988.000000	64.032554 
3987.000000	63.988065 
3986.000000	63.957619 
3985.000000	63.943815 
3984.000000	63.945984 
3983.000000	63.960814 
3982.000000	63.983416 
3981.000000	64.008617 
3980.000000	64.032435 
3979.000000	64.052677 
3978.000000	64.069414 
3977.000000	64.084219 
3976.000000	64.099478 
3975.000000	64.116740 
3974.000000	64.136385 
3973.000000	64.157366 
3972.000000	64.177703 
3971.000000	64.194941 
3970.000000	64.207124 
3969.000000	64.213943 
3968.000000	64.216256 
3967.000000	64.216184 
3966.000000	64.216160 
3965.000000	64.218330 
3964.000000	64.223647 
3963.000000	64.231371 
3962.000000	64.239358 
3961.000000	64.244866 
3960.000000	64.245486 
3959.000000	64.239978 
3958.000000	64.228987 
3957.000000	64.214897 
3956.000000	64.201307 
3955.000000	64.191913 
3954.000000	64.189100 
3953.000000	64.193081 
3952.000000	64.201903 
3951.000000	64.211654 
3950.000000	64.217758 
3949.000000	64.216065 
3948.000000	64.204239 
3947.000000	64.182114 
3946.000000	64.151763 
3945.000000	64.116525 
3944.000000	64.080095 
3943.000000	64.045429 
3942.000000	64.014124 
3941.000000	63.986086 
3940.000000	63.960075 
3939.000000	63.934159 
3938.000000	63.907074 
3937.000000	63.878393 
3936.000000	63.849091 
3935.000000	63.820862 
3934.000000	63.795661 
3933.000000	63.775014 
3932.000000	63.759398 
3931.000000	63.748455 
3930.000000	63.741302 
3929.000000	63.736915 
3928.000000	63.734769 
3927.000000	63.735485 
3926.000000	63.740825 
3925.000000	63.753080 
3924.000000	63.774538 
3923.000000	63.806748 
3922.000000	63.849878 
3921.000000	63.902306 
3920.000000	63.960218 
3919.000000	64.018154 
3918.000000	64.069247 
3917.000000	64.107084 
3916.000000	64.126586 
3915.000000	64.124751 
3914.000000	64.101862 
3913.000000	64.061689 
3912.000000	64.010906 
3911.000000	63.957810 
3910.000000	63.910961 
3909.000000	63.878059 
3908.000000	63.863849 
3907.000000	63.869476 
3906.000000	63.892149 
3905.000000	63.926076 
3904.000000	63.962984 
3903.000000	63.994050 
3902.000000	64.011359 
3901.000000	64.009475 
3900.000000	63.986396 
3899.000000	63.944077 
3898.000000	63.887524 
3897.000000	63.824272 
3896.000000	63.763070 
3895.000000	63.712430 
3894.000000	63.679170 
3893.000000	63.667511 
3892.000000	63.678884 
3891.000000	63.711333 
3890.000000	63.760352 
3889.000000	63.819360 
3888.000000	63.880944 
3887.000000	63.938236 
3886.000000	63.985276 
3885.000000	64.018487 
3884.000000	64.036822 
3883.000000	64.041924 
3882.000000	64.037513 
3881.000000	64.028334 
3880.000000	64.018845 
3879.000000	64.012384 
3878.000000	64.010739 
3877.000000	64.012861 
3876.000000	64.015507 
3875.000000	64.014148 
3874.000000	64.004349 
3873.000000	63.982868 
3872.000000	63.948726 
3871.000000	63.903307 
3870.000000	63.850450 
3869.000000	63.795447 
3868.000000	63.744282 
3867.000000	63.702011 
3866.000000	63.672065 
3865.000000	63.655614 
3864.000000	63.651990 
3863.000000	63.659095 
3862.000000	63.674211 
3861.000000	63.694429 
3860.000000	63.717412 
3859.000000	63.741087 
3858.000000	63.764548 
3857.000000	63.787055 
3856.000000	63.808774 
3855.000000	63.829588 
3854.000000	63.850331 
3853.000000	63.872313 
3852.000000	63.897418 
3851.000000	63.927507 
3850.000000	63.963723 
3849.000000	64.005947 
3848.000000	64.052152 
3847.000000	64.098167 
3846.000000	64.138221 
3845.000000	64.166092 
3844.000000	64.176273 
3843.000000	64.165616 
3842.000000	64.134120 
3841.000000	64.085435 
3840.000000	64.026618 
3839.000000	63.966727 
3838.000000	63.915014 
3837.000000	63.879132 
3836.000000	63.864016 
3835.000000	63.870859 
3834.000000	63.897228 
3833.000000	63.937687 
3832.000000	63.985300 
3831.000000	64.032745 
3830.000000	64.073801 
3829.000000	64.104080 
3828.000000	64.121103 
3827.000000	64.124751 
3826.000000	64.116573 
3825.000000	64.099049 
3824.000000	64.074897 
3823.000000	64.046192 
3822.000000	64.014077 
3821.000000	63.978815 
3820.000000	63.940143 
3819.000000	63.897919 
3818.000000	63.852763 
3817.000000	63.806366 
3816.000000	63.761734 
3815.000000	63.722777 
3814.000000	63.693571 
3813.000000	63.677310 
3812.000000	63.675713 
3811.000000	63.688206 
3810.000000	63.712167 
3809.000000	63.743019 
3808.000000	63.775324 
3807.000000	63.803648 
3806.000000	63.823604 
3805.000000	63.832473 
3804.000000	63.829445 
3803.000000	63.815164 
3802.000000	63.791584 
3801.000000	63.761115 
3800.000000	63.726902 
3799.000000	63.692426 
3798.000000	63.661313 
3797.000000	63.637065 
3796.000000	63.622784 
3795.000000	63.620829 
3794.000000	63.632273 
3793.000000	63.656616 
3792.000000	63.691687 
3791.000000	63.733959 
3790.000000	63.779234 
3789.000000	63.823199 
3788.000000	63.861918 
3787.000000	63.892054 
3786.000000	63.911843 
3785.000000	63.920569 
3784.000000	63.918304 
3783.000000	63.905787 
3782.000000	63.884544 
3781.000000	63.856530 
3780.000000	63.823986 
3779.000000	63.789415 
3778.000000	63.755941 
3777.000000	63.726687 
3776.000000	63.704752 
3775.000000	63.692307 
3774.000000	63.690209 
3773.000000	63.697814 
3772.000000	63.713169 
3771.000000	63.733005 
3770.000000	63.753390 
3769.000000	63.770437 
3768.000000	63.781094 
3767.000000	63.783717 
3766.000000	63.778352 
3765.000000	63.766765 
3764.000000	63.752031 
3763.000000	63.737726 
3762.000000	63.727211 
3761.000000	63.723134 
3760.000000	63.726806 
3759.000000	63.737964 
3758.000000	63.755440 
3757.000000	63.777709 
3756.000000	63.803243 
3755.000000	63.830900 
3754.000000	63.859891 
3753.000000	63.889622 
3752.000000	63.919258 
3751.000000	63.947701 
3750.000000	63.972711 
3749.000000	63.991260 
3748.000000	64.000010 
3747.000000	63.996243 
3746.000000	63.978433 
3745.000000	63.947033 
3744.000000	63.904356 
3743.000000	63.854646 
3742.000000	63.803052 
3741.000000	63.754796 
3740.000000	63.714313 
3739.000000	63.684272 
3738.000000	63.665676 
3737.000000	63.657808 
3736.000000	63.658690 
3735.000000	63.665580 
3734.000000	63.675546 
3733.000000	63.685941 
3732.000000	63.694143 
3731.000000	63.698649 
3730.000000	63.698506 
3729.000000	63.694190 
3728.000000	63.686871 
3727.000000	63.679051 
3726.000000	63.674044 
3725.000000	63.675355 
3724.000000	63.685941 
3723.000000	63.706970 
3722.000000	63.737463 
3721.000000	63.773751 
3720.000000	63.810110 
3719.000000	63.839793 
3718.000000	63.856577 
3717.000000	63.856458 
3716.000000	63.838768 
3715.000000	63.806605 
3714.000000	63.766074 
3713.000000	63.725423 
3712.000000	63.692784 
3711.000000	63.674640 
3710.000000	63.674235 
3709.000000	63.691139 
3708.000000	63.721084 
3707.000000	63.757157 
3706.000000	63.790845 
3705.000000	63.814258 
3704.000000	63.821554 
3703.000000	63.809823 
3702.000000	63.779973 
3701.000000	63.735628 
3700.000000	63.683271 
3699.000000	63.630008 
3698.000000	63.583016 
3697.000000	63.548183 
3696.000000	63.529229 
3695.000000	63.527488 
3694.000000	63.541841 
3693.000000	63.569450 
3692.000000	63.606190 
3691.000000	63.647413 
3690.000000	63.688468 
3689.000000	63.725137 
3688.000000	63.754272 
3687.000000	63.773798 
3686.000000	63.782739 
3685.000000	63.781142 
3684.000000	63.770103 
3683.000000	63.751435 
3682.000000	63.727807 
3681.000000	63.702225 
3680.000000	63.677549 
3679.000000	63.656163 
3678.000000	63.639950 
3677.000000	63.629913 
3676.000000	63.626074 
3675.000000	63.627862 
3674.000000	63.633918 
3673.000000	63.642907 
3672.000000	63.653564 
3671.000000	63.665318 
3670.000000	63.677883 
3669.000000	63.691592 
3668.000000	63.706898 
3667.000000	63.723993 
3666.000000	63.742589 
3665.000000	63.761568 
3664.000000	63.779020 
3663.000000	63.792347 
3662.000000	63.799095 
3661.000000	63.797473 
3660.000000	63.787007 
3659.000000	63.768672 
3658.000000	63.744878 
3657.000000	63.719177 
3656.000000	63.695764 
3655.000000	63.678407 
3654.000000	63.669705 
3653.000000	63.670802 
3652.000000	63.681006 
3651.000000	63.698434 
3650.000000	63.720250 
3649.000000	63.743257 
3648.000000	63.764500 
3647.000000	63.781809 
3646.000000	63.793778 
3645.000000	63.799667 
3644.000000	63.799381 
3643.000000	63.793015 
3642.000000	63.781118 
3641.000000	63.764739 
3640.000000	63.745236 
3639.000000	63.724422 
3638.000000	63.703894 
3637.000000	63.685297 
3636.000000	63.669371 
3635.000000	63.656210 
3634.000000	63.644790 
3633.000000	63.633513 
3632.000000	63.620495 
3631.000000	63.604354 
3630.000000	63.584971 
3629.000000	63.563632 
3628.000000	63.542985 
3627.000000	63.526654 
3626.000000	63.518261 
3625.000000	63.520884 
3624.000000	63.535857 
3623.000000	63.562631 
3622.000000	63.598823 
3621.000000	63.640308 
3620.000000	63.682389 
3619.000000	63.720035 
3618.000000	63.749122 
3617.000000	63.766384 
3616.000000	63.770079 
3615.000000	63.759636 
3614.000000	63.735985 
3613.000000	63.701343 
3612.000000	63.658857 
3611.000000	63.612556 
3610.000000	63.566875 
3609.000000	63.526391 
3608.000000	63.495302 
3607.000000	63.476514 
3606.000000	63.471364 
3605.000000	63.479232 
3604.000000	63.497829 
3603.000000	63.523292 
3602.000000	63.551378 
3601.000000	63.577842 
3600.000000	63.599753 
3599.000000	63.615489 
3598.000000	63.625264 
3597.000000	63.630533 
3596.000000	63.633441 
3595.000000	63.636016 
3594.000000	63.639545 
3593.000000	63.644242 
3592.000000	63.649010 
3591.000000	63.652420 
3590.000000	63.652539 
3589.000000	63.648033 
3588.000000	63.638472 
3587.000000	63.624572 
3586.000000	63.608241 
3585.000000	63.591933 
3584.000000	63.578438 
3583.000000	63.570046 
3582.000000	63.568305 
3581.000000	63.573765 
3580.000000	63.585615 
3579.000000	63.602042 
3578.000000	63.620519 
3577.000000	63.638496 
3576.000000	63.653755 
3575.000000	63.664984 
3574.000000	63.671827 
3573.000000	63.674783 
3572.000000	63.675427 
3571.000000	63.675403 
3570.000000	63.676047 
3569.000000	63.677763 
3568.000000	63.680076 
3567.000000	63.681674 
3566.000000	63.680553 
3565.000000	63.674759 
3564.000000	63.663005 
3563.000000	63.645315 
3562.000000	63.622951 
3561.000000	63.598608 
3560.000000	63.575625 
3559.000000	63.557362 
3558.000000	63.546419 
3557.000000	63.543891 
3556.000000	63.549566 
3555.000000	63.561463 
3554.000000	63.576674 
3553.000000	63.591456 
3552.000000	63.601994 
3551.000000	63.605117 
3550.000000	63.598704 
3549.000000	63.581514 
3548.000000	63.553333 
3547.000000	63.514971 
3546.000000	63.468074 
3545.000000	63.414740 
3544.000000	63.357210 
3543.000000	63.298082 
3542.000000	63.239908 
3541.000000	63.185048 
3540.000000	63.135552 
3539.000000	63.093185 
3538.000000	63.059043 
3537.000000	63.033390 
3536.000000	63.015890 
3535.000000	63.005304 
3534.000000	63.000202 
3533.000000	62.998342 
3532.000000	62.997865 
3531.000000	62.996912 
3530.000000	62.995028 
3529.000000	62.992548 
3528.000000	62.991309 
3527.000000	62.993836 
3526.000000	63.003253 
3525.000000	63.022398 
3524.000000	63.053178 
3523.000000	63.095951 
3522.000000	63.149404 
3521.000000	63.210487 
3520.000000	63.274955 
3519.000000	63.337898 
3518.000000	63.394451 
3517.000000	63.440632 
3516.000000	63.473773 
3515.000000	63.493132 
3514.000000	63.499546 
3513.000000	63.495469 
3512.000000	63.484764 
3511.000000	63.471722 
3510.000000	63.460564 
3509.000000	63.454365 
3508.000000	63.455343 
3507.000000	63.463568 
3506.000000	63.477492 
3505.000000	63.493537 
3504.000000	63.507580 
3503.000000	63.515162 
3502.000000	63.512682 
3501.000000	63.498234 
3500.000000	63.472127 
3499.000000	63.437008 
3498.000000	63.397407 
3497.000000	63.358783 
3496.000000	63.326430 
3495.000000	63.304495 
3494.000000	63.295030 
3493.000000	63.297533 
3492.000000	63.309121 
3491.000000	63.325214 
3490.000000	63.340830 
3489.000000	63.350963 
3488.000000	63.352417 
3487.000000	63.343954 
3486.000000	63.326668 
3485.000000	63.303303 
3484.000000	63.277673 
3483.000000	63.253664 
3482.000000	63.234710 
3481.000000	63.222789 
3480.000000	63.218498 
3479.000000	63.221287 
3478.000000	63.229703 
3477.000000	63.242053 
3476.000000	63.256955 
3475.000000	63.273572 
3474.000000	63.291740 
3473.000000	63.311433 
3472.000000	63.332557 
3471.000000	63.354563 
3470.000000	63.376259 
3469.000000	63.395977 
3468.000000	63.411855 
3467.000000	63.422322 
3466.000000	63.426613 
3465.000000	63.425254 
3464.000000	63.419675 
3463.000000	63.412117 
3462.000000	63.405251 
3461.000000	63.401532 
3460.000000	63.402962 
3459.000000	63.410210 
3458.000000	63.423085 
3457.000000	63.439822 
3456.000000	63.458037 
3455.000000	63.474416 
3454.000000	63.485717 
3453.000000	63.488912 
3452.000000	63.481831 
3451.000000	63.463783 
3450.000000	63.435435 
3449.000000	63.399386 
3448.000000	63.359498 
3447.000000	63.320565 
3446.000000	63.287258 
3445.000000	63.263511 
3444.000000	63.251781 
3443.000000	63.252353 
3442.000000	63.263583 
3441.000000	63.282442 
3440.000000	63.305211 
3439.000000	63.328146 
3438.000000	63.348293 
3437.000000	63.363742 
3436.000000	63.373970 
3435.000000	63.379287 
3434.000000	63.380503 
3433.000000	63.378787 
3432.000000	63.374972 
3431.000000	63.369965 
3430.000000	63.364124 
3429.000000	63.357663 
3428.000000	63.350486 
3427.000000	63.342690 
3426.000000	63.334035 
3425.000000	63.324189 
3424.000000	63.312721 
3423.000000	63.299393 
3422.000000	63.284254 
3421.000000	63.267755 
3420.000000	63.251209 
3419.000000	63.236284 
3418.000000	63.224911 
3417.000000	63.218712 
3416.000000	63.218593 
3415.000000	63.224339 
3414.000000	63.234519 
3413.000000	63.246607 
3412.000000	63.257622 
3411.000000	63.264822 
3410.000000	63.266134 
3409.000000	63.260865 
3408.000000	63.249349 
3407.000000	63.233280 
3406.000000	63.214921 
3405.000000	63.196992 
3404.000000	63.181447 
3403.000000	63.169741 
3402.000000	63.162493 
3401.000000	63.159751 
3400.000000	63.161206 
3399.000000	63.166332 
3398.000000	63.174557 
3397.000000	63.185381 
3396.000000	63.198184 
3395.000000	63.212251 
3394.000000	63.226437 
3393.000000	63.239455 
3392.000000	63.249754 
3391.000000	63.255906 
3390.000000	63.256859 
3389.000000	63.252425 
3388.000000	63.243150 
3387.000000	63.230705 
3386.000000	63.217425 
3385.000000	63.206028 
3384.000000	63.198757 
3383.000000	63.197135 
3382.000000	63.201379 
3381.000000	63.210296 
3380.000000	63.221621 
3379.000000	63.232278 
3378.000000	63.239407 
3377.000000	63.240671 
3376.000000	63.235187 
3375.000000	63.223290 
3374.000000	63.206839 
3373.000000	63.188576 
3372.000000	63.171315 
3371.000000	63.157248 
3370.000000	63.147354 
3369.000000	63.141465 
3368.000000	63.138318 
3367.000000	63.136029 
3366.000000	63.132524 
3365.000000	63.126468 
3364.000000	63.116884 
3363.000000	63.103508 
3362.000000	63.086342 
3361.000000	63.065648 
3360.000000	63.041853 
3359.000000	63.015532 
3358.000000	62.987422 
3357.000000	62.958621 
3356.000000	62.930703 
3355.000000	62.905836 
3354.000000	62.886214 
3353.000000	62.873792 
3352.000000	62.869858 
3351.000000	62.874865 
3350.000000	62.887978 
3349.000000	62.907648 
3348.000000	62.931704 
3347.000000	62.958288 
3346.000000	62.985658 
3345.000000	63.012957 
3344.000000	63.039946 
3343.000000	63.067102 
3342.000000	63.094830 
3341.000000	63.123393 
3340.000000	63.152360 
3339.000000	63.180589 
3338.000000	63.206434 
3337.000000	63.227534 
3336.000000	63.241267 
3335.000000	63.245105 
3334.000000	63.237071 
3333.000000	63.215947 
3332.000000	63.181519 
3331.000000	63.134956 
3330.000000	63.078927 
3329.000000	63.017296 
3328.000000	62.954950 
3327.000000	62.897205 
3326.000000	62.849211 
3325.000000	62.814950 
3324.000000	62.796568 
3323.000000	62.794065 
3322.000000	62.805247 
3321.000000	62.826037 
3320.000000	62.851667 
3319.000000	62.877130 
3318.000000	62.898635 
3317.000000	62.913799 
3316.000000	62.922430 
3315.000000	62.925434 
3314.000000	62.925195 
3313.000000	62.924146 
3312.000000	62.924432 
3311.000000	62.927126 
3310.000000	62.932157 
3309.000000	62.938594 
3308.000000	62.945127 
3307.000000	62.950468 
3306.000000	62.954139 
3305.000000	62.956142 
3304.000000	62.957072 
3303.000000	62.957477 
3302.000000	62.957358 
3301.000000	62.956142 
3300.000000	62.952613 
3299.000000	62.945103 
3298.000000	62.932419 
3297.000000	62.914252 
3296.000000	62.892079 
3295.000000	62.868595 
3294.000000	62.847304 
3293.000000	62.831592 
3292.000000	62.824010 
3291.000000	62.825250 
3290.000000	62.834048 
3289.000000	62.847399 
3288.000000	62.861347 
3287.000000	62.872195 
3286.000000	62.877559 
3285.000000	62.876963 
3284.000000	62.871575 
3283.000000	62.863969 
3282.000000	62.856817 
3281.000000	62.852120 
3280.000000	62.850284 
3279.000000	62.850069 
3278.000000	62.848639 
3277.000000	62.842822 
3276.000000	62.829852 
3275.000000	62.808418 
3274.000000	62.778973 
3273.000000	62.743830 
3272.000000	62.706756 
3271.000000	62.672066 
3270.000000	62.644028 
3269.000000	62.625598 
3268.000000	62.618064 
3267.000000	62.620997 
3266.000000	62.632369 
3265.000000	62.649178 
3264.000000	62.667989 
3263.000000	62.685537 
3262.000000	62.699341 
3261.000000	62.707781 
3260.000000	62.710571 
3259.000000	62.708306 
3258.000000	62.702441 
3257.000000	62.694978 
3256.000000	62.688159 
3255.000000	62.684059 
3254.000000	62.684512 
3253.000000	62.690567 
3252.000000	62.702298 
3251.000000	62.718844 
3250.000000	62.738323 
3249.000000	62.758111 
3248.000000	62.774991 
3247.000000	62.785935 
3246.000000	62.788534 
3245.000000	62.781620 
3244.000000	62.765479 
3243.000000	62.741971 
3242.000000	62.714433 
3241.000000	62.686848 
3240.000000	62.663102 
3239.000000	62.646198 
3238.000000	62.637734 
3237.000000	62.637448 
3236.000000	62.643551 
3235.000000	62.652897 
3234.000000	62.661981 
3233.000000	62.667727 
3232.000000	62.668299 
3231.000000	62.663388 
3230.000000	62.654113 
3229.000000	62.642574 
3228.000000	62.631201 
3227.000000	62.622070 
3226.000000	62.616157 
3225.000000	62.613391 
3224.000000	62.612724 
3223.000000	62.612581 
3222.000000	62.611627 
3221.000000	62.609314 
3220.000000	62.606406 
3219.000000	62.604546 
3218.000000	62.606000 
3217.000000	62.612938 
3216.000000	62.626671 
3215.000000	62.646961 
3214.000000	62.671780 
3213.000000	62.697720 
3212.000000	62.720298 
3211.000000	62.735390 
3210.000000	62.739658 
3209.000000	62.731432 
3208.000000	62.711048 
3207.000000	62.680959 
3206.000000	62.645101 
3205.000000	62.608098 
3204.000000	62.574553 
3203.000000	62.548303 
3202.000000	62.531685 
3201.000000	62.525534 
3200.000000	62.529134 
3199.000000	62.540578 
3198.000000	62.557077 
3197.000000	62.575697 
3196.000000	62.593555 
3195.000000	62.608289 
3194.000000	62.618231 
3193.000000	62.622404 
3192.000000	62.620568 
3191.000000	62.613201 
3190.000000	62.601423 
3189.000000	62.586569 
3188.000000	62.570357 
3187.000000	62.554335 
3186.000000	62.539935 
3185.000000	62.527990 
3184.000000	62.519049 
3183.000000	62.513232 
3182.000000	62.510514 
3181.000000	62.510871 
3180.000000	62.514305 
3179.000000	62.521052 
3178.000000	62.531399 
3177.000000	62.545633 
3176.000000	62.563490 
3175.000000	62.584257 
3174.000000	62.606430 
3173.000000	62.628054 
3172.000000	62.646937 
3171.000000	62.661170 
3170.000000	62.669372 
3169.000000	62.671232 
3168.000000	62.667131 
3167.000000	62.658548 
3166.000000	62.647223 
3165.000000	62.634897 
3164.000000	62.622594 
3163.000000	62.610816 
3162.000000	62.599468 
3161.000000	62.587952 
3160.000000	62.575626 
3159.000000	62.562441 
3158.000000	62.549161 
3157.000000	62.537240 
3156.000000	62.528729 
3155.000000	62.525486 
3154.000000	62.528848 
3153.000000	62.539219 
3152.000000	62.555599 
3151.000000	62.575912 
3150.000000	62.597179 
3149.000000	62.616276 
3148.000000	62.630510 
3147.000000	62.637972 
3146.000000	62.637853 
3145.000000	62.630367 
3144.000000	62.616944 
3143.000000	62.599611 
3142.000000	62.580728 
3141.000000	62.562131 
3140.000000	62.545108 
3139.000000	62.529754 
3138.000000	62.515449 
3137.000000	62.500548 
3136.000000	62.483119 
3135.000000	62.461280 
3134.000000	62.433886 
3133.000000	62.401247 
3132.000000	62.364578 
3131.000000	62.326741 
3130.000000	62.291455 
3129.000000	62.262940 
3128.000000	62.244987 
3127.000000	62.240481 
3126.000000	62.250423 
3125.000000	62.273764 
3124.000000	62.307381 
3123.000000	62.346577 
3122.000000	62.385749 
3121.000000	62.419247 
3120.000000	62.442278 
3119.000000	62.451601 
3118.000000	62.446212 
3117.000000	62.427353 
3116.000000	62.398147 
3115.000000	62.363076 
3114.000000	62.327241 
3113.000000	62.295508 
3112.000000	62.271904 
3111.000000	62.259244 
3110.000000	62.258839 
3109.000000	62.270545 
3108.000000	62.292933 
3107.000000	62.323498 
3106.000000	62.358975 
3105.000000	62.395238 
3104.000000	62.428188 
3103.000000	62.453651 
3102.000000	62.468528 
3101.000000	62.470722 
3100.000000	62.460303 
3099.000000	62.439298 
3098.000000	62.411451 
3097.000000	62.381649 
3096.000000	62.355041 
3095.000000	62.336063 
3094.000000	62.327432 
3093.000000	62.329673 
3092.000000	62.340974 
3091.000000	62.357640 
3090.000000	62.375211 
3089.000000	62.389636 
3088.000000	62.397718 
3087.000000	62.398099 
3086.000000	62.391138 
3085.000000	62.378811 
3084.000000	62.363767 
3083.000000	62.348794 
3082.000000	62.335872 
3081.000000	62.326097 
3080.000000	62.319684 
3079.000000	62.316226 
3078.000000	62.314844 
3077.000000	62.314677 
3076.000000	62.315177 
3075.000000	62.316370 
3074.000000	62.318730 
3073.000000	62.322902 
3072.000000	62.329149 
3071.000000	62.337446 
3070.000000	62.347269 
3069.000000	62.357521 
3068.000000	62.366938 
3067.000000	62.374210 
3066.000000	62.378430 
3065.000000	62.379193 
3064.000000	62.376809 
3063.000000	62.371826 
3062.000000	62.364912 
3061.000000	62.356662 
3060.000000	62.347483 
3059.000000	62.337708 
3058.000000	62.327814 
3057.000000	62.318372 
3056.000000	62.310385 
3055.000000	62.305474 
3054.000000	62.305641 
3053.000000	62.312674 
3052.000000	62.327456 
3051.000000	62.349700 
3050.000000	62.377595 
3049.000000	62.407827 
3048.000000	62.436246 
3047.000000	62.458658 
3046.000000	62.471437 
3045.000000	62.472629 
3044.000000	62.462210 
3043.000000	62.442183 
3042.000000	62.416195 
3041.000000	62.388658 
3040.000000	62.363982 
3039.000000	62.345552 
3038.000000	62.335443 
3037.000000	62.333965 
3036.000000	62.339901 
3035.000000	62.350773 
3034.000000	62.363433 
3033.000000	62.374520 
3032.000000	62.380886 
3031.000000	62.380075 
3030.000000	62.370514 
3029.000000	62.351918 
3028.000000	62.325382 
3027.000000	62.293052 
3026.000000	62.258291 
3025.000000	62.224531 
3024.000000	62.194943 
3023.000000	62.171602 
3022.000000	62.155318 
3021.000000	62.145304 
3020.000000	62.139725 
3019.000000	62.136340 
3018.000000	62.132716 
3017.000000	62.127637 
3016.000000	62.120985 
3015.000000	62.113976 
3014.000000	62.108349 
3013.000000	62.106060 
3012.000000	62.108397 
3011.000000	62.115502 
3010.000000	62.126207 
3009.000000	62.138247 
3008.000000	62.149000 
3007.000000	62.156033 
3006.000000	62.157702 
3005.000000	62.153387 
3004.000000	62.143826 
3003.000000	62.130475 
3002.000000	62.115502 
3001.000000	62.101387 
3000.000000	62.090659 
2999.000000	62.085437 
2998.000000	62.087082 
2997.000000	62.096071 
2996.000000	62.111687 
2995.000000	62.132406 
2994.000000	62.155723 
2993.000000	62.178683 
2992.000000	62.198281 
2991.000000	62.211966 
2990.000000	62.218236 
2989.000000	62.216544 
2988.000000	62.207484 
2987.000000	62.192440 
2986.000000	62.173199 
2985.000000	62.151432 
2984.000000	62.128305 
2983.000000	62.104320 
2982.000000	62.079501 
2981.000000	62.053513 
2980.000000	62.026166 
2979.000000	61.997485 
2978.000000	61.967873 
2977.000000	61.938142 
2976.000000	61.909174 
2975.000000	61.881995 
2974.000000	61.857581 
2973.000000	61.836957 
2972.000000	61.820864 
2971.000000	61.810040 
2970.000000	61.804890 
2969.000000	61.805582 
2968.000000	61.811661 
2967.000000	61.821961 
2966.000000	61.834526 
2965.000000	61.846685 
2964.000000	61.855316 
2963.000000	61.857581 
2962.000000	61.851406 
2961.000000	61.835980 
2960.000000	61.811900 
2959.000000	61.781048 
2958.000000	61.746406 
2957.000000	61.711263 
2956.000000	61.678862 
2955.000000	61.651754 
2954.000000	61.631536 
2953.000000	61.618757 
2952.000000	61.613011 
2951.000000	61.613082 
2950.000000	61.617255 
2949.000000	61.623573 
2948.000000	61.630249 
2947.000000	61.635494 
2946.000000	61.638283 
2945.000000	61.638140 
2944.000000	61.635351 
2943.000000	61.630678 
2942.000000	61.625242 
2941.000000	61.620521 
2940.000000	61.617279 
2939.000000	61.615443 
2938.000000	61.613965 
2937.000000	61.611151 
2936.000000	61.605238 
2935.000000	61.594986 
2934.000000	61.580252 
2933.000000	61.562299 
2932.000000	61.543536 
2931.000000	61.526823 
2930.000000	61.514782 
2929.000000	61.508965 
2928.000000	61.509227 
2927.000000	61.513805 
2926.000000	61.519813 
2925.000000	61.524128 
2924.000000	61.524057 
2923.000000	61.518430 
2922.000000	61.507630 
2921.000000	61.493897 
2920.000000	61.480236 
2919.000000	61.470150 
2918.000000	61.466407 
2917.000000	61.470937 
2916.000000	61.484503 
2915.000000	61.506700 
2914.000000	61.536264 
2913.000000	61.570858 
2912.000000	61.607551 
2911.000000	61.642742 
2910.000000	61.672639 
2909.000000	61.693668 
2908.000000	61.702966 
2907.000000	61.699032 
2906.000000	61.682295 
2905.000000	61.654806 
2904.000000	61.620116 
2903.000000	61.582636 
2902.000000	61.546874 
2901.000000	61.516451 
2900.000000	61.493754 
2899.000000	61.479616 
2898.000000	61.473369 
2897.000000	61.473608 
2896.000000	61.478447 
2895.000000	61.486411 
2894.000000	61.496615 
2893.000000	61.508607 
2892.000000	61.522293 
2891.000000	61.537528 
2890.000000	61.553716 
2889.000000	61.569857 
2888.000000	61.584758 
2887.000000	61.597228 
2886.000000	61.606311 
2885.000000	61.611819 
2884.000000	61.614322 
2883.000000	61.614942 
2882.000000	61.615109 
2881.000000	61.616134 
2880.000000	61.618852 
2879.000000	61.623215 
2878.000000	61.628341 
2877.000000	61.632680 
2876.000000	61.634540 
2875.000000	61.632394 
2874.000000	61.625480 
2873.000000	61.614036 
2872.000000	61.599254 
2871.000000	61.583209 
2870.000000	61.568117 
2869.000000	61.556100 
2868.000000	61.548733 
2867.000000	61.546587 
2866.000000	61.549234 
2865.000000	61.555075 
2864.000000	61.562132 
2863.000000	61.567997 
2862.000000	61.570763 
2861.000000	61.569070 
2860.000000	61.562252 
2859.000000	61.550688 
2858.000000	61.535358 
2857.000000	61.517810 
2856.000000	61.499834 
2855.000000	61.483287 
2854.000000	61.469864 
2853.000000	61.460733 
2852.000000	61.456561 
2851.000000	61.457276 
2850.000000	61.462187 
2849.000000	61.469888 
2848.000000	61.478543 
2847.000000	61.486148 
2846.000000	61.490964 
2845.000000	61.491799 
2844.000000	61.488270 
2843.000000	61.481094 
2842.000000	61.471652 
2841.000000	61.461925 
2840.000000	61.453914 
2839.000000	61.448979 
2838.000000	61.447858 
2837.000000	61.450314 
2836.000000	61.455583 
2835.000000	61.462593 
2834.000000	61.470675 
2833.000000	61.479568 
2832.000000	61.489748 
2831.000000	61.502146 
2830.000000	61.517620 
2829.000000	61.536478 
2828.000000	61.558032 
2827.000000	61.580228 
2826.000000	61.600279 
2825.000000	61.615109 
2824.000000	61.622095 
2823.000000	61.619710 
2822.000000	61.608219 
2821.000000	61.589598 
2820.000000	61.566948 
2819.000000	61.543703 
2818.000000	61.522960 
2817.000000	61.506509 
2816.000000	61.494970 
2815.000000	61.487579 
2814.000000	61.482882 
2813.000000	61.479163 
2812.000000	61.475324 
2811.000000	61.470842 
2810.000000	61.465883 
2809.000000	61.461138 
2808.000000	61.457180 
2807.000000	61.454296 
2806.000000	61.452007 
2805.000000	61.449480 
2804.000000	61.445689 
2803.000000	61.439967 
2802.000000	61.432313 
2801.000000	61.423516 
2800.000000	61.415266 
2799.000000	61.409568 
2798.000000	61.408162 
2797.000000	61.412167 
2796.000000	61.421608 
2795.000000	61.435556 
2794.000000	61.452031 
2793.000000	61.468839 
2792.000000	61.484026 
2791.000000	61.496281 
2790.000000	61.505007 
2789.000000	61.510300 
2788.000000	61.512494 
2787.000000	61.511969 
2786.000000	61.508989 
2785.000000	61.503410 
2784.000000	61.494684 
2783.000000	61.482620 
2782.000000	61.467027 
2781.000000	61.448264 
2780.000000	61.427187 
2779.000000	61.405134 
2778.000000	61.383533 
2777.000000	61.363601 
2776.000000	61.346244 
2775.000000	61.332011 
2774.000000	61.320757 
2773.000000	61.311936 
2772.000000	61.304736 
2771.000000	61.298322 
2770.000000	61.291933 
2769.000000	61.285138 
2768.000000	61.277723 
2767.000000	61.269831 
2766.000000	61.262130 
2765.000000	61.255455 
2764.000000	61.250782 
2763.000000	61.248922 
2762.000000	61.250472 
2761.000000	61.255359 
2760.000000	61.262702 
2759.000000	61.270976 
2758.000000	61.278128 
2757.000000	61.282300 
2756.000000	61.281776 
2755.000000	61.276030 
2754.000000	61.265611 
2753.000000	61.252570 
2752.000000	61.239790 
2751.000000	61.230659 
2750.000000	61.228275 
2749.000000	61.234569 
2748.000000	61.250162 
2747.000000	61.273765 
2746.000000	61.302495 
2745.000000	61.332535 
2744.000000	61.359834 
2743.000000	61.380791 
2742.000000	61.392855 
2741.000000	61.395049 
2740.000000	61.387848 
2739.000000	61.372995 
2738.000000	61.352849 
2737.000000	61.330032 
2736.000000	61.306810 
2735.000000	61.284875 
2734.000000	61.265063 
2733.000000	61.247730 
2732.000000	61.232519 
2731.000000	61.218881 
2730.000000	61.206269 
2729.000000	61.194229 
2728.000000	61.182355 
2727.000000	61.170458 
2726.000000	61.158561 
2725.000000	61.146497 
2724.000000	61.134505 
2723.000000	61.122703 
2722.000000	61.111569 
2721.000000	61.101508 
2720.000000	61.093091 
2719.000000	61.086821 
2718.000000	61.083054 
2717.000000	61.081886 
2716.000000	61.083126 
2715.000000	61.086201 
2714.000000	61.090373 
2713.000000	61.094570 
2712.000000	61.097574 
2711.000000	61.098313 
2710.000000	61.095762 
2709.000000	61.089229 
2708.000000	61.078500 
2707.000000	61.063933 
2706.000000	61.046504 
2705.000000	61.027789 
2704.000000	61.009621 
2703.000000	60.993790 
2702.000000	60.981988 
2701.000000	60.975146 
2700.000000	60.973215 
2699.000000	60.975146 
2698.000000	60.979294 
2697.000000	60.983586 
2696.000000	60.985851 
2695.000000	60.984539 
2694.000000	60.979056 
2693.000000	60.969758 
2692.000000	60.957837 
2691.000000	60.945057 
2690.000000	60.933399 
2689.000000	60.924482 
2688.000000	60.919380 
2687.000000	60.918450 
2686.000000	60.921263 
2685.000000	60.926818 
2684.000000	60.933685 
2683.000000	60.940361 
2682.000000	60.945534 
2681.000000	60.948109 
2680.000000	60.947704 
2679.000000	60.944294 
2678.000000	60.938549 
2677.000000	60.931539 
2676.000000	60.924935 
2675.000000	60.920453 
2674.000000	60.919904 
2673.000000	60.924577 
2672.000000	60.935235 
2671.000000	60.951781 
2670.000000	60.973286 
2669.000000	60.998106 
2668.000000	61.023998 
2667.000000	61.048555 
2666.000000	61.069369 
2665.000000	61.084580 
2664.000000	61.092710 
2663.000000	61.093020 
2662.000000	61.085391 
2661.000000	61.070299 
2660.000000	61.048746 
2659.000000	61.022114 
2658.000000	60.991954 
2657.000000	60.959839 
2656.000000	60.927367 
2655.000000	60.896086 
2654.000000	60.867285 
2653.000000	60.842084 
2652.000000	60.821294 
2651.000000	60.805463 
2650.000000	60.794854 
2649.000000	60.789418 
2648.000000	60.788726 
2647.000000	60.791921 
2646.000000	60.797810 
2645.000000	60.804867 
2644.000000	60.811448 
2643.000000	60.816073 
2642.000000	60.817646 
2641.000000	60.815691 
2640.000000	60.810494 
2639.000000	60.802817 
2638.000000	60.793876 
2637.000000	60.784864 
2636.000000	60.776734 
2635.000000	60.770082 
2634.000000	60.764956 
2633.000000	60.761165 
2632.000000	60.758280 
2631.000000	60.755872 
2630.000000	60.753703 
2629.000000	60.751843 
2628.000000	60.750627 
2627.000000	60.750317 
2626.000000	60.751152 
2625.000000	60.753059 
2624.000000	60.755848 
2623.000000	60.759210 
2622.000000	60.762906 
2621.000000	60.766935 
2620.000000	60.771632 
2619.000000	60.777425 
2618.000000	60.784769 
2617.000000	60.794043 
2616.000000	60.805082 
2615.000000	60.817193 
2614.000000	60.829091 
2613.000000	60.839223 
2612.000000	60.845971 
2611.000000	60.848164 
2610.000000	60.845041 
2609.000000	60.836625 
2608.000000	60.823607 
2607.000000	60.807371 
2606.000000	60.789465 
2605.000000	60.771489 
2604.000000	60.754680 
2603.000000	60.739755 
2602.000000	60.726857 
2601.000000	60.715699 
2600.000000	60.705709 
2599.000000	60.696220 
2598.000000	60.686683 
2597.000000	60.676765 
2596.000000	60.666322 
2595.000000	60.655689 
2594.000000	60.645198 
2593.000000	60.635399 
2592.000000	60.626888 
2591.000000	60.620236 
2590.000000	60.615754 
2589.000000	60.613489 
2588.000000	60.613036 
2587.000000	60.613584 
2586.000000	60.614013 
2585.000000	60.613012 
2584.000000	60.609436 
2583.000000	60.602641 
2582.000000	60.592412 
2581.000000	60.579490 
2580.000000	60.565185 
2579.000000	60.551333 
2578.000000	60.539555 
2577.000000	60.531091 
2576.000000	60.526418 
2575.000000	60.525083 
2574.000000	60.526037 
2573.000000	60.527658 
2572.000000	60.528421 
2571.000000	60.527396 
2570.000000	60.524606 
2569.000000	60.520696 
2568.000000	60.517191 
2567.000000	60.515832 
2566.000000	60.518383 
2565.000000	60.525965 
2564.000000	60.538887 
2563.000000	60.556650 
2562.000000	60.577845 
2561.000000	60.600399 
2560.000000	60.621619 
2559.000000	60.639023 
2558.000000	60.650181 
2557.000000	60.653233 
2556.000000	60.646843 
2555.000000	60.630631 
2554.000000	60.605001 
2553.000000	60.571336 
2552.000000	60.531783 
2551.000000	60.489153 
2550.000000	60.446786 
2549.000000	60.408067 
2548.000000	60.376000 
2547.000000	60.352802 
2546.000000	60.339593 
2545.000000	60.336422 
2544.000000	60.342049 
2543.000000	60.354471 
2542.000000	60.371088 
2541.000000	60.389661 
2540.000000	60.408115 
2539.000000	60.425376 
2538.000000	60.441064 
2537.000000	60.455679 
2536.000000	60.469961 
2535.000000	60.484504 
2534.000000	60.499334 
2533.000000	60.513806 
2532.000000	60.526490 
2531.000000	60.535573 
2530.000000	60.539388 
2529.000000	60.536551 
2528.000000	60.526609 
2527.000000	60.509872 
2526.000000	60.487508 
2525.000000	60.461044 
2524.000000	60.432028 
2523.000000	60.401797 
2522.000000	60.371184 
2521.000000	60.340976 
2520.000000	60.311794 
2519.000000	60.284161 
2518.000000	60.258984 
2517.000000	60.237550 
2516.000000	60.221290 
2515.000000	60.211515 
2514.000000	60.209131 
2513.000000	60.214233 
2512.000000	60.226225 
2511.000000	60.243749 
2510.000000	60.264968 
2509.000000	60.287523 
2508.000000	60.309147 
2507.000000	60.327839 
2506.000000	60.341739 
2505.000000	60.349488 
2504.000000	60.350060 
2503.000000	60.343098 
2502.000000	60.328650 
2501.000000	60.307550 
2500.000000	60.281181 
2499.000000	60.251522 
2498.000000	60.220956 
2497.000000	60.192084 
2496.000000	60.167312 
2495.000000	60.148572 
2494.000000	60.137009 
2493.000000	60.132980 
2492.000000	60.135698 
2491.000000	60.143661 
2490.000000	60.154771 
2489.000000	60.166978 
2488.000000	60.178160 
2487.000000	60.186862 
2486.000000	60.192108 
2485.000000	60.193777 
2484.000000	60.192108 
2483.000000	60.187745 
2482.000000	60.181665 
2481.000000	60.174560 
2480.000000	60.167312 
2479.000000	60.160255 
2478.000000	60.153722 
2477.000000	60.147762 
2476.000000	60.142421 
2475.000000	60.137534 
2474.000000	60.132932 
2473.000000	60.128378 
2472.000000	60.123634 
2471.000000	60.118412 
2470.000000	60.112547 
2469.000000	60.105895 
2468.000000	60.098528 
2467.000000	60.090708 
2466.000000	60.082840 
2465.000000	60.075402 
2464.000000	60.068750 
2463.000000	60.063147 
2462.000000	60.058450 
2461.000000	60.054326 
2460.000000	60.050034 
2459.000000	60.044813 
2458.000000	60.038018 
2457.000000	60.029411 
2456.000000	60.019326 
2455.000000	60.008502 
2454.000000	59.998226 
2453.000000	59.989786 
2452.000000	59.984421 
2451.000000	59.982943 
2450.000000	59.985423 
2449.000000	59.991264 
2448.000000	59.999203 
2447.000000	60.007786 
2446.000000	60.015511 
2445.000000	60.021209 
2444.000000	60.024142 
2443.000000	60.024094 
2442.000000	60.021233 
2441.000000	60.016036 
2440.000000	60.009098 
2439.000000	60.000967 
2438.000000	59.992170 
2437.000000	59.983181 
2436.000000	59.974408 
2435.000000	59.966444 
2434.000000	59.959793 
2433.000000	59.954905 
2432.000000	59.951925 
2431.000000	59.950828 
2430.000000	59.951257 
2429.000000	59.952807 
2428.000000	59.954833 
2427.000000	59.957218 
2426.000000	59.960055 
2425.000000	59.963870 
2424.000000	59.969329 
2423.000000	59.976792 
2422.000000	59.985828 
2421.000000	59.995079 
2420.000000	60.002374 
2419.000000	60.005068 
2418.000000	60.000729 
2417.000000	59.987998 
2416.000000	59.967064 
2415.000000	59.939885 
2414.000000	59.910082 
2413.000000	59.882235 
2412.000000	59.860682 
2411.000000	59.848666 
2410.000000	59.847450 
2409.000000	59.856200 
2408.000000	59.871673 
2407.000000	59.889554 
2406.000000	59.904885 
2405.000000	59.913516 
2404.000000	59.912919 
2403.000000	59.902596 
2402.000000	59.884214 
2401.000000	59.860754 
2400.000000	59.836077 
2399.000000	59.814000 
2398.000000	59.797406 
2397.000000	59.787917 
2396.000000	59.785437 
2395.000000	59.788632 
2394.000000	59.795069 
2393.000000	59.802150 
2392.000000	59.807252 
2391.000000	59.808516 
2390.000000	59.804773 
2389.000000	59.795928 
2388.000000	59.782624 
2387.000000	59.766268 
2386.000000	59.748554 
2385.000000	59.731292 
2384.000000	59.716105 
2383.000000	59.704208 
2382.000000	59.696316 
2381.000000	59.692621 
2380.000000	59.692478 
2379.000000	59.694814 
2378.000000	59.698033 
2377.000000	59.700441 
2376.000000	59.700536 
2375.000000	59.697294 
2374.000000	59.690141 
2373.000000	59.679341 
2372.000000	59.665918 
2371.000000	59.651541 
2370.000000	59.638071 
2369.000000	59.627223 
2368.000000	59.620213 
2367.000000	59.617424 
2366.000000	59.618496 
2365.000000	59.622097 
2364.000000	59.626460 
2363.000000	59.629487 
2362.000000	59.629392 
2361.000000	59.625244 
2360.000000	59.616971 
2359.000000	59.605431 
2358.000000	59.592247 
2357.000000	59.579324 
2356.000000	59.568667 
2355.000000	59.561538 
2354.000000	59.558439 
2353.000000	59.558916 
2352.000000	59.561657 
2351.000000	59.564948 
2350.000000	59.567046 
2349.000000	59.566569 
2348.000000	59.563016 
2347.000000	59.556484 
2346.000000	59.547996 
2345.000000	59.538912 
2344.000000	59.530711 
2343.000000	59.524464 
2342.000000	59.520673 
2341.000000	59.519219 
2340.000000	59.519314 
2339.000000	59.519815 
2338.000000	59.519505 
2337.000000	59.517502 
2336.000000	59.513258 
2335.000000	59.506916 
2334.000000	59.499096 
2333.000000	59.490871 
2332.000000	59.483456 
2331.000000	59.477782 
2330.000000	59.474635 
2329.000000	59.474253 
2328.000000	59.476280 
2327.000000	59.479784 
2326.000000	59.483551 
2325.000000	59.486055 
2324.000000	59.485912 
2323.000000	59.482216 
2322.000000	59.474468 
2321.000000	59.462761 
2320.000000	59.447765 
2319.000000	59.430646 
2318.000000	59.412765 
2317.000000	59.395217 
2316.000000	59.379005 
2315.000000	59.364509 
2314.000000	59.351730 
2313.000000	59.340381 
2312.000000	59.330034 
2311.000000	59.320449 
2310.000000	59.311485 
2309.000000	59.303283 
2308.000000	59.296178 
2307.000000	59.290552 
2306.000000	59.286904 
2305.000000	59.285330 
2304.000000	59.285807 
2303.000000	59.288191 
2302.000000	59.292197 
2301.000000	59.297537 
2300.000000	59.303951 
2299.000000	59.311032 
2298.000000	59.318184 
2297.000000	59.324550 
2296.000000	59.329128 
2295.000000	59.330821 
2294.000000	59.328627 
2293.000000	59.321999 
2292.000000	59.310984 
2291.000000	59.296417 
2290.000000	59.279847 
2289.000000	59.263229 
2288.000000	59.248495 
2287.000000	59.237194 
2286.000000	59.230065 
2285.000000	59.227132 
2284.000000	59.227395 
2283.000000	59.229278 
2282.000000	59.231042 
2281.000000	59.231281 
2280.000000	59.228992 
2279.000000	59.223866 
2278.000000	59.216380 
2277.000000	59.207558 
2276.000000	59.198713 
2275.000000	59.191274 
2274.000000	59.186458 
2273.000000	59.185075 
2272.000000	59.187555 
2271.000000	59.193396 
2270.000000	59.201860 
2269.000000	59.211277 
2268.000000	59.219837 
2267.000000	59.225416 
2266.000000	59.226107 
2265.000000	59.220266 
2264.000000	59.206962 
2263.000000	59.186077 
2262.000000	59.158515 
2261.000000	59.126234 
2260.000000	59.091782 
2259.000000	59.058332 
2258.000000	59.028816 
2257.000000	59.005856 
2256.000000	58.991265 
2255.000000	58.985853 
2254.000000	58.989167 
2253.000000	58.999967 
2252.000000	59.016132 
2251.000000	59.035062 
2250.000000	59.054064 
2249.000000	59.070611 
2248.000000	59.082794 
2247.000000	59.089350 
2246.000000	59.089899 
2245.000000	59.084796 
2244.000000	59.075021 
2243.000000	59.062218 
2242.000000	59.048175 
2241.000000	59.035038 
2240.000000	59.024524 
2239.000000	59.018063 
2238.000000	59.016346 
2237.000000	59.019351 
2236.000000	59.026050 
2235.000000	59.034705 
2234.000000	59.042930 
2233.000000	59.048295 
2232.000000	59.048652 
2231.000000	59.042549 
2230.000000	59.029436 
2229.000000	59.009814 
2228.000000	58.985137 
2227.000000	58.957743 
2226.000000	58.930349 
2225.000000	58.905577 
2224.000000	58.885693 
2223.000000	58.872389 
2222.000000	58.866500 
2221.000000	58.868002 
2220.000000	58.876204 
2219.000000	58.889436 
2218.000000	58.905792 
2217.000000	58.922886 
2216.000000	58.938241 
2215.000000	58.949494 
2214.000000	58.954834 
2213.000000	58.953046 
2212.000000	58.943819 
2211.000000	58.927583 
2210.000000	58.905553 
2209.000000	58.879494 
2208.000000	58.851647 
2207.000000	58.824086 
2206.000000	58.798837 
2205.000000	58.777475 
2204.000000	58.761143 
2203.000000	58.750319 
2202.000000	58.744835 
2201.000000	58.743810 
2200.000000	58.746170 
2199.000000	58.750581 
2198.000000	58.755874 
2197.000000	58.761143 
2196.000000	58.765840 
2195.000000	58.769798 
2194.000000	58.772969 
2193.000000	58.775472 
2192.000000	58.777117 
2191.000000	58.777570 
2190.000000	58.776187 
2189.000000	58.772158 
2188.000000	58.764529 
2187.000000	58.752727 
2186.000000	58.736753 
2185.000000	58.717012 
2184.000000	58.694911 
2183.000000	58.672523 
2182.000000	58.652424 
2181.000000	58.637189 
2180.000000	58.628940 
2179.000000	58.629012 
2178.000000	58.637642 
2177.000000	58.653807 
2176.000000	58.675503 
2175.000000	58.699989 
2174.000000	58.724403 
2173.000000	58.746099 
2172.000000	58.762884 
2171.000000	58.773255 
2170.000000	58.776521 
2169.000000	58.772778 
2168.000000	58.762693 
2167.000000	58.747267 
2166.000000	58.727931 
2165.000000	58.705973 
2164.000000	58.682632 
2163.000000	58.658647 
2162.000000	58.634710 
2161.000000	58.611035 
2160.000000	58.587861 
2159.000000	58.565354 
2158.000000	58.543753 
2157.000000	58.523368 
2156.000000	58.504557 
2155.000000	58.487558 
2154.000000	58.472371 
2153.000000	58.458852 
2152.000000	58.446574 
2151.000000	58.434963 
2150.000000	58.423447 
2149.000000	58.411812 
2148.000000	58.400201 
2147.000000	58.389186 
2146.000000	58.379554 
2145.000000	58.372354 
2144.000000	58.368420 
2143.000000	58.368039 
2142.000000	58.371067 
2141.000000	58.376836 
2140.000000	58.384156 
2139.000000	58.391714 
2138.000000	58.398079 
2137.000000	58.401918 
2136.000000	58.402228 
2135.000000	58.398604 
2134.000000	58.391189 
2133.000000	58.380722 
2132.000000	58.368372 
2131.000000	58.355855 
2130.000000	58.344864 
2129.000000	58.336639 
2128.000000	58.331704 
2127.000000	58.329892 
2126.000000	58.330082 
2125.000000	58.330512 
2124.000000	58.329248 
2123.000000	58.324646 
2122.000000	58.315920 
2121.000000	58.303213 
2120.000000	58.287739 
2119.000000	58.271574 
2118.000000	58.257007 
2117.000000	58.246016 
2116.000000	58.239912 
2115.000000	58.238816 
2114.000000	58.241820 
2113.000000	58.247280 
2112.000000	58.253431 
2111.000000	58.258652 
2110.000000	58.261966 
2109.000000	58.263182 
2108.000000	58.262777 
2107.000000	58.261752 
2106.000000	58.261227 
2105.000000	58.262085 
2104.000000	58.264541 
2103.000000	58.268141 
2102.000000	58.271718 
2101.000000	58.273839 
2100.000000	58.273172 
2099.000000	58.268761 
2098.000000	58.260369 
2097.000000	58.248639 
2096.000000	58.234810 
2095.000000	58.220481 
2094.000000	58.207106 
2093.000000	58.195686 
2092.000000	58.186650 
2091.000000	58.179688 
2090.000000	58.174061 
2089.000000	58.168840 
2088.000000	58.163285 
2087.000000	58.157157 
2086.000000	58.150720 
2085.000000	58.144521 
2084.000000	58.139371 
2083.000000	58.135366 
2082.000000	58.132147 
2081.000000	58.128547 
2080.000000	58.123278 
2079.000000	58.115410 
2078.000000	58.104419 
2077.000000	58.090901 
2076.000000	58.075928 
2075.000000	58.061075 
2074.000000	58.047628 
2073.000000	58.036112 
2072.000000	58.026480 
2071.000000	58.018159 
2070.000000	58.010387 
2069.000000	58.002614 
2068.000000	57.994747 
2067.000000	57.987332 
2066.000000	57.981276 
2065.000000	57.977485 
2064.000000	57.976579 
2063.000000	57.978725 
2062.000000	57.983613 
2061.000000	57.990527 
2060.000000	57.998824 
2059.000000	58.008074 
2058.000000	58.018255 
2057.000000	58.029580 
2056.000000	58.042216 
2055.000000	58.055734 
2054.000000	58.069157 
2053.000000	58.080625 
2052.000000	58.087849 
2051.000000	58.088445 
2050.000000	58.080840 
2049.000000	58.064484 
2048.000000	58.040022 
2047.000000	58.009243 
2046.000000	57.974910 
2045.000000	57.939934 
2044.000000	57.906961 
2043.000000	57.877898 
2042.000000	57.853865 
2041.000000	57.835006 
2040.000000	57.820796 
2039.000000	57.810282 
2038.000000	57.802462 
2037.000000	57.796359 
2036.000000	57.791328 
2035.000000	57.786560 
2034.000000	57.781600 
2033.000000	57.776021 
2032.000000	57.769703 
2031.000000	57.762694 
2030.000000	57.755374 
2029.000000	57.748603 
2028.000000	57.743668 
2027.000000	57.741880 
2026.000000	57.744312 
2025.000000	57.751703 
2024.000000	57.764101 
2023.000000	57.780623 
2022.000000	57.799649 
2021.000000	57.819032 
2020.000000	57.836341 
2019.000000	57.849287 
2018.000000	57.856345 
2017.000000	57.856750 
2016.000000	57.850861 
2015.000000	57.839965 
2014.000000	57.825875 
2013.000000	57.810425 
2012.000000	57.795405 
2011.000000	57.782149 
2010.000000	57.771229 
2009.000000	57.762503 
2008.000000	57.755351 
2007.000000	57.748818 
2006.000000	57.741880 
2005.000000	57.733726 
2004.000000	57.723760 
2003.000000	57.711839 
2002.000000	57.698249 
2001.000000	57.683682 
2000.000000	57.668995 
1999.000000	57.655072 
1998.000000	57.642579 
1997.000000	57.631850 
1996.000000	57.622885 
1995.000000	57.615184 
1994.000000	57.608199 
1993.000000	57.601189 
1992.000000	57.593560 
1991.000000	57.585048 
1990.000000	57.575893 
1989.000000	57.566761 
1988.000000	57.558655 
1987.000000	57.552528 
1986.000000	57.549285 
1985.000000	57.549428 
1984.000000	57.552862 
1983.000000	57.558917 
1982.000000	57.566261 
1981.000000	57.573342 
1980.000000	57.578587 
1979.000000	57.580518 
1978.000000	57.578277 
1977.000000	57.571649 
1976.000000	57.561278 
1975.000000	57.548379 
1974.000000	57.534670 
1973.000000	57.522130 
1972.000000	57.512331 
1971.000000	57.506442 
1970.000000	57.504630 
1969.000000	57.506346 
1968.000000	57.510113 
1967.000000	57.514071 
1966.000000	57.516121 
1965.000000	57.514524 
1964.000000	57.508301 
1963.000000	57.497334 
1962.000000	57.482624 
1961.000000	57.465696 
1960.000000	57.448577 
1959.000000	57.433176 
1958.000000	57.420969 
1957.000000	57.412791 
1956.000000	57.408833 
1955.000000	57.408738 
1954.000000	57.411909 
1953.000000	57.417535 
1952.000000	57.424879 
1951.000000	57.433295 
1950.000000	57.442069 
1949.000000	57.450342 
1948.000000	57.457375 
1947.000000	57.462286 
1946.000000	57.464218 
1945.000000	57.462430 
1944.000000	57.456564 
1943.000000	57.446432 
1942.000000	57.432436 
1941.000000	57.415127 
1940.000000	57.395577 
1939.000000	57.374763 
1938.000000	57.353878 
1937.000000	57.333898 
1936.000000	57.315731 
1935.000000	57.300114 
1934.000000	57.287597 
1933.000000	57.278513 
1932.000000	57.273125 
1931.000000	57.271337 
1930.000000	57.272791 
1929.000000	57.276821 
1928.000000	57.282543 
1927.000000	57.288837 
1926.000000	57.294368 
1925.000000	57.297968 
1924.000000	57.298493 
1923.000000	57.295203 
1922.000000	57.287859 
1921.000000	57.276725 
1920.000000	57.262516 
1919.000000	57.246279 
1918.000000	57.229208 
1917.000000	57.212471 
1916.000000	57.196903 
1915.000000	57.183122 
1914.000000	57.171392 
1913.000000	57.161736 
1912.000000	57.154226 
1911.000000	57.148909 
1910.000000	57.145929 
1909.000000	57.145404 
1908.000000	57.147359 
1907.000000	57.151579 
1906.000000	57.157301 
1905.000000	57.163453 
1904.000000	57.168579 
1903.000000	57.171201 
1902.000000	57.170009 
1901.000000	57.164335 
1900.000000	57.154202 
1899.000000	57.140588 
1898.000000	57.125091 
1897.000000	57.109808 
1896.000000	57.096815 
1895.000000	57.087564 
1894.000000	57.082986 
1893.000000	57.083034 
1892.000000	57.086873 
1891.000000	57.093024 
1890.000000	57.099604 
1889.000000	57.104945 
1888.000000	57.107663 
1887.000000	57.107067 
1886.000000	57.103228 
1885.000000	57.096743 
1884.000000	57.088470 
1883.000000	57.079458 
1882.000000	57.070446 
1881.000000	57.061886 
1880.000000	57.053947 
1879.000000	57.046627 
1878.000000	57.039999 
1877.000000	57.034254 
1876.000000	57.029843 
1875.000000	57.027244 
1874.000000	57.026910 
1873.000000	57.028961 
1872.000000	57.032966 
1871.000000	57.037925 
1870.000000	57.042622 
1869.000000	57.045698 
1868.000000	57.045841 
1867.000000	57.042503 
1866.000000	57.035517 
1865.000000	57.025504 
1864.000000	57.013368 
1863.000000	56.999993 
1862.000000	56.986045 
1861.000000	56.971836 
1860.000000	56.957411 
1859.000000	56.942677 
1858.000000	56.927704 
1857.000000	56.912851 
1856.000000	56.898880 
1855.000000	56.886768 
1854.000000	56.877350 
1853.000000	56.871080 
1852.000000	56.867671 
1851.000000	56.866121 
1850.000000	56.864881 
1849.000000	56.862092 
1848.000000	56.856155 
1847.000000	56.846094 
1846.000000	56.831669 
1845.000000	56.813502 
1844.000000	56.792831 
1843.000000	56.771230 
1842.000000	56.750297 
1841.000000	56.731271 
1840.000000	56.714963 
1839.000000	56.701779 
1838.000000	56.691813 
1837.000000	56.685018 
1836.000000	56.681036 
1835.000000	56.679511 
1834.000000	56.680011 
1833.000000	56.681776 
1832.000000	56.684184 
1831.000000	56.686472 
1830.000000	56.687974 
1829.000000	56.688308 
1828.000000	56.687235 
1827.000000	56.684827 
1826.000000	56.681275 
1825.000000	56.676697 
1824.000000	56.670999 
1823.000000	56.663727 
1822.000000	56.654310 
1821.000000	56.642031 
1820.000000	56.626462 
1819.000000	56.607770 
1818.000000	56.586813 
1817.000000	56.565403 
1816.000000	56.545925 
1815.000000	56.530976 
1814.000000	56.522846 
1813.000000	56.522870 
1812.000000	56.531190 
1811.000000	56.546473 
1810.000000	56.566357 
1809.000000	56.587719 
1808.000000	56.607413 
1807.000000	56.622767 
1806.000000	56.632256 
1805.000000	56.635427 
1804.000000	56.632900 
1803.000000	56.626081 
1802.000000	56.616759 
1801.000000	56.606650 
1800.000000	56.597042 
1799.000000	56.588530 
1798.000000	56.581234 
1797.000000	56.574821 
1796.000000	56.568741 
1795.000000	56.562471 
1794.000000	56.555652 
1793.000000	56.548213 
1792.000000	56.540226 
1791.000000	56.531715 
1790.000000	56.522655 
1789.000000	56.512665 
1788.000000	56.501293 
1787.000000	56.487870 
1786.000000	56.471729 
1785.000000	56.452488 
1784.000000	56.430268 
1783.000000	56.406092 
1782.000000	56.381702 
1781.000000	56.359481 
1780.000000	56.341862 
1779.000000	56.330871 
1778.000000	56.327915 
1777.000000	56.333231 
1776.000000	56.345295 
1775.000000	56.361436 
1774.000000	56.378316 
1773.000000	56.392455 
1772.000000	56.400704 
1771.000000	56.401181 
1770.000000	56.393384 
1769.000000	56.378221 
1768.000000	56.357598 
1767.000000	56.333947 
1766.000000	56.309676 
1765.000000	56.286787 
1764.000000	56.266736 
1763.000000	56.250429 
1762.000000	56.238389 
1761.000000	56.231117 
1760.000000	56.228923 
1759.000000	56.231927 
1758.000000	56.239581 
1757.000000	56.250786 
1756.000000	56.263327 
1755.000000	56.274342 
1754.000000	56.280422 
1753.000000	56.278491 
1752.000000	56.266307 
1751.000000	56.243085 
1750.000000	56.209754 
1749.000000	56.168985 
1748.000000	56.124615 
1747.000000	56.080889 
1746.000000	56.041479 
1745.000000	56.009030 
1744.000000	55.984735 
1743.000000	55.968379 
1742.000000	55.958676 
1741.000000	55.953812 
1740.000000	55.952119 
1739.000000	55.952429 
1738.000000	55.954003 
1737.000000	55.956816 
1736.000000	55.960988 
1735.000000	55.966734 
1734.000000	55.973792 
1733.000000	55.981612 
1732.000000	55.989074 
1731.000000	55.995082 
1730.000000	55.998635 
1729.000000	55.999207 
1728.000000	55.997037 
1727.000000	55.992984 
1726.000000	55.988478 
1725.000000	55.985140 
1724.000000	55.984306 
1723.000000	55.986952 
1722.000000	55.993127 
1721.000000	56.002187 
1720.000000	56.012797 
1719.000000	56.023263 
1718.000000	56.031942 
1717.000000	56.037521 
1716.000000	56.039214 
1715.000000	56.036949 
1714.000000	56.031227 
1713.000000	56.022787 
1712.000000	56.012415 
1711.000000	56.000638 
1710.000000	55.987882 
1709.000000	55.974531 
1708.000000	55.961036 
1707.000000	55.948209 
1706.000000	55.937147 
1705.000000	55.929327 
1704.000000	55.926370 
1703.000000	55.929374 
1702.000000	55.938625 
1701.000000	55.953288 
1700.000000	55.971384 
1699.000000	55.990004 
1698.000000	56.005883 
1697.000000	56.016302 
1696.000000	56.019449 
1695.000000	56.014990 
1694.000000	56.004142 
1693.000000	55.989241 
1692.000000	55.973029 
1691.000000	55.958104 
1690.000000	55.946111 
1689.000000	55.937457 
1688.000000	55.931329 
1687.000000	55.926084 
1686.000000	55.919909 
1685.000000	55.911445 
1684.000000	55.900025 
1683.000000	55.886006 
1682.000000	55.870366 
1681.000000	55.854392 
1680.000000	55.839061 
1679.000000	55.824780 
1678.000000	55.811357 
1677.000000	55.798268 
1676.000000	55.784749 
1675.000000	55.770564 
1674.000000	55.756163 
1673.000000	55.742764 
1672.000000	55.731987 
1671.000000	55.725526 
1670.000000	55.724501 
1669.000000	55.729198 
1668.000000	55.738615 
1667.000000	55.750870 
1666.000000	55.763530 
1665.000000	55.774188 
1664.000000	55.780982 
1663.000000	55.782890 
1662.000000	55.779838 
1661.000000	55.772447 
1660.000000	55.761814 
1659.000000	55.748915 
1658.000000	55.734395 
1657.000000	55.718612 
1656.000000	55.701565 
1655.000000	55.683183 
1654.000000	55.663609 
1653.000000	55.643200 
1652.000000	55.622673 
1651.000000	55.602931 
1650.000000	55.584812 
1649.000000	55.568838 
1648.000000	55.555224 
1647.000000	55.543708 
1646.000000	55.533933 
1645.000000	55.525350 
1644.000000	55.517435 
1643.000000	55.509948 
1642.000000	55.502772 
1641.000000	55.495882 
1640.000000	55.489230 
1639.000000	55.482649 
1638.000000	55.476045 
1637.000000	55.469274 
1636.000000	55.462288 
1635.000000	55.455446 
1634.000000	55.449438 
1633.000000	55.445146 
1632.000000	55.443549 
1631.000000	55.445575 
1630.000000	55.451679 
1629.000000	55.461764 
1628.000000	55.474901 
1627.000000	55.489683 
1626.000000	55.504369 
1625.000000	55.516958 
1624.000000	55.525755 
1623.000000	55.529260 
1622.000000	55.526661 
1621.000000	55.517578 
1620.000000	55.502104 
1619.000000	55.480647 
1618.000000	55.454254 
1617.000000	55.424046 
1616.000000	55.391454 
1615.000000	55.358171 
1614.000000	55.326032 
1613.000000	55.296874 
1612.000000	55.272388 
1611.000000	55.253720 
1610.000000	55.241394 
1609.000000	55.235052 
1608.000000	55.233502 
1607.000000	55.234766 
1606.000000	55.236387 
1605.000000	55.236077 
1604.000000	55.232191 
1603.000000	55.223894 
1602.000000	55.211472 
1601.000000	55.196166 
1600.000000	55.180048 
1599.000000	55.165410 
1598.000000	55.154299 
1597.000000	55.148220 
1596.000000	55.147767 
1595.000000	55.152702 
1594.000000	55.161762 
1593.000000	55.173063 
1592.000000	55.184507 
1591.000000	55.194020 
1590.000000	55.200028 
1589.000000	55.201840 
1588.000000	55.199456 
1587.000000	55.193758 
1586.000000	55.185794 
1585.000000	55.176520 
1584.000000	55.166316 
1583.000000	55.155086 
1582.000000	55.142116 
1581.000000	55.126500 
1580.000000	55.107378 
1579.000000	55.084490 
1578.000000	55.058288 
1577.000000	55.030107 
1576.000000	55.001759 
1575.000000	54.975318 
1574.000000	54.952931 
1573.000000	54.936122 
1572.000000	54.925751 
1571.000000	54.921698 
1570.000000	54.923057 
1569.000000	54.928302 
1568.000000	54.935431 
1567.000000	54.942584 
1566.000000	54.948019 
1565.000000	54.950690 
1564.000000	54.949998 
1563.000000	54.946184 
1562.000000	54.939651 
1561.000000	54.931211 
1560.000000	54.921698 
1559.000000	54.911899 
1558.000000	54.902410 
1557.000000	54.893732 
1556.000000	54.886221 
1555.000000	54.879903 
1554.000000	54.874634 
1553.000000	54.870009 
1552.000000	54.865574 
1551.000000	54.860806 
1550.000000	54.855132 
1549.000000	54.848074 
1548.000000	54.839301 
1547.000000	54.828500 
1546.000000	54.815626 
1545.000000	54.800581 
1544.000000	54.783701 
1543.000000	54.765653 
1542.000000	54.747438 
1541.000000	54.730486 
1540.000000	54.716420 
1539.000000	54.706525 
1538.000000	54.701566 
1537.000000	54.701709 
1536.000000	54.706335 
1535.000000	54.714250 
1534.000000	54.724097 
1533.000000	54.734325 
1532.000000	54.743981 
1531.000000	54.752612 
1530.000000	54.760432 
1529.000000	54.767990 
1528.000000	54.775977 
1527.000000	54.784679 
1526.000000	54.793739 
1525.000000	54.802227 
1524.000000	54.808402 
1523.000000	54.810333 
1522.000000	54.806351 
1521.000000	54.795455 
1520.000000	54.777669 
1519.000000	54.754424 
1518.000000	54.728174 
1517.000000	54.702281 
1516.000000	54.680585 
1515.000000	54.666519 
1514.000000	54.662656 
1513.000000	54.669904 
1512.000000	54.687452 
1511.000000	54.712581 
1510.000000	54.741096 
1509.000000	54.768180 
1508.000000	54.789090 
1507.000000	54.800152 
1506.000000	54.799389 
1505.000000	54.787135 
1504.000000	54.765748 
1503.000000	54.739165 
1502.000000	54.711842 
1501.000000	54.687881 
1500.000000	54.670190 
1499.000000	54.659843 
1498.000000	54.656100 
1497.000000	54.656696 
1496.000000	54.658722 
1495.000000	54.659366 
1494.000000	54.656434 
1493.000000	54.648661 
1492.000000	54.635858 
1491.000000	54.618453 
1490.000000	54.597330 
1489.000000	54.573106 
1488.000000	54.546475 
1487.000000	54.517960 
1486.000000	54.488253 
1485.000000	54.458475 
1484.000000	54.430246 
1483.000000	54.405570 
1482.000000	54.386472 
1481.000000	54.374575 
1480.000000	54.370403 
1479.000000	54.373097 
1478.000000	54.380416 
1477.000000	54.389095 
1476.000000	54.395508 
1475.000000	54.396414 
1474.000000	54.389834 
1473.000000	54.375338 
1472.000000	54.354310 
1471.000000	54.329562 
1470.000000	54.304814 
1469.000000	54.283833 
1468.000000	54.269671 
1467.000000	54.264116 
1466.000000	54.267477 
1465.000000	54.278421 
1464.000000	54.294419 
1463.000000	54.312133 
1462.000000	54.328155 
1461.000000	54.339599 
1460.000000	54.344224 
1459.000000	54.340934 
1458.000000	54.329514 
1457.000000	54.311132 
1456.000000	54.287576 
1455.000000	54.261422 
1454.000000	54.235601 
1453.000000	54.212951 
1452.000000	54.196143 
1451.000000	54.187107 
1450.000000	54.186582 
1449.000000	54.194092 
1448.000000	54.207968 
1447.000000	54.225659 
1446.000000	54.244136 
1445.000000	54.260396 
1444.000000	54.271888 
1443.000000	54.276728 
1442.000000	54.273915 
1441.000000	54.263138 
1440.000000	54.244899 
1439.000000	54.220128 
1438.000000	54.190087 
1437.000000	54.156470 
1436.000000	54.121017 
1435.000000	54.085564 
1434.000000	54.051804 
1433.000000	54.021167 
1432.000000	53.994965 
1431.000000	53.974103 
1430.000000	53.959274 
1429.000000	53.950500 
1428.000000	53.947734 
1427.000000	53.950500 
1426.000000	53.958272 
1425.000000	53.970098 
1424.000000	53.984832 
1423.000000	54.001045 
1422.000000	54.017210 
1421.000000	54.031705 
1420.000000	54.043078 
1419.000000	54.050230 
1418.000000	54.052734 
1417.000000	54.050707 
1416.000000	54.044961 
1415.000000	54.036617 
1414.000000	54.027009 
1413.000000	54.017281 
1412.000000	54.008102 
1411.000000	53.999805 
1410.000000	53.992295 
1409.000000	53.985285 
1408.000000	53.978538 
1407.000000	53.971910 
1406.000000	53.965830 
1405.000000	53.960752 
1404.000000	53.957080 
1403.000000	53.955078 
1402.000000	53.954434 
1401.000000	53.954434 
1400.000000	53.953886 
1399.000000	53.951382 
1398.000000	53.945827 
1397.000000	53.936409 
1396.000000	53.922867 
1395.000000	53.905606 
1394.000000	53.885459 
1393.000000	53.863430 
1392.000000	53.840613 
1391.000000	53.818035 
1390.000000	53.796219 
1389.000000	53.775644 
1388.000000	53.756666 
1387.000000	53.739547 
1386.000000	53.724575 
1385.000000	53.712105 
1384.000000	53.702473 
1383.000000	53.695797 
1382.000000	53.691792 
1381.000000	53.689765 
1380.000000	53.688478 
1379.000000	53.686618 
1378.000000	53.682851 
1377.000000	53.676104 
1376.000000	53.665804 
1375.000000	53.652215 
1374.000000	53.636312 
1373.000000	53.619647 
1372.000000	53.604030 
1371.000000	53.591108 
1370.000000	53.582143 
1369.000000	53.577709 
1368.000000	53.577566 
1367.000000	53.580760 
1366.000000	53.585720 
1365.000000	53.590774 
1364.000000	53.594279 
1363.000000	53.594875 
1362.000000	53.591704 
1361.000000	53.584527 
1360.000000	53.573560 
1359.000000	53.559613 
1358.000000	53.543925 
1357.000000	53.528070 
1356.000000	53.513908 
1355.000000	53.503346 
1354.000000	53.498196 
1353.000000	53.499937 
1352.000000	53.509473 
1351.000000	53.526782 
1350.000000	53.551030 
1349.000000	53.580141 
1348.000000	53.611493 
1347.000000	53.641796 
1346.000000	53.667950 
1345.000000	53.687262 
1344.000000	53.697919 
1343.000000	53.699159 
1342.000000	53.691387 
1341.000000	53.675937 
1340.000000	53.654789 
1339.000000	53.630256 
1338.000000	53.604578 
1337.000000	53.579545 
1336.000000	53.556561 
1335.000000	53.536224 
1334.000000	53.518676 
1333.000000	53.503489 
1332.000000	53.490042 
1331.000000	53.477740 
1330.000000	53.466391 
1329.000000	53.456115 
1328.000000	53.447389 
1327.000000	53.440880 
1326.000000	53.437232 
1325.000000	53.436875 
1324.000000	53.439569 
1323.000000	53.444457 
1322.000000	53.449892 
1321.000000	53.453922 
1320.000000	53.454613 
1319.000000	53.450274 
1318.000000	53.440093 
1317.000000	53.424072 
1316.000000	53.403449 
1315.000000	53.380250 
1314.000000	53.356933 
1313.000000	53.335905 
1312.000000	53.318691 
1311.000000	53.305959 
1310.000000	53.297281 
1309.000000	53.291201 
1308.000000	53.285670 
1307.000000	53.278613 
1306.000000	53.268361 
1305.000000	53.254270 
1304.000000	53.236651 
1303.000000	53.216791 
1302.000000	53.196501 
1301.000000	53.177928 
1300.000000	53.162717 
1299.000000	53.152012 
1298.000000	53.146171 
1297.000000	53.144979 
1296.000000	53.147721 
1295.000000	53.153491 
1294.000000	53.161334 
1293.000000	53.170466 
1292.000000	53.179931 
1291.000000	53.188920 
1290.000000	53.196334 
1289.000000	53.201293 
1288.000000	53.202986 
1287.000000	53.200912 
1286.000000	53.195118 
1285.000000	53.186202 
1284.000000	53.175044 
1283.000000	53.162741 
1282.000000	53.150296 
1281.000000	53.138089 
1280.000000	53.126001 
1279.000000	53.113484 
1278.000000	53.099918 
1277.000000	53.084778 
1276.000000	53.068041 
1275.000000	53.050327 
1274.000000	53.032755 
1273.000000	53.016686 
1272.000000	53.003382 
1271.000000	52.993488 
1270.000000	52.986907 
1269.000000	52.982926 
1268.000000	52.980375 
1267.000000	52.978157 
1266.000000	52.975463 
1265.000000	52.972340 
1264.000000	52.969312 
1263.000000	52.967095 
1262.000000	52.966213 
1261.000000	52.966642 
1260.000000	52.967476 
1259.000000	52.967000 
1258.000000	52.963399 
1257.000000	52.955484 
1256.000000	52.943086 
1255.000000	52.927398 
1254.000000	52.910804 
1253.000000	52.896261 
1252.000000	52.886509 
1251.000000	52.883315 
1250.000000	52.886843 
1249.000000	52.895593 
1248.000000	52.906894 
1247.000000	52.917313 
1246.000000	52.923727 
1245.000000	52.923989 
1244.000000	52.917361 
1243.000000	52.904677 
1242.000000	52.888035 
1241.000000	52.869868 
1240.000000	52.852797 
1239.000000	52.838230 
1238.000000	52.826499 
1237.000000	52.816510 
1236.000000	52.806496 
1235.000000	52.794337 
1234.000000	52.778244 
1233.000000	52.757334 
1232.000000	52.732062 
1231.000000	52.704191 
1230.000000	52.676439 
1229.000000	52.651882 
1228.000000	52.633070 
1227.000000	52.621436 
1226.000000	52.616834 
1225.000000	52.617669 
1224.000000	52.621245 
1223.000000	52.624750 
1222.000000	52.625775 
1221.000000	52.623176 
1220.000000	52.617096 
1219.000000	52.608656 
1218.000000	52.599859 
1217.000000	52.592420 
1216.000000	52.587842 
1215.000000	52.586722 
1214.000000	52.589106 
1213.000000	52.594423 
1212.000000	52.602028 
1211.000000	52.611374 
1210.000000	52.622079 
1209.000000	52.634024 
1208.000000	52.646708 
1207.000000	52.659106 
1206.000000	52.669548 
1205.000000	52.676081 
1204.000000	52.676725 
1203.000000	52.670025 
1202.000000	52.655792 
1201.000000	52.635049 
1200.000000	52.609896 
1199.000000	52.582931 
1198.000000	52.556657 
1197.000000	52.532935 
1196.000000	52.512717 
1195.000000	52.496075 
1194.000000	52.482342 
1193.000000	52.470612 
1192.000000	52.460169 
1191.000000	52.450966 
1190.000000	52.443051 
1189.000000	52.436971 
1188.000000	52.433228 
1187.000000	52.432084 
1186.000000	52.433085 
1185.000000	52.435612 
1184.000000	52.438545 
1183.000000	52.440857 
1182.000000	52.441883 
1181.000000	52.441501 
1180.000000	52.439951 
1179.000000	52.437639 
1178.000000	52.435135 
1177.000000	52.432632 
1176.000000	52.429890 
1175.000000	52.426218 
1174.000000	52.420592 
1173.000000	52.411770 
1172.000000	52.398633 
1171.000000	52.380609 
1170.000000	52.357697 
1169.000000	52.330374 
1168.000000	52.299547 
1167.000000	52.266550 
1166.000000	52.232861 
1165.000000	52.199935 
1164.000000	52.168941 
1163.000000	52.140688 
1162.000000	52.115488 
1161.000000	52.093124 
1160.000000	52.073359 
1159.000000	52.055382 
1158.000000	52.039146 
1157.000000	52.024984 
1156.000000	52.014112 
1155.000000	52.008080 
1154.000000	52.008605 
1153.000000	52.016663 
1152.000000	52.032279 
1151.000000	52.053856 
1150.000000	52.078676 
1149.000000	52.103519 
1148.000000	52.125096 
1147.000000	52.140998 
1146.000000	52.150249 
1145.000000	52.153325 
1144.000000	52.152109 
1143.000000	52.149057 
1142.000000	52.146458 
1141.000000	52.145433 
1140.000000	52.146100 
1139.000000	52.147078 
1138.000000	52.146196 
1137.000000	52.140927 
1136.000000	52.129650 
1135.000000	52.111792 
1134.000000	52.088117 
1133.000000	52.060604 
1132.000000	52.031970 
1131.000000	52.005100 
1130.000000	51.982235 
1129.000000	51.964449 
1128.000000	51.951670 
1127.000000	51.942563 
1126.000000	51.935148 
1125.000000	51.927113 
1124.000000	51.916408 
1123.000000	51.901888 
1122.000000	51.883506 
1121.000000	51.862287 
1120.000000	51.840329 
1119.000000	51.820230 
1118.000000	51.804637 
1117.000000	51.795673 
1116.000000	51.794481 
1115.000000	51.801037 
1114.000000	51.814150 
1113.000000	51.831555 
1112.000000	51.850390 
1111.000000	51.867842 
1110.000000	51.881575 
1109.000000	51.890134 
1108.000000	51.893186 
1107.000000	51.891040 
1106.000000	51.884627 
1105.000000	51.875162 
1104.000000	51.863431 
1103.000000	51.849865 
1102.000000	51.834201 
1101.000000	51.815915 
1100.000000	51.794528 
1099.000000	51.770114 
1098.000000	51.743650 
1097.000000	51.716947 
1096.000000	51.692581 
1095.000000	51.673245 
1094.000000	51.661372 
1093.000000	51.658511 
1092.000000	51.665115 
1091.000000	51.680397 
1090.000000	51.702284 
1089.000000	51.727962 
1088.000000	51.753950 
1087.000000	51.777100 
1086.000000	51.794576 
1085.000000	51.804924 
1084.000000	51.808357 
1083.000000	51.806664 
1082.000000	51.803064 
1081.000000	51.800847 
1080.000000	51.803064 
1079.000000	51.810741 
1078.000000	51.823163 
1077.000000	51.837086 
1076.000000	51.847839 
1075.000000	51.850152 
1074.000000	51.839923 
1073.000000	51.815104 
1072.000000	51.776432 
1071.000000	51.727652 
1070.000000	51.674723 
1069.000000	51.624298 
1068.000000	51.582145 
1067.000000	51.551866 
1066.000000	51.534199 
1065.000000	51.527118 
1064.000000	51.526403 
1063.000000	51.526999 
1062.000000	51.524281 
1061.000000	51.515007 
1060.000000	51.498103 
1059.000000	51.474046 
1058.000000	51.444792 
1057.000000	51.413130 
1056.000000	51.382279 
1055.000000	51.354622 
1054.000000	51.331686 
1053.000000	51.314115 
1052.000000	51.301813 
1051.000000	51.294112 
1050.000000	51.290559 
1049.000000	51.290750 
1048.000000	51.294922 
1047.000000	51.303339 
1046.000000	51.316523 
1045.000000	51.334524 
1044.000000	51.357030 
1043.000000	51.382923 
1042.000000	51.410508 
1041.000000	51.437568 
1040.000000	51.461815 
1039.000000	51.480960 
1038.000000	51.492929 
1037.000000	51.496028 
1036.000000	51.489233 
1035.000000	51.472187 
1034.000000	51.445364 
1033.000000	51.409792 
1032.000000	51.367545 
1031.000000	51.321315 
1030.000000	51.274681 
1029.000000	51.231360 
1028.000000	51.195096 
1027.000000	51.168847 
1026.000000	51.153850 
1025.000000	51.149916 
1024.000000	51.155185 
1023.000000	51.166582 
1022.000000	51.180601 
1021.000000	51.193833 
1020.000000	51.203846 
1019.000000	51.208949 
1018.000000	51.208329 
1017.000000	51.201629 
1016.000000	51.188516 
1015.000000	51.168847 
1014.000000	51.142358 
1013.000000	51.109123 
1012.000000	51.069760 
1011.000000	51.025843 
1010.000000	50.979995 
1009.000000	50.935411 
1008.000000	50.895428 
1007.000000	50.862812 
1006.000000	50.839400 
1005.000000	50.825452 
1004.000000	50.820374 
1003.000000	50.822758 
1002.000000	50.831389 
1001.000000	50.845289 
1000.000000	50.864195 
999.000000	 50.887727 
998.000000	 50.915312 
997.000000	 50.945782 
996.000000	 50.977015 
995.000000	 51.006150 
994.000000	 51.029849 
993.000000	 51.045465 
992.000000	 51.050949 
991.000000	 51.045608 
990.000000	 51.029944 
989.000000	 51.005768 
988.000000	 50.975418 
987.000000	 50.941443 
986.000000	 50.906276 
985.000000	 50.872015 
984.000000	 50.840258 
983.000000	 50.812149 
982.000000	 50.788664 
981.000000	 50.770425 
980.000000	 50.757384 
979.000000	 50.748968 
978.000000	 50.743722 
977.000000	 50.740051 
976.000000	 50.736284 
975.000000	 50.731539 
974.000000	 50.725507 
973.000000	 50.719070 
972.000000	 50.713562 
971.000000	 50.710821 
970.000000	 50.712180 
969.000000	 50.718188 
968.000000	 50.728368 
967.000000	 50.741314 
966.000000	 50.754928 
965.000000	 50.767111 
964.000000	 50.776338 
963.000000	 50.781965 
962.000000	 50.784325 
961.000000	 50.784492 
960.000000	 50.784206 
959.000000	 50.785160 
958.000000	 50.788640 
957.000000	 50.795435 
956.000000	 50.805521 
955.000000	 50.818300 
954.000000	 50.832295 
953.000000	 50.845432 
952.000000	 50.855135 
951.000000	 50.858426 
950.000000	 50.852656 
949.000000	 50.835895 
948.000000	 50.807833 
947.000000	 50.769805 
946.000000	 50.725197 
945.000000	 50.679063 
944.000000	 50.637388 
943.000000	 50.605750 
942.000000	 50.588083 
941.000000	 50.586128 
940.000000	 50.598478 
939.000000	 50.621151 
938.000000	 50.648331 
937.000000	 50.673460 
936.000000	 50.690698 
935.000000	 50.696516 
934.000000	 50.689601 
933.000000	 50.670742 
932.000000	 50.642323 
931.000000	 50.607395 
930.000000	 50.568652 
929.000000	 50.527548 
928.000000	 50.484514 
927.000000	 50.438928 
926.000000	 50.390100 
925.000000	 50.337576 
924.000000	 50.281977 
923.000000	 50.224852 
922.000000	 50.168466 
921.000000	 50.115323 
920.000000	 50.067114 
919.000000	 50.024867 
918.000000	 49.988412 
917.000000	 49.957561 
916.000000	 49.931383 
915.000000	 49.910211 
914.000000	 49.895262 
913.000000	 49.889445 
912.000000	 49.896025 
911.000000	 49.918985 
910.000000	 49.961280 
909.000000	 50.024127 
908.000000	 50.105905 
907.000000	 50.201630 
906.000000	 50.303268 
905.000000	 50.400733 
904.000000	 50.483703 
903.000000	 50.543093 
902.000000	 50.573015 
901.000000	 50.572037 
900.000000	 50.543236 
899.000000	 50.493192 
898.000000	 50.430107 
897.000000	 50.363135 
896.000000	 50.299811 
895.000000	 50.244879 
894.000000	 50.199484 
893.000000	 50.162816 
892.000000	 50.131773 
891.000000	 50.102782 
890.000000	 50.072383 
889.000000	 50.038456 
888.000000	 50.000381 
887.000000	 49.959087 
886.000000	 49.916720 
885.000000	 49.875330 
884.000000	 49.837708 
883.000000	 49.806141 
882.000000	 49.783062 
881.000000	 49.770331 
880.000000	 49.769663 
879.000000	 49.782252 
878.000000	 49.808335 
877.000000	 49.846720 
876.000000	 49.895429 
875.000000	 49.951672 
874.000000	 50.011801 
873.000000	 50.071954 
872.000000	 50.129008 
871.000000	 50.180983 
870.000000	 50.227451 
869.000000	 50.269079 
868.000000	 50.307488 
867.000000	 50.343513 
866.000000	 50.377678 
865.000000	 50.407934 
864.000000	 50.430178 
863.000000	 50.438213 
862.000000	 50.425457 
861.000000	 50.386977 
860.000000	 50.321650 
859.000000	 50.233101 
858.000000	 50.129818 
857.000000	 50.023865 
856.000000	 49.928784 
855.000000	 49.856162 
854.000000	 49.813342 
853.000000	 49.800729 
852.000000	 49.812030 
851.000000	 49.835896 
850.000000	 49.859166 
849.000000	 49.870252 
848.000000	 49.862790 
847.000000	 49.836778 
846.000000	 49.798917 
845.000000	 49.760603 
844.000000	 49.734520 
843.000000	 49.730873 
842.000000	 49.754238 
841.000000	 49.803066 
840.000000	 49.868369 
839.000000	 49.937486 
838.000000	 49.994516 
837.000000	 50.025391 
836.000000	 50.019001 
835.000000	 49.969673 
834.000000	 49.877548 
833.000000	 49.747896 
832.000000	 49.591159 
831.000000	 49.420285 
830.000000	 49.250769 
829.000000	 49.098539 
828.000000	 48.978567 
827.000000	 48.902988 
826.000000	 48.878645 
825.000000	 48.906373 
824.000000	 48.979663 
823.000000	 49.085855 
822.000000	 49.208426 
821.000000	 49.329996 
820.000000	 49.435281 
819.000000	 49.513602 
818.000000	 49.560213 
817.000000	 49.576354 
816.000000	 49.567556 
815.000000	 49.542045 
814.000000	 49.508929 
813.000000	 49.476099 
812.000000	 49.449992 
811.000000	 49.433755 
810.000000	 49.428558 
809.000000	 49.432539 
808.000000	 49.443268 
807.000000	 49.456930 
806.000000	 49.470400 
805.000000	 49.480319 
804.000000	 49.483966 
803.000000	 49.478507 
802.000000	 49.460959 
801.000000	 49.428796 
800.000000	 49.380636 
799.000000	 49.316453 
798.000000	 49.237918 
797.000000	 49.149155 
796.000000	 49.056410 
795.000000	 48.966836 
794.000000	 48.887348 
793.000000	 48.823285 
792.000000	 48.777675 
791.000000	 48.751020 
790.000000	 48.741483 
789.000000	 48.744916 
788.000000	 48.756003 
787.000000	 48.769664 
786.000000	 48.781657 
785.000000	 48.788475 
784.000000	 48.788213 
783.000000	 48.779749 
782.000000	 48.763585 
781.000000	 48.740839 
780.000000	 48.713922 
779.000000	 48.685479 
778.000000	 48.658752 
777.000000	 48.637247 
776.000000	 48.623657 
775.000000	 48.619461 
774.000000	 48.624372 
773.000000	 48.636221 
772.000000	 48.651504 
771.000000	 48.666048 
770.000000	 48.675966 
769.000000	 48.678636 
768.000000	 48.673200 
767.000000	 48.660731 
766.000000	 48.643755 
765.000000	 48.625493 
764.000000	 48.608779 
763.000000	 48.595237 
762.000000	 48.585128 
761.000000	 48.577165 
760.000000	 48.569178 
759.000000	 48.558974 
758.000000	 48.545193 
757.000000	 48.528122 
756.000000	 48.509955 
755.000000	 48.494625 
754.000000	 48.486375 
753.000000	 48.489165 
752.000000	 48.505163 
751.000000	 48.534178 
750.000000	 48.573327 
749.000000	 48.617482 
748.000000	 48.660278 
747.000000	 48.695254 
746.000000	 48.717331 
745.000000	 48.723363 
744.000000	 48.712849 
743.000000	 48.687362 
742.000000	 48.650002 
741.000000	 48.604583 
740.000000	 48.554730 
739.000000	 48.503184 
738.000000	 48.451328 
737.000000	 48.399782 
736.000000	 48.348450 
735.000000	 48.297142 
734.000000	 48.246049 
733.000000	 48.195743 
732.000000	 48.147654 
731.000000	 48.103570 
730.000000	 48.065567 
729.000000	 48.035335 
728.000000	 48.014473 
727.000000	 48.003602 
726.000000	 48.002791 
725.000000	 48.011207 
724.000000	 48.027157 
723.000000	 48.048019 
722.000000	 48.070359 
721.000000	 48.090386 
720.000000	 48.103976 
719.000000	 48.107147 
718.000000	 48.096728 
717.000000	 48.070979 
716.000000	 48.029756 
715.000000	 47.974681 
714.000000	 47.908830 
713.000000	 47.836518 
712.000000	 47.762489 
711.000000	 47.691321 
710.000000	 47.626781 
709.000000	 47.571873 
708.000000	 47.528409 
707.000000	 47.497606 
706.000000	 47.479844 
705.000000	 47.475528 
704.000000	 47.484588 
703.000000	 47.506737 
702.000000	 47.540807 
701.000000	 47.584509 
700.000000	 47.634220 
699.000000	 47.684812 
698.000000	 47.729992 
697.000000	 47.763133 
696.000000	 47.778439 
695.000000	 47.771954 
694.000000	 47.742486 
693.000000	 47.692036 
692.000000	 47.625827 
691.000000	 47.551345 
690.000000	 47.477245 
689.000000	 47.411465 
688.000000	 47.359871 
687.000000	 47.324872 
686.000000	 47.305274 
685.000000	 47.296595 
684.000000	 47.292327 
683.000000	 47.285509 
682.000000	 47.270798 
681.000000	 47.245478 
680.000000	 47.210478 
679.000000	 47.169375 
678.000000	 47.127819 
677.000000	 47.091650 
676.000000	 47.065854 
675.000000	 47.052907 
674.000000	 47.052526 
673.000000	 47.061944 
672.000000	 47.076606 
671.000000	 47.091579 
670.000000	 47.102522 
669.000000	 47.106623 
668.000000	 47.102856 
667.000000	 47.092318 
666.000000	 47.077155 
665.000000	 47.059845 
664.000000	 47.042107 
663.000000	 47.024631 
662.000000	 47.006916 
661.000000	 46.987915 
660.000000	 46.966242 
659.000000	 46.941113 
658.000000	 46.913003 
657.000000	 46.883630 
656.000000	 46.855521 
655.000000	 46.831250 
654.000000	 46.812677 
653.000000	 46.800470 
652.000000	 46.793985 
651.000000	 46.791386 
650.000000	 46.790075 
649.000000	 46.787285 
648.000000	 46.780753 
647.000000	 46.768951 
646.000000	 46.751451 
645.000000	 46.728682 
644.000000	 46.701216 
643.000000	 46.670222 
642.000000	 46.636891 
641.000000	 46.603012 
640.000000	 46.570801 
639.000000	 46.543240 
638.000000	 46.523475 
637.000000	 46.514534 
636.000000	 46.518540 
635.000000	 46.535921 
634.000000	 46.564865 
633.000000	 46.601223 
632.000000	 46.638870 
631.000000	 46.670675 
630.000000	 46.689510 
629.000000	 46.689963 
628.000000	 46.669101 
627.000000	 46.626973 
626.000000	 46.566772 
625.000000	 46.494460 
624.000000	 46.417737 
623.000000	 46.344518 
622.000000	 46.281957 
621.000000	 46.236062 
620.000000	 46.210169 
619.000000	 46.205139 
618.000000	 46.218609 
617.000000	 46.245908 
616.000000	 46.280503 
615.000000	 46.315002 
614.000000	 46.342945 
613.000000	 46.359419 
612.000000	 46.362638 
611.000000	 46.353530 
610.000000	 46.335196 
609.000000	 46.311664 
608.000000	 46.286511 
607.000000	 46.261763 
606.000000	 46.237659 
605.000000	 46.212601 
604.000000	 46.184206 
603.000000	 46.149587 
602.000000	 46.106910 
601.000000	 46.055173 
600.000000	 45.994758 
599.000000	 45.926833 
598.000000	 45.853209 
597.000000	 45.775699 
596.000000	 45.695614 
595.000000	 45.614147 
594.000000	 45.531845 
593.000000	 45.450067 
592.000000	 45.370864 
591.000000	 45.298123 
590.000000	 45.236968 
589.000000	 45.193338 
588.000000	 45.172476 
587.000000	 45.177078 
586.000000	 45.205807 
585.000000	 45.252776 
584.000000	 45.308041 
583.000000	 45.359659 
582.000000	 45.396327 
581.000000	 45.409679 
580.000000	 45.395922 
579.000000	 45.356535 
578.000000	 45.297527 
577.000000	 45.227456 
576.000000	 45.155429 
575.000000	 45.089578 
574.000000	 45.035386 
573.000000	 44.995594 
572.000000	 44.970035 
571.000000	 44.956636 
570.000000	 44.952225 
569.000000	 44.953751 
568.000000	 44.958615 
567.000000	 44.964623 
566.000000	 44.970393 
565.000000	 44.974446 
564.000000	 44.976091 
563.000000	 44.974780 
562.000000	 44.970655 
561.000000	 44.964313 
560.000000	 44.956851 
559.000000	 44.949793 
558.000000	 44.944381 
557.000000	 44.941735 
556.000000	 44.941568 
555.000000	 44.942069 
554.000000	 44.940233 
553.000000	 44.931983 
552.000000	 44.912958 
551.000000	 44.879531 
550.000000	 44.829201 
549.000000	 44.761824 
548.000000	 44.680285 
547.000000	 44.590783 
546.000000	 44.501805 
545.000000	 44.423055 
544.000000	 44.363927 
543.000000	 44.331097 
542.000000	 44.327759 
541.000000	 44.351243 
540.000000	 44.393539 
539.000000	 44.441962 
538.000000	 44.480967 
537.000000	 44.496273 
536.000000	 44.477438 
535.000000	 44.421482 
534.000000	 44.332408 
533.000000	 44.222545 
532.000000	 44.109439 
531.000000	 44.012427 
530.000000	 43.947887 
529.000000	 43.925666 
528.000000	 43.947052 
527.000000	 44.003868 
526.000000	 44.080686 
525.000000	 44.157576 
524.000000	 44.215035 
523.000000	 44.237852 
522.000000	 44.218564 
521.000000	 44.158434 
520.000000	 44.066953 
519.000000	 43.959116 
518.000000	 43.851780 
517.000000	 43.760275 
516.000000	 43.694138 
515.000000	 43.657279 
514.000000	 43.645501 
513.000000	 43.649244 
512.000000	 43.654799 
511.000000	 43.649077 
510.000000	 43.621253 
509.000000	 43.565607 
508.000000	 43.482017 
507.000000	 43.375325 
506.000000	 43.254280 
505.000000	 43.128633 
504.000000	 43.007898 
503.000000	 42.899274 
502.000000	 42.807912 
501.000000	 42.737078 
500.000000	 42.688226 
499.000000	 42.661404 
498.000000	 42.656040 
497.000000	 42.670774 
496.000000	 42.702221 
495.000000	 42.744922 
494.000000	 42.791128 
493.000000	 42.832612 
492.000000	 42.861032 
491.000000	 42.870664 
490.000000	 42.859458 
489.000000	 42.829942 
488.000000	 42.789220 
487.000000	 42.746329 
486.000000	 42.709565 
485.000000	 42.684745 
484.000000	 42.673468 
483.000000	 42.673945 
482.000000	 42.682242 
481.000000	 42.693710 
480.000000	 42.706012 
479.000000	 42.717146 
478.000000	 42.726039 
477.000000	 42.729735 
476.000000	 42.723536 
475.000000	 42.698740 
474.000000	 42.644309 
473.000000	 42.549085 
472.000000	 42.405581 
471.000000	 42.213416 
470.000000	 41.981697 
469.000000	 41.728520 
468.000000	 41.479182 
467.000000	 41.262483 
466.000000	 41.104745 
465.000000	 41.023540 
464.000000	 41.024017 
463.000000	 41.097521 
462.000000	 41.223406 
461.000000	 41.373515 
460.000000	 41.518020 
459.000000	 41.629242 
458.000000	 41.689419 
457.000000	 41.691398 
456.000000	 41.641449 
455.000000	 41.554713 
454.000000	 41.453027 
453.000000	 41.358470 
452.000000	 41.289043 
451.000000	 41.256093 
450.000000	 41.260814 
449.000000	 41.295933 
448.000000	 41.346979 
447.000000	 41.397023 
446.000000	 41.429018 
445.000000	 41.429638 
444.000000	 41.388416 
443.000000	 41.299772 
442.000000	 41.161394 
441.000000	 40.976357 
440.000000	 40.752959 
439.000000	 40.507173 
438.000000	 40.258383 
437.000000	 40.031886 
436.000000	 39.856529 
435.000000	 39.761519 
434.000000	 39.769387 
433.000000	 39.891839 
432.000000	 40.126848 
431.000000	 40.454721 
430.000000	 40.841269 
429.000000	 41.238951 
428.000000	 41.593265 
427.000000	 41.852450 
426.000000	 41.978240 
425.000000	 41.950654 
424.000000	 41.768503 
423.000000	 41.456627 
422.000000	 41.062045 
421.000000	 40.644097 
420.000000	 40.262269 
419.000000	 39.970278 
418.000000	 39.805603 
417.000000	 39.776587 
416.000000	 39.859819 
415.000000	 40.004396 
414.000000	 40.141987 
413.000000	 40.200757 
412.000000	 40.120768 
411.000000	 39.868831 
410.000000	 39.446282 
409.000000	 38.872361 
408.000000	 38.194179 
407.000000	 37.484121 
406.000000	 36.827778 
405.000000	 36.290168 
404.000000	 35.928130 
403.000000	 35.784649 
402.000000	 35.887026 
401.000000	 36.236310 
400.000000	 36.819052 
399.000000	 37.600803 
398.000000	 38.540673 
397.000000	 39.584302 
396.000000	 40.685439 
395.000000	 41.802668 
394.000000	 42.908215 
393.000000	 43.982839 
392.000000	 45.003795 
391.000000	 45.937728 
390.000000	 46.735835 
389.000000	 47.343277 
388.000000	 47.694826 
387.000000	 47.751998 
386.000000	 47.518920 
385.000000	 47.088098 
384.000000	 46.616196 
383.000000	 46.346998 
382.000000	 46.585083 
381.000000	 47.623968 
380.000000	 49.719238 
379.000000	 52.957081 
378.000000	 57.144951 
377.000000	 61.879324 
376.000000	 66.651320 
375.000000	 70.926046 
374.000000	 74.219274 
373.000000	 76.261830 
372.000000	 77.096080 
371.000000	 76.981306 
370.000000	 76.335668 

