PE IR       SPECTRUM    SPECTRUM    ASCII       PEDS        1.60        
  -1
C-1AEE~1.ASC
17/05/02
12:07:57.00
17/05/02
12:07:57.00
tln
$C-4040-8_t0015$<tbV0>[2.5,-3.0,8.0,0.0,22,1,0]
370.000000
64









2002,4.07    
MIRTGS : RIGHTBACK : INTERNAL 2
MIR : ON : INTERNAL 2
OPTKBR

0.200000
8
8.000000
FILLER
RATIO
SPECTRUM
UNLOCKED 256

DOUBLE
64
COMBINED
1
0
0


1.000000
RATIO


1
0
TRUE
51149
0
LEFT NOT FITTED RIGHT NOT FITTED 0
NONE
NONE
15600
12.000000
4.427000
51148
TRUE
1 0 8 72 0 0 0 0 

15798.010000






#HDR
-1
-1
#GR
CM-1
%T
0.00002384185791015625
0.0
7800.000000
-1.000000
7431
8
94.455885
30.762624
#DATA
7800.000000	64.297413 
7799.000000	65.577983 
7798.000000	66.899895 
7797.000000	68.206810 
7796.000000	69.458079 
7795.000000	70.615625 
7794.000000	71.634054 
7793.000000	72.454619 
7792.000000	73.017072 
7791.000000	73.271799 
7790.000000	73.206400 
7789.000000	72.852754 
7788.000000	72.290325 
7787.000000	71.629071 
7786.000000	70.994400 
7785.000000	70.493793 
7784.000000	70.200634 
7783.000000	70.132851 
7782.000000	70.256638 
7781.000000	70.492219 
7780.000000	70.753264 
7779.000000	70.949292 
7778.000000	71.011805 
7777.000000	70.895671 
7776.000000	70.572662 
7775.000000	70.048642 
7774.000000	69.345045 
7773.000000	68.523812 
7772.000000	67.671418 
7771.000000	66.905784 
7770.000000	66.361165 
7769.000000	66.148638 
7768.000000	66.332411 
7767.000000	66.896009 
7766.000000	67.740631 
7765.000000	68.712377 
7764.000000	69.639611 
7763.000000	70.377349 
7762.000000	70.841312 
7761.000000	71.032142 
7760.000000	71.019697 
7759.000000	70.919084 
7758.000000	70.836400 
7757.000000	70.832920 
7756.000000	70.892167 
7755.000000	70.921206 
7754.000000	70.782470 
7753.000000	70.341587 
7752.000000	69.527626 
7751.000000	68.363642 
7750.000000	66.992378 
7749.000000	65.648221 
7748.000000	64.613795 
7747.000000	64.141297 
7746.000000	64.395952 
7745.000000	65.404438 
7744.000000	67.047953 
7743.000000	69.088125 
7742.000000	71.214032 
7741.000000	73.111772 
7740.000000	74.534463 
7739.000000	75.351357 
7738.000000	75.567317 
7737.000000	75.305128 
7736.000000	74.772667 
7735.000000	74.194717 
7734.000000	73.758220 
7733.000000	73.555731 
7732.000000	73.582053 
7731.000000	73.728418 
7730.000000	73.850131 
7729.000000	73.784947 
7728.000000	73.416137 
7727.000000	72.687149 
7726.000000	71.605086 
7725.000000	70.252251 
7724.000000	68.737149 
7723.000000	67.214298 
7722.000000	65.847659 
7721.000000	64.798569 
7720.000000	64.202523 
7719.000000	64.137268 
7718.000000	64.605593 
7717.000000	65.532064 
7716.000000	66.767740 
7715.000000	68.136954 
7714.000000	69.466853 
7713.000000	70.635795 
7712.000000	71.587300 
7711.000000	72.338843 
7710.000000	72.954869 
7709.000000	73.508858 
7708.000000	74.041342 
7707.000000	74.538564 
7706.000000	74.922180 
7705.000000	75.078606 
7704.000000	74.885892 
7703.000000	74.267673 
7702.000000	73.212981 
7701.000000	71.814179 
7700.000000	70.229768 
7699.000000	68.649077 
7698.000000	67.248153 
7697.000000	66.140961 
7696.000000	65.374159 
7695.000000	64.924573 
7694.000000	64.725303 
7693.000000	64.698958 
7692.000000	64.778518 
7691.000000	64.921522 
7690.000000	65.115094 
7689.000000	65.358567 
7688.000000	65.660691 
7687.000000	66.016817 
7686.000000	66.413736 
7685.000000	66.822576 
7684.000000	67.219185 
7683.000000	67.588186 
7682.000000	67.926955 
7681.000000	68.244051 
7680.000000	68.556189 
7679.000000	68.880367 
7678.000000	69.218468 
7677.000000	69.559478 
7676.000000	69.888687 
7675.000000	70.186901 
7674.000000	70.449352 
7673.000000	70.670104 
7672.000000	70.848369 
7671.000000	70.972657 
7670.000000	71.024990 
7669.000000	70.976853 
7668.000000	70.793271 
7667.000000	70.451116 
7666.000000	69.955182 
7665.000000	69.341373 
7664.000000	68.676495 
7663.000000	68.046879 
7662.000000	67.542839 
7661.000000	67.234683 
7660.000000	67.156171 
7659.000000	67.295479 
7658.000000	67.597770 
7657.000000	67.978954 
7656.000000	68.345165 
7655.000000	68.615460 
7654.000000	68.736457 
7653.000000	68.687033 
7652.000000	68.478012 
7651.000000	68.133831 
7650.000000	67.690515 
7649.000000	67.187333 
7648.000000	66.665792 
7647.000000	66.164875 
7646.000000	65.722274 
7645.000000	65.383410 
7644.000000	65.184020 
7643.000000	65.149641 
7642.000000	65.277791 
7641.000000	65.536284 
7640.000000	65.861797 
7639.000000	66.163635 
7638.000000	66.353797 
7637.000000	66.359734 
7636.000000	66.160058 
7635.000000	65.790224 
7634.000000	65.340900 
7633.000000	64.932417 
7632.000000	64.695501 
7631.000000	64.736032 
7630.000000	65.105628 
7629.000000	65.783715 
7628.000000	66.683363 
7627.000000	67.664670 
7626.000000	68.564724 
7625.000000	69.228816 
7624.000000	69.541287 
7623.000000	69.445729 
7622.000000	68.954157 
7621.000000	68.137121 
7620.000000	67.103433 
7619.000000	65.974068 
7618.000000	64.860892 
7617.000000	63.846087 
7616.000000	62.981581 
7615.000000	62.286853 
7614.000000	61.751866 
7613.000000	61.367321 
7612.000000	61.126780 
7611.000000	61.056923 
7610.000000	61.205673 
7609.000000	61.639356 
7608.000000	62.410664 
7607.000000	63.536453 
7606.000000	64.972829 
7605.000000	66.607332 
7604.000000	68.267464 
7603.000000	69.764089 
7602.000000	70.925855 
7601.000000	71.642208 
7600.000000	71.877646 
7599.000000	71.667981 
7598.000000	71.100211 
7597.000000	70.286273 
7596.000000	69.334101 
7595.000000	68.332314 
7594.000000	67.341160 
7593.000000	66.402864 
7592.000000	65.550208 
7591.000000	64.826869 
7590.000000	64.286732 
7589.000000	63.989543 
7588.000000	63.989782 
7587.000000	64.315223 
7586.000000	64.954781 
7585.000000	65.844321 
7584.000000	66.874694 
7583.000000	67.903804 
7582.000000	68.782353 
7581.000000	69.382977 
7580.000000	69.616699 
7579.000000	69.447517 
7578.000000	68.899393 
7577.000000	68.050265 
7576.000000	67.020153 
7575.000000	65.949463 
7574.000000	64.983201 
7573.000000	64.244389 
7572.000000	63.823771 
7571.000000	63.758349 
7570.000000	64.029383 
7569.000000	64.559984 
7568.000000	65.232563 
7567.000000	65.906286 
7566.000000	66.439509 
7565.000000	66.717767 
7564.000000	66.669154 
7563.000000	66.278815 
7562.000000	65.586090 
7561.000000	64.674353 
7560.000000	63.644886 
7559.000000	62.606263 
7558.000000	61.648893 
7557.000000	60.850000 
7556.000000	60.266828 
7555.000000	59.945893 
7554.000000	59.921145 
7553.000000	60.219526 
7552.000000	60.854554 
7551.000000	61.814522 
7550.000000	63.051915 
7549.000000	64.485859 
7548.000000	66.005063 
7547.000000	67.480206 
7546.000000	68.781208 
7545.000000	69.800090 
7544.000000	70.464420 
7543.000000	70.757794 
7542.000000	70.708489 
7541.000000	70.379805 
7540.000000	69.847345 
7539.000000	69.193172 
7538.000000	68.481683 
7537.000000	67.767667 
7536.000000	67.080974 
7535.000000	66.447067 
7534.000000	65.875816 
7533.000000	65.376639 
7532.000000	64.952707 
7531.000000	64.600586 
7530.000000	64.316916 
7529.000000	64.095282 
7528.000000	63.932442 
7527.000000	63.826084 
7526.000000	63.771462 
7525.000000	63.756155 
7524.000000	63.765072 
7523.000000	63.780546 
7522.000000	63.787984 
7521.000000	63.778805 
7520.000000	63.754224 
7519.000000	63.724088 
7518.000000	63.707280 
7517.000000	63.723635 
7516.000000	63.784098 
7515.000000	63.885307 
7514.000000	64.014077 
7513.000000	64.144015 
7512.000000	64.240860 
7511.000000	64.268326 
7510.000000	64.200997 
7509.000000	64.025259 
7508.000000	63.747215 
7507.000000	63.385796 
7506.000000	62.964248 
7505.000000	62.512493 
7504.000000	62.058591 
7503.000000	61.635637 
7502.000000	61.275625 
7501.000000	61.017274 
7500.000000	60.901808 
7499.000000	60.965514 
7498.000000	61.229491 
7497.000000	61.693549 
7496.000000	62.330007 
7495.000000	63.088512 
7494.000000	63.900709 
7493.000000	64.691591 
7492.000000	65.389084 
7491.000000	65.934395 
7490.000000	66.288280 
7489.000000	66.434502 
7488.000000	66.379427 
7487.000000	66.149520 
7486.000000	65.784788 
7485.000000	65.339565 
7484.000000	64.867830 
7483.000000	64.420938 
7482.000000	64.036393 
7481.000000	63.742041 
7480.000000	63.548088 
7479.000000	63.449811 
7478.000000	63.432192 
7477.000000	63.472890 
7476.000000	63.553452 
7475.000000	63.660693 
7474.000000	63.791847 
7473.000000	63.951253 
7472.000000	64.142179 
7471.000000	64.359092 
7470.000000	64.583110 
7469.000000	64.781641 
7468.000000	64.915442 
7467.000000	64.947962 
7466.000000	64.856123 
7465.000000	64.639258 
7464.000000	64.320921 
7463.000000	63.948607 
7462.000000	63.580727 
7461.000000	63.280153 
7460.000000	63.105034 
7459.000000	63.097095 
7458.000000	63.273739 
7457.000000	63.623785 
7456.000000	64.111089 
7455.000000	64.679026 
7454.000000	65.259790 
7453.000000	65.787816 
7452.000000	66.207385 
7451.000000	66.486668 
7450.000000	66.618919 
7449.000000	66.623997 
7448.000000	66.540336 
7447.000000	66.415023 
7446.000000	66.294836 
7445.000000	66.210293 
7444.000000	66.171789 
7443.000000	66.169500 
7442.000000	66.181111 
7441.000000	66.184353 
7440.000000	66.167116 
7439.000000	66.134834 
7438.000000	66.108560 
7437.000000	66.114854 
7436.000000	66.175317 
7435.000000	66.294145 
7434.000000	66.454911 
7433.000000	66.624093 
7432.000000	66.758394 
7431.000000	66.818642 
7430.000000	66.778016 
7429.000000	66.632771 
7428.000000	66.400194 
7427.000000	66.112184 
7426.000000	65.809202 
7425.000000	65.528726 
7424.000000	65.300798 
7423.000000	65.139532 
7422.000000	65.050053 
7421.000000	65.032720 
7420.000000	65.084910 
7419.000000	65.204715 
7418.000000	65.386772 
7417.000000	65.620899 
7416.000000	65.888786 
7415.000000	66.163229 
7414.000000	66.420459 
7413.000000	66.643309 
7412.000000	66.828060 
7411.000000	66.981077 
7410.000000	67.117023 
7409.000000	67.247223 
7408.000000	67.371702 
7407.000000	67.472815 
7406.000000	67.520809 
7405.000000	67.477011 
7404.000000	67.310452 
7403.000000	67.003345 
7402.000000	66.558694 
7401.000000	66.004562 
7400.000000	65.390038 
7399.000000	64.780735 
7398.000000	64.243745 
7397.000000	63.840508 
7396.000000	63.615322 
7395.000000	63.587522 
7394.000000	63.748025 
7393.000000	64.061355 
7392.000000	64.475369 
7391.000000	64.921259 
7390.000000	65.324187 
7389.000000	65.612483 
7388.000000	65.727853 
7387.000000	65.633869 
7386.000000	65.320920 
7385.000000	64.807915 
7384.000000	64.139151 
7383.000000	63.376498 
7382.000000	62.591576 
7381.000000	61.853861 
7380.000000	61.225104 
7379.000000	60.754799 
7378.000000	60.477161 
7377.000000	60.405898 
7376.000000	60.538005 
7375.000000	60.852646 
7374.000000	61.318039 
7373.000000	61.882925 
7372.000000	62.497138 
7371.000000	63.107633 
7370.000000	63.678121 
7369.000000	64.183616 
7368.000000	64.623236 
7367.000000	65.012049 
7366.000000	65.377759 
7365.000000	65.752506 
7364.000000	66.153573 
7363.000000	66.576576 
7362.000000	66.993594 
7361.000000	67.361235 
7360.000000	67.632389 
7359.000000	67.770600 
7358.000000	67.766547 
7357.000000	67.639803 
7356.000000	67.432665 
7355.000000	67.194437 
7354.000000	66.973447 
7353.000000	66.795587 
7352.000000	66.656947 
7351.000000	66.521668 
7350.000000	66.340827 
7349.000000	66.061353 
7348.000000	65.647244 
7347.000000	65.089631 
7346.000000	64.409899 
7345.000000	63.661313 
7344.000000	62.915635 
7343.000000	62.252855 
7342.000000	61.733484 
7341.000000	61.402845 
7340.000000	61.282444 
7339.000000	61.370635 
7338.000000	61.642765 
7337.000000	62.060070 
7336.000000	62.575674 
7335.000000	63.140082 
7334.000000	63.706016 
7333.000000	64.239478 
7332.000000	64.723134 
7331.000000	65.160703 
7330.000000	65.572595 
7329.000000	65.993762 
7328.000000	66.457080 
7327.000000	66.989517 
7326.000000	67.589473 
7325.000000	68.227815 
7324.000000	68.836998 
7323.000000	69.334220 
7322.000000	69.624185 
7321.000000	69.629001 
7320.000000	69.298124 
7319.000000	68.631768 
7318.000000	67.675757 
7317.000000	66.517210 
7316.000000	65.270376 
7315.000000	64.056587 
7314.000000	62.988305 
7313.000000	62.151908 
7312.000000	61.602020 
7311.000000	61.359214 
7310.000000	61.411118 
7309.000000	61.718416 
7308.000000	62.223482 
7307.000000	62.858557 
7306.000000	63.555860 
7305.000000	64.254593 
7304.000000	64.904451 
7303.000000	65.469026 
7302.000000	65.930676 
7301.000000	66.286110 
7300.000000	66.542696 
7299.000000	66.708993 
7298.000000	66.797018 
7297.000000	66.810965 
7296.000000	66.750264 
7295.000000	66.607856 
7294.000000	66.383743 
7293.000000	66.082620 
7292.000000	65.723562 
7291.000000	65.334057 
7290.000000	64.950776 
7289.000000	64.609551 
7288.000000	64.339542 
7287.000000	64.157223 
7286.000000	64.060473 
7285.000000	64.037752 
7284.000000	64.071893 
7283.000000	64.148807 
7282.000000	64.259386 
7281.000000	64.407634 
7280.000000	64.606738 
7279.000000	64.871263 
7278.000000	65.207004 
7277.000000	65.603876 
7276.000000	66.030049 
7275.000000	66.436839 
7274.000000	66.763281 
7273.000000	66.948485 
7272.000000	66.942453 
7271.000000	66.722106 
7270.000000	66.294074 
7269.000000	65.695786 
7268.000000	64.988541 
7267.000000	64.244627 
7266.000000	63.538169 
7265.000000	62.934422 
7264.000000	62.481641 
7263.000000	62.206935 
7262.000000	62.114834 
7261.000000	62.191843 
7260.000000	62.407636 
7259.000000	62.718510 
7258.000000	63.076400 
7257.000000	63.430500 
7256.000000	63.742184 
7255.000000	63.985657 
7254.000000	64.156675 
7253.000000	64.267587 
7252.000000	64.344024 
7251.000000	64.413857 
7250.000000	64.496564 
7249.000000	64.595365 
7248.000000	64.695668 
7247.000000	64.769959 
7246.000000	64.784455 
7245.000000	64.714837 
7244.000000	64.557719 
7243.000000	64.338636 
7242.000000	64.108133 
7241.000000	63.933157 
7240.000000	63.881802 
7239.000000	64.002728 
7238.000000	64.313364 
7237.000000	64.788222 
7236.000000	65.360617 
7235.000000	65.938138 
7234.000000	66.425871 
7233.000000	66.746687 
7232.000000	66.858649 
7231.000000	66.765022 
7230.000000	66.511344 
7229.000000	66.170740 
7228.000000	65.823674 
7227.000000	65.536355 
7226.000000	65.345025 
7225.000000	65.251159 
7224.000000	65.225648 
7223.000000	65.221071 
7222.000000	65.187501 
7221.000000	65.087676 
7220.000000	64.906811 
7219.000000	64.651679 
7218.000000	64.349651 
7217.000000	64.034223 
7216.000000	63.741946 
7215.000000	63.496875 
7214.000000	63.315820 
7213.000000	63.207983 
7212.000000	63.178086 
7211.000000	63.230895 
7210.000000	63.367509 
7209.000000	63.584208 
7208.000000	63.867878 
7207.000000	64.192271 
7206.000000	64.521861 
7205.000000	64.814305 
7204.000000	65.030837 
7203.000000	65.143036 
7202.000000	65.140438 
7201.000000	65.033292 
7200.000000	64.848971 
7199.000000	64.625740 
7198.000000	64.404654 
7197.000000	64.220762 
7196.000000	64.097785 
7195.000000	64.044070 
7194.000000	64.053487 
7193.000000	64.108085 
7192.000000	64.185619 
7191.000000	64.263796 
7190.000000	64.323592 
7189.000000	64.353489 
7188.000000	64.347505 
7187.000000	64.308452 
7186.000000	64.241337 
7185.000000	64.157295 
7184.000000	64.071512 
7183.000000	64.001321 
7182.000000	63.961529 
7181.000000	63.964247 
7180.000000	64.016652 
7179.000000	64.119935 
7178.000000	64.270544 
7177.000000	64.457559 
7176.000000	64.664983 
7175.000000	64.870429 
7174.000000	65.048623 
7173.000000	65.173530 
7172.000000	65.222859 
7171.000000	65.181517 
7170.000000	65.045142 
7169.000000	64.821624 
7168.000000	64.530920 
7167.000000	64.201974 
7166.000000	63.869667 
7165.000000	63.567638 
7164.000000	63.327121 
7163.000000	63.172316 
7162.000000	63.121318 
7161.000000	63.182711 
7160.000000	63.357615 
7159.000000	63.639926 
7158.000000	64.014387 
7157.000000	64.457535 
7156.000000	64.935398 
7155.000000	65.402221 
7154.000000	65.809297 
7153.000000	66.109466 
7152.000000	66.270756 
7151.000000	66.281032 
7150.000000	66.157078 
7149.000000	65.941643 
7148.000000	65.697264 
7147.000000	65.493535 
7146.000000	65.389037 
7145.000000	65.418243 
7144.000000	65.579771 
7143.000000	65.836763 
7142.000000	66.124057 
7141.000000	66.364359 
7140.000000	66.488027 
7139.000000	66.450428 
7138.000000	66.239786 
7137.000000	65.881729 
7136.000000	65.427064 
7135.000000	64.946174 
7134.000000	64.506006 
7133.000000	64.166975 
7132.000000	63.973045 
7131.000000	63.949346 
7130.000000	64.105105 
7129.000000	64.429211 
7128.000000	64.896488 
7127.000000	65.463614 
7126.000000	66.072559 
7125.000000	66.656708 
7124.000000	67.147850 
7123.000000	67.488479 
7122.000000	67.638063 
7121.000000	67.587423 
7120.000000	67.360115 
7119.000000	67.008423 
7118.000000	66.602253 
7117.000000	66.211128 
7116.000000	65.888595 
7115.000000	65.661263 
7114.000000	65.524888 
7113.000000	65.449690 
7112.000000	65.390753 
7111.000000	65.306043 
7110.000000	65.167236 
7109.000000	64.965176 
7108.000000	64.713001 
7107.000000	64.434456 
7106.000000	64.162564 
7105.000000	63.925909 
7104.000000	63.747239 
7103.000000	63.637113 
7102.000000	63.596010 
7101.000000	63.616752 
7100.000000	63.686537 
7099.000000	63.792395 
7098.000000	63.919329 
7097.000000	64.051270 
7096.000000	64.170742 
7095.000000	64.258193 
7094.000000	64.296603 
7093.000000	64.273118 
7092.000000	64.184331 
7091.000000	64.037823 
7090.000000	63.852858 
7089.000000	63.657808 
7088.000000	63.485574 
7087.000000	63.367581 
7086.000000	63.328099 
7085.000000	63.378524 
7084.000000	63.518667 
7083.000000	63.732838 
7082.000000	63.992619 
7081.000000	64.259505 
7080.000000	64.491415 
7079.000000	64.650130 
7078.000000	64.706540 
7077.000000	64.648795 
7076.000000	64.482235 
7075.000000	64.232611 
7074.000000	63.937473 
7073.000000	63.645625 
7072.000000	63.406229 
7071.000000	63.264155 
7070.000000	63.253092 
7069.000000	63.388633 
7068.000000	63.665747 
7067.000000	64.059472 
7066.000000	64.530181 
7065.000000	65.026688 
7064.000000	65.494370 
7063.000000	65.886902 
7062.000000	66.172909 
7061.000000	66.339373 
7060.000000	66.390490 
7059.000000	66.344308 
7058.000000	66.225337 
7057.000000	66.060590 
7056.000000	65.872311 
7055.000000	65.674853 
7054.000000	65.475153 
7053.000000	65.280437 
7052.000000	65.098261 
7051.000000	64.941024 
7050.000000	64.822936 
7049.000000	64.759683 
7048.000000	64.760041 
7047.000000	64.823794 
7046.000000	64.934396 
7045.000000	65.060162 
7044.000000	65.157985 
7043.000000	65.183138 
7042.000000	65.097212 
7041.000000	64.878964 
7040.000000	64.526486 
7039.000000	64.058542 
7038.000000	63.509941 
7037.000000	62.925338 
7036.000000	62.350654 
7035.000000	61.827468 
7034.000000	61.387419 
7033.000000	61.053228 
7032.000000	60.841727 
7031.000000	60.767269 
7030.000000	60.839486 
7029.000000	61.063933 
7028.000000	61.437129 
7027.000000	61.943745 
7026.000000	62.551379 
7025.000000	63.211584 
7024.000000	63.861393 
7023.000000	64.432954 
7022.000000	64.863824 
7021.000000	65.108060 
7020.000000	65.146231 
7019.000000	64.987754 
7018.000000	64.671111 
7017.000000	64.253664 
7016.000000	63.802099 
7015.000000	63.379764 
7014.000000	63.038301 
7013.000000	62.810564 
7012.000000	62.710452 
7011.000000	62.733268 
7010.000000	62.861871 
7009.000000	63.065433 
7008.000000	63.307118 
7007.000000	63.547682 
7006.000000	63.754391 
7005.000000	63.904905 
7004.000000	63.992762 
7003.000000	64.030599 
7002.000000	64.043855 
7001.000000	64.062666 
7000.000000	64.110112 
6999.000000	64.197492 
6998.000000	64.315485 
6997.000000	64.440608 
6996.000000	64.534902 
6995.000000	64.558815 
6994.000000	64.478564 
6993.000000	64.279031 
6992.000000	63.966035 
6991.000000	63.565015 
6990.000000	63.119459 
6989.000000	62.680864 
6988.000000	62.301111 
6987.000000	62.021255 
6986.000000	61.867403 
6985.000000	61.846733 
6984.000000	61.949658 
6983.000000	62.153983 
6982.000000	62.426328 
6981.000000	62.729334 
6980.000000	63.027119 
6979.000000	63.292050 
6978.000000	63.509631 
6977.000000	63.678693 
6976.000000	63.811016 
6975.000000	63.922452 
6974.000000	64.027285 
6973.000000	64.128875 
6972.000000	64.217972 
6971.000000	64.272832 
6970.000000	64.268064 
6969.000000	64.181804 
6968.000000	64.005970 
6967.000000	63.750600 
6966.000000	63.446426 
6965.000000	63.137888 
6964.000000	62.873172 
6963.000000	62.694454 
6962.000000	62.627840 
6961.000000	62.678194 
6960.000000	62.828445 
6959.000000	63.045501 
6958.000000	63.288474 
6957.000000	63.520526 
6956.000000	63.717174 
6955.000000	63.869476 
6954.000000	63.983726 
6953.000000	64.075994 
6952.000000	64.165091 
6951.000000	64.268517 
6950.000000	64.395380 
6949.000000	64.546275 
6948.000000	64.710021 
6947.000000	64.870095 
6946.000000	65.003514 
6945.000000	65.090727 
6944.000000	65.113544 
6943.000000	65.061616 
6942.000000	64.929795 
6941.000000	64.721417 
6940.000000	64.445233 
6939.000000	64.114499 
6938.000000	63.747382 
6937.000000	63.365602 
6936.000000	62.995243 
6935.000000	62.664532 
6934.000000	62.401533 
6933.000000	62.230992 
6932.000000	62.166976 
6931.000000	62.209272 
6930.000000	62.340378 
6929.000000	62.527680 
6928.000000	62.727189 
6927.000000	62.893056 
6926.000000	62.985968 
6925.000000	62.983846 
6924.000000	62.889075 
6923.000000	62.729501 
6922.000000	62.550163 
6921.000000	62.403535 
6920.000000	62.338185 
6919.000000	62.385177 
6918.000000	62.550377 
6917.000000	62.812662 
6916.000000	63.130760 
6915.000000	63.452768 
6914.000000	63.731217 
6913.000000	63.931870 
6912.000000	64.039421 
6911.000000	64.060139 
6910.000000	64.016652 
6909.000000	63.940477 
6908.000000	63.860130 
6907.000000	63.797593 
6906.000000	63.764548 
6905.000000	63.762927 
6904.000000	63.788104 
6903.000000	63.835144 
6902.000000	63.902878 
6901.000000	63.991594 
6900.000000	64.100837 
6899.000000	64.225053 
6898.000000	64.350199 
6897.000000	64.451694 
6896.000000	64.498329 
6895.000000	64.456367 
6894.000000	64.301371 
6893.000000	64.026784 
6892.000000	63.651990 
6891.000000	63.219571 
6890.000000	62.792134 
6889.000000	62.439370 
6888.000000	62.224864 
6887.000000	62.190723 
6886.000000	62.349176 
6885.000000	62.680459 
6884.000000	63.135766 
6883.000000	63.646721 
6882.000000	64.140820 
6881.000000	64.554834 
6880.000000	64.847850 
6879.000000	65.004038 
6878.000000	65.036725 
6877.000000	64.979267 
6876.000000	64.877772 
6875.000000	64.777731 
6874.000000	64.713048 
6873.000000	64.698123 
6872.000000	64.727187 
6871.000000	64.777231 
6870.000000	64.817786 
6869.000000	64.819312 
6868.000000	64.761066 
6867.000000	64.636516 
6866.000000	64.454221 
6865.000000	64.235115 
6864.000000	64.004969 
6863.000000	63.789105 
6862.000000	63.604307 
6861.000000	63.458514 
6860.000000	63.351869 
6859.000000	63.278770 
6858.000000	63.229227 
6857.000000	63.196110 
6856.000000	63.177943 
6855.000000	63.179445 
6854.000000	63.207650 
6853.000000	63.270711 
6852.000000	63.371038 
6851.000000	63.507151 
6850.000000	63.672184 
6849.000000	63.851690 
6848.000000	64.024567 
6847.000000	64.166402 
6846.000000	64.253044 
6845.000000	64.262485 
6844.000000	64.179134 
6843.000000	63.995361 
6842.000000	63.715600 
6841.000000	63.356542 
6840.000000	62.949228 
6839.000000	62.533378 
6838.000000	62.157011 
6837.000000	61.867165 
6836.000000	61.707615 
6835.000000	61.708664 
6834.000000	61.885881 
6833.000000	62.236642 
6832.000000	62.738919 
6831.000000	63.351655 
6830.000000	64.019536 
6829.000000	64.681100 
6828.000000	65.272974 
6827.000000	65.738129 
6826.000000	66.032147 
6825.000000	66.129636 
6824.000000	66.026091 
6823.000000	65.739011 
6822.000000	65.305852 
6821.000000	64.779520 
6820.000000	64.222240 
6819.000000	63.696980 
6818.000000	63.258409 
6817.000000	62.945246 
6816.000000	62.774634 
6815.000000	62.742567 
6814.000000	62.822961 
6813.000000	62.980079 
6812.000000	63.175797 
6811.000000	63.383245 
6810.000000	63.586139 
6809.000000	63.786101 
6808.000000	63.993930 
6807.000000	64.226984 
6806.000000	64.496588 
6805.000000	64.804887 
6804.000000	65.140533 
6803.000000	65.480208 
6802.000000	65.796065 
6801.000000	66.058683 
6800.000000	66.247200 
6799.000000	66.349744 
6798.000000	66.368055 
6797.000000	66.312599 
6796.000000	66.201186 
6795.000000	66.051220 
6794.000000	65.876579 
6793.000000	65.686678 
6792.000000	65.486383 
6791.000000	65.279197 
6790.000000	65.068149 
6789.000000	64.855217 
6788.000000	64.641737 
6787.000000	64.430212 
6786.000000	64.222931 
6785.000000	64.019107 
6784.000000	63.817238 
6783.000000	63.614368 
6782.000000	63.410592 
6781.000000	63.207530 
6780.000000	63.013815 
6779.000000	62.838339 
6778.000000	62.697601 
6777.000000	62.610173 
6776.000000	62.596678 
6775.000000	62.671661 
6774.000000	62.842011 
6773.000000	63.102960 
6772.000000	63.435053 
6771.000000	63.805031 
6770.000000	64.169979 
6769.000000	64.484572 
6768.000000	64.707827 
6767.000000	64.810752 
6766.000000	64.784312 
6765.000000	64.641642 
6764.000000	64.417648 
6763.000000	64.161992 
6762.000000	63.929557 
6761.000000	63.767838 
6760.000000	63.711571 
6759.000000	63.772559 
6758.000000	63.938093 
6757.000000	64.173245 
6756.000000	64.431786 
6755.000000	64.665794 
6754.000000	64.835166 
6753.000000	64.917802 
6752.000000	64.911246 
6751.000000	64.833641 
6750.000000	64.715695 
6749.000000	64.593648 
6748.000000	64.499425 
6747.000000	64.452791 
6746.000000	64.460301 
6745.000000	64.510798 
6744.000000	64.582037 
6743.000000	64.644455 
6742.000000	64.671492 
6741.000000	64.642214 
6740.000000	64.546704 
6739.000000	64.391136 
6738.000000	64.197087 
6737.000000	63.996529 
6736.000000	63.825774 
6735.000000	63.719892 
6734.000000	63.704538 
6733.000000	63.792157 
6732.000000	63.977336 
6731.000000	64.237117 
6730.000000	64.534425 
6729.000000	64.827299 
6728.000000	65.075182 
6727.000000	65.245890 
6726.000000	65.320801 
6725.000000	65.298318 
6724.000000	65.189385 
6723.000000	65.016150 
6722.000000	64.800548 
6721.000000	64.563226 
6720.000000	64.312934 
6719.000000	64.049291 
6718.000000	63.762235 
6717.000000	63.440990 
6716.000000	63.077497 
6715.000000	62.673568 
6714.000000	62.242913 
6713.000000	61.811065 
6712.000000	61.411762 
6711.000000	61.081290 
6710.000000	60.849285 
6709.000000	60.734581 
6708.000000	60.742497 
6707.000000	60.866451 
6706.000000	61.088967 
6705.000000	61.387467 
6704.000000	61.735868 
6703.000000	62.109994 
6702.000000	62.486791 
6701.000000	62.847161 
6700.000000	63.172364 
6699.000000	63.447809 
6698.000000	63.660335 
6697.000000	63.803291 
6696.000000	63.879060 
6695.000000	63.897705 
6694.000000	63.879156 
6693.000000	63.844704 
6692.000000	63.816094 
6691.000000	63.806128 
6690.000000	63.819479 
6689.000000	63.846755 
6688.000000	63.868880 
6687.000000	63.862371 
6686.000000	63.808107 
6685.000000	63.694214 
6684.000000	63.521051 
6683.000000	63.302850 
6682.000000	63.066172 
6681.000000	62.843322 
6680.000000	62.667107 
6679.000000	62.564778 
6678.000000	62.552952 
6677.000000	62.634539 
6676.000000	62.798333 
6675.000000	63.022255 
6674.000000	63.276314 
6673.000000	63.529443 
6672.000000	63.752031 
6671.000000	63.917851 
6670.000000	64.008808 
6669.000000	64.016509 
6668.000000	63.942980 
6667.000000	63.798379 
6666.000000	63.601160 
6665.000000	63.375449 
6664.000000	63.148427 
6663.000000	62.947630 
6662.000000	62.796568 
6661.000000	62.712335 
6660.000000	62.702345 
6659.000000	62.764358 
6658.000000	62.884092 
6657.000000	63.038921 
6656.000000	63.202071 
6655.000000	63.349318 
6654.000000	63.464212 
6653.000000	63.541769 
6652.000000	63.589286 
6651.000000	63.622045 
6650.000000	63.657736 
6649.000000	63.708686 
6648.000000	63.777542 
6647.000000	63.854694 
6646.000000	63.921213 
6645.000000	63.954663 
6644.000000	63.936710 
6643.000000	63.860392 
6642.000000	63.734960 
6641.000000	63.584208 
6640.000000	63.440585 
6639.000000	63.337707 
6638.000000	63.301014 
6637.000000	63.342142 
6636.000000	63.455176 
6635.000000	63.621544 
6634.000000	63.815140 
6633.000000	64.011621 
6632.000000	64.194607 
6631.000000	64.358925 
6630.000000	64.509224 
6629.000000	64.655733 
6628.000000	64.807295 
6627.000000	64.963483 
6626.000000	65.111851 
6625.000000	65.232062 
6624.000000	65.299487 
6623.000000	65.294456 
6622.000000	65.206694 
6621.000000	65.042567 
6620.000000	64.821362 
6619.000000	64.572620 
6618.000000	64.328169 
6617.000000	64.112973 
6616.000000	63.943433 
6615.000000	63.826274 
6614.000000	63.759613 
6613.000000	63.737082 
6612.000000	63.750171 
6611.000000	63.792586 
6610.000000	63.857126 
6609.000000	63.934922 
6608.000000	64.014339 
6607.000000	64.080119 
6606.000000	64.116978 
6605.000000	64.111924 
6604.000000	64.065289 
6603.000000	63.993072 
6602.000000	63.927555 
6601.000000	63.910675 
6600.000000	63.986754 
6599.000000	64.187979 
6598.000000	64.524769 
6597.000000	64.977121 
6596.000000	65.496683 
6595.000000	66.013026 
6594.000000	66.450572 
6593.000000	66.742086 
6592.000000	66.844272 
6591.000000	66.745090 
6590.000000	66.467738 
6589.000000	66.061162 
6588.000000	65.587997 
6587.000000	65.110683 
6586.000000	64.681696 
6585.000000	64.332985 
6584.000000	64.077997 
6583.000000	63.909149 
6582.000000	63.809394 
6581.000000	63.751411 
6580.000000	63.707399 
6579.000000	63.650703 
6578.000000	63.560652 
6577.000000	63.428544 
6576.000000	63.258671 
6575.000000	63.068556 
6574.000000	62.885046 
6573.000000	62.737751 
6572.000000	62.653040 
6571.000000	62.646770 
6570.000000	62.722682 
6569.000000	62.871170 
6568.000000	63.074040 
6567.000000	63.308143 
6566.000000	63.552165 
6565.000000	63.791441 
6564.000000	64.017772 
6563.000000	64.227414 
6562.000000	64.417529 
6561.000000	64.584779 
6560.000000	64.720320 
6559.000000	64.809799 
6558.000000	64.836764 
6557.000000	64.789104 
6556.000000	64.662957 
6555.000000	64.469552 
6554.000000	64.229774 
6553.000000	63.971734 
6552.000000	63.726496 
6551.000000	63.523411 
6550.000000	63.385176 
6549.000000	63.325500 
6548.000000	63.350200 
6547.000000	63.457489 
6546.000000	63.638758 
6545.000000	63.879990 
6544.000000	64.162302 
6543.000000	64.463496 
6542.000000	64.759206 
6541.000000	65.024375 
6540.000000	65.236759 
6539.000000	65.376734 
6538.000000	65.432071 
6537.000000	65.395116 
6536.000000	65.267658 
6535.000000	65.055704 
6534.000000	64.771747 
6533.000000	64.431357 
6532.000000	64.053583 
6531.000000	63.660812 
6530.000000	63.278198 
6529.000000	62.933516 
6528.000000	62.655138 
6527.000000	62.468552 
6526.000000	62.391877 
6525.000000	62.432336 
6524.000000	62.583231 
6523.000000	62.824726 
6522.000000	63.125872 
6521.000000	63.449835 
6520.000000	63.759827 
6519.000000	64.024448 
6518.000000	64.222359 
6517.000000	64.343357 
6516.000000	64.388704 
6515.000000	64.369511 
6514.000000	64.302682 
6513.000000	64.206337 
6512.000000	64.097285 
6511.000000	63.990712 
6510.000000	63.898372 
6509.000000	63.830494 
6508.000000	63.795018 
6507.000000	63.798618 
6506.000000	63.845992 
6505.000000	63.939094 
6504.000000	64.076447 
6503.000000	64.250779 
6502.000000	64.451241 
6501.000000	64.663839 
6500.000000	64.873003 
6499.000000	65.062785 
6498.000000	65.220832 
6497.000000	65.339946 
6496.000000	65.417623 
6495.000000	65.454602 
6494.000000	65.453958 
6493.000000	65.418171 
6492.000000	65.348076 
6491.000000	65.241956 
6490.000000	65.096020 
6489.000000	64.907646 
6488.000000	64.679956 
6487.000000	64.424157 
6486.000000	64.158582 
6485.000000	63.908863 
6484.000000	63.704442 
6483.000000	63.572931 
6482.000000	63.533091 
6481.000000	63.590931 
6480.000000	63.735294 
6479.000000	63.941955 
6478.000000	64.176917 
6477.000000	64.405059 
6476.000000	64.596104 
6475.000000	64.731955 
6474.000000	64.808368 
6473.000000	64.833831 
6472.000000	64.824485 
6471.000000	64.797997 
6470.000000	64.767503 
6469.000000	64.738965 
6468.000000	64.710092 
6467.000000	64.673495 
6466.000000	64.619445 
6465.000000	64.541053 
6464.000000	64.436030 
6463.000000	64.307594 
6462.000000	64.163017 
6461.000000	64.010214 
6460.000000	63.857650 
6459.000000	63.709115 
6458.000000	63.568878 
6457.000000	63.440799 
6456.000000	63.333415 
6455.000000	63.258767 
6454.000000	63.232755 
6453.000000	63.269901 
6452.000000	63.380646 
6451.000000	63.565635 
6450.000000	63.814783 
6449.000000	64.105653 
6448.000000	64.408397 
6447.000000	64.689898 
6446.000000	64.921855 
6445.000000	65.086221 
6444.000000	65.177702 
6443.000000	65.203189 
6442.000000	65.179061 
6441.000000	65.125393 
6440.000000	65.061450 
6439.000000	64.999938 
6438.000000	64.945149 
6437.000000	64.891219 
6436.000000	64.828228 
6435.000000	64.743566 
6434.000000	64.626049 
6433.000000	64.469695 
6432.000000	64.275383 
6431.000000	64.053630 
6430.000000	63.820791 
6429.000000	63.599920 
6428.000000	63.415431 
6427.000000	63.290095 
6426.000000	63.239526 
6425.000000	63.269019 
6424.000000	63.371658 
6423.000000	63.529086 
6422.000000	63.714981 
6421.000000	63.898968 
6420.000000	64.050459 
6419.000000	64.147424 
6418.000000	64.179968 
6417.000000	64.152050 
6416.000000	64.078831 
6415.000000	63.985633 
6414.000000	63.901352 
6413.000000	63.851594 
6412.000000	63.852500 
6411.000000	63.908982 
6410.000000	64.013719 
6409.000000	64.150428 
6408.000000	64.298152 
6407.000000	64.435315 
6406.000000	64.546132 
6405.000000	64.623284 
6404.000000	64.669728 
6403.000000	64.696693 
6402.000000	64.718389 
6401.000000	64.750027 
6400.000000	64.797401 
6399.000000	64.855551 
6398.000000	64.905977 
6397.000000	64.924311 
6396.000000	64.883327 
6395.000000	64.762639 
6394.000000	64.554595 
6393.000000	64.269948 
6392.000000	63.933825 
6391.000000	63.581299 
6390.000000	63.248944 
6389.000000	62.967085 
6388.000000	62.754988 
6387.000000	62.618589 
6386.000000	62.551021 
6385.000000	62.537217 
6384.000000	62.559676 
6383.000000	62.604427 
6382.000000	62.662076 
6381.000000	62.730216 
6380.000000	62.809276 
6379.000000	62.902283 
6378.000000	63.007831 
6377.000000	63.122344 
6376.000000	63.239502 
6375.000000	63.352227 
6374.000000	63.453793 
6373.000000	63.540101 
6372.000000	63.610458 
6371.000000	63.668251 
6370.000000	63.719153 
6369.000000	63.771605 
6368.000000	63.834857 
6367.000000	63.917446 
6366.000000	64.026713 
6365.000000	64.163422 
6364.000000	64.321374 
6363.000000	64.486217 
6362.000000	64.638614 
6361.000000	64.755749 
6360.000000	64.816617 
6359.000000	64.808320 
6358.000000	64.729523 
6357.000000	64.591646 
6356.000000	64.416027 
6355.000000	64.231276 
6354.000000	64.064550 
6353.000000	63.935780 
6352.000000	63.851833 
6351.000000	63.806080 
6350.000000	63.781166 
6349.000000	63.755273 
6348.000000	63.709545 
6347.000000	63.633942 
6346.000000	63.531041 
6345.000000	63.413619 
6344.000000	63.303065 
6343.000000	63.219451 
6342.000000	63.180661 
6341.000000	63.195872 
6340.000000	63.265466 
6339.000000	63.380908 
6338.000000	63.527274 
6337.000000	63.687038 
6336.000000	63.842678 
6335.000000	63.979339 
6334.000000	64.085817 
6333.000000	64.155125 
6332.000000	64.183044 
6331.000000	64.168119 
6330.000000	64.111661 
6329.000000	64.018368 
6328.000000	63.897085 
6327.000000	63.761210 
6326.000000	63.628125 
6325.000000	63.517546 
6324.000000	63.449311 
6323.000000	63.439011 
6322.000000	63.494968 
6321.000000	63.615417 
6320.000000	63.788342 
6319.000000	63.992834 
6318.000000	64.201879 
6317.000000	64.388823 
6316.000000	64.530444 
6315.000000	64.614701 
6314.000000	64.642095 
6313.000000	64.625215 
6312.000000	64.584589 
6311.000000	64.542317 
6310.000000	64.516210 
6309.000000	64.514303 
6308.000000	64.533710 
6307.000000	64.562630 
6306.000000	64.585280 
6305.000000	64.587831 
6304.000000	64.563441 
6303.000000	64.514803 
6302.000000	64.453268 
6301.000000	64.395546 
6300.000000	64.358210 
6299.000000	64.351630 
6298.000000	64.376473 
6297.000000	64.424347 
6296.000000	64.478707 
6295.000000	64.520597 
6294.000000	64.532303 
6293.000000	64.503979 
6292.000000	64.433097 
6291.000000	64.325642 
6290.000000	64.192080 
6289.000000	64.044094 
6288.000000	63.891339 
6287.000000	63.739418 
6286.000000	63.590168 
6285.000000	63.442921 
6284.000000	63.297319 
6283.000000	63.155913 
6282.000000	63.025093 
6281.000000	62.914657 
6280.000000	62.836813 
6279.000000	62.803769 
6278.000000	62.824416 
6277.000000	62.902569 
6276.000000	63.036441 
6275.000000	63.218569 
6274.000000	63.436770 
6273.000000	63.675379 
6272.000000	63.917922 
6271.000000	64.147615 
6270.000000	64.348649 
6269.000000	64.507269 
6268.000000	64.612293 
6267.000000	64.657330 
6266.000000	64.641880 
6265.000000	64.572668 
6264.000000	64.463281 
6263.000000	64.333081 
6262.000000	64.205765 
6261.000000	64.104080 
6260.000000	64.046859 
6259.000000	64.044499 
6258.000000	64.098644 
6257.000000	64.199399 
6256.000000	64.327788 
6255.000000	64.460277 
6254.000000	64.573907 
6253.000000	64.650940 
6252.000000	64.681673 
6251.000000	64.665770 
6250.000000	64.610433 
6249.000000	64.526867 
6248.000000	64.426970 
6247.000000	64.319491 
6246.000000	64.209508 
6245.000000	64.100313 
6244.000000	63.994288 
6243.000000	63.895559 
6242.000000	63.809919 
6241.000000	63.744902 
6240.000000	63.707852 
6239.000000	63.702178 
6238.000000	63.728022 
6237.000000	63.779854 
6236.000000	63.849878 
6235.000000	63.927531 
6234.000000	64.004945 
6233.000000	64.077973 
6232.000000	64.147472 
6231.000000	64.218378 
6230.000000	64.295697 
6229.000000	64.381241 
6228.000000	64.471769 
6227.000000	64.558649 
6226.000000	64.628553 
6225.000000	64.666581 
6224.000000	64.660167 
6223.000000	64.602375 
6222.000000	64.493393 
6221.000000	64.341664 
6220.000000	64.160704 
6219.000000	63.968968 
6218.000000	63.786673 
6217.000000	63.634276 
6216.000000	63.530731 
6215.000000	63.489961 
6214.000000	63.518762 
6213.000000	63.614654 
6212.000000	63.766980 
6211.000000	63.956737 
6210.000000	64.157438 
6209.000000	64.341926 
6208.000000	64.484453 
6207.000000	64.569616 
6206.000000	64.593815 
6205.000000	64.568018 
6204.000000	64.514207 
6203.000000	64.460444 
6202.000000	64.434051 
6201.000000	64.453506 
6200.000000	64.523839 
6199.000000	64.634895 
6198.000000	64.764380 
6197.000000	64.882802 
6196.000000	64.961457 
6195.000000	64.978551 
6194.000000	64.926218 
6193.000000	64.809918 
6192.000000	64.650344 
6191.000000	64.477920 
6190.000000	64.328432 
6189.000000	64.234566 
6188.000000	64.220309 
6187.000000	64.297747 
6186.000000	64.463257 
6185.000000	64.700937 
6184.000000	64.982891 
6183.000000	65.275001 
6182.000000	65.542340 
6181.000000	65.754580 
6180.000000	65.891432 
6179.000000	65.944361 
6178.000000	65.917706 
6177.000000	65.826392 
6176.000000	65.691924 
6175.000000	65.537834 
6174.000000	65.384745 
6173.000000	65.247726 
6172.000000	65.134787 
6171.000000	65.047478 
6170.000000	64.982962 
6169.000000	64.935803 
6168.000000	64.899659 
6167.000000	64.867901 
6166.000000	64.833307 
6165.000000	64.788651 
6164.000000	64.726948 
6163.000000	64.643335 
6162.000000	64.533281 
6161.000000	64.397478 
6160.000000	64.241003 
6159.000000	64.076471 
6158.000000	63.920736 
6157.000000	63.795137 
6156.000000	63.720178 
6155.000000	63.712835 
6154.000000	63.781166 
6153.000000	63.923096 
6152.000000	64.125633 
6151.000000	64.366531 
6150.000000	64.617252 
6149.000000	64.849185 
6148.000000	65.038633 
6147.000000	65.170073 
6146.000000	65.237855 
6145.000000	65.245699 
6144.000000	65.204167 
6143.000000	65.127825 
6142.000000	65.031075 
6141.000000	64.925146 
6140.000000	64.815878 
6139.000000	64.705967 
6138.000000	64.594769 
6137.000000	64.481258 
6136.000000	64.365053 
6135.000000	64.248156 
6134.000000	64.135289 
6133.000000	64.032101 
6132.000000	63.945627 
6131.000000	63.880681 
6130.000000	63.841295 
6129.000000	63.828563 
6128.000000	63.842010 
6127.000000	63.879370 
6126.000000	63.936853 
6125.000000	64.009094 
6124.000000	64.089369 
6123.000000	64.169836 
6122.000000	64.241623 
6121.000000	64.295530 
6120.000000	64.323735 
6119.000000	64.321160 
6118.000000	64.287066 
6117.000000	64.225435 
6116.000000	64.144539 
6115.000000	64.055204 
6114.000000	63.969612 
6113.000000	63.898015 
6112.000000	63.847303 
6111.000000	63.819003 
6110.000000	63.809061 
6109.000000	63.809299 
6108.000000	63.810515 
6107.000000	63.804769 
6106.000000	63.786387 
6105.000000	63.754129 
6104.000000	63.710927 
6103.000000	63.663101 
6102.000000	63.616538 
6101.000000	63.577222 
6100.000000	63.548254 
6099.000000	63.532018 
6098.000000	63.529276 
6097.000000	63.542103 
6096.000000	63.573598 
6095.000000	63.628578 
6094.000000	63.712120 
6093.000000	63.826918 
6092.000000	63.970899 
6091.000000	64.135217 
6090.000000	64.304518 
6089.000000	64.458274 
6088.000000	64.575028 
6087.000000	64.637351 
6086.000000	64.636802 
6085.000000	64.576816 
6084.000000	64.473056 
6083.000000	64.350748 
6082.000000	64.239239 
6081.000000	64.165878 
6080.000000	64.149451 
6079.000000	64.197587 
6078.000000	64.303898 
6077.000000	64.451503 
6076.000000	64.616012 
6075.000000	64.771771 
6074.000000	64.897012 
6073.000000	64.977955 
6072.000000	65.011072 
6071.000000	65.001583 
6070.000000	64.961886 
6069.000000	64.907217 
6068.000000	64.851212 
6067.000000	64.802670 
6066.000000	64.764785 
6065.000000	64.735960 
6064.000000	64.711213 
6063.000000	64.684867 
6062.000000	64.652490 
6061.000000	64.612126 
6060.000000	64.564943 
6059.000000	64.513969 
6058.000000	64.461302 
6057.000000	64.407110 
6056.000000	64.349508 
6055.000000	64.285254 
6054.000000	64.209938 
6053.000000	64.121222 
6052.000000	64.020419 
6051.000000	63.913655 
6050.000000	63.811135 
6049.000000	63.725352 
6048.000000	63.666391 
6047.000000	63.642120 
6046.000000	63.653779 
6045.000000	63.699293 
6044.000000	63.772726 
6043.000000	63.867783 
6042.000000	63.978362 
6041.000000	64.100384 
6040.000000	64.231252 
6039.000000	64.368152 
6038.000000	64.506220 
6037.000000	64.636993 
6036.000000	64.748167 
6035.000000	64.825963 
6034.000000	64.857411 
6033.000000	64.833235 
6032.000000	64.750242 
6031.000000	64.614391 
6030.000000	64.439487 
6029.000000	64.244103 
6028.000000	64.049005 
6027.000000	63.873457 
6026.000000	63.733315 
6025.000000	63.639044 
6024.000000	63.595938 
6023.000000	63.604211 
6022.000000	63.660311 
6021.000000	63.757443 
6020.000000	63.886547 
6019.000000	64.035415 
6018.000000	64.191079 
6017.000000	64.339685 
6016.000000	64.468765 
6015.000000	64.567804 
6014.000000	64.630150 
6013.000000	64.653396 
6012.000000	64.640283 
6011.000000	64.598131 
6010.000000	64.538168 
6009.000000	64.473843 
6008.000000	64.419269 
6007.000000	64.387106 
6006.000000	64.387488 
6005.000000	64.425706 
6004.000000	64.502811 
6003.000000	64.613842 
6002.000000	64.748525 
6001.000000	64.891529 
6000.000000	65.025639 
5999.000000	65.133047 
5998.000000	65.197944 
5997.000000	65.209197 
5996.000000	65.162801 
5995.000000	65.062189 
5994.000000	64.917945 
5993.000000	64.745879 
5992.000000	64.564466 
5991.000000	64.392232 
5990.000000	64.245724 
5989.000000	64.136672 
5988.000000	64.070844 
5987.000000	64.048981 
5986.000000	64.068317 
5985.000000	64.122581 
5984.000000	64.203405 
5983.000000	64.302229 
5982.000000	64.411473 
5981.000000	64.524197 
5980.000000	64.635324 
5979.000000	64.742040 
5978.000000	64.844274 
5977.000000	64.944386 
5976.000000	65.045762 
5975.000000	65.152335 
5974.000000	65.265226 
5973.000000	65.383219 
5972.000000	65.499520 
5971.000000	65.604376 
5970.000000	65.683865 
5969.000000	65.724658 
5968.000000	65.714502 
5967.000000	65.647459 
5966.000000	65.523958 
5965.000000	65.353083 
5964.000000	65.149927 
5963.000000	64.933991 
5962.000000	64.725327 
5961.000000	64.542055 
5960.000000	64.396619 
5959.000000	64.294433 
5958.000000	64.234614 
5957.000000	64.211440 
5956.000000	64.216518 
5955.000000	64.241290 
5954.000000	64.278435 
5953.000000	64.322876 
5952.000000	64.371514 
5951.000000	64.422416 
5950.000000	64.472913 
5949.000000	64.518928 
5948.000000	64.555025 
5947.000000	64.574861 
5946.000000	64.572358 
5945.000000	64.543461 
5944.000000	64.488697 
5943.000000	64.412951 
5942.000000	64.324975 
5941.000000	64.235830 
5940.000000	64.157533 
5939.000000	64.100122 
5938.000000	64.069938 
5937.000000	64.068269 
5936.000000	64.091420 
5935.000000	64.131975 
5934.000000	64.180970 
5933.000000	64.228868 
5932.000000	64.267063 
5931.000000	64.290475 
5930.000000	64.298200 
5929.000000	64.292716 
5928.000000	64.278888 
5927.000000	64.264130 
5926.000000	64.256405 
5925.000000	64.263176 
5924.000000	64.288806 
5923.000000	64.334821 
5922.000000	64.397573 
5921.000000	64.468383 
5920.000000	64.534330 
5919.000000	64.580440 
5918.000000	64.593005 
5917.000000	64.562821 
5916.000000	64.488291 
5915.000000	64.375734 
5914.000000	64.239525 
5913.000000	64.098954 
5912.000000	63.975095 
5911.000000	63.885807 
5910.000000	63.843560 
5909.000000	63.853120 
5908.000000	63.912153 
5907.000000	64.012217 
5906.000000	64.141273 
5905.000000	64.286231 
5904.000000	64.434862 
5903.000000	64.577174 
5902.000000	64.705991 
5901.000000	64.817023 
5900.000000	64.907407 
5899.000000	64.975452 
5898.000000	65.022134 
5897.000000	65.049910 
5896.000000	65.064001 
5895.000000	65.069794 
5894.000000	65.072941 
5893.000000	65.076208 
5892.000000	65.080881 
5891.000000	65.084290 
5890.000000	65.081501 
5889.000000	65.065455 
5888.000000	65.030264 
5887.000000	64.971756 
5886.000000	64.888763 
5885.000000	64.784526 
5884.000000	64.666008 
5883.000000	64.544200 
5882.000000	64.431524 
5881.000000	64.340686 
5880.000000	64.282512 
5879.000000	64.262795 
5878.000000	64.281535 
5877.000000	64.330911 
5876.000000	64.396739 
5875.000000	64.459896 
5874.000000	64.500617 
5873.000000	64.501070 
5872.000000	64.450597 
5871.000000	64.349436 
5870.000000	64.210247 
5869.000000	64.055323 
5868.000000	63.912391 
5867.000000	63.808584 
5866.000000	63.764476 
5865.000000	63.788747 
5864.000000	63.877248 
5863.000000	64.015030 
5862.000000	64.180326 
5861.000000	64.349985 
5860.000000	64.504575 
5859.000000	64.631509 
5858.000000	64.726495 
5857.000000	64.791965 
5856.000000	64.834308 
5855.000000	64.859199 
5854.000000	64.870381 
5853.000000	64.869189 
5852.000000	64.853358 
5851.000000	64.819145 
5850.000000	64.763998 
5849.000000	64.689636 
5848.000000	64.600610 
5847.000000	64.504361 
5846.000000	64.409565 
5845.000000	64.324688 
5844.000000	64.257049 
5843.000000	64.211606 
5842.000000	64.189934 
5841.000000	64.189696 
5840.000000	64.206075 
5839.000000	64.231920 
5838.000000	64.257454 
5837.000000	64.273262 
5836.000000	64.270448 
5835.000000	64.244771 
5834.000000	64.195466 
5833.000000	64.129352 
5832.000000	64.058232 
5831.000000	63.999199 
5830.000000	63.969373 
5829.000000	63.984775 
5828.000000	64.056086 
5827.000000	64.186358 
5826.000000	64.369201 
5825.000000	64.590382 
5824.000000	64.830255 
5823.000000	65.066838 
5822.000000	65.279388 
5821.000000	65.450096 
5820.000000	65.565752 
5819.000000	65.618371 
5818.000000	65.604948 
5817.000000	65.526223 
5816.000000	65.386009 
5815.000000	65.192985 
5814.000000	64.959263 
5813.000000	64.700460 
5812.000000	64.434003 
5811.000000	64.179992 
5810.000000	63.956809 
5809.000000	63.779425 
5808.000000	63.656544 
5807.000000	63.588309 
5806.000000	63.568186 
5805.000000	63.583493 
5804.000000	63.619613 
5803.000000	63.660955 
5802.000000	63.696384 
5801.000000	63.719272 
5800.000000	63.729381 
5799.000000	63.729858 
5798.000000	63.726782 
5797.000000	63.725614 
5796.000000	63.730049 
5795.000000	63.740539 
5794.000000	63.754916 
5793.000000	63.769960 
5792.000000	63.783001 
5791.000000	63.793897 
5790.000000	63.806343 
5789.000000	63.827300 
5788.000000	63.865423 
5787.000000	63.927865 
5786.000000	64.018130 
5785.000000	64.132928 
5784.000000	64.263415 
5783.000000	64.394187 
5782.000000	64.505982 
5781.000000	64.579463 
5780.000000	64.600944 
5779.000000	64.564466 
5778.000000	64.473533 
5777.000000	64.340591 
5776.000000	64.185595 
5775.000000	64.030575 
5774.000000	63.895177 
5773.000000	63.793373 
5772.000000	63.731360 
5771.000000	63.708472 
5770.000000	63.719344 
5769.000000	63.756704 
5768.000000	63.813948 
5767.000000	63.886928 
5766.000000	63.974285 
5765.000000	64.074897 
5764.000000	64.186429 
5763.000000	64.303088 
5762.000000	64.415717 
5761.000000	64.512419 
5760.000000	64.581608 
5759.000000	64.616703 
5758.000000	64.617347 
5757.000000	64.591312 
5756.000000	64.551138 
5755.000000	64.511156 
5754.000000	64.482975 
5753.000000	64.472222 
5752.000000	64.477729 
5751.000000	64.492821 
5750.000000	64.508056 
5749.000000	64.515399 
5748.000000	64.510679 
5747.000000	64.496207 
5746.000000	64.478540 
5745.000000	64.465928 
5744.000000	64.465045 
5743.000000	64.478254 
5742.000000	64.502620 
5741.000000	64.530420 
5740.000000	64.552235 
5739.000000	64.559531 
5738.000000	64.547848 
5737.000000	64.517498 
5736.000000	64.471888 
5735.000000	64.416360 
5734.000000	64.354801 
5733.000000	64.290022 
5732.000000	64.223337 
5731.000000	64.156723 
5730.000000	64.094710 
5729.000000	64.044547 
5728.000000	64.016437 
5727.000000	64.019489 
5726.000000	64.059925 
5725.000000	64.136219 
5724.000000	64.238524 
5723.000000	64.348053 
5722.000000	64.440798 
5721.000000	64.491915 
5720.000000	64.481830 
5719.000000	64.401078 
5718.000000	64.253258 
5717.000000	64.054799 
5716.000000	63.831520 
5715.000000	63.613343 
5714.000000	63.427829 
5713.000000	63.295555 
5712.000000	63.227057 
5711.000000	63.222479 
5710.000000	63.273811 
5709.000000	63.368701 
5708.000000	63.494729 
5707.000000	63.640689 
5706.000000	63.799095 
5705.000000	63.964891 
5704.000000	64.134812 
5703.000000	64.304542 
5702.000000	64.467692 
5701.000000	64.614439 
5700.000000	64.732956 
5699.000000	64.812755 
5698.000000	64.845919 
5697.000000	64.830923 
5696.000000	64.771938 
5695.000000	64.680027 
5694.000000	64.569473 
5693.000000	64.456176 
5692.000000	64.353775 
5691.000000	64.271998 
5690.000000	64.215469 
5689.000000	64.184331 
5688.000000	64.174485 
5687.000000	64.179468 
5686.000000	64.190578 
5685.000000	64.198660 
5684.000000	64.194750 
5683.000000	64.172124 
5682.000000	64.126133 
5681.000000	64.056754 
5680.000000	63.968992 
5679.000000	63.873696 
5678.000000	63.786697 
5677.000000	63.725233 
5676.000000	63.705086 
5675.000000	63.734626 
5674.000000	63.813042 
5673.000000	63.928103 
5672.000000	64.057707 
5671.000000	64.175033 
5670.000000	64.254355 
5669.000000	64.277243 
5668.000000	64.237046 
5667.000000	64.139771 
5666.000000	64.001941 
5665.000000	63.846182 
5664.000000	63.695478 
5663.000000	63.567996 
5662.000000	63.473534 
5661.000000	63.413715 
5660.000000	63.384246 
5659.000000	63.377118 
5658.000000	63.384318 
5657.000000	63.400220 
5656.000000	63.422989 
5655.000000	63.452410 
5654.000000	63.489508 
5653.000000	63.532590 
5652.000000	63.578653 
5651.000000	63.623142 
5650.000000	63.662290 
5649.000000	63.694286 
5648.000000	63.720226 
5647.000000	63.744378 
5646.000000	63.773083 
5645.000000	63.812422 
5644.000000	63.866782 
5643.000000	63.936996 
5642.000000	64.020347 
5641.000000	64.111185 
5640.000000	64.202165 
5639.000000	64.286255 
5638.000000	64.358091 
5637.000000	64.415216 
5636.000000	64.458632 
5635.000000	64.492082 
5634.000000	64.521169 
5633.000000	64.551854 
5632.000000	64.588952 
5631.000000	64.634656 
5630.000000	64.688158 
5629.000000	64.744901 
5628.000000	64.797163 
5627.000000	64.834880 
5626.000000	64.847302 
5625.000000	64.825606 
5624.000000	64.765286 
5623.000000	64.668059 
5622.000000	64.542078 
5621.000000	64.401412 
5620.000000	64.263439 
5619.000000	64.145827 
5618.000000	64.062643 
5617.000000	64.022374 
5616.000000	64.026951 
5615.000000	64.071679 
5614.000000	64.146518 
5613.000000	64.238762 
5612.000000	64.335703 
5611.000000	64.426231 
5610.000000	64.501976 
5609.000000	64.557123 
5608.000000	64.587783 
5607.000000	64.591050 
5606.000000	64.564466 
5605.000000	64.506077 
5604.000000	64.415216 
5603.000000	64.294219 
5602.000000	64.149117 
5601.000000	63.990092 
5600.000000	63.830471 
5599.000000	63.685154 
5598.000000	63.568067 
5597.000000	63.489365 
5596.000000	63.453531 
5595.000000	63.458251 
5594.000000	63.495397 
5593.000000	63.551950 
5592.000000	63.613724 
5591.000000	63.667464 
5590.000000	63.704299 
5589.000000	63.719367 
5588.000000	63.713979 
5587.000000	63.693094 
5586.000000	63.665008 
5585.000000	63.637828 
5584.000000	63.619160 
5583.000000	63.614130 
5582.000000	63.625860 
5581.000000	63.655781 
5580.000000	63.703465 
5579.000000	63.767004 
5578.000000	63.843393 
5577.000000	63.928914 
5576.000000	64.018416 
5575.000000	64.105963 
5574.000000	64.185380 
5573.000000	64.251661 
5572.000000	64.301800 
5571.000000	64.335680 
5570.000000	64.355683 
5569.000000	64.366340 
5568.000000	64.374136 
5567.000000	64.385056 
5566.000000	64.403176 
5565.000000	64.429521 
5564.000000	64.462733 
5563.000000	64.498925 
5562.000000	64.533782 
5561.000000	64.562773 
5560.000000	64.583230 
5559.000000	64.593529 
5558.000000	64.593482 
5557.000000	64.583063 
5556.000000	64.562273 
5555.000000	64.530754 
5554.000000	64.488172 
5553.000000	64.434337 
5552.000000	64.369893 
5551.000000	64.296269 
5550.000000	64.216303 
5549.000000	64.133214 
5548.000000	64.050817 
5547.000000	63.973593 
5546.000000	63.906502 
5545.000000	63.853883 
5544.000000	63.819146 
5543.000000	63.804936 
5542.000000	63.812446 
5541.000000	63.840103 
5540.000000	63.884067 
5539.000000	63.937664 
5538.000000	63.993525 
5537.000000	64.043378 
5536.000000	64.081764 
5535.000000	64.106798 
5534.000000	64.121079 
5533.000000	64.131236 
5532.000000	64.144778 
5531.000000	64.168000 
5530.000000	64.202952 
5529.000000	64.246916 
5528.000000	64.292263 
5527.000000	64.329004 
5526.000000	64.347267 
5525.000000	64.340448 
5524.000000	64.305949 
5523.000000	64.246177 
5522.000000	64.167070 
5521.000000	64.076900 
5520.000000	63.983988 
5519.000000	63.895654 
5518.000000	63.817572 
5517.000000	63.753867 
5516.000000	63.707256 
5515.000000	63.679361 
5514.000000	63.671517 
5513.000000	63.683843 
5512.000000	63.713645 
5511.000000	63.756346 
5510.000000	63.804101 
5509.000000	63.849139 
5508.000000	63.884687 
5507.000000	63.907599 
5506.000000	63.918972 
5505.000000	63.923764 
5504.000000	63.929486 
5503.000000	63.943219 
5502.000000	63.969206 
5501.000000	64.007234 
5500.000000	64.052534 
5499.000000	64.096570 
5498.000000	64.129614 
5497.000000	64.142942 
5496.000000	64.131712 
5495.000000	64.095807 
5494.000000	64.040517 
5493.000000	63.975524 
5492.000000	63.912963 
5491.000000	63.864946 
5490.000000	63.841009 
5489.000000	63.846254 
5488.000000	63.880205 
5487.000000	63.938426 
5486.000000	64.012575 
5485.000000	64.091968 
5484.000000	64.166021 
5483.000000	64.225506 
5482.000000	64.264702 
5481.000000	64.281749 
5480.000000	64.279007 
5479.000000	64.261794 
5478.000000	64.236950 
5477.000000	64.211297 
5476.000000	64.189767 
5475.000000	64.174699 
5474.000000	64.165496 
5473.000000	64.159846 
5472.000000	64.154171 
5471.000000	64.145278 
5470.000000	64.129853 
5469.000000	64.105558 
5468.000000	64.071559 
5467.000000	64.029264 
5466.000000	63.982391 
5465.000000	63.936901 
5464.000000	63.900661 
5463.000000	63.881874 
5462.000000	63.887143 
5461.000000	63.919734 
5460.000000	63.978457 
5459.000000	64.057302 
5458.000000	64.146256 
5457.000000	64.233422 
5456.000000	64.306831 
5455.000000	64.357066 
5454.000000	64.379715 
5453.000000	64.375019 
5452.000000	64.347028 
5451.000000	64.302301 
5450.000000	64.248132 
5449.000000	64.191293 
5448.000000	64.136362 
5447.000000	64.087724 
5446.000000	64.049768 
5445.000000	64.028429 
5444.000000	64.030861 
5443.000000	64.063739 
5442.000000	64.131498 
5441.000000	64.234590 
5440.000000	64.368152 
5439.000000	64.521455 
5438.000000	64.679312 
5437.000000	64.825367 
5436.000000	64.944386 
5435.000000	65.025353 
5434.000000	65.062165 
5433.000000	65.055632 
5432.000000	65.010595 
5431.000000	64.935088 
5430.000000	64.836883 
5429.000000	64.723849 
5428.000000	64.601182 
5427.000000	64.473843 
5426.000000	64.344739 
5425.000000	64.217472 
5424.000000	64.095354 
5423.000000	63.982152 
5422.000000	63.881635 
5421.000000	63.795995 
5420.000000	63.728475 
5419.000000	63.682126 
5418.000000	63.661503 
5417.000000	63.671088 
5416.000000	63.715887 
5415.000000	63.799452 
5414.000000	63.922381 
5413.000000	64.080476 
5412.000000	64.264321 
5411.000000	64.459943 
5410.000000	64.650106 
5409.000000	64.817619 
5408.000000	64.948940 
5407.000000	65.036606 
5406.000000	65.080666 
5405.000000	65.087223 
5404.000000	65.068554 
5403.000000	65.037417 
5402.000000	65.005302 
5401.000000	64.978003 
5400.000000	64.957165 
5399.000000	64.938282 
5398.000000	64.915227 
5397.000000	64.880299 
5396.000000	64.828348 
5395.000000	64.757609 
5394.000000	64.671444 
5393.000000	64.576673 
5392.000000	64.481663 
5391.000000	64.395117 
5390.000000	64.323973 
5389.000000	64.272689 
5388.000000	64.242577 
5387.000000	64.232325 
5386.000000	64.238476 
5385.000000	64.256286 
5384.000000	64.280200 
5383.000000	64.304733 
5382.000000	64.324617 
5381.000000	64.335393 
5380.000000	64.332723 
5379.000000	64.313554 
5378.000000	64.274764 
5377.000000	64.213848 
5376.000000	64.128637 
5375.000000	64.018225 
5374.000000	63.884282 
5373.000000	63.730669 
5372.000000	63.565921 
5371.000000	63.402104 
5370.000000	63.254857 
5369.000000	63.140654 
5368.000000	63.073849 
5367.000000	63.063263 
5366.000000	63.109254 
5365.000000	63.202881 
5364.000000	63.326096 
5363.000000	63.454413 
5362.000000	63.564372 
5361.000000	63.638830 
5360.000000	63.669657 
5359.000000	63.659644 
5358.000000	63.623547 
5357.000000	63.584208 
5356.000000	63.564848 
5355.000000	63.584375 
5354.000000	63.653445 
5353.000000	63.772606 
5352.000000	63.933086 
5351.000000	64.119553 
5350.000000	64.315128 
5349.000000	64.504289 
5348.000000	64.676952 
5347.000000	64.827561 
5346.000000	64.953732 
5345.000000	65.054559 
5344.000000	65.129828 
5343.000000	65.177011 
5342.000000	65.193247 
5341.000000	65.173196 
5340.000000	65.114092 
5339.000000	65.011930 
5338.000000	64.865946 
5337.000000	64.673471 
5336.000000	64.432764 
5335.000000	64.138221 
5334.000000	63.783788 
5333.000000	63.365268 
5332.000000	62.885618 
5331.000000	62.357664 
5330.000000	61.806678 
5329.000000	61.268258 
5328.000000	60.784888 
5327.000000	60.396027 
5326.000000	60.133552 
5325.000000	60.011005 
5324.000000	60.026192 
5323.000000	60.157728 
5322.000000	60.375452 
5321.000000	60.644698 
5320.000000	60.934233 
5319.000000	61.219263 
5318.000000	61.481070 
5317.000000	61.705541 
5316.000000	61.877608 
5315.000000	61.978054 
5314.000000	61.986041 
5313.000000	61.880850 
5312.000000	61.655449 
5311.000000	61.322760 
5310.000000	60.920596 
5309.000000	60.508751 
5308.000000	60.157322 
5307.000000	59.932613 
5306.000000	59.880709 
5305.000000	60.016965 
5304.000000	60.319447 
5303.000000	60.735988 
5302.000000	61.197161 
5301.000000	61.635303 
5300.000000	61.997032 
5299.000000	62.258529 
5298.000000	62.425255 
5297.000000	62.530875 
5296.000000	62.619614 
5295.000000	62.736582 
5294.000000	62.914657 
5293.000000	63.164329 
5292.000000	63.475871 
5291.000000	63.815855 
5290.000000	64.146685 
5289.000000	64.421868 
5288.000000	64.601540 
5287.000000	64.653897 
5286.000000	64.562964 
5285.000000	64.330506 
5284.000000	63.975906 
5283.000000	63.537025 
5282.000000	63.064908 
5281.000000	62.617468 
5280.000000	62.249541 
5279.000000	62.005615 
5278.000000	61.911273 
5277.000000	61.966609 
5276.000000	62.147045 
5275.000000	62.406516 
5274.000000	62.689542 
5273.000000	62.942957 
5272.000000	63.128876 
5271.000000	63.225531 
5270.000000	63.235926 
5269.000000	63.181519 
5268.000000	63.099932 
5267.000000	63.026309 
5266.000000	62.994766 
5265.000000	63.031744 
5264.000000	63.153195 
5263.000000	63.364624 
5262.000000	63.659667 
5261.000000	64.023685 
5260.000000	64.433121 
5259.000000	64.858102 
5258.000000	65.268039 
5257.000000	65.635228 
5256.000000	65.940213 
5255.000000	66.173481 
5254.000000	66.337990 
5253.000000	66.445374 
5252.000000	66.514563 
5251.000000	66.563177 
5250.000000	66.598677 
5249.000000	66.613125 
5248.000000	66.587042 
5247.000000	66.492557 
5246.000000	66.304302 
5245.000000	66.006898 
5244.000000	65.605068 
5243.000000	65.123176 
5242.000000	64.603710 
5241.000000	64.097714 
5240.000000	63.651490 
5239.000000	63.300514 
5238.000000	63.062739 
5237.000000	62.937617 
5236.000000	62.908124 
5235.000000	62.947225 
5234.000000	63.024234 
5233.000000	63.112497 
5232.000000	63.190698 
5231.000000	63.250327 
5230.000000	63.291978 
5229.000000	63.325452 
5228.000000	63.362097 
5227.000000	63.416123 
5226.000000	63.498687 
5225.000000	63.616061 
5224.000000	63.765811 
5223.000000	63.937091 
5222.000000	64.110493 
5221.000000	64.261007 
5220.000000	64.362525 
5219.000000	64.392876 
5218.000000	64.339756 
5217.000000	64.204478 
5216.000000	64.003086 
5215.000000	63.762760 
5214.000000	63.517546 
5213.000000	63.302469 
5212.000000	63.145995 
5211.000000	63.064837 
5210.000000	63.061499 
5209.000000	63.127112 
5208.000000	63.241910 
5207.000000	63.379693 
5206.000000	63.514685 
5205.000000	63.626170 
5204.000000	63.702440 
5203.000000	63.740539 
5202.000000	63.747000 
5201.000000	63.733243 
5200.000000	63.714694 
5199.000000	63.705873 
5198.000000	63.718008 
5197.000000	63.755846 
5196.000000	63.817977 
5195.000000	63.896298 
5194.000000	63.978385 
5193.000000	64.049720 
5192.000000	64.096903 
5191.000000	64.110350 
5190.000000	64.086151 
5189.000000	64.026880 
5188.000000	63.940477 
5187.000000	63.838863 
5186.000000	63.735413 
5185.000000	63.642263 
5184.000000	63.567781 
5183.000000	63.516354 
5182.000000	63.488531 
5181.000000	63.482117 
5180.000000	63.493180 
5179.000000	63.517975 
5178.000000	63.553953 
5177.000000	63.599157 
5176.000000	63.651776 
5175.000000	63.708472 
5174.000000	63.763451 
5173.000000	63.809370 
5172.000000	63.838243 
5171.000000	63.842868 
5170.000000	63.819026 
5169.000000	63.766956 
5168.000000	63.692545 
5167.000000	63.606381 
5166.000000	63.522648 
5165.000000	63.456845 
5164.000000	63.422632 
5163.000000	63.429236 
5162.000000	63.479065 
5161.000000	63.567590 
5160.000000	63.683509 
5159.000000	63.811278 
5158.000000	63.933610 
5157.000000	64.034271 
5156.000000	64.101409 
5155.000000	64.129161 
5154.000000	64.118361 
5153.000000	64.074969 
5152.000000	64.009332 
5151.000000	63.933825 
5150.000000	63.860154 
5149.000000	63.797926 
5148.000000	63.753223 
5147.000000	63.728785 
5146.000000	63.723826 
5145.000000	63.735222 
5144.000000	63.757991 
5143.000000	63.786315 
5142.000000	63.814020 
5141.000000	63.835692 
5140.000000	63.846230 
5139.000000	63.842511 
5138.000000	63.823699 
5137.000000	63.792347 
5136.000000	63.753628 
5135.000000	63.715291 
5134.000000	63.685894 
5133.000000	63.673639 
5132.000000	63.684487 
5131.000000	63.720917 
5130.000000	63.780951 
5129.000000	63.858580 
5128.000000	63.944768 
5127.000000	64.029526 
5126.000000	64.103937 
5125.000000	64.161777 
5124.000000	64.200234 
5123.000000	64.220094 
5122.000000	64.224600 
5121.000000	64.218592 
5120.000000	64.207029 
5119.000000	64.193463 
5118.000000	64.179396 
5117.000000	64.164471 
5116.000000	64.146971 
5115.000000	64.124464 
5114.000000	64.094805 
5113.000000	64.056515 
5112.000000	64.009618 
5111.000000	63.955903 
5110.000000	63.899159 
5109.000000	63.844108 
5108.000000	63.796234 
5107.000000	63.761043 
5106.000000	63.743281 
5105.000000	63.745594 
5104.000000	63.768362 
5103.000000	63.808536 
5102.000000	63.861322 
5101.000000	63.919687 
5100.000000	63.977193 
5099.000000	64.028882 
5098.000000	64.072775 
5097.000000	64.109420 
5096.000000	64.141821 
5095.000000	64.173984 
5094.000000	64.208769 
5093.000000	64.246535 
5092.000000	64.283967 
5091.000000	64.314842 
5090.000000	64.331340 
5089.000000	64.326190 
5088.000000	64.294624 
5087.000000	64.235901 
5086.000000	64.154124 
5085.000000	64.057540 
5084.000000	63.956570 
5083.000000	63.862037 
5082.000000	63.782572 
5081.000000	63.723897 
5080.000000	63.688230 
5079.000000	63.674759 
5078.000000	63.680720 
5077.000000	63.702130 
5076.000000	63.734483 
5075.000000	63.773202 
5074.000000	63.813257 
5073.000000	63.850188 
5072.000000	63.879418 
5071.000000	63.897848 
5070.000000	63.902926 
5069.000000	63.895058 
5068.000000	63.877224 
5067.000000	63.855028 
5066.000000	63.835263 
5065.000000	63.824677 
5064.000000	63.828253 
5063.000000	63.847970 
5062.000000	63.881874 
5061.000000	63.924288 
5060.000000	63.966870 
5059.000000	64.000773 
5058.000000	64.018511 
5057.000000	64.015245 
5056.000000	63.990187 
5055.000000	63.946318 
5054.000000	63.890218 
5053.000000	63.829517 
5052.000000	63.772249 
5051.000000	63.725614 
5050.000000	63.694214 
5049.000000	63.679790 
5048.000000	63.680505 
5047.000000	63.692688 
5046.000000	63.710379 
5045.000000	63.726806 
5044.000000	63.735389 
5043.000000	63.730525 
5042.000000	63.709568 
5041.000000	63.672852 
5040.000000	63.624596 
5039.000000	63.571715 
5038.000000	63.523340 
5037.000000	63.488936 
5036.000000	63.476419 
5035.000000	63.490414 
5034.000000	63.531231 
5033.000000	63.594698 
5032.000000	63.672900 
5031.000000	63.756155 
5030.000000	63.834667 
5029.000000	63.900971 
5028.000000	63.950729 
5027.000000	63.983893 
5026.000000	64.004087 
5025.000000	64.017105 
5024.000000	64.029145 
5023.000000	64.044976 
5022.000000	64.067387 
5021.000000	64.095759 
5020.000000	64.127779 
5019.000000	64.158749 
5018.000000	64.183712 
5017.000000	64.198112 
5016.000000	64.199662 
5015.000000	64.188003 
5014.000000	64.164853 
5013.000000	64.133477 
5012.000000	64.098215 
5011.000000	64.063096 
5010.000000	64.030957 
5009.000000	64.003872 
5008.000000	63.983011 
5007.000000	63.969087 
5006.000000	63.962435 
5005.000000	63.963294 
5004.000000	63.971185 
5003.000000	63.985109 
5002.000000	64.002561 
5001.000000	64.018964 
5000.000000	64.028429 
4999.000000	64.024662 
4998.000000	64.002799 
4997.000000	63.959693 
4996.000000	63.896393 
4995.000000	63.818025 
4994.000000	63.733530 
4993.000000	63.653564 
4992.000000	63.589239 
4991.000000	63.549399 
4990.000000	63.539791 
4989.000000	63.561034 
4988.000000	63.611006 
4987.000000	63.685131 
4986.000000	63.778352 
4985.000000	63.885498 
4984.000000	64.002132 
4983.000000	64.123749 
4982.000000	64.245009 
4981.000000	64.358854 
4980.000000	64.455652 
4979.000000	64.524340 
4978.000000	64.554476 
4977.000000	64.538717 
4976.000000	64.475393 
4975.000000	64.369606 
4974.000000	64.234280 
4973.000000	64.087319 
4972.000000	63.948798 
4971.000000	63.836169 
4970.000000	63.761997 
4969.000000	63.730454 
4968.000000	63.737607 
4967.000000	63.772201 
4966.000000	63.819289 
4965.000000	63.863253 
4964.000000	63.891148 
4963.000000	63.895487 
4962.000000	63.874292 
4961.000000	63.831734 
4960.000000	63.775610 
4959.000000	63.716053 
4958.000000	63.662362 
4957.000000	63.622570 
4956.000000	63.601875 
4955.000000	63.602280 
4954.000000	63.622570 
4953.000000	63.658857 
4952.000000	63.705682 
4951.000000	63.756203 
4950.000000	63.804268 
4949.000000	63.845300 
4948.000000	63.877630 
4947.000000	63.902187 
4946.000000	63.922333 
4945.000000	63.942503 
4944.000000	63.966894 
4943.000000	63.998579 
4942.000000	64.038014 
4941.000000	64.083051 
4940.000000	64.129018 
4939.000000	64.171338 
4938.000000	64.204668 
4937.000000	64.224791 
4936.000000	64.228105 
4935.000000	64.213085 
4934.000000	64.179039 
4933.000000	64.126586 
4932.000000	64.057254 
4931.000000	63.973665 
4930.000000	63.880515 
4929.000000	63.784646 
4928.000000	63.695240 
4927.000000	63.622689 
4926.000000	63.576698 
4925.000000	63.564443 
4924.000000	63.588547 
4923.000000	63.646578 
4922.000000	63.731002 
4921.000000	63.830924 
4920.000000	63.933181 
4919.000000	64.025735 
4918.000000	64.099955 
4917.000000	64.152121 
4916.000000	64.182519 
4915.000000	64.195299 
4914.000000	64.197111 
4913.000000	64.194655 
4912.000000	64.193391 
4911.000000	64.195179 
4910.000000	64.198923 
4909.000000	64.200472 
4908.000000	64.195084 
4907.000000	64.178133 
4906.000000	64.146876 
4905.000000	64.101600 
4904.000000	64.046001 
4903.000000	63.986778 
4902.000000	63.932466 
4901.000000	63.891839 
4900.000000	63.871717 
4899.000000	63.875412 
4898.000000	63.901162 
4897.000000	63.942956 
4896.000000	63.990592 
4895.000000	64.031839 
4894.000000	64.054393 
4893.000000	64.048171 
4892.000000	64.007353 
4891.000000	63.931107 
4890.000000	63.824701 
4889.000000	63.697242 
4888.000000	63.562250 
4887.000000	63.434934 
4886.000000	63.330984 
4885.000000	63.263702 
4884.000000	63.242411 
4883.000000	63.271379 
4882.000000	63.348245 
4881.000000	63.464665 
4880.000000	63.606429 
4879.000000	63.755631 
4878.000000	63.892984 
4877.000000	64.000916 
4876.000000	64.066624 
4875.000000	64.084100 
4874.000000	64.055347 
4873.000000	63.989281 
4872.000000	63.899827 
4871.000000	63.802218 
4870.000000	63.710975 
4869.000000	63.636279 
4868.000000	63.583016 
4867.000000	63.550353 
4866.000000	63.533711 
4865.000000	63.526701 
4864.000000	63.523626 
4863.000000	63.521313 
4862.000000	63.519024 
4861.000000	63.519239 
4860.000000	63.525462 
4859.000000	63.541531 
4858.000000	63.569116 
4857.000000	63.607668 
4856.000000	63.653445 
4855.000000	63.701128 
4854.000000	63.745093 
4853.000000	63.780355 
4852.000000	63.803839 
4851.000000	63.814544 
4850.000000	63.813519 
4849.000000	63.803625 
4848.000000	63.788771 
4847.000000	63.772630 
4846.000000	63.758063 
4845.000000	63.747549 
4844.000000	63.742661 
4843.000000	63.744497 
4842.000000	63.753008 
4841.000000	63.767361 
4840.000000	63.785314 
4839.000000	63.804006 
4838.000000	63.819885 
4837.000000	63.828706 
4836.000000	63.827085 
4835.000000	63.813090 
4834.000000	63.787126 
4833.000000	63.751912 
4832.000000	63.712120 
4831.000000	63.673996 
4830.000000	63.643407 
4829.000000	63.624620 
4828.000000	63.619136 
4827.000000	63.625478 
4826.000000	63.638877 
4825.000000	63.652658 
4824.000000	63.659358 
4823.000000	63.652682 
4822.000000	63.628983 
4821.000000	63.588166 
4820.000000	63.533520 
4819.000000	63.471174 
4818.000000	63.408851 
4817.000000	63.354134 
4816.000000	63.313293 
4815.000000	63.289928 
4814.000000	63.284444 
4813.000000	63.294625 
4812.000000	63.316392 
4811.000000	63.345146 
4810.000000	63.376593 
4809.000000	63.408422 
4808.000000	63.439655 
4807.000000	63.471555 
4806.000000	63.505983 
4805.000000	63.545203 
4804.000000	63.590359 
4803.000000	63.641214 
4802.000000	63.696002 
4801.000000	63.751149 
4800.000000	63.802552 
4799.000000	63.845562 
4798.000000	63.876485 
4797.000000	63.892817 
4796.000000	63.893938 
4795.000000	63.880991 
4794.000000	63.856768 
4793.000000	63.825178 
4792.000000	63.790678 
4791.000000	63.757801 
4790.000000	63.730525 
4789.000000	63.712143 
4788.000000	63.704633 
4787.000000	63.708615 
4786.000000	63.723564 
4785.000000	63.748025 
4784.000000	63.780093 
4783.000000	63.817477 
4782.000000	63.857698 
4781.000000	63.898444 
4780.000000	63.936853 
4779.000000	63.969826 
4778.000000	63.993620 
4777.000000	64.004325 
4776.000000	63.998341 
4775.000000	63.973617 
4774.000000	63.930010 
4773.000000	63.869953 
4772.000000	63.798141 
4771.000000	63.721227 
4770.000000	63.646268 
4769.000000	63.579726 
4768.000000	63.526177 
4767.000000	63.487768 
4766.000000	63.463854 
4765.000000	63.451552 
4764.000000	63.446927 
4763.000000	63.446092 
4762.000000	63.445949 
4761.000000	63.445329 
4760.000000	63.444447 
4759.000000	63.445162 
4758.000000	63.449573 
4757.000000	63.459706 
4756.000000	63.476610 
4755.000000	63.500165 
4754.000000	63.529133 
4753.000000	63.561344 
4752.000000	63.593983 
4751.000000	63.623976 
4750.000000	63.648915 
4749.000000	63.666844 
4748.000000	63.676762 
4747.000000	63.678574 
4746.000000	63.673090 
4745.000000	63.661837 
4744.000000	63.646960 
4743.000000	63.630819 
4742.000000	63.615822 
4741.000000	63.604068 
4740.000000	63.597106 
4739.000000	63.595652 
4738.000000	63.599634 
4737.000000	63.607716 
4736.000000	63.617563 
4735.000000	63.626432 
4734.000000	63.632035 
4733.000000	63.632631 
4732.000000	63.628172 
4731.000000	63.619899 
4730.000000	63.610839 
4729.000000	63.605070 
4728.000000	63.607192 
4727.000000	63.620734 
4726.000000	63.647890 
4725.000000	63.688969 
4724.000000	63.741827 
4723.000000	63.802433 
4722.000000	63.864898 
4721.000000	63.922929 
4720.000000	63.969993 
4719.000000	64.000749 
4718.000000	64.011073 
4717.000000	63.999009 
4716.000000	63.964915 
4715.000000	63.911581 
4714.000000	63.844299 
4713.000000	63.770246 
4712.000000	63.697957 
4711.000000	63.635873 
4710.000000	63.591480 
4709.000000	63.569355 
4708.000000	63.570761 
4707.000000	63.592839 
4706.000000	63.628983 
4705.000000	63.670015 
4704.000000	63.705778 
4703.000000	63.727021 
4702.000000	63.726949 
4701.000000	63.702845 
4700.000000	63.655662 
4699.000000	63.590478 
4698.000000	63.514828 
4697.000000	63.437628 
4696.000000	63.366985 
4695.000000	63.309764 
4694.000000	63.270545 
4693.000000	63.251352 
4692.000000	63.251924 
4691.000000	63.270020 
4690.000000	63.302254 
4689.000000	63.344144 
4688.000000	63.390564 
4687.000000	63.436293 
4686.000000	63.476395 
4685.000000	63.506698 
4684.000000	63.524532 
4683.000000	63.528656 
4682.000000	63.519859 
4681.000000	63.501286 
4680.000000	63.477945 
4679.000000	63.455772 
4678.000000	63.440036 
4677.000000	63.435459 
4676.000000	63.444042 
4675.000000	63.464975 
4674.000000	63.494229 
4673.000000	63.525772 
4672.000000	63.552832 
4671.000000	63.569498 
4670.000000	63.572025 
4669.000000	63.559746 
4668.000000	63.534975 
4667.000000	63.502025 
4666.000000	63.466644 
4665.000000	63.434123 
4664.000000	63.408660 
4663.000000	63.392210 
4662.000000	63.384985 
4661.000000	63.386106 
4660.000000	63.393902 
4659.000000	63.406944 
4658.000000	63.424301 
4657.000000	63.445997 
4656.000000	63.472843 
4655.000000	63.506007 
4654.000000	63.546037 
4653.000000	63.592576 
4652.000000	63.644123 
4651.000000	63.697814 
4650.000000	63.749933 
4649.000000	63.796305 
4648.000000	63.833260 
4647.000000	63.857841 
4646.000000	63.869071 
4645.000000	63.867282 
4644.000000	63.854527 
4643.000000	63.833904 
4642.000000	63.809204 
4641.000000	63.784289 
4640.000000	63.762617 
4639.000000	63.746762 
4638.000000	63.738369 
4637.000000	63.738155 
4636.000000	63.746237 
4635.000000	63.762211 
4634.000000	63.785171 
4633.000000	63.813781 
4632.000000	63.845968 
4631.000000	63.879227 
4630.000000	63.910412 
4629.000000	63.936305 
4628.000000	63.953900 
4627.000000	63.960886 
4626.000000	63.956093 
4625.000000	63.939738 
4624.000000	63.913559 
4623.000000	63.880610 
4622.000000	63.844633 
4621.000000	63.809919 
4620.000000	63.780117 
4619.000000	63.758015 
4618.000000	63.744950 
4617.000000	63.741278 
4616.000000	63.745760 
4615.000000	63.756155 
4614.000000	63.769555 
4613.000000	63.782691 
4612.000000	63.792800 
4611.000000	63.797760 
4610.000000	63.796687 
4609.000000	63.789796 
4608.000000	63.778328 
4607.000000	63.764142 
4606.000000	63.749170 
4605.000000	63.734936 
4604.000000	63.722014 
4603.000000	63.710165 
4602.000000	63.698816 
4601.000000	63.687682 
4600.000000	63.676977 
4599.000000	63.667964 
4598.000000	63.662719 
4597.000000	63.663768 
4596.000000	63.673090 
4595.000000	63.691234 
4594.000000	63.716459 
4593.000000	63.744926 
4592.000000	63.771295 
4591.000000	63.789939 
4590.000000	63.796496 
4589.000000	63.789033 
4588.000000	63.768959 
4587.000000	63.740777 
4586.000000	63.710927 
4585.000000	63.686108 
4584.000000	63.671660 
4583.000000	63.669490 
4582.000000	63.677930 
4581.000000	63.691568 
4580.000000	63.703036 
4579.000000	63.704538 
4578.000000	63.690066 
4577.000000	63.656854 
4576.000000	63.606309 
4575.000000	63.543319 
4574.000000	63.475370 
4573.000000	63.410830 
4572.000000	63.357615 
4571.000000	63.321781 
4570.000000	63.306736 
4569.000000	63.313245 
4568.000000	63.339257 
4567.000000	63.380384 
4566.000000	63.430762 
4565.000000	63.483476 
4564.000000	63.532185 
4563.000000	63.571405 
4562.000000	63.597726 
4561.000000	63.609671 
4560.000000	63.608145 
4559.000000	63.595867 
4558.000000	63.576698 
4557.000000	63.554883 
4556.000000	63.534307 
4555.000000	63.517856 
4554.000000	63.507318 
4553.000000	63.503336 
4552.000000	63.506102 
4551.000000	63.515472 
4550.000000	63.531208 
4549.000000	63.552951 
4548.000000	63.579821 
4547.000000	63.610410 
4546.000000	63.642406 
4545.000000	63.673186 
4544.000000	63.700246 
4543.000000	63.721966 
4542.000000	63.738298 
4541.000000	63.750123 
4540.000000	63.759160 
4539.000000	63.766908 
4538.000000	63.774490 
4537.000000	63.781881 
4536.000000	63.788127 
4535.000000	63.791656 
4534.000000	63.791370 
4533.000000	63.786864 
4532.000000	63.779234 
4531.000000	63.770151 
4530.000000	63.761997 
4529.000000	63.755941 
4528.000000	63.751888 
4527.000000	63.747668 
4526.000000	63.739681 
4525.000000	63.723921 
4524.000000	63.697242 
4523.000000	63.658905 
4522.000000	63.610959 
4521.000000	63.558125 
4520.000000	63.506960 
4519.000000	63.463664 
4518.000000	63.433218 
4517.000000	63.417696 
4516.000000	63.416528 
4515.000000	63.426351 
4514.000000	63.443088 
4513.000000	63.462877 
4512.000000	63.483595 
4511.000000	63.505077 
4510.000000	63.528823 
4509.000000	63.556885 
4508.000000	63.590812 
4507.000000	63.630056 
4506.000000	63.672065 
4505.000000	63.712477 
4504.000000	63.746213 
4503.000000	63.769125 
4502.000000	63.778471 
4501.000000	63.773989 
4500.000000	63.757395 
4499.000000	63.732242 
4498.000000	63.702869 
4497.000000	63.673448 
4496.000000	63.647294 
4495.000000	63.626432 
4494.000000	63.611435 
4493.000000	63.601732 
4492.000000	63.596510 
4491.000000	63.595271 
4490.000000	63.597989 
4489.000000	63.605308 
4488.000000	63.618421 
4487.000000	63.638472 
4486.000000	63.665270 
4485.000000	63.697719 
4484.000000	63.733005 
4483.000000	63.767838 
4482.000000	63.799118 
4481.000000	63.824772 
4480.000000	63.843846 
4479.000000	63.857078 
4478.000000	63.866782 
4477.000000	63.875365 
4476.000000	63.884878 
4475.000000	63.895535 
4474.000000	63.905811 
4473.000000	63.912439 
4472.000000	63.911628 
4471.000000	63.899993 
4470.000000	63.875842 
4469.000000	63.840627 
4468.000000	63.799142 
4467.000000	63.757896 
4466.000000	63.724017 
4465.000000	63.704085 
4464.000000	63.702344 
4463.000000	63.720631 
4462.000000	63.757085 
4461.000000	63.807392 
4460.000000	63.864374 
4459.000000	63.919448 
4458.000000	63.963484 
4457.000000	63.987565 
4456.000000	63.985347 
4455.000000	63.954496 
4454.000000	63.896965 
4453.000000	63.819193 
4452.000000	63.730263 
4451.000000	63.639712 
4450.000000	63.556528 
4449.000000	63.486766 
4448.000000	63.435935 
4447.000000	63.408708 
4446.000000	63.409686 
4445.000000	63.442945 
4444.000000	63.511824 
4443.000000	63.617420 
4442.000000	63.757348 
4441.000000	63.924837 
4440.000000	64.108514 
4439.000000	64.293122 
4438.000000	64.463567 
4437.000000	64.605426 
4436.000000	64.706492 
4435.000000	64.757680 
4434.000000	64.754056 
4433.000000	64.695692 
4432.000000	64.589166 
4431.000000	64.446187 
4430.000000	64.282608 
4429.000000	64.116454 
4428.000000	63.965630 
4427.000000	63.845443 
4426.000000	63.773012 
4425.000000	63.755416 
4424.000000	63.781213 
4423.000000	63.833570 
4422.000000	63.904571 
4421.000000	63.976836 
4420.000000	64.022326 
4419.000000	64.018297 
4418.000000	63.947391 
4417.000000	63.824248 
4416.000000	63.699650 
4415.000000	63.606643 
4414.000000	63.555479 
4413.000000	63.569617 
4412.000000	63.670730 
4411.000000	63.892912 
4410.000000	64.252305 
4409.000000	64.711999 
4408.000000	65.194559 
4407.000000	65.552210 
4406.000000	65.651297 
4405.000000	65.444016 
4404.000000	64.969873 
4403.000000	64.409446 
4402.000000	63.976144 
4401.000000	63.747954 
4400.000000	63.794469 
4399.000000	64.007425 
4398.000000	64.428353 
4397.000000	65.340900 
4396.000000	67.157864 
4395.000000	70.488405 
4394.000000	75.499534 
4393.000000	81.781601 
4392.000000	88.180661 
4391.000000	92.958378 
4390.000000	94.455885 
4389.000000	91.557455 
4388.000000	84.226751 
4387.000000	73.569965 
4386.000000	61.392927 
4385.000000	49.784469 
4384.000000	40.375161 
4383.000000	34.100866 
4382.000000	31.177639 
4381.000000	31.171774 
4380.000000	33.477807 
4379.000000	37.364053 
4378.000000	42.144346 
4377.000000	47.273421 
4376.000000	52.127504 
4375.000000	56.299066 
4374.000000	59.473752 
4373.000000	61.586427 
4372.000000	62.793517 
4371.000000	63.379836 
4370.000000	63.662052 
4369.000000	63.883614 
4368.000000	64.145469 
4367.000000	64.433526 
4366.000000	64.681649 
4365.000000	64.809942 
4364.000000	64.810585 
4363.000000	64.700603 
4362.000000	64.536142 
4361.000000	64.364433 
4360.000000	64.211773 
4359.000000	64.097452 
4358.000000	64.027667 
4357.000000	64.010238 
4356.000000	64.051222 
4355.000000	64.135456 
4354.000000	64.237642 
4353.000000	64.351701 
4352.000000	64.476370 
4351.000000	64.589285 
4350.000000	64.668369 
4349.000000	64.702510 
4348.000000	64.689302 
4347.000000	64.642786 
4346.000000	64.581418 
4345.000000	64.509820 
4344.000000	64.433193 
4343.000000	64.368534 
4342.000000	64.324760 
4341.000000	64.297795 
4340.000000	64.279747 
4339.000000	64.263415 
4338.000000	64.241814 
4337.000000	64.210867 
4336.000000	64.170694 
4335.000000	64.125490 
4334.000000	64.080119 
4333.000000	64.038276 
4332.000000	64.001893 
4331.000000	63.970160 
4330.000000	63.940095 
4329.000000	63.907265 
4328.000000	63.866400 
4327.000000	63.813662 
4326.000000	63.747620 
4325.000000	63.670849 
4324.000000	63.589429 
4323.000000	63.512706 
4322.000000	63.450574 
4321.000000	63.412308 
4320.000000	63.403987 
4319.000000	63.427591 
4318.000000	63.479447 
4317.000000	63.552474 
4316.000000	63.637280 
4315.000000	63.724637 
4314.000000	63.807082 
4313.000000	63.879370 
4312.000000	63.938450 
4311.000000	63.982987 
4310.000000	64.012479 
4309.000000	64.026236 
4308.000000	64.023017 
4307.000000	64.001822 
4306.000000	63.962531 
4305.000000	63.906621 
4304.000000	63.837647 
4303.000000	63.761878 
4302.000000	63.687300 
4301.000000	63.622474 
4300.000000	63.574647 
4299.000000	63.548970 
4298.000000	63.546633 
4297.000000	63.564801 
4296.000000	63.597130 
4295.000000	63.635087 
4294.000000	63.670158 
4293.000000	63.695287 
4292.000000	63.706707 
4291.000000	63.704037 
4290.000000	63.690114 
4289.000000	63.669204 
4288.000000	63.646221 
4287.000000	63.624954 
4286.000000	63.608002 
4285.000000	63.596487 
4284.000000	63.590145 
4283.000000	63.588047 
4282.000000	63.589096 
4281.000000	63.592720 
4280.000000	63.598299 
4279.000000	63.605332 
4278.000000	63.613390 
4277.000000	63.622093 
4276.000000	63.631272 
4275.000000	63.640666 
4274.000000	63.649988 
4273.000000	63.658618 
4272.000000	63.666105 
4271.000000	63.671827 
4270.000000	63.674855 
4269.000000	63.674545 
4268.000000	63.670492 
4267.000000	63.663172 
4266.000000	63.653540 
4265.000000	63.643455 
4264.000000	63.635396 
4263.000000	63.631963 
4262.000000	63.635444 
4261.000000	63.646626 
4260.000000	63.664650 
4259.000000	63.686442 
4258.000000	63.707280 
4257.000000	63.721585 
4256.000000	63.724493 
4255.000000	63.713097 
4254.000000	63.687324 
4253.000000	63.650655 
4252.000000	63.609409 
4251.000000	63.571357 
4250.000000	63.543891 
4249.000000	63.532066 
4248.000000	63.537359 
4247.000000	63.557457 
4246.000000	63.586902 
4245.000000	63.618183 
4244.000000	63.643908 
4243.000000	63.659095 
4242.000000	63.661956 
4241.000000	63.654112 
4240.000000	63.639903 
4239.000000	63.624811 
4238.000000	63.613915 
4237.000000	63.610029 
4236.000000	63.613581 
4235.000000	63.622665 
4234.000000	63.633775 
4233.000000	63.643407 
4232.000000	63.648843 
4231.000000	63.649106 
4230.000000	63.645076 
4229.000000	63.639068 
4228.000000	63.633942 
4227.000000	63.631844 
4226.000000	63.633847 
4225.000000	63.639283 
4224.000000	63.645458 
4223.000000	63.647913 
4222.000000	63.641905 
4221.000000	63.623118 
4220.000000	63.588500 
4219.000000	63.537478 
4218.000000	63.471865 
4217.000000	63.396048 
4216.000000	63.316345 
4215.000000	63.239789 
4214.000000	63.172745 
4213.000000	63.119673 
4212.000000	63.082671 
4211.000000	63.060975 
4210.000000	63.050723 
4209.000000	63.046669 
4208.000000	63.042855 
4207.000000	63.034820 
4206.000000	63.019990 
4205.000000	62.999343 
4204.000000	62.976431 
4203.000000	62.957406 
4202.000000	62.948918 
4201.000000	62.957334 
4200.000000	62.986803 
4199.000000	63.038349 
4198.000000	63.109254 
4197.000000	63.193774 
4196.000000	63.283681 
4195.000000	63.369965 
4194.000000	63.444018 
4193.000000	63.498997 
4192.000000	63.530278 
4191.000000	63.536381 
4190.000000	63.518261 
4189.000000	63.478827 
4188.000000	63.422298 
4187.000000	63.354134 
4186.000000	63.280081 
4185.000000	63.205790 
4184.000000	63.136506 
4183.000000	63.077449 
4182.000000	63.032746 
4181.000000	63.005328 
4180.000000	62.996363 
4179.000000	63.004994 
4178.000000	63.028216 
4177.000000	63.061237 
4176.000000	63.098025 
4175.000000	63.132023 
4174.000000	63.157629 
4173.000000	63.171076 
4172.000000	63.170814 
4171.000000	63.157582 
4170.000000	63.133621 
4169.000000	63.102126 
4168.000000	63.066411 
4167.000000	63.029718 
4166.000000	62.995314 
4165.000000	62.966251 
4164.000000	62.945723 
4163.000000	62.936449 
4162.000000	62.940287 
4161.000000	62.957501 
4160.000000	62.986278 
4159.000000	63.022708 
4158.000000	63.061213 
4157.000000	63.095498 
4156.000000	63.119816 
4155.000000	63.129711 
4154.000000	63.122749 
4153.000000	63.098931 
4152.000000	63.060784 
4151.000000	63.012409 
4150.000000	62.958836 
4149.000000	62.905073 
4148.000000	62.855434 
4147.000000	62.813234 
4146.000000	62.780547 
4145.000000	62.758159 
4144.000000	62.746071 
4143.000000	62.743282 
4142.000000	62.748479 
4141.000000	62.759804 
4140.000000	62.775874 
4139.000000	62.795639 
4138.000000	62.818861 
4137.000000	62.845802 
4136.000000	62.876701 
4135.000000	62.911128 
4134.000000	62.947583 
4133.000000	62.983322 
4132.000000	63.015031 
4131.000000	63.039350 
4130.000000	63.053679 
4129.000000	63.057279 
4128.000000	63.050627 
4127.000000	63.035511 
4126.000000	63.013982 
4125.000000	62.988018 
4124.000000	62.959003 
4123.000000	62.927532 
4122.000000	62.894153 
4121.000000	62.859892 
4120.000000	62.826776 
4119.000000	62.798213 
4118.000000	62.778711 
4117.000000	62.772846 
4116.000000	62.783932 
4115.000000	62.812876 
4114.000000	62.857222 
4113.000000	62.911677 
4112.000000	62.968492 
4111.000000	63.019585 
4110.000000	63.057804 
4109.000000	63.078904 
4108.000000	63.081789 
4107.000000	63.069009 
4106.000000	63.045144 
4105.000000	63.016390 
4104.000000	62.989020 
4103.000000	62.968277 
4102.000000	62.957429 
4101.000000	62.957453 
4100.000000	62.967586 
4099.000000	62.985229 
4098.000000	63.007330 
4097.000000	63.030338 
4096.000000	63.051009 
4095.000000	63.066625 
4094.000000	63.075304 
4093.000000	63.075900 
4092.000000	63.067960 
4091.000000	63.051962 
4090.000000	63.029360 
4089.000000	63.002467 
4088.000000	62.974286 
4087.000000	62.948322 
4086.000000	62.927865 
4085.000000	62.915325 
4084.000000	62.911677 
4083.000000	62.916064 
4082.000000	62.925720 
4081.000000	62.936305 
4080.000000	62.942767 
4079.000000	62.940049 
4078.000000	62.924742 
4077.000000	62.895894 
4076.000000	62.855792 
4075.000000	62.809276 
4074.000000	62.763500 
4073.000000	62.725877 
4072.000000	62.703251 
4071.000000	62.699961 
4070.000000	62.717103 
4069.000000	62.752127 
4068.000000	62.799239 
4067.000000	62.850713 
4066.000000	62.898206 
4065.000000	62.934470 
4064.000000	62.954568 
4063.000000	62.956786 
4062.000000	62.943005 
4061.000000	62.918210 
4060.000000	62.889528 
4059.000000	62.864303 
4058.000000	62.848925 
4057.000000	62.847208 
4056.000000	62.860178 
4055.000000	62.885522 
4054.000000	62.918472 
4053.000000	62.952947 
4052.000000	62.983226 
4051.000000	63.004660 
4050.000000	63.014817 
4049.000000	63.013648 
4048.000000	63.003158 
4047.000000	62.986707 
4046.000000	62.967872 
4045.000000	62.949585 
4044.000000	62.933945 
4043.000000	62.921595 
4042.000000	62.912249 
4041.000000	62.904953 
4040.000000	62.898921 
4039.000000	62.893390 
4038.000000	62.887883 
4037.000000	62.882113 
4036.000000	62.875843 
4035.000000	62.868905 
4034.000000	62.861227 
4033.000000	62.852573 
4032.000000	62.842655 
4031.000000	62.831497 
4030.000000	62.819361 
4029.000000	62.806653 
4028.000000	62.794256 
4027.000000	62.783312 
4026.000000	62.775421 
4025.000000	62.772011 
4024.000000	62.774443 
4023.000000	62.783932 
4022.000000	62.800931 
4021.000000	62.824988 
4020.000000	62.854576 
4019.000000	62.887167 
4018.000000	62.919521 
4017.000000	62.948060 
4016.000000	62.969517 
4015.000000	62.981605 
4014.000000	62.983608 
4013.000000	62.976551 
4012.000000	62.962794 
4011.000000	62.945437 
4010.000000	62.927985 
4009.000000	62.913370 
4008.000000	62.903499 
4007.000000	62.898755 
4006.000000	62.898540 
4005.000000	62.900996 
4004.000000	62.903475 
4003.000000	62.902903 
4002.000000	62.896561 
4001.000000	62.882542 
4000.000000	62.859821 
3999.000000	62.828707 
3998.000000	62.790465 
3997.000000	62.747406 
3996.000000	62.702488 
3995.000000	62.658905 
3994.000000	62.619614 
3993.000000	62.587308 
3992.000000	62.563705 
3991.000000	62.549924 
3990.000000	62.546086 
3989.000000	62.551951 
3988.000000	62.566947 
3987.000000	62.590026 
3986.000000	62.619614 
3985.000000	62.653851 
3984.000000	62.690591 
3983.000000	62.727546 
3982.000000	62.762498 
3981.000000	62.793779 
3980.000000	62.820553 
3979.000000	62.843155 
3978.000000	62.862467 
3977.000000	62.879657 
3976.000000	62.895298 
3975.000000	62.909364 
3974.000000	62.920594 
3973.000000	62.927031 
3972.000000	62.926554 
3971.000000	62.917900 
3970.000000	62.901210 
3969.000000	62.878680 
3968.000000	62.853932 
3967.000000	62.831830 
3966.000000	62.816381 
3965.000000	62.809967 
3964.000000	62.812161 
3963.000000	62.819862 
3962.000000	62.828040 
3961.000000	62.831115 
3960.000000	62.824678 
3959.000000	62.806963 
3958.000000	62.779355 
3957.000000	62.746143 
3956.000000	62.713313 
3955.000000	62.686967 
3954.000000	62.671923 
3953.000000	62.670636 
3952.000000	62.682604 
3951.000000	62.704825 
3950.000000	62.733173 
3949.000000	62.763237 
3948.000000	62.791752 
3947.000000	62.816905 
3946.000000	62.838268 
3945.000000	62.856340 
3944.000000	62.871813 
3943.000000	62.884831 
3942.000000	62.894749 
3941.000000	62.900090 
3940.000000	62.899231 
3939.000000	62.890863 
3938.000000	62.874960 
3937.000000	62.852859 
3936.000000	62.827324 
3935.000000	62.802290 
3934.000000	62.782144 
3933.000000	62.770843 
3932.000000	62.770915 
3931.000000	62.783098 
3930.000000	62.805938 
3929.000000	62.836074 
3928.000000	62.868905 
3927.000000	62.899208 
3926.000000	62.922406 
3925.000000	62.935328 
3924.000000	62.937116 
3923.000000	62.929034 
3922.000000	62.914490 
3921.000000	62.898540 
3920.000000	62.886428 
3919.000000	62.882661 
3918.000000	62.889599 
3917.000000	62.907576 
3916.000000	62.934017 
3915.000000	62.964701 
3914.000000	62.993812 
3913.000000	63.015675 
3912.000000	63.025259 
3911.000000	63.019776 
3910.000000	62.998390 
3909.000000	62.962222 
3908.000000	62.914443 
3907.000000	62.859439 
3906.000000	62.802457 
3905.000000	62.748408 
3904.000000	62.701916 
3903.000000	62.666773 
3902.000000	62.645554 
3901.000000	62.639546 
3900.000000	62.648224 
3899.000000	62.670016 
3898.000000	62.701773 
3897.000000	62.740063 
3896.000000	62.781333 
3895.000000	62.823295 
3894.000000	62.864756 
3893.000000	62.905883 
3892.000000	62.947988 
3891.000000	62.992000 
3890.000000	63.038420 
3889.000000	63.085365 
3888.000000	63.128852 
3887.000000	63.162374 
3886.000000	63.178968 
3885.000000	63.171887 
3884.000000	63.136863 
3883.000000	63.072824 
3882.000000	62.983560 
3881.000000	62.876319 
3880.000000	62.761354 
3879.000000	62.649369 
3878.000000	62.550187 
3877.000000	62.470793 
3876.000000	62.414550 
3875.000000	62.381172 
3874.000000	62.367773 
3873.000000	62.369680 
3872.000000	62.382292 
3871.000000	62.401461 
3870.000000	62.424564 
3869.000000	62.450122 
3868.000000	62.477874 
3867.000000	62.507152 
3866.000000	62.537193 
3865.000000	62.566637 
3864.000000	62.593960 
3863.000000	62.617301 
3862.000000	62.635660 
3861.000000	62.649202 
3860.000000	62.659263 
3859.000000	62.668251 
3858.000000	62.679100 
3857.000000	62.694382 
3856.000000	62.715840 
3855.000000	62.743782 
3854.000000	62.776827 
3853.000000	62.812328 
3852.000000	62.846732 
3851.000000	62.876367 
3850.000000	62.897658 
3849.000000	62.907814 
3848.000000	62.905335 
3847.000000	62.890172 
3846.000000	62.863445 
3845.000000	62.827038 
3844.000000	62.784051 
3843.000000	62.738108 
3842.000000	62.692832 
3841.000000	62.651515 
3840.000000	62.616825 
3839.000000	62.590456 
3838.000000	62.573266 
3837.000000	62.565207 
3836.000000	62.565135 
3835.000000	62.571573 
3834.000000	62.582778 
3833.000000	62.597084 
3832.000000	62.612628 
3831.000000	62.627768 
3830.000000	62.640857 
3829.000000	62.650346 
3828.000000	62.654542 
3827.000000	62.652039 
3826.000000	62.641811 
3825.000000	62.623691 
3824.000000	62.598323 
3823.000000	62.567663 
3822.000000	62.534618 
3821.000000	62.502789 
3820.000000	62.475728 
3819.000000	62.456679 
3818.000000	62.447905 
3817.000000	62.450361 
3816.000000	62.463331 
3815.000000	62.484788 
3814.000000	62.511563 
3813.000000	62.540221 
3812.000000	62.567377 
3811.000000	62.590050 
3810.000000	62.606191 
3809.000000	62.614965 
3808.000000	62.616658 
3807.000000	62.612295 
3806.000000	62.603592 
3805.000000	62.592601 
3804.000000	62.581300 
3803.000000	62.571382 
3802.000000	62.563657 
3801.000000	62.558484 
3800.000000	62.555384 
3799.000000	62.553501 
3798.000000	62.551641 
3797.000000	62.548518 
3796.000000	62.543058 
3795.000000	62.534761 
3794.000000	62.523722 
3793.000000	62.510776 
3792.000000	62.497377 
3791.000000	62.485313 
3790.000000	62.476539 
3789.000000	62.472820 
3788.000000	62.475299 
3787.000000	62.484240 
3786.000000	62.499070 
3785.000000	62.518239 
3784.000000	62.539410 
3783.000000	62.559890 
3782.000000	62.577128 
3781.000000	62.589192 
3780.000000	62.595343 
3779.000000	62.595701 
3778.000000	62.591481 
3777.000000	62.583804 
3776.000000	62.573885 
3775.000000	62.562036 
3774.000000	62.547826 
3773.000000	62.530446 
3772.000000	62.509083 
3771.000000	62.483644 
3770.000000	62.455224 
3769.000000	62.426137 
3768.000000	62.399482 
3767.000000	62.378382 
3766.000000	62.365341 
3765.000000	62.361359 
3764.000000	62.365889 
3763.000000	62.376713 
3762.000000	62.390875 
3761.000000	62.405705 
3760.000000	62.419795 
3759.000000	62.433099 
3758.000000	62.447047 
3757.000000	62.463665 
3756.000000	62.484717 
3755.000000	62.510657 
3754.000000	62.540102 
3753.000000	62.570261 
3752.000000	62.597036 
3751.000000	62.616443 
3750.000000	62.625122 
3749.000000	62.621474 
3748.000000	62.605810 
3747.000000	62.580418 
3746.000000	62.548804 
3745.000000	62.515211 
3744.000000	62.483811 
3743.000000	62.457895 
3742.000000	62.439417 
3741.000000	62.428760 
3740.000000	62.424969 
3739.000000	62.426233 
3738.000000	62.430024 
3737.000000	62.433528 
3736.000000	62.434387 
3735.000000	62.430953 
3734.000000	62.422156 
3733.000000	62.407970 
3732.000000	62.389039 
3731.000000	62.366724 
3730.000000	62.342476 
3729.000000	62.317872 
3728.000000	62.294197 
3727.000000	62.272477 
3726.000000	62.253546 
3725.000000	62.238144 
3724.000000	62.226867 
3723.000000	62.220144 
3722.000000	62.218141 
3721.000000	62.220644 
3720.000000	62.226843 
3719.000000	62.235546 
3718.000000	62.245297 
3717.000000	62.254762 
3716.000000	62.262868 
3715.000000	62.269377 
3714.000000	62.274909 
3713.000000	62.280988 
3712.000000	62.289547 
3711.000000	62.302398 
3710.000000	62.320542 
3709.000000	62.343835 
3708.000000	62.370753 
3707.000000	62.398695 
3706.000000	62.424373 
3705.000000	62.444591 
3704.000000	62.456965 
3703.000000	62.460470 
3702.000000	62.455606 
3701.000000	62.444329 
3700.000000	62.429547 
3699.000000	62.414503 
3698.000000	62.401986 
3697.000000	62.394165 
3696.000000	62.391829 
3695.000000	62.394523 
3694.000000	62.400627 
3693.000000	62.408041 
3692.000000	62.414360 
3691.000000	62.417411 
3690.000000	62.415504 
3689.000000	62.407636 
3688.000000	62.393450 
3687.000000	62.373447 
3686.000000	62.348675 
3685.000000	62.320542 
3684.000000	62.290978 
3683.000000	62.262010 
3682.000000	62.235784 
3681.000000	62.213945 
3680.000000	62.197613 
3679.000000	62.187004 
3678.000000	62.181282 
3677.000000	62.178993 
3676.000000	62.177968 
3675.000000	62.176179 
3674.000000	62.171602 
3673.000000	62.163305 
3672.000000	62.151122 
3671.000000	62.136054 
3670.000000	62.119626 
3669.000000	62.103939 
3668.000000	62.090849 
3667.000000	62.081837 
3666.000000	62.077522 
3665.000000	62.077569 
3664.000000	62.080693 
3663.000000	62.085008 
3662.000000	62.088394 
3661.000000	62.089157 
3660.000000	62.086343 
3659.000000	62.079954 
3658.000000	62.070846 
3657.000000	62.060809 
3656.000000	62.052178 
3655.000000	62.047052 
3654.000000	62.047100 
3653.000000	62.052845 
3652.000000	62.063646 
3651.000000	62.078070 
3650.000000	62.094068 
3649.000000	62.109518 
3648.000000	62.122726 
3647.000000	62.132954 
3646.000000	62.140393 
3645.000000	62.145757 
3644.000000	62.150049 
3643.000000	62.154245 
3642.000000	62.158751 
3641.000000	62.163591 
3640.000000	62.168264 
3639.000000	62.172222 
3638.000000	62.174654 
3637.000000	62.174916 
3636.000000	62.172460 
3635.000000	62.166929 
3634.000000	62.157893 
3633.000000	62.144899 
3632.000000	62.127447 
3631.000000	62.105178 
3630.000000	62.078118 
3629.000000	62.047004 
3628.000000	62.013387 
3627.000000	61.979818 
3626.000000	61.949419 
3625.000000	61.925506 
3624.000000	61.910939 
3623.000000	61.907482 
3622.000000	61.915445 
3621.000000	61.933612 
3620.000000	61.959028 
3619.000000	61.987948 
3618.000000	62.016296 
3617.000000	62.040758 
3616.000000	62.058901 
3615.000000	62.070012 
3614.000000	62.074923 
3613.000000	62.075710 
3612.000000	62.074995 
3611.000000	62.075138 
3610.000000	62.077379 
3609.000000	62.081599 
3608.000000	62.086439 
3607.000000	62.089657 
3606.000000	62.089037 
3605.000000	62.082862 
3604.000000	62.070798 
3603.000000	62.054038 
3602.000000	62.035083 
3601.000000	62.017226 
3600.000000	62.003493 
3599.000000	61.996150 
3598.000000	61.995816 
3597.000000	62.001371 
3596.000000	62.010145 
3595.000000	62.018370 
3594.000000	62.022161 
3593.000000	62.018394 
3592.000000	62.005734 
3591.000000	61.984348 
3590.000000	61.956620 
3589.000000	61.926341 
3588.000000	61.898112 
3587.000000	61.876344 
3586.000000	61.864376 
3585.000000	61.863899 
3584.000000	61.874413 
3583.000000	61.893606 
3582.000000	61.917495 
3581.000000	61.941480 
3580.000000	61.960792 
3579.000000	61.971473 
3578.000000	61.970806 
3577.000000	61.957740 
3576.000000	61.932611 
3575.000000	61.897182 
3574.000000	61.853933 
3573.000000	61.805987 
3572.000000	61.756706 
3571.000000	61.709642 
3570.000000	61.668109 
3569.000000	61.635494 
3568.000000	61.614775 
3567.000000	61.608457 
3566.000000	61.617946 
3565.000000	61.643385 
3564.000000	61.683320 
3563.000000	61.734747 
3562.000000	61.792826 
3561.000000	61.852240 
3560.000000	61.907410 
3559.000000	61.953806 
3558.000000	61.988306 
3557.000000	62.009859 
3556.000000	62.019252 
3555.000000	62.018799 
3554.000000	62.011766 
3553.000000	62.001228 
3552.000000	61.989450 
3551.000000	61.977481 
3550.000000	61.965227 
3549.000000	61.951589 
3548.000000	61.935138 
3547.000000	61.914682 
3546.000000	61.889910 
3545.000000	61.861419 
3544.000000	61.830878 
3543.000000	61.800694 
3542.000000	61.773490 
3541.000000	61.751365 
3540.000000	61.735630 
3539.000000	61.726689 
3538.000000	61.723732 
3537.000000	61.725115 
3536.000000	61.728620 
3535.000000	61.731743 
3534.000000	61.732196 
3533.000000	61.728358 
3532.000000	61.719489 
3531.000000	61.705470 
3530.000000	61.687469 
3529.000000	61.667394 
3528.000000	61.647772 
3527.000000	61.631131 
3526.000000	61.619782 
3525.000000	61.615276 
3524.000000	61.618232 
3523.000000	61.628341 
3522.000000	61.644220 
3521.000000	61.663842 
3520.000000	61.684989 
3519.000000	61.705613 
3518.000000	61.724185 
3517.000000	61.739659 
3516.000000	61.751604 
3515.000000	61.759829 
3514.000000	61.764264 
3513.000000	61.764669 
3512.000000	61.760711 
3511.000000	61.752009 
3510.000000	61.738681 
3509.000000	61.721038 
3508.000000	61.700320 
3507.000000	61.677813 
3506.000000	61.654925 
3505.000000	61.632728 
3504.000000	61.611962 
3503.000000	61.593174 
3502.000000	61.576914 
3501.000000	61.564326 
3500.000000	61.557054 
3499.000000	61.557435 
3498.000000	61.567950 
3497.000000	61.590790 
3496.000000	61.626887 
3495.000000	61.675238 
3494.000000	61.732554 
3493.000000	61.793494 
3492.000000	61.851501 
3491.000000	61.899900 
3490.000000	61.932873 
3489.000000	61.946773 
3488.000000	61.940145 
3487.000000	61.914348 
3486.000000	61.872839 
3485.000000	61.820530 
3484.000000	61.763167 
3483.000000	61.706495 
3482.000000	61.655640 
3481.000000	61.615324 
3480.000000	61.588335 
3479.000000	61.575841 
3478.000000	61.576938 
3477.000000	61.589050 
3476.000000	61.608362 
3475.000000	61.630487 
3474.000000	61.651587 
3473.000000	61.668753 
3472.000000	61.681222 
3471.000000	61.690044 
3470.000000	61.697864 
3469.000000	61.707806 
3468.000000	61.722397 
3467.000000	61.742281 
3466.000000	61.765789 
3465.000000	61.788988 
3464.000000	61.806368 
3463.000000	61.812686 
3462.000000	61.803746 
3461.000000	61.778545 
3460.000000	61.739492 
3459.000000	61.692953 
3458.000000	61.647176 
3457.000000	61.611318 
3456.000000	61.593437 
3455.000000	61.598825 
3454.000000	61.628818 
3453.000000	61.680221 
3452.000000	61.746215 
3451.000000	61.817216 
3450.000000	61.883139 
3449.000000	61.934924 
3448.000000	61.966276 
3447.000000	61.974430 
3446.000000	61.960291 
3445.000000	61.928176 
3444.000000	61.884593 
3443.000000	61.837053 
3442.000000	61.792564 
3441.000000	61.756873 
3440.000000	61.733293 
3439.000000	61.722826 
3438.000000	61.723732 
3437.000000	61.732172 
3436.000000	61.742734 
3435.000000	61.749625 
3434.000000	61.747646 
3433.000000	61.733126 
3432.000000	61.704850 
3431.000000	61.663961 
3430.000000	61.614012 
3429.000000	61.560153 
3428.000000	61.507868 
3427.000000	61.462116 
3426.000000	61.425828 
3425.000000	61.399722 
3424.000000	61.381983 
3423.000000	61.369109 
3422.000000	61.357045 
3421.000000	61.342477 
3420.000000	61.323642 
3419.000000	61.300587 
3418.000000	61.275434 
3417.000000	61.251616 
3416.000000	61.232638 
3415.000000	61.221122 
3414.000000	61.218380 
3413.000000	61.224102 
3412.000000	61.236667 
3411.000000	61.253857 
3410.000000	61.273217 
3409.000000	61.292743 
3408.000000	61.311292 
3407.000000	61.328530 
3406.000000	61.344385 
3405.000000	61.358785 
3404.000000	61.371564 
3403.000000	61.381816 
3402.000000	61.388397 
3401.000000	61.389636 
3400.000000	61.384534 
3399.000000	61.372280 
3398.000000	61.352801 
3397.000000	61.326742 
3396.000000	61.295843 
3395.000000	61.262416 
3394.000000	61.229133 
3393.000000	61.198830 
3392.000000	61.174178 
3391.000000	61.157226 
3390.000000	61.148858 
3389.000000	61.148762 
3388.000000	61.155509 
3387.000000	61.166572 
3386.000000	61.178946 
3385.000000	61.189723 
3384.000000	61.196827 
3383.000000	61.199212 
3382.000000	61.197352 
3381.000000	61.192870 
3380.000000	61.188316 
3379.000000	61.186408 
3378.000000	61.189270 
3377.000000	61.197876 
3376.000000	61.211729 
3375.000000	61.229205 
3374.000000	61.247825 
3373.000000	61.264872 
3372.000000	61.277890 
3371.000000	61.285495 
3370.000000	61.287403 
3369.000000	61.284542 
3368.000000	61.278724 
3367.000000	61.272048 
3366.000000	61.266541 
3365.000000	61.263704 
3364.000000	61.264443 
3363.000000	61.268782 
3362.000000	61.276173 
3361.000000	61.285853 
3360.000000	61.296868 
3359.000000	61.308383 
3358.000000	61.319851 
3357.000000	61.330771 
3356.000000	61.340761 
3355.000000	61.349368 
3354.000000	61.356019 
3353.000000	61.359643 
3352.000000	61.359071 
3351.000000	61.352825 
3350.000000	61.339831 
3349.000000	61.319541 
3348.000000	61.292290 
3347.000000	61.259508 
3346.000000	61.223673 
3345.000000	61.188125 
3344.000000	61.156344 
3343.000000	61.131453 
3342.000000	61.115264 
3341.000000	61.108422 
3340.000000	61.110091 
3339.000000	61.118078 
3338.000000	61.129283 
3337.000000	61.140441 
3336.000000	61.148643 
3335.000000	61.151909 
3334.000000	61.149358 
3333.000000	61.141467 
3332.000000	61.129689 
3331.000000	61.116123 
3330.000000	61.103177 
3329.000000	61.093163 
3328.000000	61.087942 
3327.000000	61.088657 
3326.000000	61.095571 
3325.000000	61.108112 
3324.000000	61.124897 
3323.000000	61.143946 
3322.000000	61.162972 
3321.000000	61.179852 
3320.000000	61.192655 
3319.000000	61.200189 
3318.000000	61.201858 
3317.000000	61.197543 
3316.000000	61.187648 
3315.000000	61.173176 
3314.000000	61.155247 
3313.000000	61.135077 
3312.000000	61.114025 
3311.000000	61.093568 
3310.000000	61.074829 
3309.000000	61.058592 
3308.000000	61.045241 
3307.000000	61.034774 
3306.000000	61.026763 
3305.000000	61.020445 
3304.000000	61.014842 
3303.000000	61.008834 
3302.000000	61.001563 
3301.000000	60.992169 
3300.000000	60.980033 
3299.000000	60.964775 
3298.000000	60.946202 
3297.000000	60.924482 
3296.000000	60.900020 
3295.000000	60.873627 
3294.000000	60.846614 
3293.000000	60.820746 
3292.000000	60.797810 
3291.000000	60.779476 
3290.000000	60.767269 
3289.000000	60.762071 
3288.000000	60.763835 
3287.000000	60.771870 
3286.000000	60.784840 
3285.000000	60.801124 
3284.000000	60.818934 
3283.000000	60.836696 
3282.000000	60.853195 
3281.000000	60.867571 
3280.000000	60.879540 
3279.000000	60.888791 
3278.000000	60.895109 
3277.000000	60.898375 
3276.000000	60.898661 
3275.000000	60.896277 
3274.000000	60.891580 
3273.000000	60.885429 
3272.000000	60.878610 
3271.000000	60.871696 
3270.000000	60.864877 
3269.000000	60.857892 
3268.000000	60.850071 
3267.000000	60.840654 
3266.000000	60.829043 
3265.000000	60.815191 
3264.000000	60.799670 
3263.000000	60.783576 
3262.000000	60.768222 
3261.000000	60.754776 
3260.000000	60.744118 
3259.000000	60.736536 
3258.000000	60.731840 
3257.000000	60.729312 
3256.000000	60.728406 
3255.000000	60.728931 
3254.000000	60.731148 
3253.000000	60.735583 
3252.000000	60.743141 
3251.000000	60.754418 
3250.000000	60.769391 
3249.000000	60.787343 
3248.000000	60.806679 
3247.000000	60.825133 
3246.000000	60.840463 
3245.000000	60.850548 
3244.000000	60.854053 
3243.000000	60.850548 
3242.000000	60.840702 
3241.000000	60.825943 
3240.000000	60.808181 
3239.000000	60.789322 
3238.000000	60.771107 
3237.000000	60.754561 
3236.000000	60.740137 
3235.000000	60.727405 
3234.000000	60.715603 
3233.000000	60.703444 
3232.000000	60.689854 
3231.000000	60.673809 
3230.000000	60.654759 
3229.000000	60.632896 
3228.000000	60.609126 
3227.000000	60.585093 
3226.000000	60.562801 
3225.000000	60.544300 
3224.000000	60.531401 
3223.000000	60.525417 
3222.000000	60.526609 
3221.000000	60.534501 
3220.000000	60.548114 
3219.000000	60.565781 
3218.000000	60.585665 
3217.000000	60.606026 
3216.000000	60.625505 
3215.000000	60.642981 
3214.000000	60.657978 
3213.000000	60.670351 
3212.000000	60.680222 
3211.000000	60.688042 
3210.000000	60.693883 
3209.000000	60.697579 
3208.000000	60.698366 
3207.000000	60.695552 
3206.000000	60.688090 
3205.000000	60.675048 
3204.000000	60.655927 
3203.000000	60.631203 
3202.000000	60.602283 
3201.000000	60.571336 
3200.000000	60.541224 
3199.000000	60.514855 
3198.000000	60.494351 
3197.000000	60.480713 
3196.000000	60.473561 
3195.000000	60.471200 
3194.000000	60.471391 
3193.000000	60.471677 
3192.000000	60.470175 
3191.000000	60.466027 
3190.000000	60.459375 
3189.000000	60.451412 
3188.000000	60.443472 
3187.000000	60.437035 
3186.000000	60.433077 
3185.000000	60.432028 
3184.000000	60.433578 
3183.000000	60.437202 
3182.000000	60.442399 
3181.000000	60.448956 
3180.000000	60.456871 
3179.000000	60.466337 
3178.000000	60.477352 
3177.000000	60.489726 
3176.000000	60.502862 
3175.000000	60.515809 
3174.000000	60.527420 
3173.000000	60.536766 
3172.000000	60.543227 
3171.000000	60.546374 
3170.000000	60.545992 
3169.000000	60.541987 
3168.000000	60.534143 
3167.000000	60.522413 
3166.000000	60.506749 
3165.000000	60.487627 
3164.000000	60.465908 
3163.000000	60.442852 
3162.000000	60.420012 
3161.000000	60.398960 
3160.000000	60.381031 
3159.000000	60.366988 
3158.000000	60.356736 
3157.000000	60.349488 
3156.000000	60.343956 
3155.000000	60.338568 
3154.000000	60.332036 
3153.000000	60.323572 
3152.000000	60.313129 
3151.000000	60.301327 
3150.000000	60.289382 
3149.000000	60.278511 
3148.000000	60.269832 
3147.000000	60.264062 
3146.000000	60.261249 
3145.000000	60.260701 
3144.000000	60.260939 
3143.000000	60.260009 
3142.000000	60.255813 
3141.000000	60.246682 
3140.000000	60.231781 
3139.000000	60.211658 
3138.000000	60.188126 
3137.000000	60.164213 
3136.000000	60.143351 
3135.000000	60.129070 
3134.000000	60.123801 
3133.000000	60.128784 
3132.000000	60.143280 
3131.000000	60.164880 
3130.000000	60.190320 
3129.000000	60.215711 
3128.000000	60.237383 
3127.000000	60.252690 
3126.000000	60.260200 
3125.000000	60.259938 
3124.000000	60.253024 
3123.000000	60.241270 
3122.000000	60.226821 
3121.000000	60.211586 
3120.000000	60.197091 
3119.000000	60.184478 
3118.000000	60.174536 
3117.000000	60.167503 
3116.000000	60.163426 
3115.000000	60.162043 
3114.000000	60.162949 
3113.000000	60.165500 
3112.000000	60.169053 
3111.000000	60.172772 
3110.000000	60.176277 
3109.000000	60.179448 
3108.000000	60.182976 
3107.000000	60.187816 
3106.000000	60.195422 
3105.000000	60.207390 
3104.000000	60.224747 
3103.000000	60.247778 
3102.000000	60.275459 
3101.000000	60.305523 
3100.000000	60.334658 
3099.000000	60.359001 
3098.000000	60.374951 
3097.000000	60.380077 
3096.000000	60.373497 
3095.000000	60.356116 
3094.000000	60.330629 
3093.000000	60.300779 
3092.000000	60.270762 
3091.000000	60.244321 
3090.000000	60.224127 
3089.000000	60.211300 
3088.000000	60.205531 
3087.000000	60.205459 
3086.000000	60.209035 
3085.000000	60.214042 
3084.000000	60.218477 
3083.000000	60.220956 
3082.000000	60.220575 
3081.000000	60.216999 
3080.000000	60.209941 
3079.000000	60.199546 
3078.000000	60.186004 
3077.000000	60.169911 
3076.000000	60.151886 
3075.000000	60.132861 
3074.000000	60.113787 
3073.000000	60.095715 
3072.000000	60.079455 
3071.000000	60.065770 
3070.000000	60.055279 
3069.000000	60.048389 
3068.000000	60.045194 
3067.000000	60.045671 
3066.000000	60.049581 
3065.000000	60.056471 
3064.000000	60.065531 
3063.000000	60.075688 
3062.000000	60.085844 
3061.000000	60.094881 
3060.000000	60.101771 
3059.000000	60.105824 
3058.000000	60.106444 
3057.000000	60.103607 
3056.000000	60.097360 
3055.000000	60.087704 
3054.000000	60.074472 
3053.000000	60.057687 
3052.000000	60.037398 
3051.000000	60.014295 
3050.000000	59.989428 
3049.000000	59.964561 
3048.000000	59.941673 
3047.000000	59.922671 
3046.000000	59.908771 
3045.000000	59.900307 
3044.000000	59.896397 
3043.000000	59.895062 
3042.000000	59.893751 
3041.000000	59.889888 
3040.000000	59.881496 
3039.000000	59.867572 
3038.000000	59.848475 
3037.000000	59.825754 
3036.000000	59.801745 
3035.000000	59.779191 
3034.000000	59.760689 
3033.000000	59.748172 
3032.000000	59.742999 
3031.000000	59.745788 
3030.000000	59.756398 
3029.000000	59.773683 
3028.000000	59.795856 
3027.000000	59.820461 
3026.000000	59.844279 
3025.000000	59.863948 
3024.000000	59.876275 
3023.000000	59.878802 
3022.000000	59.870290 
3021.000000	59.851050 
3020.000000	59.822726 
3019.000000	59.788250 
3018.000000	59.751343 
3017.000000	59.715938 
3016.000000	59.685420 
3015.000000	59.662270 
3014.000000	59.647893 
3013.000000	59.642577 
3012.000000	59.645628 
3011.000000	59.655594 
3010.000000	59.670543 
3009.000000	59.688138 
3008.000000	59.705901 
3007.000000	59.721136 
3006.000000	59.731364 
3005.000000	59.734749 
3004.000000	59.730148 
3003.000000	59.717559 
3002.000000	59.697914 
3001.000000	59.673213 
3000.000000	59.645843 
2999.000000	59.618306 
2998.000000	59.592771 
2997.000000	59.570908 
2996.000000	59.553742 
2995.000000	59.541630 
2994.000000	59.534430 
2993.000000	59.531903 
2992.000000	59.533715 
2991.000000	59.539413 
2990.000000	59.548401 
2989.000000	59.559822 
2988.000000	59.572649 
2987.000000	59.585428 
2986.000000	59.596872 
2985.000000	59.605789 
2984.000000	59.611535 
2983.000000	59.614062 
2982.000000	59.613656 
2981.000000	59.610915 
2980.000000	59.606361 
2979.000000	59.600090 
2978.000000	59.591889 
2977.000000	59.581279 
2976.000000	59.567689 
2975.000000	59.550738 
2974.000000	59.530615 
2973.000000	59.508156 
2972.000000	59.484648 
2971.000000	59.461665 
2970.000000	59.441113 
2969.000000	59.424567 
2968.000000	59.413099 
2967.000000	59.406852 
2966.000000	59.405040 
2965.000000	59.405946 
2964.000000	59.407472 
2963.000000	59.407377 
2962.000000	59.403705 
2961.000000	59.395074 
2960.000000	59.380912 
2959.000000	59.361457 
2958.000000	59.337425 
2957.000000	59.310054 
2956.000000	59.280586 
2955.000000	59.250426 
2954.000000	59.220910 
2953.000000	59.193253 
2952.000000	59.168457 
2951.000000	59.147095 
2950.000000	59.129190 
2949.000000	59.114217 
2948.000000	59.101295 
2947.000000	59.089040 
2946.000000	59.076333 
2945.000000	59.062409 
2944.000000	59.047460 
2943.000000	59.032225 
2942.000000	59.018516 
2941.000000	59.008312 
2940.000000	59.003734 
2939.000000	59.006309 
2938.000000	59.016489 
2937.000000	59.033441 
2936.000000	59.054923 
2935.000000	59.077548 
2934.000000	59.097552 
2933.000000	59.111356 
2932.000000	59.116530 
2931.000000	59.112262 
2930.000000	59.099435 
2929.000000	59.080505 
2928.000000	59.058547 
2927.000000	59.036493 
2926.000000	59.016633 
2925.000000	59.000396 
2924.000000	58.988404 
2923.000000	58.980798 
2922.000000	58.977746 
2921.000000	58.979725 
2920.000000	58.987259 
2919.000000	59.000658 
2918.000000	59.019732 
2917.000000	59.043359 
2916.000000	59.069395 
2915.000000	59.095096 
2914.000000	59.117388 
2913.000000	59.133338 
2912.000000	59.140801 
2911.000000	59.138822 
2910.000000	59.127974 
2909.000000	59.110140 
2908.000000	59.088039 
2907.000000	59.064841 
2906.000000	59.043669 
2905.000000	59.027147 
2904.000000	59.016942 
2903.000000	59.013724 
2902.000000	59.017300 
2901.000000	59.026932 
2900.000000	59.041333 
2899.000000	59.059023 
2898.000000	59.078097 
2897.000000	59.096574 
2896.000000	59.112191 
2895.000000	59.122824 
2894.000000	59.126353 
2893.000000	59.121084 
2892.000000	59.106111 
2891.000000	59.081459 
2890.000000	59.048533 
2889.000000	59.009814 
2888.000000	58.968734 
2887.000000	58.929181 
2886.000000	58.895087 
2885.000000	58.869576 
2884.000000	58.854889 
2883.000000	58.851742 
2882.000000	58.859753 
2881.000000	58.877277 
2880.000000	58.901929 
2879.000000	58.930778 
2878.000000	58.960652 
2877.000000	58.988475 
2876.000000	59.011435 
2875.000000	59.027171 
2874.000000	59.033918 
2873.000000	59.030652 
2872.000000	59.017515 
2871.000000	58.995652 
2870.000000	58.967137 
2869.000000	58.934688 
2868.000000	58.901500 
2867.000000	58.870649 
2866.000000	58.844780 
2865.000000	58.825659 
2864.000000	58.814144 
2863.000000	58.809947 
2862.000000	58.811974 
2861.000000	58.818483 
2860.000000	58.827471 
2859.000000	58.837103 
2858.000000	58.845591 
2857.000000	58.851504 
2856.000000	58.853983 
2855.000000	58.852267 
2854.000000	58.845996 
2853.000000	58.834958 
2852.000000	58.819246 
2851.000000	58.799409 
2850.000000	58.776497 
2849.000000	58.752083 
2848.000000	58.728218 
2847.000000	58.707237 
2846.000000	58.691453 
2845.000000	58.682584 
2844.000000	58.681511 
2843.000000	58.688044 
2842.000000	58.700847 
2841.000000	58.717584 
2840.000000	58.735537 
2839.000000	58.751940 
2838.000000	58.764672 
2837.000000	58.772492 
2836.000000	58.775401 
2835.000000	58.774375 
2834.000000	58.770918 
2833.000000	58.766961 
2832.000000	58.763909 
2831.000000	58.762359 
2830.000000	58.761763 
2829.000000	58.760857 
2828.000000	58.757710 
2827.000000	58.750557 
2826.000000	58.738231 
2825.000000	58.720517 
2824.000000	58.698582 
2823.000000	58.674788 
2822.000000	58.652281 
2821.000000	58.634328 
2820.000000	58.623933 
2819.000000	58.623099 
2818.000000	58.632349 
2817.000000	58.650636 
2816.000000	58.675384 
2815.000000	58.702874 
2814.000000	58.728861 
2813.000000	58.749318 
2812.000000	58.760881 
2811.000000	58.761715 
2810.000000	58.751535 
2809.000000	58.731889 
2808.000000	58.705639 
2807.000000	58.676648 
2806.000000	58.648943 
2805.000000	58.625984 
2804.000000	58.610153 
2803.000000	58.602261 
2802.000000	58.601689 
2801.000000	58.606481 
2800.000000	58.613967 
2799.000000	58.621239 
2798.000000	58.625888 
2797.000000	58.626174 
2796.000000	58.621382 
2795.000000	58.611559 
2794.000000	58.597350 
2793.000000	58.579826 
2792.000000	58.560109 
2791.000000	58.539295 
2790.000000	58.518314 
2789.000000	58.498239 
2788.000000	58.479857 
2787.000000	58.464121 
2786.000000	58.451890 
2785.000000	58.443808 
2784.000000	58.440279 
2783.000000	58.441042 
2782.000000	58.445429 
2781.000000	58.452177 
2780.000000	58.459711 
2779.000000	58.466291 
2778.000000	58.470487 
2777.000000	58.471417 
2776.000000	58.468914 
2775.000000	58.463501 
2774.000000	58.456206 
2773.000000	58.448195 
2772.000000	58.440613 
2771.000000	58.434414 
2770.000000	58.430075 
2769.000000	58.427643 
2768.000000	58.426737 
2767.000000	58.426737 
2766.000000	58.426690 
2765.000000	58.425450 
2764.000000	58.422040 
2763.000000	58.415555 
2762.000000	58.405637 
2761.000000	58.392572 
2760.000000	58.377408 
2759.000000	58.362030 
2758.000000	58.348703 
2757.000000	58.339428 
2756.000000	58.335733 
2755.000000	58.338022 
2754.000000	58.345484 
2753.000000	58.356142 
2752.000000	58.367109 
2751.000000	58.375620 
2750.000000	58.379220 
2749.000000	58.376789 
2748.000000	58.368396 
2747.000000	58.355545 
2746.000000	58.340716 
2745.000000	58.326578 
2744.000000	58.315372 
2743.000000	58.308386 
2742.000000	58.305883 
2741.000000	58.306980 
2740.000000	58.310174 
2739.000000	58.313918 
2738.000000	58.316993 
2737.000000	58.318877 
2736.000000	58.319735 
2735.000000	58.320260 
2734.000000	58.321261 
2733.000000	58.323073 
2732.000000	58.325552 
2731.000000	58.327913 
2730.000000	58.329057 
2729.000000	58.327770 
2728.000000	58.323049 
2727.000000	58.314657 
2726.000000	58.302950 
2725.000000	58.288884 
2724.000000	58.273768 
2723.000000	58.259034 
2722.000000	58.245587 
2721.000000	58.233880 
2720.000000	58.223485 
2719.000000	58.213567 
2718.000000	58.202838 
2717.000000	58.190059 
2716.000000	58.174514 
2715.000000	58.156228 
2714.000000	58.136153 
2713.000000	58.115863 
2712.000000	58.097434 
2711.000000	58.082675 
2710.000000	58.072948 
2709.000000	58.068633 
2708.000000	58.069038 
2707.000000	58.072662 
2706.000000	58.077263 
2705.000000	58.080601 
2704.000000	58.080983 
2703.000000	58.077716 
2702.000000	58.070874 
2701.000000	58.061408 
2700.000000	58.050632 
2699.000000	58.039855 
2698.000000	58.029866 
2697.000000	58.020901 
2696.000000	58.012723 
2695.000000	58.004832 
2694.000000	57.996845 
2693.000000	57.988548 
2692.000000	57.980084 
2691.000000	57.971930 
2690.000000	57.964730 
2689.000000	57.958960 
2688.000000	57.954764 
2687.000000	57.951974 
2686.000000	57.950019 
2685.000000	57.948160 
2684.000000	57.945632 
2683.000000	57.941889 
2682.000000	57.936668 
2681.000000	57.929778 
2680.000000	57.921051 
2679.000000	57.910370 
2678.000000	57.897377 
2677.000000	57.881808 
2676.000000	57.863259 
2675.000000	57.841706 
2674.000000	57.817363 
2673.000000	57.790851 
2672.000000	57.763361 
2671.000000	57.736301 
2670.000000	57.711601 
2669.000000	57.691240 
2668.000000	57.677149 
2667.000000	57.670831 
2666.000000	57.673120 
2665.000000	57.683730 
2664.000000	57.701158 
2663.000000	57.722902 
2662.000000	57.745575 
2661.000000	57.765531 
2660.000000	57.779645 
2659.000000	57.785773 
2658.000000	57.783365 
2657.000000	57.773470 
2656.000000	57.758641 
2655.000000	57.742142 
2654.000000	57.727336 
2653.000000	57.716727 
2652.000000	57.711696 
2651.000000	57.712173 
2650.000000	57.716846 
2649.000000	57.724022 
2648.000000	57.731962 
2647.000000	57.739424 
2646.000000	57.745862 
2645.000000	57.751488 
2644.000000	57.756686 
2643.000000	57.761812 
2642.000000	57.766532 
2641.000000	57.770061 
2640.000000	57.771158 
2639.000000	57.768630 
2638.000000	57.761836 
2637.000000	57.751083 
2636.000000	57.737827 
2635.000000	57.724213 
2634.000000	57.712578 
2633.000000	57.704687 
2632.000000	57.701015 
2631.000000	57.700538 
2630.000000	57.700967 
2629.000000	57.699108 
2628.000000	57.691955 
2627.000000	57.677578 
2626.000000	57.655692 
2625.000000	57.627940 
2624.000000	57.597470 
2623.000000	57.568168 
2622.000000	57.543706 
2621.000000	57.526445 
2620.000000	57.516980 
2619.000000	57.514166 
2618.000000	57.515549 
2617.000000	57.517886 
2616.000000	57.518482 
2615.000000	57.515645 
2614.000000	57.509350 
2613.000000	57.500791 
2612.000000	57.492232 
2611.000000	57.486128 
2610.000000	57.484340 
2609.000000	57.487535 
2608.000000	57.494950 
2607.000000	57.504630 
2606.000000	57.513904 
2605.000000	57.520151 
2604.000000	57.521533 
2603.000000	57.517385 
2602.000000	57.508444 
2601.000000	57.496619 
2600.000000	57.484197 
2599.000000	57.473373 
2598.000000	57.465720 
2597.000000	57.461667 
2596.000000	57.460618 
2595.000000	57.460975 
2594.000000	57.461071 
2593.000000	57.459092 
2592.000000	57.453799 
2591.000000	57.444787 
2590.000000	57.432484 
2589.000000	57.417893 
2588.000000	57.402062 
2587.000000	57.386040 
2586.000000	57.370352 
2585.000000	57.355022 
2584.000000	57.339715 
2583.000000	57.323646 
2582.000000	57.306194 
2581.000000	57.287049 
2580.000000	57.266449 
2579.000000	57.245159 
2578.000000	57.224392 
2577.000000	57.205748 
2576.000000	57.190752 
2575.000000	57.180643 
2574.000000	57.175898 
2573.000000	57.176113 
2572.000000	57.180166 
2571.000000	57.186150 
2570.000000	57.191920 
2569.000000	57.195615 
2568.000000	57.196164 
2567.000000	57.193374 
2566.000000	57.188081 
2565.000000	57.181763 
2564.000000	57.176136 
2563.000000	57.172703 
2562.000000	57.172513 
2561.000000	57.175493 
2560.000000	57.180881 
2559.000000	57.187294 
2558.000000	57.192969 
2557.000000	57.196331 
2556.000000	57.195973 
2555.000000	57.191348 
2554.000000	57.182526 
2553.000000	57.170152 
2552.000000	57.155489 
2551.000000	57.139873 
2550.000000	57.124781 
2549.000000	57.111406 
2548.000000	57.100582 
2547.000000	57.092761 
2546.000000	57.087898 
2545.000000	57.085657 
2544.000000	57.085347 
2543.000000	57.086181 
2542.000000	57.087397 
2541.000000	57.088613 
2540.000000	57.089543 
2539.000000	57.090282 
2538.000000	57.091259 
2537.000000	57.093167 
2536.000000	57.096576 
2535.000000	57.101774 
2534.000000	57.108712 
2533.000000	57.116675 
2532.000000	57.124710 
2531.000000	57.131695 
2530.000000	57.136654 
2529.000000	57.138872 
2528.000000	57.138085 
2527.000000	57.134199 
2526.000000	57.127428 
2525.000000	57.117843 
2524.000000	57.105326 
2523.000000	57.089805 
2522.000000	57.071137 
2521.000000	57.049655 
2520.000000	57.025909 
2519.000000	57.000756 
2518.000000	56.975030 
2517.000000	56.949591 
2516.000000	56.925272 
2515.000000	56.902432 
2514.000000	56.881237 
2513.000000	56.861734 
2512.000000	56.844043 
2511.000000	56.828546 
2510.000000	56.815958 
2509.000000	56.806993 
2508.000000	56.802415 
2507.000000	56.802654 
2506.000000	56.807613 
2505.000000	56.816101 
2504.000000	56.826257 
2503.000000	56.835961 
2502.000000	56.842827 
2501.000000	56.844997 
2500.000000	56.841373 
2499.000000	56.832122 
2498.000000	56.818628 
2497.000000	56.803154 
2496.000000	56.788659 
2495.000000	56.778192 
2494.000000	56.774473 
2493.000000	56.779217 
2492.000000	56.792902 
2491.000000	56.814503 
2490.000000	56.841850 
2489.000000	56.871604 
2488.000000	56.900215 
2487.000000	56.923961 
2486.000000	56.939888 
2485.000000	56.945919 
2484.000000	56.941270 
2483.000000	56.926274 
2482.000000	56.902551 
2481.000000	56.872367 
2480.000000	56.838536 
2479.000000	56.803774 
2478.000000	56.770706 
2477.000000	56.741428 
2476.000000	56.717514 
2475.000000	56.699872 
2474.000000	56.688737 
2473.000000	56.683826 
2472.000000	56.684374 
2471.000000	56.689214 
2470.000000	56.696963 
2469.000000	56.706285 
2468.000000	56.716060 
2467.000000	56.725358 
2466.000000	56.733417 
2465.000000	56.739473 
2464.000000	56.742858 
2463.000000	56.742763 
2462.000000	56.738209 
2461.000000	56.728672 
2460.000000	56.713747 
2459.000000	56.693744 
2458.000000	56.669473 
2457.000000	56.642627 
2456.000000	56.615233 
2455.000000	56.589365 
2454.000000	56.566858 
2453.000000	56.548929 
2452.000000	56.536030 
2451.000000	56.527686 
2450.000000	56.522917 
2449.000000	56.520390 
2448.000000	56.518983 
2447.000000	56.518030 
2446.000000	56.517601 
2445.000000	56.518149 
2444.000000	56.520485 
2443.000000	56.525421 
2442.000000	56.533479 
2441.000000	56.544566 
2440.000000	56.557989 
2439.000000	56.572198 
2438.000000	56.585311 
2437.000000	56.595230 
2436.000000	56.600093 
2435.000000	56.598544 
2434.000000	56.590318 
2433.000000	56.576085 
2432.000000	56.557273 
2431.000000	56.535696 
2430.000000	56.513309 
2429.000000	56.491422 
2428.000000	56.470870 
2427.000000	56.451654 
2426.000000	56.433272 
2425.000000	56.415200 
2424.000000	56.397032 
2423.000000	56.379294 
2422.000000	56.363058 
2421.000000	56.350088 
2420.000000	56.342220 
2419.000000	56.340789 
2418.000000	56.346178 
2417.000000	56.357359 
2416.000000	56.372070 
2415.000000	56.387424 
2414.000000	56.400346 
2413.000000	56.408333 
2412.000000	56.409835 
2411.000000	56.404519 
2410.000000	56.393051 
2409.000000	56.376671 
2408.000000	56.356739 
2407.000000	56.334424 
2406.000000	56.310486 
2405.000000	56.285285 
2404.000000	56.258988 
2403.000000	56.231999 
2402.000000	56.204938 
2401.000000	56.178951 
2400.000000	56.155347 
2399.000000	56.135439 
2398.000000	56.120276 
2397.000000	56.110167 
2396.000000	56.104755 
2395.000000	56.102943 
2394.000000	56.103205 
2393.000000	56.103944 
2392.000000	56.103444 
2391.000000	56.100440 
2390.000000	56.094145 
2389.000000	56.084322 
2388.000000	56.071352 
2387.000000	56.056141 
2386.000000	56.039905 
2385.000000	56.023955 
2384.000000	56.009459 
2383.000000	55.997204 
2382.000000	55.987429 
2381.000000	55.979871 
2380.000000	55.973982 
2379.000000	55.969071 
2378.000000	55.964446 
2377.000000	55.959868 
2376.000000	55.955219 
2375.000000	55.950760 
2374.000000	55.946898 
2373.000000	55.943799 
2372.000000	55.941200 
2371.000000	55.938482 
2370.000000	55.934667 
2369.000000	55.928635 
2368.000000	55.919384 
2367.000000	55.906462 
2366.000000	55.890035 
2365.000000	55.870962 
2364.000000	55.850458 
2363.000000	55.830025 
2362.000000	55.810928 
2361.000000	55.794095 
2360.000000	55.780076 
2359.000000	55.768918 
2358.000000	55.760312 
2357.000000	55.753636 
2356.000000	55.748176 
2355.000000	55.743288 
2354.000000	55.738425 
2353.000000	55.732870 
2352.000000	55.726456 
2351.000000	55.718922 
2350.000000	55.710530 
2349.000000	55.701780 
2348.000000	55.693483 
2347.000000	55.686569 
2346.000000	55.681991 
2345.000000	55.680322 
2344.000000	55.681681 
2343.000000	55.685424 
2342.000000	55.690217 
2341.000000	55.694532 
2340.000000	55.696630 
2339.000000	55.695033 
2338.000000	55.688619 
2337.000000	55.677056 
2336.000000	55.660533 
2335.000000	55.639934 
2334.000000	55.616378 
2333.000000	55.591368 
2332.000000	55.566453 
2331.000000	55.543398 
2330.000000	55.524015 
2329.000000	55.509972 
2328.000000	55.502820 
2327.000000	55.503559 
2326.000000	55.512404 
2325.000000	55.528426 
2324.000000	55.549645 
2323.000000	55.573201 
2322.000000	55.595684 
2321.000000	55.613875 
2320.000000	55.625271 
2319.000000	55.628371 
2318.000000	55.622935 
2317.000000	55.609798 
2316.000000	55.590724 
2315.000000	55.567622 
2314.000000	55.542039 
2313.000000	55.515217 
2312.000000	55.488014 
2311.000000	55.460858 
2310.000000	55.434298 
2309.000000	55.409097 
2308.000000	55.386519 
2307.000000	55.368041 
2306.000000	55.355215 
2305.000000	55.349040 
2304.000000	55.349826 
2303.000000	55.356907 
2302.000000	55.368542 
2301.000000	55.382299 
2300.000000	55.395388 
2299.000000	55.405020 
2298.000000	55.409049 
2297.000000	55.405974 
2296.000000	55.395483 
2295.000000	55.378198 
2294.000000	55.355858 
2293.000000	55.330753 
2292.000000	55.305624 
2291.000000	55.283212 
2290.000000	55.265903 
2289.000000	55.255413 
2288.000000	55.252480 
2287.000000	55.256843 
2286.000000	55.267310 
2285.000000	55.281949 
2284.000000	55.298471 
2283.000000	55.314683 
2282.000000	55.328917 
2281.000000	55.340290 
2280.000000	55.348491 
2279.000000	55.353760 
2278.000000	55.356693 
2277.000000	55.357694 
2276.000000	55.356884 
2275.000000	55.353665 
2274.000000	55.347347 
2273.000000	55.336928 
2272.000000	55.321788 
2271.000000	55.301642 
2270.000000	55.277109 
2269.000000	55.249595 
2268.000000	55.221176 
2267.000000	55.194306 
2266.000000	55.171394 
2265.000000	55.154418 
2264.000000	55.144548 
2263.000000	55.142211 
2262.000000	55.146694 
2261.000000	55.156588 
2260.000000	55.169796 
2259.000000	55.183982 
2258.000000	55.196738 
2257.000000	55.206155 
2256.000000	55.211019 
2255.000000	55.210685 
2254.000000	55.205297 
2253.000000	55.195713 
2252.000000	55.183267 
2251.000000	55.169439 
2250.000000	55.155634 
2249.000000	55.142998 
2248.000000	55.132198 
2247.000000	55.123567 
2246.000000	55.116891 
2245.000000	55.111742 
2244.000000	55.107641 
2243.000000	55.103969 
2242.000000	55.100321 
2241.000000	55.096411 
2240.000000	55.092239 
2239.000000	55.087924 
2238.000000	55.083656 
2237.000000	55.079650 
2236.000000	55.076026 
2235.000000	55.072951 
2234.000000	55.070185 
2233.000000	55.067229 
2232.000000	55.063366 
2231.000000	55.057740 
2230.000000	55.049633 
2229.000000	55.038523 
2228.000000	55.024361 
2227.000000	55.007696 
2226.000000	54.989600 
2225.000000	54.971432 
2224.000000	54.954648 
2223.000000	54.940462 
2222.000000	54.929637 
2221.000000	54.922223 
2220.000000	54.917669 
2219.000000	54.914832 
2218.000000	54.912447 
2217.000000	54.909348 
2216.000000	54.904699 
2215.000000	54.898071 
2214.000000	54.889559 
2213.000000	54.879689 
2212.000000	54.868960 
2211.000000	54.857826 
2210.000000	54.846644 
2209.000000	54.835510 
2208.000000	54.824352 
2207.000000	54.813170 
2206.000000	54.802155 
2205.000000	54.791712 
2204.000000	54.782581 
2203.000000	54.775524 
2202.000000	54.771161 
2201.000000	54.769897 
2200.000000	54.771542 
2199.000000	54.775404 
2198.000000	54.780173 
2197.000000	54.784345 
2196.000000	54.786539 
2195.000000	54.785418 
2194.000000	54.780197 
2193.000000	54.770708 
2192.000000	54.757046 
2191.000000	54.739856 
2190.000000	54.719734 
2189.000000	54.697299 
2188.000000	54.673075 
2187.000000	54.647541 
2186.000000	54.620957 
2185.000000	54.593753 
2184.000000	54.566407 
2183.000000	54.539465 
2182.000000	54.513812 
2181.000000	54.490137 
2180.000000	54.469466 
2179.000000	54.452657 
2178.000000	54.440593 
2177.000000	54.433774 
2176.000000	54.432511 
2175.000000	54.436779 
2174.000000	54.446125 
2173.000000	54.459667 
2172.000000	54.476332 
2171.000000	54.494643 
2170.000000	54.513335 
2169.000000	54.530978 
2168.000000	54.546403 
2167.000000	54.558610 
2166.000000	54.566931 
2165.000000	54.570960 
2164.000000	54.570508 
2163.000000	54.565596 
2162.000000	54.556584 
2161.000000	54.543828 
2160.000000	54.528045 
2159.000000	54.509687 
2158.000000	54.489636 
2157.000000	54.468369 
2156.000000	54.446220 
2155.000000	54.423260 
2154.000000	54.399490 
2153.000000	54.374694 
2152.000000	54.348731 
2151.000000	54.321694 
2150.000000	54.294109 
2149.000000	54.266881 
2148.000000	54.241156 
2147.000000	54.218316 
2146.000000	54.199600 
2145.000000	54.186010 
2144.000000	54.177904 
2143.000000	54.175138 
2142.000000	54.176902 
2141.000000	54.182028 
2140.000000	54.188990 
2139.000000	54.196190 
2138.000000	54.202055 
2137.000000	54.205155 
2136.000000	54.204511 
2135.000000	54.199242 
2134.000000	54.189085 
2133.000000	54.174232 
2132.000000	54.155421 
2131.000000	54.133987 
2130.000000	54.111623 
2129.000000	54.090356 
2128.000000	54.072046 
2127.000000	54.058170 
2126.000000	54.049563 
2125.000000	54.046106 
2124.000000	54.047107 
2123.000000	54.051327 
2122.000000	54.057621 
2121.000000	54.065132 
2120.000000	54.073619 
2119.000000	54.083466 
2118.000000	54.095268 
2117.000000	54.109382 
2116.000000	54.125738 
2115.000000	54.143333 
2114.000000	54.160499 
2113.000000	54.174923 
2112.000000	54.184532 
2111.000000	54.187774 
2110.000000	54.184150 
2109.000000	54.174089 
2108.000000	54.159092 
2107.000000	54.141163 
2106.000000	54.122209 
2105.000000	54.103732 
2104.000000	54.086494 
2103.000000	54.070258 
2102.000000	54.054522 
2101.000000	54.038238 
2100.000000	54.020833 
2099.000000	54.001998 
2098.000000	53.981995 
2097.000000	53.961563 
2096.000000	53.941488 
2095.000000	53.922939 
2094.000000	53.906917 
2093.000000	53.894209 
2092.000000	53.885245 
2091.000000	53.880143 
2090.000000	53.878545 
2089.000000	53.879690 
2088.000000	53.882551 
2087.000000	53.886055 
2086.000000	53.888964 
2085.000000	53.890419 
2084.000000	53.889751 
2083.000000	53.886699 
2082.000000	53.881192 
2081.000000	53.873419 
2080.000000	53.863549 
2079.000000	53.851890 
2078.000000	53.838682 
2077.000000	53.824186 
2076.000000	53.808617 
2075.000000	53.792500 
2074.000000	53.776359 
2073.000000	53.760886 
2072.000000	53.746652 
2071.000000	53.733897 
2070.000000	53.722429 
2069.000000	53.711628 
2068.000000	53.700780 
2067.000000	53.689312 
2066.000000	53.677248 
2065.000000	53.665304 
2064.000000	53.655028 
2063.000000	53.648543 
2062.000000	53.648042 
2061.000000	53.655219 
2060.000000	53.670620 
2059.000000	53.693270 
2058.000000	53.720831 
2057.000000	53.749799 
2056.000000	53.776073 
2055.000000	53.795766 
2054.000000	53.806018 
2053.000000	53.805232 
2052.000000	53.793406 
2051.000000	53.771781 
2050.000000	53.742814 
2049.000000	53.709316 
2048.000000	53.674197 
2047.000000	53.639793 
2046.000000	53.608059 
2045.000000	53.580021 
2044.000000	53.556346 
2043.000000	53.537058 
2042.000000	53.521800 
2041.000000	53.509950 
2040.000000	53.500699 
2039.000000	53.493070 
2038.000000	53.486156 
2037.000000	53.479313 
2036.000000	53.472304 
2035.000000	53.465151 
2034.000000	53.458380 
2033.000000	53.452754 
2032.000000	53.449177 
2031.000000	53.448271 
2030.000000	53.450250 
2029.000000	53.455018 
2028.000000	53.462123 
2027.000000	53.470778 
2026.000000	53.480172 
2025.000000	53.489565 
2024.000000	53.498148 
2023.000000	53.505301 
2022.000000	53.510117 
2021.000000	53.511738 
2020.000000	53.509306 
2019.000000	53.502035 
2018.000000	53.489565 
2017.000000	53.471970 
2016.000000	53.450155 
2015.000000	53.425836 
2014.000000	53.401160 
2013.000000	53.378176 
2012.000000	53.358650 
2011.000000	53.343677 
2010.000000	53.333401 
2009.000000	53.327131 
2008.000000	53.323602 
2007.000000	53.321194 
2006.000000	53.318381 
2005.000000	53.314137 
2004.000000	53.307795 
2003.000000	53.299307 
2002.000000	53.289079 
2001.000000	53.277826 
2000.000000	53.266191 
1999.000000	53.254723 
1998.000000	53.243947 
1997.000000	53.234028 
1996.000000	53.225040 
1995.000000	53.216958 
1994.000000	53.209853 
1993.000000	53.203797 
1992.000000	53.198838 
1991.000000	53.195095 
1990.000000	53.192639 
1989.000000	53.191447 
1988.000000	53.191351 
1987.000000	53.192210 
1986.000000	53.193640 
1985.000000	53.195214 
1984.000000	53.196549 
1983.000000	53.197026 
1982.000000	53.196239 
1981.000000	53.193736 
1980.000000	53.189396 
1979.000000	53.183007 
1978.000000	53.174448 
1977.000000	53.163743 
1976.000000	53.151130 
1975.000000	53.136920 
1974.000000	53.121542 
1973.000000	53.105616 
1972.000000	53.089857 
1971.000000	53.074955 
1970.000000	53.061485 
1969.000000	53.049898 
1968.000000	53.040432 
1967.000000	53.033113 
1966.000000	53.027749 
1965.000000	53.023910 
1964.000000	53.021240 
1963.000000	53.019452 
1962.000000	53.018331 
1961.000000	53.017830 
1960.000000	53.017902 
1959.000000	53.018355 
1958.000000	53.019022 
1957.000000	53.019523 
1956.000000	53.019475 
1955.000000	53.018760 
1954.000000	53.017282 
1953.000000	53.015136 
1952.000000	53.012585 
1951.000000	53.009819 
1950.000000	53.006887 
1949.000000	53.003644 
1948.000000	52.999973 
1947.000000	52.995634 
1946.000000	52.990484 
1945.000000	52.984547 
1944.000000	52.978086 
1943.000000	52.971267 
1942.000000	52.964210 
1941.000000	52.956819 
1940.000000	52.948832 
1939.000000	52.939891 
1938.000000	52.929759 
1937.000000	52.918171 
1936.000000	52.905344 
1935.000000	52.891659 
1934.000000	52.877807 
1933.000000	52.864527 
1932.000000	52.852344 
1931.000000	52.841424 
1930.000000	52.831387 
1929.000000	52.821516 
1928.000000	52.810859 
1927.000000	52.798414 
1926.000000	52.783584 
1925.000000	52.766609 
1924.000000	52.748203 
1923.000000	52.729725 
1922.000000	52.712488 
1921.000000	52.697491 
1920.000000	52.684974 
1919.000000	52.674221 
1918.000000	52.663707 
1917.000000	52.651619 
1916.000000	52.636384 
1915.000000	52.617073 
1914.000000	52.594089 
1913.000000	52.568817 
1912.000000	52.543568 
1911.000000	52.521014 
1910.000000	52.503585 
1909.000000	52.492666 
1908.000000	52.488446 
1907.000000	52.489876 
1906.000000	52.494859 
1905.000000	52.500748 
1904.000000	52.504968 
1903.000000	52.505636 
1902.000000	52.501749 
1901.000000	52.493405 
1900.000000	52.481460 
1899.000000	52.467441 
1898.000000	52.452921 
1897.000000	52.439212 
1896.000000	52.427291 
1895.000000	52.417612 
1894.000000	52.410197 
1893.000000	52.404713 
1892.000000	52.400708 
1891.000000	52.397656 
1890.000000	52.395105 
1889.000000	52.392745 
1888.000000	52.390360 
1887.000000	52.387762 
1886.000000	52.384805 
1885.000000	52.381467 
1884.000000	52.377581 
1883.000000	52.373242 
1882.000000	52.368474 
1881.000000	52.363348 
1880.000000	52.358007 
1879.000000	52.352547 
1878.000000	52.346849 
1877.000000	52.340793 
1876.000000	52.334332 
1875.000000	52.327561 
1874.000000	52.320981 
1873.000000	52.315306 
1872.000000	52.311182 
1871.000000	52.309298 
1870.000000	52.309846 
1869.000000	52.312302 
1868.000000	52.315282 
1867.000000	52.316689 
1866.000000	52.314257 
1865.000000	52.306008 
1864.000000	52.290463 
1863.000000	52.267408 
1862.000000	52.237749 
1861.000000	52.203607 
1860.000000	52.167916 
1859.000000	52.133893 
1858.000000	52.104592 
1857.000000	52.082204 
1856.000000	52.067875 
1855.000000	52.061629 
1854.000000	52.062416 
1853.000000	52.068567 
1852.000000	52.078008 
1851.000000	52.088761 
1850.000000	52.099132 
1849.000000	52.107810 
1848.000000	52.113842 
1847.000000	52.116441 
1846.000000	52.115106 
1845.000000	52.109336 
1844.000000	52.098751 
1843.000000	52.082920 
1842.000000	52.061939 
1841.000000	52.036261 
1840.000000	52.007269 
1839.000000	51.976704 
1838.000000	51.946926 
1837.000000	51.920199 
1836.000000	51.898479 
1835.000000	51.882910 
1834.000000	51.873350 
1833.000000	51.868891 
1832.000000	51.867771 
1831.000000	51.867938 
1830.000000	51.867580 
1829.000000	51.865625 
1828.000000	51.861810 
1827.000000	51.856851 
1826.000000	51.852035 
1825.000000	51.848864 
1824.000000	51.848483 
1823.000000	51.851391 
1822.000000	51.857209 
1821.000000	51.865053 
1820.000000	51.873588 
1819.000000	51.881670 
1818.000000	51.888322 
1817.000000	51.893019 
1816.000000	51.895475 
1815.000000	51.895666 
1814.000000	51.893496 
1813.000000	51.888895 
1812.000000	51.881527 
1811.000000	51.871275 
1810.000000	51.857781 
1809.000000	51.840877 
1808.000000	51.820397 
1807.000000	51.796627 
1806.000000	51.770472 
1805.000000	51.743197 
1804.000000	51.716542 
1803.000000	51.692390 
1802.000000	51.672482 
1801.000000	51.657867 
1800.000000	51.648569 
1799.000000	51.643610 
1798.000000	51.641297 
1797.000000	51.639580 
1796.000000	51.636719 
1795.000000	51.631665 
1794.000000	51.624321 
1793.000000	51.615524 
1792.000000	51.606845 
1791.000000	51.600027 
1790.000000	51.596498 
1789.000000	51.596903 
1788.000000	51.600861 
1787.000000	51.607060 
1786.000000	51.613664 
1785.000000	51.618695 
1784.000000	51.620650 
1783.000000	51.618480 
1782.000000	51.611995 
1781.000000	51.601696 
1780.000000	51.588416 
1779.000000	51.573204 
1778.000000	51.556873 
1777.000000	51.540017 
1776.000000	51.523041 
1775.000000	51.506185 
1774.000000	51.489710 
1773.000000	51.474165 
1772.000000	51.460385 
1771.000000	51.449084 
1770.000000	51.440930 
1769.000000	51.436209 
1768.000000	51.434612 
1767.000000	51.435399 
1766.000000	51.437449 
1765.000000	51.439237 
1764.000000	51.439142 
1763.000000	51.435756 
1762.000000	51.427865 
1761.000000	51.414680 
1760.000000	51.395893 
1759.000000	51.371860 
1758.000000	51.343703 
1757.000000	51.313066 
1756.000000	51.282095 
1755.000000	51.253032 
1754.000000	51.228213 
1753.000000	51.209235 
1752.000000	51.197171 
1751.000000	51.192116 
1750.000000	51.193499 
1749.000000	51.199913 
1748.000000	51.209735 
1747.000000	51.221418 
1746.000000	51.233601 
1745.000000	51.245307 
1744.000000	51.255655 
1743.000000	51.263833 
1742.000000	51.268959 
1741.000000	51.270079 
1740.000000	51.266217 
1739.000000	51.256680 
1738.000000	51.241374 
1737.000000	51.220846 
1736.000000	51.196217 
1735.000000	51.169085 
1734.000000	51.141285 
1733.000000	51.114583 
1732.000000	51.090526 
1731.000000	51.070261 
1730.000000	51.054501 
1729.000000	51.043581 
1728.000000	51.037454 
1727.000000	51.035547 
1726.000000	51.037144 
1725.000000	51.040959 
1724.000000	51.045370 
1723.000000	51.048707 
1722.000000	51.049137 
1721.000000	51.045680 
1720.000000	51.038026 
1719.000000	51.027083 
1718.000000	51.014494 
1717.000000	51.002573 
1716.000000	50.993609 
1715.000000	50.989222 
1714.000000	50.989961 
1713.000000	50.995254 
1712.000000	51.003479 
1711.000000	51.012492 
1710.000000	51.020050 
1709.000000	51.024150 
1708.000000	51.023459 
1707.000000	51.017570 
1706.000000	51.006841 
1705.000000	50.992250 
1704.000000	50.975346 
1703.000000	50.957870 
1702.000000	50.941538 
1701.000000	50.927758 
1700.000000	50.917363 
1699.000000	50.910878 
1698.000000	50.908136 
1697.000000	50.908207 
1696.000000	50.909757 
1695.000000	50.911045 
1694.000000	50.910282 
1693.000000	50.906085 
1692.000000	50.897645 
1691.000000	50.884914 
1690.000000	50.868582 
1689.000000	50.850129 
1688.000000	50.831389 
1687.000000	50.814175 
1686.000000	50.799846 
1685.000000	50.789189 
1684.000000	50.782203 
1683.000000	50.778245 
1682.000000	50.776076 
1681.000000	50.774359 
1680.000000	50.771760 
1679.000000	50.767469 
1678.000000	50.761461 
1677.000000	50.754451 
1676.000000	50.747609 
1675.000000	50.742292 
1674.000000	50.739669 
1673.000000	50.740194 
1672.000000	50.743579 
1671.000000	50.748515 
1670.000000	50.752925 
1669.000000	50.754427 
1668.000000	50.750827 
1667.000000	50.740551 
1666.000000	50.722908 
1665.000000	50.698423 
1664.000000	50.668668 
1663.000000	50.636076 
1662.000000	50.603485 
1661.000000	50.573611 
1660.000000	50.548720 
1659.000000	50.530266 
1658.000000	50.518703 
1657.000000	50.513553 
1656.000000	50.513529 
1655.000000	50.516819 
1654.000000	50.521397 
1653.000000	50.525259 
1652.000000	50.526952 
1651.000000	50.525379 
1650.000000	50.520133 
1649.000000	50.511360 
1648.000000	50.499606 
1647.000000	50.485777 
1646.000000	50.470781 
1645.000000	50.455760 
1644.000000	50.441789 
1643.000000	50.429964 
1642.000000	50.421428 
1641.000000	50.417137 
1640.000000	50.417828 
1639.000000	50.423812 
1638.000000	50.434637 
1637.000000	50.449109 
1636.000000	50.465464 
1635.000000	50.481438 
1634.000000	50.494718 
1633.000000	50.503039 
1632.000000	50.504803 
1631.000000	50.499176 
1630.000000	50.486350 
1629.000000	50.467562 
1628.000000	50.444769 
1627.000000	50.420570 
1626.000000	50.397658 
1625.000000	50.378489 
1624.000000	50.364875 
1623.000000	50.357651 
1622.000000	50.356650 
1621.000000	50.360655 
1620.000000	50.367784 
1619.000000	50.375676 
1618.000000	50.381898 
1617.000000	50.384497 
1616.000000	50.382089 
1615.000000	50.374054 
1614.000000	50.360751 
1613.000000	50.342798 
1612.000000	50.321221 
1611.000000	50.297021 
1610.000000	50.271034 
1609.000000	50.243878 
1608.000000	50.216054 
1607.000000	50.188136 
1606.000000	50.160789 
1605.000000	50.134944 
1604.000000	50.111675 
1603.000000	50.092005 
1602.000000	50.076794 
1601.000000	50.066447 
1600.000000	50.060939 
1599.000000	50.059604 
1598.000000	50.061154 
1597.000000	50.063800 
1596.000000	50.065827 
1595.000000	50.065541 
1594.000000	50.061893 
1593.000000	50.054430 
1592.000000	50.043821 
1591.000000	50.031352 
1590.000000	50.018906 
1589.000000	50.008606 
1588.000000	50.002384 
1587.000000	50.001382 
1586.000000	50.005698 
1585.000000	50.014328 
1584.000000	50.025320 
1583.000000	50.036191 
1582.000000	50.044345 
1581.000000	50.047755 
1580.000000	50.045251 
1579.000000	50.036716 
1578.000000	50.022912 
1577.000000	50.005030 
1576.000000	49.984431 
1575.000000	49.962377 
1574.000000	49.939656 
1573.000000	49.916744 
1572.000000	49.893832 
1571.000000	49.871182 
1570.000000	49.849224 
1569.000000	49.828457 
1568.000000	49.809527 
1567.000000	49.793052 
1566.000000	49.779343 
1565.000000	49.768400 
1564.000000	49.759745 
1563.000000	49.752759 
1562.000000	49.746680 
1561.000000	49.741005 
1560.000000	49.735569 
1559.000000	49.730539 
1558.000000	49.726271 
1557.000000	49.723100 
1556.000000	49.721336 
1555.000000	49.720883 
1554.000000	49.721407 
1553.000000	49.722433 
1552.000000	49.723291 
1551.000000	49.723267 
1550.000000	49.721693 
1549.000000	49.718046 
1548.000000	49.711847 
1547.000000	49.702644 
1546.000000	49.690389 
1545.000000	49.675178 
1544.000000	49.657607 
1543.000000	49.638581 
1542.000000	49.619269 
1541.000000	49.601054 
1540.000000	49.585342 
1539.000000	49.573278 
1538.000000	49.565672 
1537.000000	49.562788 
1536.000000	49.564576 
1535.000000	49.570560 
1534.000000	49.580216 
1533.000000	49.592804 
1532.000000	49.607610 
1531.000000	49.623703 
1530.000000	49.639892 
1529.000000	49.654650 
1528.000000	49.666333 
1527.000000	49.673461 
1526.000000	49.674868 
1525.000000	49.670052 
1524.000000	49.659371 
1523.000000	49.644184 
1522.000000	49.626684 
1521.000000	49.609327 
1520.000000	49.594569 
1519.000000	49.584102 
1518.000000	49.578833 
1517.000000	49.578380 
1516.000000	49.581289 
1515.000000	49.585485 
1514.000000	49.588608 
1513.000000	49.588871 
1512.000000	49.585080 
1511.000000	49.577403 
1510.000000	49.566960 
1509.000000	49.556040 
1508.000000	49.547147 
1507.000000	49.542593 
1506.000000	49.543857 
1505.000000	49.550867 
1504.000000	49.562239 
1503.000000	49.574804 
1502.000000	49.584674 
1501.000000	49.587655 
1500.000000	49.580264 
1499.000000	49.560332 
1498.000000	49.527955 
1497.000000	49.485397 
1496.000000	49.437069 
1495.000000	49.388575 
1494.000000	49.345636 
1493.000000	49.312853 
1492.000000	49.292945 
1491.000000	49.286270 
1490.000000	49.291133 
1489.000000	49.304628 
1488.000000	49.323415 
1487.000000	49.344563 
1486.000000	49.365901 
1485.000000	49.385833 
1484.000000	49.403262 
1483.000000	49.416804 
1482.000000	49.425029 
1481.000000	49.426579 
1480.000000	49.420523 
1479.000000	49.406743 
1478.000000	49.386000 
1477.000000	49.360227 
1476.000000	49.331927 
1475.000000	49.303984 
1474.000000	49.278712 
1473.000000	49.257755 
1472.000000	49.241566 
1471.000000	49.229526 
1470.000000	49.220252 
1469.000000	49.212026 
1468.000000	49.203252 
1467.000000	49.193072 
1466.000000	49.181485 
1465.000000	49.169135 
1464.000000	49.157238 
1463.000000	49.146962 
1462.000000	49.138975 
1461.000000	49.133300 
1460.000000	49.129223 
1459.000000	49.125480 
1458.000000	49.120664 
1457.000000	49.113678 
1456.000000	49.103832 
1455.000000	49.091172 
1454.000000	49.076628 
1453.000000	49.061512 
1452.000000	49.047231 
1451.000000	49.034905 
1450.000000	49.025201 
1449.000000	49.018144 
1448.000000	49.013328 
1447.000000	49.010133 
1446.000000	49.008107 
1445.000000	49.007010 
1444.000000	49.006867 
1443.000000	49.007678 
1442.000000	49.009180 
1441.000000	49.010753 
1440.000000	49.011301 
1439.000000	49.009490 
1438.000000	49.004149 
1437.000000	48.994731 
1436.000000	48.981547 
1435.000000	48.966026 
1434.000000	48.950242 
1433.000000	48.936796 
1432.000000	48.927640 
1431.000000	48.923826 
1430.000000	48.925042 
1429.000000	48.929738 
1428.000000	48.935508 
1427.000000	48.939704 
1426.000000	48.940134 
1425.000000	48.935866 
1424.000000	48.927187 
1423.000000	48.915362 
1422.000000	48.902249 
1421.000000	48.889589 
1420.000000	48.878526 
1419.000000	48.869132 
1418.000000	48.860669 
1417.000000	48.851919 
1416.000000	48.841595 
1415.000000	48.828959 
1414.000000	48.814058 
1413.000000	48.797655 
1412.000000	48.780965 
1411.000000	48.765468 
1410.000000	48.752212 
1409.000000	48.741626 
1408.000000	48.733592 
1407.000000	48.727536 
1406.000000	48.722791 
1405.000000	48.719000 
1404.000000	48.716211 
1403.000000	48.714900 
1402.000000	48.715662 
1401.000000	48.718976 
1400.000000	48.724770 
1399.000000	48.732233 
1398.000000	48.739933 
1397.000000	48.746180 
1396.000000	48.749375 
1395.000000	48.748517 
1394.000000	48.743462 
1393.000000	48.734784 
1392.000000	48.723626 
1391.000000	48.711299 
1390.000000	48.699021 
1389.000000	48.687386 
1388.000000	48.676323 
1387.000000	48.665380 
1386.000000	48.653721 
1385.000000	48.640465 
1384.000000	48.624873 
1383.000000	48.606419 
1382.000000	48.585057 
1381.000000	48.560786 
1380.000000	48.534202 
1379.000000	48.505949 
1378.000000	48.477053 
1377.000000	48.448848 
1376.000000	48.422837 
1375.000000	48.400521 
1374.000000	48.383212 
1373.000000	48.371696 
1372.000000	48.366022 
1371.000000	48.365449 
1370.000000	48.368692 
1369.000000	48.374176 
1368.000000	48.380732 
1367.000000	48.387408 
1366.000000	48.393845 
1365.000000	48.399949 
1364.000000	48.405766 
1363.000000	48.410987 
1362.000000	48.415040 
1361.000000	48.416709 
1360.000000	48.414611 
1359.000000	48.407435 
1358.000000	48.394560 
1357.000000	48.376131 
1356.000000	48.353433 
1355.000000	48.328495 
1354.000000	48.303556 
1353.000000	48.280763 
1352.000000	48.261499 
1351.000000	48.246264 
1350.000000	48.234558 
1349.000000	48.225402 
1348.000000	48.217558 
1347.000000	48.209977 
1346.000000	48.202013 
1345.000000	48.193597 
1344.000000	48.184990 
1343.000000	48.176908 
1342.000000	48.170018 
1341.000000	48.164892 
1340.000000	48.161697 
1339.000000	48.160314 
1338.000000	48.160147 
1337.000000	48.160386 
1336.000000	48.159956 
1335.000000	48.157691 
1334.000000	48.152589 
1333.000000	48.143792 
1332.000000	48.130822 
1331.000000	48.113775 
1330.000000	48.093485 
1329.000000	48.071265 
1328.000000	48.048853 
1327.000000	48.028278 
1326.000000	48.011136 
1325.000000	47.998642 
1324.000000	47.991180 
1323.000000	47.988462 
1322.000000	47.989463 
1321.000000	47.992825 
1320.000000	47.996926 
1319.000000	48.000359 
1318.000000	48.002028 
1317.000000	48.001289 
1316.000000	47.998070 
1315.000000	47.992634 
1314.000000	47.985625 
1313.000000	47.977876 
1312.000000	47.970271 
1311.000000	47.963595 
1310.000000	47.958636 
1309.000000	47.955894 
1308.000000	47.955465 
1307.000000	47.956967 
1306.000000	47.959518 
1305.000000	47.961902 
1304.000000	47.962522 
1303.000000	47.959780 
1302.000000	47.952485 
1301.000000	47.939968 
1300.000000	47.922325 
1299.000000	47.900509 
1298.000000	47.876334 
1297.000000	47.852087 
1296.000000	47.830128 
1295.000000	47.812485 
1294.000000	47.800493 
1293.000000	47.794389 
1292.000000	47.793483 
1291.000000	47.796130 
1290.000000	47.800111 
1289.000000	47.803282 
1288.000000	47.804164 
1287.000000	47.802066 
1286.000000	47.797155 
1285.000000	47.790646 
1284.000000	47.784209 
1283.000000	47.779607 
1282.000000	47.778010 
1281.000000	47.779822 
1280.000000	47.784328 
1279.000000	47.790169 
1278.000000	47.795414 
1277.000000	47.798442 
1276.000000	47.798085 
1275.000000	47.794198 
1274.000000	47.787523 
1273.000000	47.779488 
1272.000000	47.771573 
1271.000000	47.765183 
1270.000000	47.760915 
1269.000000	47.758531 
1268.000000	47.756934 
1267.000000	47.754740 
1266.000000	47.750139 
1265.000000	47.741556 
1264.000000	47.727751 
1263.000000	47.708129 
1262.000000	47.682666 
1261.000000	47.651720 
1260.000000	47.616171 
1259.000000	47.577309 
1258.000000	47.536849 
1257.000000	47.496962 
1256.000000	47.460126 
1255.000000	47.428703 
1254.000000	47.404742 
1253.000000	47.389578 
1252.000000	47.383260 
1251.000000	47.384619 
1250.000000	47.391486 
1249.000000	47.401309 
1248.000000	47.411346 
1247.000000	47.419309 
1246.000000	47.423791 
1245.000000	47.424507 
1244.000000	47.422003 
1243.000000	47.417664 
1242.000000	47.413063 
1241.000000	47.409725 
1240.000000	47.408890 
1239.000000	47.411227 
1238.000000	47.416734 
1237.000000	47.424817 
1236.000000	47.434616 
1235.000000	47.444891 
1234.000000	47.454309 
1233.000000	47.461605 
1232.000000	47.465705 
1231.000000	47.465801 
1230.000000	47.461581 
1229.000000	47.453188 
1228.000000	47.441101 
1227.000000	47.425913 
1226.000000	47.408080 
1225.000000	47.387981 
1224.000000	47.365880 
1223.000000	47.341895 
1222.000000	47.316408 
1221.000000	47.290134 
1220.000000	47.264289 
1219.000000	47.240591 
1218.000000	47.220945 
1217.000000	47.206974 
1216.000000	47.199845 
1215.000000	47.199916 
1214.000000	47.206783 
1213.000000	47.218942 
1212.000000	47.234272 
1211.000000	47.250318 
1210.000000	47.264742 
1209.000000	47.275590 
1208.000000	47.281646 
1207.000000	47.282290 
1206.000000	47.277593 
1205.000000	47.268223 
1204.000000	47.255110 
1203.000000	47.239542 
1202.000000	47.222900 
1201.000000	47.206568 
1200.000000	47.191739 
1199.000000	47.179317 
1198.000000	47.169733 
1197.000000	47.162771 
1196.000000	47.157740 
1195.000000	47.153353 
1194.000000	47.148084 
1193.000000	47.140264 
1192.000000	47.128319 
1191.000000	47.111368 
1190.000000	47.088956 
1189.000000	47.061848 
1188.000000	47.031474 
1187.000000	47.000217 
1186.000000	46.970748 
1185.000000	46.945786 
1184.000000	46.927571 
1183.000000	46.917533 
1182.000000	46.915960 
1181.000000	46.922135 
1180.000000	46.934628 
1179.000000	46.951436 
1178.000000	46.970367 
1177.000000	46.989536 
1176.000000	47.007393 
1175.000000	47.023034 
1174.000000	47.035861 
1173.000000	47.045350 
1172.000000	47.051143 
1171.000000	47.052788 
1170.000000	47.049760 
1169.000000	47.041678 
1168.000000	47.028374 
1167.000000	47.010111 
1166.000000	46.987557 
1165.000000	46.961808 
1164.000000	46.934056 
1163.000000	46.905684 
1162.000000	46.878051 
1161.000000	46.852374 
1160.000000	46.829628 
1159.000000	46.810770 
1158.000000	46.796202 
1157.000000	46.785974 
1156.000000	46.779608 
1155.000000	46.776151 
1154.000000	46.774244 
1153.000000	46.772265 
1152.000000	46.768522 
1151.000000	46.761631 
1150.000000	46.750712 
1149.000000	46.735572 
1148.000000	46.716618 
1147.000000	46.694540 
1146.000000	46.670293 
1145.000000	46.644878 
1144.000000	46.618890 
1143.000000	46.592593 
1142.000000	46.566009 
1141.000000	46.539163 
1140.000000	46.512055 
1139.000000	46.484971 
1138.000000	46.458506 
1137.000000	46.433591 
1136.000000	46.411108 
1135.000000	46.392202 
1134.000000	46.377682 
1133.000000	46.368288 
1132.000000	46.364331 
1131.000000	46.365571 
1130.000000	46.371102 
1129.000000	46.379327 
1128.000000	46.388149 
1127.000000	46.395063 
1126.000000	46.397542 
1125.000000	46.393465 
1124.000000	46.381545 
1123.000000	46.361827 
1122.000000	46.335530 
1121.000000	46.305108 
1120.000000	46.273732 
1119.000000	46.244621 
1118.000000	46.220302 
1117.000000	46.202301 
1116.000000	46.190834 
1115.000000	46.184706 
1114.000000	46.181917 
1113.000000	46.180176 
1112.000000	46.177649 
1111.000000	46.173167 
1110.000000	46.166634 
1109.000000	46.158719 
1108.000000	46.150612 
1107.000000	46.143245 
1106.000000	46.137404 
1105.000000	46.132969 
1104.000000	46.129369 
1103.000000	46.125769 
1102.000000	46.121454 
1101.000000	46.116352 
1100.000000	46.110773 
1099.000000	46.105623 
1098.000000	46.101927 
1097.000000	46.100568 
1096.000000	46.102046 
1095.000000	46.106505 
1094.000000	46.113467 
1093.000000	46.122288 
1092.000000	46.132183 
1091.000000	46.142339 
1090.000000	46.152210 
1089.000000	46.161365 
1088.000000	46.169710 
1087.000000	46.176981 
1086.000000	46.183156 
1085.000000	46.187853 
1084.000000	46.190524 
1083.000000	46.189975 
1082.000000	46.185088 
1081.000000	46.174550 
1080.000000	46.157574 
1079.000000	46.133852 
1078.000000	46.104097 
1077.000000	46.069979 
1076.000000	46.033859 
1075.000000	45.998597 
1074.000000	45.967364 
1073.000000	45.942783 
1072.000000	45.926618 
1071.000000	45.919489 
1070.000000	45.920610 
1069.000000	45.927977 
1068.000000	45.938754 
1067.000000	45.949602 
1066.000000	45.957517 
1065.000000	45.960259 
1064.000000	45.956730 
1063.000000	45.947146 
1062.000000	45.932698 
1061.000000	45.915293 
1060.000000	45.897006 
1059.000000	45.879483 
1058.000000	45.863485 
1057.000000	45.848941 
1056.000000	45.834994 
1055.000000	45.820355 
1054.000000	45.804142 
1053.000000	45.786499 
1052.000000	45.768857 
1051.000000	45.753693 
1050.000000	45.743823 
1049.000000	45.741486 
1048.000000	45.747852 
1047.000000	45.762228 
1046.000000	45.782327 
1045.000000	45.804762 
1044.000000	45.825743 
1043.000000	45.842194 
1042.000000	45.851898 
1041.000000	45.853996 
1040.000000	45.848703 
1039.000000	45.837283 
1038.000000	45.821571 
1037.000000	45.803523 
1036.000000	45.785093 
1035.000000	45.767855 
1034.000000	45.753026 
1033.000000	45.741200 
1032.000000	45.732378 
1031.000000	45.725774 
1030.000000	45.720100 
1029.000000	45.713615 
1028.000000	45.704507 
1027.000000	45.691633 
1026.000000	45.674657 
1025.000000	45.654439 
1024.000000	45.633077 
1023.000000	45.613050 
1022.000000	45.596837 
1021.000000	45.585775 
1020.000000	45.579886 
1019.000000	45.577669 
1018.000000	45.576453 
1017.000000	45.573306 
1016.000000	45.566058 
1015.000000	45.553803 
1014.000000	45.537352 
1013.000000	45.518851 
1012.000000	45.501422 
1011.000000	45.487880 
1010.000000	45.480060 
1009.000000	45.478081 
1008.000000	45.480346 
1007.000000	45.483636 
1006.000000	45.484185 
1005.000000	45.478677 
1004.000000	45.465064 
1003.000000	45.443463 
1002.000000	45.415830 
1001.000000	45.385384 
1000.000000	45.356035 
999.000000	 45.331287 
998.000000	 45.313715 
997.000000	 45.303988 
996.000000	 45.301604 
995.000000	 45.304846 
994.000000	 45.311951 
993.000000	 45.321440 
992.000000	 45.332789 
991.000000	 45.346355 
990.000000	 45.363020 
989.000000	 45.383667 
988.000000	 45.408749 
987.000000	 45.437884 
986.000000	 45.469665 
985.000000	 45.501756 
984.000000	 45.531606 
983.000000	 45.557069 
982.000000	 45.576763 
981.000000	 45.589852 
980.000000	 45.596313 
979.000000	 45.596218 
978.000000	 45.589447 
977.000000	 45.575189 
976.000000	 45.552611 
975.000000	 45.520591 
974.000000	 45.478677 
973.000000	 45.427536 
972.000000	 45.369625 
971.000000	 45.309281 
970.000000	 45.251607 
969.000000	 45.202350 
968.000000	 45.166802 
967.000000	 45.148324 
966.000000	 45.147490 
965.000000	 45.161509 
964.000000	 45.184564 
963.000000	 45.208811 
962.000000	 45.226073 
961.000000	 45.229101 
960.000000	 45.213103 
959.000000	 45.176792 
958.000000	 45.122599 
957.000000	 45.055890 
956.000000	 44.983458 
955.000000	 44.912266 
954.000000	 44.847536 
953.000000	 44.792103 
952.000000	 44.745731 
951.000000	 44.706010 
950.000000	 44.669055 
949.000000	 44.631624 
948.000000	 44.591212 
947.000000	 44.547271 
946.000000	 44.500255 
945.000000	 44.450283 
944.000000	 44.397425 
943.000000	 44.340515 
942.000000	 44.278860 
941.000000	 44.211935 
940.000000	 44.142007 
939.000000	 44.073867 
938.000000	 44.015812 
937.000000	 43.977451 
936.000000	 43.968272 
935.000000	 43.994665 
934.000000	 44.058370 
933.000000	 44.155120 
932.000000	 44.274902 
931.000000	 44.403433 
930.000000	 44.525051 
929.000000	 44.625520 
928.000000	 44.694662 
927.000000	 44.727873 
926.000000	 44.725942 
925.000000	 44.694614 
924.000000	 44.642496 
923.000000	 44.580030 
922.000000	 44.517326 
921.000000	 44.463157 
920.000000	 44.424986 
919.000000	 44.407558 
918.000000	 44.413471 
917.000000	 44.442033 
916.000000	 44.490456 
915.000000	 44.552755 
914.000000	 44.620823 
913.000000	 44.685101 
912.000000	 44.736027 
911.000000	 44.765615 
910.000000	 44.768524 
909.000000	 44.743323 
908.000000	 44.692492 
907.000000	 44.622063 
906.000000	 44.540429 
905.000000	 44.456648 
904.000000	 44.379043 
903.000000	 44.314098 
902.000000	 44.265675 
901.000000	 44.234871 
900.000000	 44.220089 
899.000000	 44.217967 
898.000000	 44.224071 
897.000000	 44.232845 
896.000000	 44.239020 
895.000000	 44.238233 
894.000000	 44.228148 
893.000000	 44.207954 
892.000000	 44.179487 
891.000000	 44.146370 
890.000000	 44.113731 
889.000000	 44.087243 
888.000000	 44.071435 
887.000000	 44.068861 
886.000000	 44.078779 
885.000000	 44.097566 
884.000000	 44.118952 
883.000000	 44.135642 
882.000000	 44.140791 
881.000000	 44.129753 
880.000000	 44.101476 
879.000000	 44.058775 
878.000000	 44.007754 
877.000000	 43.956422 
876.000000	 43.913269 
875.000000	 43.885326 
874.000000	 43.876791 
873.000000	 43.888258 
872.000000	 43.916702 
871.000000	 43.956184 
870.000000	 43.999385 
869.000000	 44.039011 
868.000000	 44.068837 
867.000000	 44.084978 
866.000000	 44.085621 
865.000000	 44.071722 
864.000000	 44.045901 
863.000000	 44.012117 
862.000000	 43.974757 
861.000000	 43.937969 
860.000000	 43.905448 
859.000000	 43.879818 
858.000000	 43.862986 
857.000000	 43.855524 
856.000000	 43.857383 
855.000000	 43.867158 
854.000000	 43.882584 
853.000000	 43.899846 
852.000000	 43.914127 
851.000000	 43.919944 
850.000000	 43.912076 
849.000000	 43.886637 
848.000000	 43.841981 
847.000000	 43.779683 
846.000000	 43.704557 
845.000000	 43.623733 
844.000000	 43.545556 
843.000000	 43.478178 
842.000000	 43.427991 
841.000000	 43.398880 
840.000000	 43.391275 
839.000000	 43.402218 
838.000000	 43.425965 
837.000000	 43.455767 
836.000000	 43.484616 
835.000000	 43.506145 
834.000000	 43.515968 
833.000000	 43.511462 
832.000000	 43.492746 
831.000000	 43.461418 
830.000000	 43.421316 
829.000000	 43.377232 
828.000000	 43.334889 
827.000000	 43.299889 
826.000000	 43.276929 
825.000000	 43.269181 
824.000000	 43.277812 
823.000000	 43.301939 
822.000000	 43.339276 
821.000000	 43.386292 
820.000000	 43.439006 
819.000000	 43.492937 
818.000000	 43.543195 
817.000000	 43.584561 
816.000000	 43.612122 
815.000000	 43.621611 
814.000000	 43.609976 
813.000000	 43.576383 
812.000000	 43.523120 
811.000000	 43.455052 
810.000000	 43.379330 
809.000000	 43.303632 
808.000000	 43.235754 
807.000000	 43.181157 
806.000000	 43.142509 
805.000000	 43.119096 
804.000000	 43.107390 
803.000000	 43.102622 
802.000000	 43.100333 
801.000000	 43.097472 
800.000000	 43.092846 
799.000000	 43.087077 
798.000000	 43.081998 
797.000000	 43.079352 
796.000000	 43.080306 
795.000000	 43.085312 
794.000000	 43.094134 
793.000000	 43.106484 
792.000000	 43.122196 
791.000000	 43.141365 
790.000000	 43.164086 
789.000000	 43.189764 
788.000000	 43.216919 
787.000000	 43.243122 
786.000000	 43.265295 
785.000000	 43.280220 
784.000000	 43.285417 
783.000000	 43.280220 
782.000000	 43.265438 
781.000000	 43.244147 
780.000000	 43.219733 
779.000000	 43.195390 
778.000000	 43.172645 
777.000000	 43.151521 
776.000000	 43.129992 
775.000000	 43.105149 
774.000000	 43.074512 
773.000000	 43.037366 
772.000000	 42.995071 
771.000000	 42.951154 
770.000000	 42.910552 
769.000000	 42.878174 
768.000000	 42.858052 
767.000000	 42.851972 
766.000000	 42.859125 
765.000000	 42.876052 
764.000000	 42.897844 
763.000000	 42.919087 
762.000000	 42.934799 
761.000000	 42.941546 
760.000000	 42.937970 
759.000000	 42.924809 
758.000000	 42.903828 
757.000000	 42.877554 
756.000000	 42.848515 
755.000000	 42.818593 
754.000000	 42.788958 
753.000000	 42.760062 
752.000000	 42.732238 
751.000000	 42.705821 
750.000000	 42.681479 
749.000000	 42.660474 
748.000000	 42.644643 
747.000000	 42.636013 
746.000000	 42.636084 
745.000000	 42.645287 
744.000000	 42.662620 
743.000000	 42.685317 
742.000000	 42.709374 
741.000000	 42.729902 
740.000000	 42.742013 
739.000000	 42.741799 
738.000000	 42.726922 
737.000000	 42.696881 
736.000000	 42.652988 
735.000000	 42.598271 
734.000000	 42.536902 
733.000000	 42.473697 
732.000000	 42.413425 
731.000000	 42.360377 
730.000000	 42.317461 
729.000000	 42.286157 
728.000000	 42.265915 
727.000000	 42.254686 
726.000000	 42.249202 
725.000000	 42.245554 
724.000000	 42.240071 
723.000000	 42.229628 
722.000000	 42.212486 
721.000000	 42.188167 
720.000000	 42.157578 
719.000000	 42.122530 
718.000000	 42.085599 
717.000000	 42.049574 
716.000000	 42.017054 
715.000000	 41.989755 
714.000000	 41.968631 
713.000000	 41.953635 
712.000000	 41.943597 
711.000000	 41.936683 
710.000000	 41.930961 
709.000000	 41.924929 
708.000000	 41.917562 
707.000000	 41.909003 
706.000000	 41.900467 
705.000000	 41.894149 
704.000000	 41.892504 
703.000000	 41.897487 
702.000000	 41.909480 
701.000000	 41.926956 
700.000000	 41.946840 
699.000000	 41.964626 
698.000000	 41.975641 
697.000000	 41.975617 
696.000000	 41.962099 
695.000000	 41.934537 
694.000000	 41.894268 
693.000000	 41.844081 
692.000000	 41.787505 
691.000000	 41.728138 
690.000000	 41.668891 
689.000000	 41.611742 
688.000000	 41.557741 
687.000000	 41.506814 
686.000000	 41.458177 
685.000000	 41.410660 
684.000000	 41.363477 
683.000000	 41.316127 
682.000000	 41.269087 
681.000000	 41.223359 
680.000000	 41.181015 
679.000000	 41.144704 
678.000000	 41.117429 
677.000000	 41.101431 
676.000000	 41.097593 
675.000000	 41.105079 
674.000000	 41.121149 
673.000000	 41.140961 
672.000000	 41.159033 
671.000000	 41.170167 
670.000000	 41.170763 
669.000000	 41.159391 
668.000000	 41.137290 
667.000000	 41.107773 
666.000000	 41.075348 
665.000000	 41.044545 
664.000000	 41.019177 
663.000000	 41.001677 
662.000000	 40.992999 
661.000000	 40.992569 
660.000000	 40.998792 
659.000000	 41.009283 
658.000000	 41.021823 
657.000000	 41.034245 
656.000000	 41.044282 
655.000000	 41.049265 
654.000000	 41.046667 
653.000000	 41.033840 
652.000000	 41.008520 
651.000000	 40.968942 
650.000000	 40.914940 
649.000000	 40.847992 
648.000000	 40.771532 
647.000000	 40.690660 
646.000000	 40.611696 
645.000000	 40.540885 
644.000000	 40.483665 
643.000000	 40.443086 
642.000000	 40.419745 
641.000000	 40.410900 
640.000000	 40.411376 
639.000000	 40.414452 
638.000000	 40.412878 
637.000000	 40.401196 
636.000000	 40.376615 
635.000000	 40.340209 
634.000000	 40.296316 
633.000000	 40.252208 
632.000000	 40.215778 
631.000000	 40.194129 
630.000000	 40.191364 
629.000000	 40.207600 
628.000000	 40.238451 
627.000000	 40.276050 
626.000000	 40.310454 
625.000000	 40.331864 
624.000000	 40.333056 
623.000000	 40.310668 
622.000000	 40.266227 
621.000000	 40.205764 
620.000000	 40.138125 
619.000000	 40.073204 
618.000000	 40.019297 
617.000000	 39.981675 
616.000000	 39.961242 
615.000000	 39.955067 
614.000000	 39.957284 
613.000000	 39.961242 
612.000000	 39.961481 
611.000000	 39.955091 
610.000000	 39.942383 
609.000000	 39.926052 
608.000000	 39.910197 
607.000000	 39.898562 
606.000000	 39.893651 
605.000000	 39.895629 
604.000000	 39.902353 
603.000000	 39.909720 
602.000000	 39.913344 
601.000000	 39.909505 
600.000000	 39.896392 
599.000000	 39.874219 
598.000000	 39.845538 
597.000000	 39.813566 
596.000000	 39.781928 
595.000000	 39.752173 
594.000000	 39.723944 
593.000000	 39.693903 
592.000000	 39.657449 
591.000000	 39.609360 
590.000000	 39.545607 
589.000000	 39.465260 
588.000000	 39.371442 
587.000000	 39.271306 
586.000000	 39.174652 
585.000000	 39.092278 
584.000000	 39.033436 
583.000000	 39.003205 
582.000000	 39.000940 
581.000000	 39.020109 
580.000000	 39.049530 
579.000000	 39.075899 
578.000000	 39.086961 
577.000000	 39.073681 
576.000000	 39.032316 
575.000000	 38.964557 
574.000000	 38.877272 
573.000000	 38.779807 
572.000000	 38.682866 
571.000000	 38.596057 
570.000000	 38.527274 
569.000000	 38.481283 
568.000000	 38.460040 
567.000000	 38.463401 
566.000000	 38.489270 
565.000000	 38.533663 
564.000000	 38.591647 
563.000000	 38.657164 
562.000000	 38.724160 
561.000000	 38.786149 
560.000000	 38.838171 
559.000000	 38.876914 
558.000000	 38.901400 
557.000000	 38.912773 
556.000000	 38.913512 
555.000000	 38.906311 
554.000000	 38.893032 
553.000000	 38.874483 
552.000000	 38.849401 
551.000000	 38.815474 
550.000000	 38.770580 
549.000000	 38.713979 
548.000000	 38.647294 
547.000000	 38.574361 
546.000000	 38.501119 
545.000000	 38.433504 
544.000000	 38.375973 
543.000000	 38.329815 
542.000000	 38.292741 
541.000000	 38.259363 
540.000000	 38.222837 
539.000000	 38.177013 
538.000000	 38.118743 
537.000000	 38.047981 
536.000000	 37.967228 
535.000000	 37.881374 
534.000000	 37.795734 
533.000000	 37.715649 
532.000000	 37.645292 
531.000000	 37.587261 
530.000000	 37.542223 
529.000000	 37.509512 
528.000000	 37.487792 
527.000000	 37.474656 
526.000000	 37.467312 
525.000000	 37.464213 
524.000000	 37.465238 
523.000000	 37.471270 
522.000000	 37.483286 
521.000000	 37.501788 
520.000000	 37.525701 
519.000000	 37.551569 
518.000000	 37.573981 
517.000000	 37.586379 
516.000000	 37.583184 
515.000000	 37.561249 
514.000000	 37.522149 
513.000000	 37.471914 
512.000000	 37.421035 
511.000000	 37.382268 
510.000000	 37.367701 
509.000000	 37.385964 
508.000000	 37.438845 
507.000000	 37.521171 
506.000000	 37.619924 
505.000000	 37.717676 
504.000000	 37.794733 
503.000000	 37.834215 
502.000000	 37.823987 
501.000000	 37.759256 
500.000000	 37.642979 
499.000000	 37.485122 
498.000000	 37.299704 
497.000000	 37.102437 
496.000000	 36.907982 
495.000000	 36.728262 
494.000000	 36.572504 
493.000000	 36.446666 
492.000000	 36.353778 
491.000000	 36.294126 
490.000000	 36.265635 
489.000000	 36.264443 
488.000000	 36.283302 
487.000000	 36.314105 
486.000000	 36.348009 
485.000000	 36.377310 
484.000000	 36.395263 
483.000000	 36.397361 
482.000000	 36.380958 
481.000000	 36.345601 
480.000000	 36.292219 
479.000000	 36.223745 
478.000000	 36.144757 
477.000000	 36.061453 
476.000000	 35.980987 
475.000000	 35.910654 
474.000000	 35.856938 
473.000000	 35.823416 
472.000000	 35.809850 
471.000000	 35.812258 
470.000000	 35.823249 
469.000000	 35.832786 
468.000000	 35.830163 
467.000000	 35.806250 
466.000000	 35.755538 
465.000000	 35.676956 
464.000000	 35.574197 
463.000000	 35.454702 
462.000000	 35.328173 
461.000000	 35.204720 
460.000000	 35.092830 
459.000000	 34.997963 
458.000000	 34.922075 
457.000000	 34.864473 
456.000000	 34.822082 
455.000000	 34.790968 
454.000000	 34.766864 
453.000000	 34.746193 
452.000000	 34.725713 
451.000000	 34.702467 
450.000000	 34.673452 
449.000000	 34.635186 
448.000000	 34.584879 
447.000000	 34.520983 
446.000000	 34.442758 
445.000000	 34.350323 
444.000000	 34.244155 
443.000000	 34.124636 
442.000000	 33.991098 
441.000000	 33.842420 
440.000000	 33.677697 
439.000000	 33.497738 
438.000000	 33.306264 
437.000000	 33.111119 
436.000000	 32.921361 
435.000000	 32.748699 
434.000000	 32.606458 
433.000000	 32.507133 
432.000000	 32.455444 
431.000000	 32.451677 
430.000000	 32.491827 
429.000000	 32.567739 
428.000000	 32.667303 
427.000000	 32.776570 
426.000000	 32.881879 
425.000000	 32.969188 
424.000000	 33.025383 
423.000000	 33.039045 
422.000000	 33.003187 
421.000000	 32.912707 
420.000000	 32.765293 
419.000000	 32.564210 
418.000000	 32.318973 
417.000000	 32.044410 
416.000000	 31.759929 
415.000000	 31.483244 
414.000000	 31.231904 
413.000000	 31.018567 
412.000000	 30.857753 
411.000000	 30.764842 
410.000000	 30.762624 
409.000000	 30.872726 
408.000000	 31.119132 
407.000000	 31.522583 
406.000000	 32.090520 
405.000000	 32.814097 
404.000000	 33.654689 
403.000000	 34.539198 
402.000000	 35.374188 
401.000000	 36.057949 
400.000000	 36.510705 
399.000000	 36.691308 
398.000000	 36.615324 
397.000000	 36.351823 
396.000000	 36.012792 
395.000000	 35.730600 
394.000000	 35.615110 
393.000000	 35.727286 
392.000000	 36.053943 
391.000000	 36.515069 
390.000000	 36.962795 
389.000000	 37.232065 
388.000000	 37.191247 
387.000000	 36.797165 
386.000000	 36.129474 
385.000000	 35.372376 
384.000000	 34.806275 
383.000000	 34.692859 
382.000000	 35.171365 
381.000000	 36.204004 
380.000000	 37.569141 
379.000000	 38.918280 
378.000000	 39.864373 
377.000000	 40.103530 
376.000000	 39.514565 
375.000000	 38.190293 
374.000000	 36.419653 
373.000000	 34.605240 
372.000000	 33.120036 
371.000000	 32.262063 
370.000000	 32.181620 

