PE IR       SPECTRUM    SPECTRUM    ASCII       PEDS        1.60        
  -1
C-1BE1~1.ASC
17/05/02
13:40:03.00
17/05/02
13:40:03.00
tln
$C-4040-8_t0033$<tbV0>[2.5,12.0,8.0,0.0,22,1,0]
370.000000
64









2002,4.07    
MIRTGS : RIGHTBACK : INTERNAL 2
MIR : ON : INTERNAL 2
OPTKBR

0.200000
8
8.000000
FILLER
RATIO
SPECTRUM
UNLOCKED 256

DOUBLE
64
COMBINED
1
0
0


1.000000
RATIO


1
0
TRUE
51149
0
LEFT NOT FITTED RIGHT NOT FITTED 0
NONE
NONE
15600
12.000000
4.427000
51148
TRUE
1 0 8 72 0 0 0 0 

15798.010000






#HDR
-1
-1
#GR
CM-1
%T
0.00002384185791015625
0.0
7800.000000
-1.000000
7431
8
90.543389
57.801222
#DATA
7800.000000	71.735310 
7799.000000	72.973084 
7798.000000	73.749279 
7797.000000	73.981070 
7796.000000	73.632001 
7795.000000	72.724652 
7794.000000	71.350336 
7793.000000	69.668960 
7792.000000	67.884135 
7791.000000	66.221094 
7790.000000	64.909243 
7789.000000	64.147520 
7788.000000	64.080333 
7787.000000	64.759922 
7786.000000	66.155576 
7785.000000	68.122148 
7784.000000	70.405340 
7783.000000	72.670912 
7782.000000	74.549961 
7781.000000	75.714683 
7780.000000	75.937294 
7779.000000	75.142312 
7778.000000	73.436307 
7777.000000	71.063065 
7776.000000	68.351912 
7775.000000	65.638923 
7774.000000	63.202691 
7773.000000	61.218881 
7772.000000	59.760379 
7771.000000	58.794665 
7770.000000	58.232140 
7769.000000	57.949233 
7768.000000	57.833552 
7767.000000	57.801222 
7766.000000	57.810258 
7765.000000	57.870435 
7764.000000	58.033657 
7763.000000	58.380126 
7762.000000	58.997392 
7761.000000	59.959745 
7760.000000	61.305260 
7759.000000	63.025641 
7758.000000	65.052151 
7757.000000	67.261695 
7756.000000	69.486880 
7755.000000	71.541070 
7754.000000	73.247981 
7753.000000	74.487709 
7752.000000	75.200319 
7751.000000	75.399255 
7750.000000	75.153803 
7749.000000	74.584364 
7748.000000	73.821878 
7747.000000	72.988867 
7746.000000	72.184610 
7745.000000	71.482396 
7744.000000	70.941758 
7743.000000	70.623683 
7742.000000	70.585799 
7741.000000	70.879864 
7740.000000	71.539163 
7739.000000	72.564148 
7738.000000	73.894810 
7737.000000	75.408768 
7736.000000	76.930236 
7735.000000	78.258967 
7734.000000	79.220867 
7733.000000	79.694414 
7732.000000	79.650425 
7731.000000	79.131674 
7730.000000	78.242397 
7729.000000	77.099132 
7728.000000	75.802636 
7727.000000	74.410510 
7726.000000	72.952198 
7725.000000	71.426773 
7724.000000	69.839406 
7723.000000	68.210434 
7722.000000	66.604399 
7721.000000	65.111541 
7720.000000	63.827848 
7719.000000	62.838983 
7718.000000	62.187314 
7717.000000	61.872458 
7716.000000	61.839485 
7715.000000	62.005257 
7714.000000	62.270474 
7713.000000	62.556028 
7712.000000	62.816476 
7711.000000	63.041615 
7710.000000	63.250398 
7709.000000	63.471531 
7708.000000	63.730573 
7707.000000	64.045763 
7706.000000	64.420270 
7705.000000	64.841246 
7704.000000	65.280461 
7703.000000	65.714693 
7702.000000	66.117119 
7701.000000	66.461014 
7700.000000	66.718935 
7699.000000	66.866278 
7698.000000	66.885972 
7697.000000	66.772079 
7696.000000	66.538262 
7695.000000	66.212582 
7694.000000	65.848374 
7693.000000	65.520930 
7692.000000	65.313291 
7691.000000	65.293121 
7690.000000	65.513634 
7689.000000	66.001105 
7688.000000	66.751718 
7687.000000	67.726969 
7686.000000	68.867111 
7685.000000	70.096611 
7684.000000	71.317076 
7683.000000	72.413420 
7682.000000	73.263025 
7681.000000	73.748540 
7680.000000	73.777890 
7679.000000	73.298120 
7678.000000	72.317194 
7677.000000	70.899558 
7676.000000	69.167256 
7675.000000	67.273783 
7674.000000	65.384602 
7673.000000	63.648819 
7672.000000	62.184262 
7671.000000	61.064648 
7670.000000	60.310959 
7669.000000	59.911084 
7668.000000	59.825468 
7667.000000	60.013294 
7666.000000	60.423660 
7665.000000	61.026024 
7664.000000	61.792826 
7663.000000	62.708759 
7662.000000	63.743662 
7661.000000	64.866018 
7660.000000	66.029858 
7659.000000	67.184352 
7658.000000	68.273353 
7657.000000	69.249701 
7656.000000	70.077395 
7655.000000	70.737123 
7654.000000	71.221137 
7653.000000	71.531653 
7652.000000	71.671056 
7651.000000	71.645879 
7650.000000	71.458911 
7649.000000	71.119236 
7648.000000	70.637798 
7647.000000	70.046091 
7646.000000	69.382882 
7645.000000	68.696141 
7644.000000	68.031954 
7643.000000	67.438936 
7642.000000	66.949748 
7641.000000	66.573691 
7640.000000	66.300320 
7639.000000	66.105508 
7638.000000	65.957403 
7637.000000	65.825247 
7636.000000	65.684580 
7635.000000	65.518140 
7634.000000	65.321731 
7633.000000	65.101671 
7632.000000	64.870214 
7631.000000	64.639711 
7630.000000	64.434051 
7629.000000	64.284825 
7628.000000	64.229416 
7627.000000	64.302635 
7626.000000	64.526104 
7625.000000	64.900660 
7624.000000	65.398812 
7623.000000	65.970516 
7622.000000	66.549134 
7621.000000	67.068791 
7620.000000	67.478847 
7619.000000	67.754364 
7618.000000	67.901134 
7617.000000	67.947793 
7616.000000	67.938041 
7615.000000	67.910695 
7614.000000	67.894768 
7613.000000	67.890715 
7612.000000	67.879343 
7611.000000	67.817664 
7610.000000	67.658257 
7609.000000	67.360162 
7608.000000	66.908693 
7607.000000	66.318011 
7606.000000	65.631771 
7605.000000	64.923644 
7604.000000	64.284658 
7603.000000	63.813543 
7602.000000	63.599467 
7601.000000	63.711166 
7600.000000	64.182639 
7599.000000	65.009212 
7598.000000	66.142225 
7597.000000	67.490029 
7596.000000	68.927049 
7595.000000	70.319390 
7594.000000	71.532440 
7593.000000	72.450852 
7592.000000	72.984838 
7591.000000	73.088407 
7590.000000	72.752642 
7589.000000	72.010517 
7588.000000	70.926713 
7587.000000	69.595050 
7586.000000	68.128585 
7585.000000	66.654920 
7584.000000	65.303754 
7583.000000	64.197182 
7582.000000	63.438415 
7581.000000	63.100576 
7580.000000	63.215565 
7579.000000	63.765764 
7578.000000	64.686465 
7577.000000	65.870594 
7576.000000	67.177915 
7575.000000	68.449807 
7574.000000	69.533705 
7573.000000	70.298528 
7572.000000	70.646715 
7571.000000	70.522642 
7570.000000	69.919943 
7569.000000	68.878650 
7568.000000	67.481398 
7567.000000	65.844392 
7566.000000	64.104771 
7565.000000	62.409186 
7564.000000	60.910129 
7563.000000	59.738898 
7562.000000	58.993101 
7561.000000	58.718538 
7560.000000	58.899331 
7559.000000	59.465050 
7558.000000	60.291528 
7557.000000	61.240601 
7556.000000	62.169623 
7555.000000	62.979674 
7554.000000	63.617825 
7553.000000	64.097595 
7552.000000	64.477705 
7551.000000	64.848637 
7550.000000	65.297222 
7549.000000	65.884423 
7548.000000	66.622376 
7547.000000	67.472910 
7546.000000	68.351340 
7545.000000	69.157814 
7544.000000	69.791269 
7543.000000	70.176959 
7542.000000	70.272350 
7541.000000	70.070981 
7540.000000	69.602203 
7539.000000	68.913531 
7538.000000	68.078374 
7537.000000	67.185354 
7536.000000	66.337084 
7535.000000	65.650820 
7534.000000	65.229368 
7533.000000	65.148043 
7532.000000	65.430068 
7531.000000	66.046595 
7530.000000	66.904664 
7529.000000	67.862176 
7528.000000	68.751931 
7527.000000	69.414067 
7526.000000	69.726204 
7525.000000	69.626593 
7524.000000	69.122385 
7523.000000	68.283462 
7522.000000	67.226457 
7521.000000	66.087913 
7520.000000	64.998078 
7519.000000	64.056181 
7518.000000	63.325190 
7517.000000	62.822389 
7516.000000	62.530994 
7515.000000	62.404537 
7514.000000	62.381315 
7513.000000	62.399578 
7512.000000	62.391924 
7511.000000	62.316560 
7510.000000	62.152504 
7509.000000	61.918592 
7508.000000	61.656975 
7507.000000	61.433768 
7506.000000	61.312198 
7505.000000	61.346006 
7504.000000	61.561012 
7503.000000	61.953115 
7502.000000	62.486648 
7501.000000	63.106274 
7500.000000	63.749313 
7499.000000	64.359307 
7498.000000	64.895415 
7497.000000	65.339565 
7496.000000	65.693950 
7495.000000	65.978956 
7494.000000	66.220235 
7493.000000	66.442608 
7492.000000	66.656184 
7491.000000	66.848421 
7490.000000	66.983366 
7489.000000	67.017674 
7488.000000	66.909956 
7487.000000	66.633605 
7486.000000	66.190028 
7485.000000	65.614843 
7484.000000	64.975380 
7483.000000	64.360642 
7482.000000	63.861346 
7481.000000	63.551259 
7480.000000	63.468456 
7479.000000	63.606739 
7478.000000	63.917446 
7477.000000	64.319920 
7476.000000	64.725279 
7475.000000	65.055561 
7474.000000	65.265059 
7473.000000	65.345191 
7472.000000	65.326833 
7471.000000	65.265011 
7470.000000	65.225195 
7469.000000	65.261650 
7468.000000	65.413951 
7467.000000	65.695905 
7466.000000	66.097903 
7465.000000	66.585206 
7464.000000	67.109298 
7463.000000	67.609286 
7462.000000	68.020033 
7461.000000	68.278908 
7460.000000	68.332576 
7459.000000	68.149590 
7458.000000	67.725014 
7457.000000	67.090177 
7456.000000	66.311621 
7455.000000	65.483355 
7454.000000	64.716148 
7453.000000	64.112496 
7452.000000	63.749289 
7451.000000	63.659811 
7450.000000	63.828086 
7449.000000	64.195370 
7448.000000	64.673638 
7447.000000	65.170431 
7446.000000	65.607833 
7445.000000	65.939188 
7444.000000	66.152143 
7443.000000	66.264128 
7442.000000	66.307544 
7441.000000	66.313982 
7440.000000	66.300439 
7439.000000	66.265320 
7438.000000	66.189980 
7437.000000	66.051578 
7436.000000	65.833377 
7435.000000	65.538239 
7434.000000	65.190029 
7433.000000	64.834380 
7432.000000	64.524316 
7431.000000	64.303541 
7430.000000	64.195513 
7429.000000	64.197134 
7428.000000	64.278888 
7427.000000	64.392185 
7426.000000	64.483833 
7425.000000	64.508199 
7424.000000	64.443254 
7423.000000	64.291548 
7422.000000	64.086413 
7421.000000	63.876533 
7420.000000	63.723087 
7419.000000	63.680076 
7418.000000	63.788580 
7417.000000	64.065694 
7416.000000	64.502120 
7415.000000	65.062546 
7414.000000	65.692853 
7413.000000	66.328239 
7412.000000	66.899442 
7411.000000	67.342185 
7410.000000	67.604041 
7409.000000	67.651724 
7408.000000	67.476129 
7407.000000	67.093396 
7406.000000	66.545772 
7405.000000	65.891861 
7404.000000	65.204882 
7403.000000	64.552617 
7402.000000	63.990163 
7401.000000	63.547658 
7400.000000	63.232922 
7399.000000	63.030362 
7398.000000	62.907743 
7397.000000	62.829589 
7396.000000	62.766432 
7395.000000	62.702989 
7394.000000	62.636566 
7393.000000	62.577223 
7392.000000	62.537288 
7391.000000	62.525987 
7390.000000	62.540650 
7389.000000	62.568664 
7388.000000	62.588453 
7387.000000	62.579703 
7386.000000	62.529015 
7385.000000	62.434983 
7384.000000	62.307906 
7383.000000	62.164139 
7382.000000	62.021994 
7381.000000	61.889791 
7380.000000	61.769723 
7379.000000	61.660099 
7378.000000	61.561894 
7377.000000	61.480450 
7376.000000	61.430048 
7375.000000	61.431360 
7374.000000	61.508774 
7373.000000	61.677241 
7372.000000	61.944317 
7371.000000	62.301588 
7370.000000	62.731075 
7369.000000	63.205456 
7368.000000	63.696002 
7367.000000	64.176464 
7366.000000	64.626216 
7365.000000	65.033125 
7364.000000	65.386009 
7363.000000	65.672779 
7362.000000	65.879511 
7361.000000	65.992379 
7360.000000	66.001009 
7359.000000	65.902066 
7358.000000	65.709495 
7357.000000	65.451407 
7356.000000	65.164589 
7355.000000	64.883399 
7354.000000	64.636206 
7353.000000	64.432692 
7352.000000	64.264774 
7351.000000	64.103388 
7350.000000	63.912296 
7349.000000	63.651657 
7348.000000	63.289928 
7347.000000	62.812423 
7346.000000	62.224173 
7345.000000	61.554789 
7344.000000	60.848212 
7343.000000	60.163664 
7342.000000	59.558725 
7341.000000	59.088921 
7340.000000	58.794927 
7339.000000	58.700871 
7338.000000	58.806872 
7337.000000	59.095764 
7336.000000	59.535002 
7335.000000	60.081505 
7334.000000	60.685443 
7333.000000	61.306285 
7332.000000	61.915683 
7331.000000	62.498497 
7330.000000	63.048267 
7329.000000	63.562870 
7328.000000	64.036560 
7327.000000	64.456391 
7326.000000	64.800977 
7325.000000	65.045285 
7324.000000	65.167260 
7323.000000	65.163874 
7322.000000	65.050554 
7321.000000	64.860916 
7320.000000	64.642858 
7319.000000	64.455866 
7318.000000	64.353299 
7317.000000	64.372062 
7316.000000	64.522767 
7315.000000	64.793705 
7314.000000	65.144848 
7313.000000	65.519475 
7312.000000	65.852427 
7311.000000	66.086268 
7310.000000	66.177821 
7309.000000	66.106557 
7308.000000	65.875816 
7307.000000	65.510225 
7306.000000	65.050005 
7305.000000	64.543223 
7304.000000	64.036035 
7303.000000	63.567018 
7302.000000	63.165879 
7301.000000	62.854480 
7300.000000	62.641668 
7299.000000	62.533736 
7298.000000	62.536811 
7297.000000	62.663602 
7296.000000	62.921404 
7295.000000	63.318657 
7294.000000	63.856101 
7293.000000	64.524722 
7292.000000	65.297102 
7291.000000	66.128993 
7290.000000	66.962981 
7289.000000	67.731738 
7288.000000	68.371009 
7287.000000	68.824028 
7286.000000	69.053173 
7285.000000	69.044780 
7284.000000	68.816018 
7283.000000	68.407225 
7282.000000	67.876839 
7281.000000	67.293667 
7280.000000	66.727375 
7279.000000	66.238355 
7278.000000	65.869641 
7277.000000	65.641140 
7276.000000	65.547442 
7275.000000	65.559244 
7274.000000	65.631031 
7273.000000	65.706944 
7272.000000	65.736794 
7271.000000	65.685153 
7270.000000	65.541434 
7269.000000	65.316820 
7268.000000	65.043258 
7267.000000	64.761638 
7266.000000	64.512562 
7265.000000	64.321398 
7264.000000	64.199161 
7263.000000	64.138603 
7262.000000	64.125895 
7261.000000	64.143991 
7260.000000	64.188098 
7259.000000	64.268207 
7258.000000	64.408326 
7257.000000	64.636683 
7256.000000	64.974308 
7255.000000	65.422439 
7254.000000	65.953731 
7253.000000	66.511821 
7252.000000	67.020869 
7251.000000	67.399334 
7250.000000	67.579865 
7249.000000	67.522120 
7248.000000	67.219924 
7247.000000	66.700315 
7246.000000	66.017508 
7245.000000	65.240621 
7244.000000	64.440035 
7243.000000	63.677906 
7242.000000	63.002133 
7241.000000	62.445449 
7240.000000	62.027096 
7239.000000	61.758399 
7238.000000	61.643671 
7237.000000	61.685872 
7236.000000	61.878442 
7235.000000	62.212324 
7234.000000	62.664294 
7233.000000	63.206362 
7232.000000	63.799381 
7231.000000	64.402985 
7230.000000	64.976406 
7229.000000	65.482616 
7228.000000	65.890550 
7227.000000	66.175460 
7226.000000	66.320323 
7225.000000	66.316771 
7224.000000	66.165733 
7223.000000	65.877270 
7222.000000	65.470004 
7221.000000	64.971542 
7220.000000	64.416575 
7219.000000	63.845348 
7218.000000	63.300776 
7217.000000	62.823605 
7216.000000	62.449955 
7215.000000	62.207007 
7214.000000	62.111759 
7213.000000	62.164163 
7212.000000	62.352418 
7211.000000	62.650442 
7210.000000	63.026142 
7209.000000	63.438725 
7208.000000	63.852405 
7207.000000	64.234828 
7206.000000	64.567065 
7205.000000	64.842534 
7204.000000	65.064454 
7203.000000	65.242266 
7202.000000	65.381288 
7201.000000	65.480279 
7200.000000	65.524935 
7199.000000	65.492749 
7198.000000	65.361571 
7197.000000	65.120530 
7196.000000	64.779281 
7195.000000	64.372086 
7194.000000	63.954329 
7193.000000	63.592267 
7192.000000	63.350152 
7191.000000	63.273549 
7190.000000	63.377475 
7189.000000	63.640570 
7188.000000	64.009356 
7187.000000	64.409565 
7186.000000	64.761590 
7185.000000	65.000557 
7184.000000	65.086507 
7183.000000	65.016508 
7182.000000	64.820694 
7181.000000	64.555072 
7180.000000	64.283156 
7179.000000	64.061999 
7178.000000	63.929843 
7177.000000	63.896822 
7176.000000	63.946819 
7175.000000	64.045047 
7174.000000	64.151883 
7173.000000	64.234948 
7172.000000	64.279389 
7171.000000	64.293527 
7170.000000	64.305186 
7169.000000	64.352583 
7168.000000	64.469909 
7167.000000	64.676213 
7166.000000	64.964103 
7165.000000	65.300726 
7164.000000	65.629601 
7163.000000	65.886664 
7162.000000	66.010236 
7161.000000	65.960645 
7160.000000	65.724158 
7159.000000	65.316462 
7158.000000	64.777874 
7157.000000	64.165282 
7156.000000	63.540267 
7155.000000	62.957739 
7154.000000	62.459135 
7153.000000	62.068629 
7152.000000	61.794948 
7151.000000	61.635971 
7150.000000	61.582946 
7149.000000	61.623954 
7148.000000	61.746692 
7147.000000	61.936688 
7146.000000	62.177491 
7145.000000	62.447071 
7144.000000	62.720990 
7143.000000	62.972044 
7142.000000	63.172054 
7141.000000	63.294410 
7140.000000	63.320779 
7139.000000	63.243293 
7138.000000	63.064074 
7137.000000	62.797737 
7136.000000	62.469100 
7135.000000	62.113189 
7134.000000	61.771321 
7133.000000	61.487221 
7132.000000	61.299729 
7131.000000	61.237573 
7130.000000	61.317300 
7129.000000	61.535739 
7128.000000	61.867713 
7127.000000	62.271094 
7126.000000	62.693214 
7125.000000	63.080692 
7124.000000	63.386344 
7123.000000	63.580775 
7122.000000	63.657069 
7121.000000	63.626217 
7120.000000	63.510847 
7119.000000	63.336944 
7118.000000	63.126397 
7117.000000	62.887549 
7116.000000	62.615299 
7115.000000	62.295031 
7114.000000	61.911916 
7113.000000	61.458444 
7112.000000	60.945820 
7111.000000	60.402750 
7110.000000	59.880781 
7109.000000	59.442877 
7108.000000	59.158992 
7107.000000	59.083604 
7106.000000	59.251904 
7105.000000	59.667587 
7104.000000	60.303544 
7103.000000	61.103081 
7102.000000	61.989116 
7101.000000	62.874770 
7100.000000	63.677096 
7099.000000	64.326429 
7098.000000	64.778113 
7097.000000	65.014529 
7096.000000	65.048170 
7095.000000	64.915537 
7094.000000	64.671301 
7093.000000	64.378499 
7092.000000	64.098644 
7091.000000	63.883566 
7090.000000	63.768529 
7089.000000	63.768506 
7088.000000	63.877463 
7087.000000	64.070320 
7086.000000	64.305591 
7085.000000	64.534163 
7084.000000	64.706945 
7083.000000	64.786434 
7082.000000	64.752149 
7081.000000	64.605307 
7080.000000	64.369988 
7079.000000	64.083886 
7078.000000	63.785910 
7077.000000	63.508725 
7076.000000	63.274192 
7075.000000	63.089609 
7074.000000	62.949752 
7073.000000	62.843561 
7072.000000	62.759661 
7071.000000	62.694454 
7070.000000	62.656760 
7069.000000	62.660431 
7068.000000	62.715506 
7067.000000	62.826085 
7066.000000	62.984609 
7065.000000	63.169741 
7064.000000	63.348460 
7063.000000	63.484072 
7062.000000	63.544273 
7061.000000	63.510417 
7060.000000	63.382053 
7059.000000	63.173222 
7058.000000	62.912464 
7057.000000	62.632417 
7056.000000	62.371039 
7055.000000	62.164211 
7054.000000	62.047839 
7053.000000	62.054252 
7052.000000	62.208843 
7051.000000	62.528395 
7050.000000	63.009834 
7049.000000	63.631677 
7048.000000	64.342689 
7047.000000	65.066957 
7046.000000	65.710926 
7045.000000	66.178870 
7044.000000	66.393208 
7043.000000	66.311025 
7042.000000	65.938830 
7041.000000	65.332913 
7040.000000	64.593815 
7039.000000	63.847494 
7038.000000	63.218283 
7037.000000	62.803888 
7036.000000	62.654852 
7035.000000	62.767028 
7034.000000	63.084292 
7033.000000	63.516283 
7032.000000	63.961005 
7031.000000	64.331674 
7030.000000	64.570355 
7029.000000	64.662885 
7028.000000	64.630508 
7027.000000	64.526009 
7026.000000	64.410662 
7025.000000	64.342069 
7024.000000	64.360189 
7023.000000	64.476513 
7022.000000	64.684915 
7021.000000	64.950037 
7020.000000	65.224456 
7019.000000	65.448689 
7018.000000	65.570044 
7017.000000	65.545511 
7016.000000	65.352129 
7015.000000	64.989924 
7014.000000	64.481306 
7013.000000	63.870215 
7012.000000	63.214778 
7011.000000	62.578153 
7010.000000	62.018465 
7009.000000	61.578941 
7008.000000	61.282682 
7007.000000	61.129760 
7006.000000	61.101412 
7005.000000	61.165118 
7004.000000	61.285448 
7003.000000	61.427164 
7002.000000	61.567044 
7001.000000	61.691117 
7000.000000	61.803221 
6999.000000	61.910080 
6998.000000	62.030291 
6997.000000	62.184953 
6996.000000	62.397193 
6995.000000	62.686395 
6994.000000	63.061571 
6993.000000	63.518381 
6992.000000	64.035105 
6991.000000	64.576745 
6990.000000	65.097832 
6989.000000	65.552020 
6988.000000	65.899467 
6987.000000	66.116404 
6986.000000	66.196393 
6985.000000	66.151571 
6984.000000	66.007256 
6983.000000	65.796923 
6982.000000	65.545988 
6981.000000	65.267443 
6980.000000	64.963221 
6979.000000	64.629006 
6978.000000	64.258956 
6977.000000	63.855028 
6976.000000	63.435101 
6975.000000	63.033437 
6974.000000	62.693762 
6973.000000	62.461900 
6972.000000	62.368106 
6971.000000	62.424612 
6970.000000	62.620902 
6969.000000	62.926101 
6968.000000	63.292074 
6967.000000	63.665151 
6966.000000	63.996887 
6965.000000	64.251375 
6964.000000	64.405012 
6963.000000	64.454889 
6962.000000	64.414191 
6961.000000	64.311099 
6960.000000	64.177966 
6959.000000	64.053964 
6958.000000	63.978433 
6957.000000	63.986325 
6956.000000	64.102768 
6955.000000	64.339065 
6954.000000	64.689326 
6953.000000	65.129780 
6952.000000	65.620517 
6951.000000	66.109275 
6950.000000	66.539025 
6949.000000	66.859984 
6948.000000	67.035651 
6947.000000	67.048525 
6946.000000	66.899967 
6945.000000	66.613745 
6944.000000	66.224622 
6943.000000	65.773630 
6942.000000	65.296602 
6941.000000	64.827656 
6940.000000	64.386749 
6939.000000	63.983345 
6938.000000	63.615512 
6937.000000	63.277888 
6936.000000	62.964224 
6935.000000	62.672162 
6934.000000	62.405014 
6933.000000	62.168073 
6932.000000	61.973261 
6931.000000	61.833930 
6930.000000	61.763072 
6929.000000	61.767172 
6928.000000	61.849474 
6927.000000	62.006902 
6926.000000	62.228202 
6925.000000	62.493896 
6924.000000	62.777900 
6923.000000	63.051867 
6922.000000	63.284945 
6921.000000	63.453865 
6920.000000	63.546442 
6919.000000	63.569021 
6918.000000	63.543128 
6917.000000	63.505697 
6916.000000	63.501596 
6915.000000	63.573431 
6914.000000	63.754415 
6913.000000	64.055514 
6912.000000	64.462637 
6911.000000	64.936327 
6910.000000	65.425086 
6909.000000	65.868830 
6908.000000	66.212940 
6907.000000	66.416883 
6906.000000	66.465473 
6905.000000	66.361212 
6904.000000	66.121983 
6903.000000	65.774846 
6902.000000	65.350961 
6901.000000	64.880895 
6900.000000	64.392805 
6899.000000	63.912987 
6898.000000	63.465881 
6897.000000	63.074803 
6896.000000	62.760877 
6895.000000	62.537741 
6894.000000	62.412238 
6893.000000	62.380409 
6892.000000	62.432622 
6891.000000	62.547397 
6890.000000	62.704014 
6889.000000	62.882637 
6888.000000	63.072490 
6887.000000	63.266801 
6886.000000	63.467597 
6885.000000	63.676953 
6884.000000	63.899707 
6883.000000	64.135980 
6882.000000	64.384698 
6881.000000	64.642429 
6880.000000	64.904069 
6879.000000	65.165042 
6878.000000	65.416550 
6877.000000	65.647959 
6876.000000	65.840792 
6875.000000	65.972018 
6874.000000	66.016292 
6873.000000	65.952634 
6872.000000	65.771937 
6871.000000	65.482068 
6870.000000	65.109133 
6869.000000	64.693832 
6868.000000	64.288115 
6867.000000	63.942337 
6866.000000	63.691663 
6865.000000	63.551092 
6864.000000	63.511919 
6863.000000	63.550209 
6862.000000	63.632655 
6861.000000	63.731503 
6860.000000	63.829708 
6859.000000	63.927960 
6858.000000	64.040780 
6857.000000	64.189624 
6856.000000	64.388251 
6855.000000	64.638519 
6854.000000	64.924883 
6853.000000	65.215945 
6852.000000	65.471482 
6851.000000	65.650987 
6850.000000	65.725278 
6849.000000	65.682387 
6848.000000	65.532016 
6847.000000	65.301465 
6846.000000	65.030193 
6845.000000	64.760732 
6844.000000	64.531087 
6843.000000	64.368939 
6842.000000	64.288377 
6841.000000	64.294075 
6840.000000	64.380526 
6839.000000	64.535188 
6838.000000	64.739012 
6837.000000	64.969730 
6836.000000	65.201759 
6835.000000	65.406370 
6834.000000	65.556311 
6833.000000	65.627121 
6832.000000	65.604019 
6831.000000	65.482664 
6830.000000	65.275359 
6829.000000	65.008258 
6828.000000	64.721584 
6827.000000	64.463949 
6826.000000	64.281558 
6825.000000	64.209127 
6824.000000	64.262294 
6823.000000	64.435386 
6822.000000	64.700865 
6821.000000	65.016102 
6820.000000	65.338015 
6819.000000	65.633535 
6818.000000	65.886783 
6817.000000	66.100382 
6816.000000	66.292095 
6815.000000	66.484832 
6814.000000	66.698145 
6813.000000	66.937255 
6812.000000	67.187356 
6811.000000	67.415881 
6810.000000	67.584800 
6809.000000	67.659187 
6808.000000	67.622184 
6807.000000	67.478013 
6806.000000	67.256093 
6805.000000	66.999673 
6804.000000	66.759085 
6803.000000	66.573190 
6802.000000	66.459822 
6801.000000	66.411685 
6800.000000	66.404104 
6799.000000	66.397571 
6798.000000	66.352653 
6797.000000	66.236591 
6796.000000	66.033387 
6795.000000	65.744638 
6794.000000	65.388965 
6793.000000	64.998292 
6792.000000	64.611911 
6791.000000	64.271283 
6790.000000	64.014267 
6789.000000	63.872098 
6788.000000	63.865017 
6787.000000	63.999867 
6786.000000	64.267945 
6785.000000	64.646625 
6784.000000	65.099191 
6783.000000	65.578508 
6782.000000	66.030836 
6781.000000	66.403770 
6780.000000	66.649556 
6779.000000	66.736459 
6778.000000	66.645455 
6777.000000	66.375827 
6776.000000	65.939974 
6775.000000	65.365743 
6774.000000	64.689660 
6773.000000	63.955235 
6772.000000	63.209843 
6771.000000	62.503123 
6770.000000	61.882662 
6769.000000	61.390471 
6768.000000	61.059570 
6767.000000	60.909867 
6766.000000	60.945844 
6765.000000	61.155557 
6764.000000	61.509466 
6763.000000	61.964988 
6762.000000	62.470078 
6761.000000	62.972712 
6760.000000	63.425183 
6759.000000	63.793945 
6758.000000	64.060401 
6757.000000	64.225268 
6756.000000	64.303922 
6755.000000	64.323282 
6754.000000	64.317917 
6753.000000	64.318537 
6752.000000	64.350771 
6751.000000	64.423584 
6750.000000	64.534306 
6749.000000	64.663600 
6748.000000	64.785432 
6747.000000	64.870238 
6746.000000	64.895367 
6745.000000	64.849305 
6744.000000	64.736461 
6743.000000	64.573073 
6742.000000	64.382266 
6741.000000	64.190483 
6740.000000	64.021587 
6739.000000	63.891959 
6738.000000	63.807487 
6737.000000	63.767170 
6736.000000	63.763713 
6735.000000	63.784241 
6734.000000	63.812541 
6733.000000	63.831853 
6732.000000	63.827085 
6731.000000	63.785934 
6730.000000	63.701820 
6729.000000	63.572168 
6728.000000	63.402032 
6727.000000	63.204073 
6726.000000	62.996816 
6725.000000	62.801194 
6724.000000	62.637042 
6723.000000	62.519884 
6722.000000	62.457489 
6721.000000	62.448239 
6720.000000	62.482166 
6719.000000	62.543511 
6718.000000	62.614440 
6717.000000	62.678694 
6716.000000	62.723875 
6715.000000	62.742424 
6714.000000	62.733101 
6713.000000	62.699794 
6712.000000	62.652707 
6711.000000	62.606167 
6710.000000	62.578010 
6709.000000	62.586688 
6708.000000	62.648892 
6707.000000	62.775850 
6706.000000	62.969899 
6705.000000	63.222813 
6704.000000	63.518214 
6703.000000	63.832187 
6702.000000	64.136314 
6701.000000	64.402461 
6700.000000	64.607644 
6699.000000	64.737176 
6698.000000	64.787912 
6697.000000	64.766860 
6696.000000	64.688324 
6695.000000	64.572286 
6694.000000	64.441776 
6693.000000	64.319086 
6692.000000	64.223647 
6691.000000	64.170050 
6690.000000	64.169096 
6689.000000	64.223814 
6688.000000	64.330005 
6687.000000	64.476370 
6686.000000	64.646315 
6685.000000	64.817070 
6684.000000	64.961910 
6683.000000	65.054321 
6682.000000	65.070390 
6681.000000	64.990615 
6680.000000	64.803123 
6679.000000	64.505147 
6678.000000	64.106369 
6677.000000	63.629174 
6676.000000	63.109612 
6675.000000	62.591552 
6674.000000	62.124490 
6673.000000	61.757588 
6672.000000	61.531233 
6671.000000	61.468625 
6670.000000	61.571788 
6669.000000	61.819577 
6668.000000	62.171745 
6667.000000	62.570643 
6666.000000	62.959623 
6665.000000	63.289070 
6664.000000	63.532614 
6663.000000	63.685631 
6662.000000	63.771963 
6661.000000	63.833069 
6660.000000	63.919472 
6659.000000	64.074754 
6658.000000	64.325571 
6657.000000	64.672589 
6656.000000	65.090107 
6655.000000	65.529966 
6654.000000	65.932512 
6653.000000	66.238570 
6652.000000	66.403841 
6651.000000	66.407179 
6650.000000	66.253757 
6649.000000	65.973353 
6648.000000	65.614414 
6647.000000	65.232062 
6646.000000	64.877653 
6645.000000	64.588093 
6644.000000	64.386677 
6643.000000	64.275503 
6642.000000	64.241456 
6641.000000	64.259052 
6640.000000	64.300894 
6639.000000	64.340996 
6638.000000	64.359545 
6637.000000	64.344668 
6636.000000	64.290428 
6635.000000	64.197826 
6634.000000	64.071655 
6633.000000	63.918709 
6632.000000	63.745689 
6631.000000	63.561034 
6630.000000	63.374948 
6629.000000	63.199639 
6628.000000	63.049054 
6627.000000	62.937593 
6626.000000	62.878298 
6625.000000	62.878084 
6624.000000	62.937355 
6623.000000	63.049507 
6622.000000	63.202738 
6621.000000	63.378024 
6620.000000	63.556480 
6619.000000	63.722753 
6618.000000	63.868165 
6617.000000	63.990855 
6616.000000	64.094614 
6615.000000	64.184761 
6614.000000	64.266228 
6613.000000	64.341735 
6612.000000	64.409971 
6611.000000	64.465594 
6610.000000	64.503693 
6609.000000	64.523339 
6608.000000	64.528679 
6607.000000	64.529561 
6606.000000	64.540696 
6605.000000	64.578700 
6604.000000	64.656877 
6603.000000	64.780402 
6602.000000	64.945125 
6601.000000	65.135812 
6600.000000	65.326499 
6599.000000	65.484476 
6598.000000	65.579104 
6597.000000	65.586638 
6596.000000	65.495634 
6595.000000	65.309095 
6594.000000	65.044856 
6593.000000	64.731550 
6592.000000	64.402818 
6591.000000	64.091467 
6590.000000	63.822913 
6589.000000	63.614273 
6588.000000	63.473224 
6587.000000	63.400888 
6586.000000	63.392162 
6585.000000	63.442492 
6584.000000	63.548874 
6583.000000	63.709831 
6582.000000	63.921046 
6581.000000	64.175438 
6580.000000	64.459848 
6579.000000	64.755702 
6578.000000	65.039157 
6577.000000	65.290594 
6576.000000	65.497612 
6575.000000	65.659475 
6574.000000	65.785455 
6573.000000	65.892267 
6572.000000	65.996932 
6571.000000	66.111040 
6570.000000	66.235327 
6569.000000	66.360521 
6568.000000	66.468214 
6567.000000	66.539216 
6566.000000	66.557097 
6565.000000	66.516900 
6564.000000	66.423916 
6563.000000	66.296124 
6562.000000	66.155910 
6561.000000	66.024947 
6560.000000	65.917468 
6559.000000	65.838336 
6558.000000	65.780997 
6557.000000	65.732216 
6556.000000	65.675091 
6555.000000	65.596747 
6554.000000	65.488171 
6553.000000	65.347075 
6552.000000	65.176892 
6551.000000	64.985322 
6550.000000	64.783358 
6549.000000	64.582920 
6548.000000	64.396357 
6547.000000	64.234495 
6546.000000	64.105987 
6545.000000	64.016127 
6544.000000	63.964080 
6543.000000	63.944506 
6542.000000	63.948822 
6541.000000	63.967776 
6540.000000	63.991379 
6539.000000	64.012098 
6538.000000	64.025974 
6537.000000	64.032125 
6536.000000	64.031434 
6535.000000	64.024567 
6534.000000	64.009928 
6533.000000	63.984465 
6532.000000	63.942313 
6531.000000	63.880705 
6530.000000	63.800168 
6529.000000	63.710379 
6528.000000	63.628792 
6527.000000	63.580632 
6526.000000	63.592815 
6525.000000	63.688826 
6524.000000	63.881516 
6523.000000	64.168047 
6522.000000	64.527630 
6521.000000	64.925265 
6520.000000	65.316915 
6519.000000	65.656208 
6518.000000	65.902805 
6517.000000	66.030955 
6516.000000	66.033029 
6515.000000	65.919280 
6514.000000	65.714621 
6513.000000	65.454268 
6512.000000	65.175509 
6511.000000	64.913153 
6510.000000	64.692330 
6509.000000	64.530634 
6508.000000	64.432454 
6507.000000	64.394402 
6506.000000	64.403653 
6505.000000	64.443302 
6504.000000	64.494180 
6503.000000	64.537644 
6502.000000	64.559459 
6501.000000	64.549636 
6500.000000	64.507579 
6499.000000	64.439916 
6498.000000	64.362621 
6497.000000	64.296436 
6496.000000	64.265108 
6495.000000	64.288759 
6494.000000	64.379143 
6493.000000	64.534878 
6492.000000	64.740753 
6491.000000	64.969563 
6490.000000	65.184783 
6489.000000	65.349817 
6488.000000	65.437245 
6487.000000	65.435814 
6486.000000	65.352153 
6485.000000	65.210080 
6484.000000	65.045261 
6483.000000	64.895415 
6482.000000	64.792776 
6481.000000	64.754557 
6480.000000	64.780735 
6479.000000	64.854621 
6478.000000	64.950275 
6477.000000	65.039539 
6476.000000	65.099787 
6475.000000	65.121316 
6474.000000	65.109133 
6473.000000	65.080595 
6472.000000	65.058469 
6471.000000	65.063428 
6470.000000	65.106463 
6469.000000	65.183687 
6468.000000	65.276217 
6467.000000	65.354228 
6466.000000	65.384984 
6465.000000	65.342092 
6464.000000	65.213513 
6463.000000	65.005397 
6462.000000	64.742207 
6461.000000	64.461040 
6460.000000	64.203596 
6459.000000	64.005494 
6458.000000	63.889026 
6457.000000	63.859510 
6456.000000	63.904500 
6455.000000	63.997769 
6454.000000	64.107775 
6453.000000	64.204525 
6452.000000	64.269399 
6451.000000	64.295387 
6450.000000	64.292526 
6449.000000	64.281129 
6448.000000	64.288139 
6447.000000	64.337253 
6446.000000	64.442706 
6445.000000	64.604520 
6444.000000	64.807081 
6443.000000	65.022659 
6442.000000	65.217232 
6441.000000	65.358972 
6440.000000	65.425729 
6439.000000	65.410351 
6438.000000	65.320205 
6437.000000	65.175390 
6436.000000	65.004253 
6435.000000	64.836359 
6434.000000	64.697551 
6433.000000	64.603495 
6432.000000	64.560413 
6431.000000	64.561891 
6430.000000	64.592576 
6429.000000	64.631009 
6428.000000	64.656281 
6427.000000	64.651846 
6426.000000	64.607763 
6425.000000	64.523673 
6424.000000	64.406824 
6423.000000	64.271283 
6422.000000	64.133548 
6421.000000	64.009284 
6420.000000	63.909435 
6419.000000	63.840341 
6418.000000	63.803386 
6417.000000	63.796997 
6416.000000	63.818001 
6415.000000	63.864922 
6414.000000	63.938260 
6413.000000	64.039349 
6412.000000	64.168334 
6411.000000	64.322233 
6410.000000	64.493894 
6409.000000	64.669585 
6408.000000	64.832401 
6407.000000	64.966821 
6406.000000	65.061712 
6405.000000	65.114974 
6404.000000	65.132260 
6403.000000	65.125346 
6402.000000	65.107798 
6401.000000	65.093278 
6400.000000	65.089416 
6399.000000	65.096306 
6398.000000	65.107107 
6397.000000	65.112566 
6396.000000	65.103006 
6395.000000	65.073227 
6394.000000	65.023565 
6393.000000	64.960932 
6392.000000	64.895749 
6391.000000	64.838981 
6390.000000	64.798283 
6389.000000	64.775323 
6388.000000	64.765334 
6387.000000	64.757871 
6386.000000	64.740252 
6385.000000	64.700579 
6384.000000	64.630460 
6383.000000	64.527535 
6382.000000	64.394044 
6381.000000	64.238834 
6380.000000	64.074730 
6379.000000	63.919401 
6378.000000	63.789844 
6377.000000	63.703560 
6376.000000	63.676190 
6375.000000	63.719558 
6374.000000	63.837957 
6373.000000	64.027404 
6372.000000	64.276146 
6371.000000	64.563274 
6370.000000	64.860773 
6369.000000	65.137052 
6368.000000	65.361332 
6367.000000	65.509128 
6366.000000	65.566444 
6365.000000	65.532565 
6364.000000	65.420269 
6363.000000	65.253448 
6362.000000	65.062522 
6361.000000	64.877963 
6360.000000	64.724421 
6359.000000	64.617252 
6358.000000	64.560413 
6357.000000	64.547252 
6356.000000	64.563250 
6355.000000	64.591932 
6354.000000	64.618182 
6353.000000	64.630198 
6352.000000	64.621067 
6351.000000	64.588546 
6350.000000	64.533162 
6349.000000	64.455151 
6348.000000	64.354205 
6347.000000	64.229464 
6346.000000	64.080977 
6345.000000	63.910460 
6344.000000	63.724040 
6343.000000	63.533282 
6342.000000	63.353657 
6341.000000	63.202476 
6340.000000	63.094377 
6339.000000	63.037538 
6338.000000	63.031911 
6337.000000	63.069081 
6336.000000	63.132762 
6335.000000	63.202357 
6334.000000	63.258576 
6333.000000	63.288617 
6332.000000	63.289070 
6331.000000	63.267612 
6330.000000	63.241338 
6329.000000	63.232707 
6328.000000	63.264250 
6327.000000	63.351917 
6326.000000	63.500332 
6325.000000	63.700866 
6324.000000	63.933062 
6323.000000	64.169836 
6322.000000	64.383935 
6321.000000	64.554905 
6320.000000	64.673924 
6319.000000	64.745068 
6318.000000	64.782595 
6317.000000	64.805984 
6316.000000	64.835309 
6315.000000	64.882612 
6314.000000	64.949107 
6313.000000	65.024518 
6312.000000	65.092587 
6311.000000	65.133953 
6310.000000	65.133643 
6309.000000	65.085601 
6308.000000	64.995670 
6307.000000	64.879059 
6306.000000	64.756584 
6305.000000	64.648103 
6304.000000	64.567184 
6303.000000	64.518737 
6302.000000	64.497971 
6301.000000	64.492392 
6300.000000	64.485931 
6299.000000	64.464306 
6298.000000	64.419746 
6297.000000	64.351320 
6296.000000	64.267706 
6295.000000	64.183282 
6294.000000	64.116406 
6293.000000	64.082312 
6292.000000	64.091968 
6291.000000	64.149570 
6290.000000	64.251732 
6289.000000	64.387464 
6288.000000	64.542150 
6287.000000	64.701509 
6286.000000	64.852428 
6285.000000	64.985299 
6284.000000	65.092945 
6283.000000	65.170383 
6282.000000	65.213942 
6281.000000	65.220761 
6280.000000	65.188455 
6279.000000	65.115761 
6278.000000	65.004563 
6277.000000	64.860606 
6276.000000	64.693498 
6275.000000	64.515995 
6274.000000	64.343571 
6273.000000	64.191651 
6272.000000	64.072799 
6271.000000	63.994860 
6270.000000	63.960099 
6269.000000	63.964653 
6268.000000	63.999962 
6267.000000	64.053416 
6266.000000	64.110493 
6265.000000	64.156794 
6264.000000	64.179086 
6263.000000	64.168381 
6262.000000	64.118933 
6261.000000	64.032602 
6260.000000	63.917374 
6259.000000	63.788461 
6258.000000	63.665199 
6257.000000	63.567900 
6256.000000	63.514018 
6255.000000	63.514184 
6254.000000	63.570022 
6253.000000	63.675141 
6252.000000	63.816881 
6251.000000	63.978147 
6250.000000	64.141011 
6249.000000	64.289355 
6248.000000	64.411592 
6247.000000	64.501023 
6246.000000	64.556622 
6245.000000	64.581894 
6244.000000	64.582991 
6243.000000	64.568734 
6242.000000	64.546203 
6241.000000	64.520716 
6240.000000	64.492797 
6239.000000	64.461112 
6238.000000	64.421439 
6237.000000	64.368367 
6236.000000	64.299082 
6235.000000	64.214944 
6234.000000	64.123916 
6233.000000	64.039421 
6232.000000	63.978075 
6231.000000	63.956308 
6230.000000	63.983154 
6229.000000	64.056849 
6228.000000	64.162588 
6227.000000	64.274930 
6226.000000	64.364123 
6225.000000	64.403676 
6224.000000	64.377307 
6223.000000	64.283490 
6222.000000	64.136338 
6221.000000	63.962054 
6220.000000	63.790941 
6219.000000	63.650369 
6218.000000	63.558506 
6217.000000	63.521099 
6216.000000	63.530492 
6215.000000	63.570594 
6214.000000	63.622212 
6213.000000	63.670825 
6212.000000	63.708615 
6211.000000	63.739323 
6210.000000	63.773798 
6209.000000	63.828945 
6208.000000	63.919663 
6207.000000	64.055418 
6206.000000	64.235496 
6205.000000	64.448094 
6204.000000	64.673709 
6203.000000	64.885568 
6202.000000	65.056252 
6201.000000	65.161228 
6200.000000	65.184617 
6199.000000	65.120792 
6198.000000	64.975881 
6197.000000	64.767098 
6196.000000	64.519500 
6195.000000	64.261341 
6194.000000	64.018964 
6193.000000	63.814520 
6192.000000	63.661980 
6191.000000	63.566064 
6190.000000	63.522744 
6189.000000	63.521575 
6188.000000	63.549423 
6187.000000	63.590860 
6186.000000	63.634967 
6185.000000	63.673448 
6184.000000	63.705968 
6183.000000	63.736724 
6182.000000	63.774943 
6181.000000	63.829684 
6180.000000	63.907456 
6179.000000	64.009642 
6178.000000	64.129662 
6177.000000	64.253759 
6176.000000	64.363813 
6175.000000	64.442348 
6174.000000	64.476752 
6173.000000	64.463233 
6172.000000	64.409542 
6171.000000	64.334058 
6170.000000	64.262652 
6169.000000	64.222836 
6168.000000	64.238500 
6167.000000	64.323449 
6166.000000	64.478683 
6165.000000	64.690661 
6164.000000	64.934062 
6163.000000	65.176773 
6162.000000	65.387439 
6161.000000	65.541696 
6160.000000	65.626192 
6159.000000	65.641260 
6158.000000	65.600037 
6157.000000	65.523290 
6156.000000	65.435123 
6155.000000	65.354681 
6154.000000	65.293669 
6153.000000	65.252137 
6152.000000	65.221691 
6151.000000	65.188193 
6150.000000	65.137720 
6149.000000	65.063428 
6148.000000	64.969468 
6147.000000	64.870381 
6146.000000	64.787101 
6145.000000	64.741754 
6144.000000	64.750432 
6143.000000	64.816570 
6142.000000	64.928650 
6141.000000	65.062522 
6140.000000	65.186953 
6139.000000	65.272140 
6138.000000	65.297365 
6137.000000	65.255832 
6136.000000	65.156531 
6135.000000	65.021443 
6134.000000	64.879012 
6133.000000	64.756417 
6132.000000	64.672422 
6131.000000	64.633464 
6130.000000	64.632821 
6129.000000	64.656114 
6128.000000	64.683556 
6127.000000	64.698529 
6126.000000	64.688420 
6125.000000	64.648222 
6124.000000	64.578485 
6123.000000	64.483332 
6122.000000	64.368247 
6121.000000	64.237356 
6120.000000	64.094305 
6119.000000	63.942599 
6118.000000	63.787961 
6117.000000	63.639831 
6116.000000	63.511204 
6115.000000	63.417410 
6114.000000	63.373923 
6113.000000	63.393306 
6112.000000	63.480377 
6111.000000	63.631677 
6110.000000	63.834810 
6109.000000	64.071130 
6108.000000	64.317631 
6107.000000	64.551687 
6106.000000	64.754843 
6105.000000	64.914798 
6104.000000	65.026021 
6103.000000	65.088748 
6102.000000	65.107154 
6101.000000	65.087556 
6100.000000	65.038728 
6099.000000	64.968585 
6098.000000	64.884567 
6097.000000	64.792990 
6096.000000	64.701628 
6095.000000	64.616465 
6094.000000	64.542698 
6093.000000	64.482617 
6092.000000	64.436173 
6091.000000	64.398908 
6090.000000	64.362931 
6089.000000	64.319348 
6088.000000	64.260625 
6087.000000	64.181876 
6086.000000	64.082670 
6085.000000	63.968276 
6084.000000	63.848233 
6083.000000	63.732933 
6082.000000	63.631653 
6081.000000	63.549256 
6080.000000	63.486862 
6079.000000	63.441443 
6078.000000	63.409471 
6077.000000	63.385581 
6076.000000	63.368749 
6075.000000	63.362789 
6074.000000	63.376212 
6073.000000	63.417506 
6072.000000	63.494014 
6071.000000	63.607454 
6070.000000	63.753151 
6069.000000	63.919162 
6068.000000	64.089155 
6067.000000	64.245295 
6066.000000	64.373874 
6065.000000	64.468526 
6064.000000	64.531683 
6063.000000	64.573502 
6062.000000	64.609289 
6061.000000	64.655232 
6060.000000	64.725399 
6059.000000	64.826941 
6058.000000	64.960026 
6057.000000	65.115308 
6056.000000	65.277838 
6055.000000	65.426778 
6054.000000	65.541887 
6053.000000	65.604019 
6052.000000	65.599536 
6051.000000	65.522003 
6050.000000	65.373587 
6049.000000	65.166306 
6048.000000	64.919614 
6047.000000	64.660167 
6046.000000	64.417767 
6045.000000	64.222002 
6044.000000	64.097881 
6043.000000	64.061379 
6042.000000	64.117288 
6041.000000	64.256858 
6040.000000	64.459323 
6039.000000	64.694309 
6038.000000	64.927053 
6037.000000	65.123176 
6036.000000	65.254330 
6035.000000	65.301871 
6034.000000	65.259456 
6033.000000	65.133810 
6032.000000	64.942455 
6031.000000	64.709997 
6030.000000	64.462947 
6029.000000	64.226579 
6028.000000	64.020180 
6027.000000	63.856315 
6026.000000	63.739228 
6025.000000	63.667416 
6024.000000	63.634824 
6023.000000	63.632440 
6022.000000	63.651990 
6021.000000	63.685607 
6020.000000	63.729262 
6019.000000	63.778734 
6018.000000	63.833999 
6017.000000	63.894867 
6016.000000	63.964414 
6015.000000	64.045786 
6014.000000	64.143657 
6013.000000	64.261531 
6012.000000	64.402008 
6011.000000	64.564967 
6010.000000	64.745569 
6009.000000	64.933848 
6008.000000	65.114521 
6007.000000	65.269136 
6006.000000	65.380358 
6005.000000	65.435004 
6004.000000	65.427374 
6003.000000	65.360260 
6002.000000	65.245270 
6001.000000	65.099906 
6000.000000	64.946079 
5999.000000	64.804172 
5998.000000	64.690136 
5997.000000	64.611792 
5996.000000	64.570665 
5995.000000	64.560389 
5994.000000	64.569377 
5993.000000	64.584326 
5992.000000	64.592289 
5991.000000	64.586019 
5990.000000	64.564251 
5989.000000	64.533162 
5988.000000	64.503002 
5987.000000	64.486050 
5986.000000	64.492321 
5985.000000	64.526009 
5984.000000	64.583683 
5983.000000	64.654541 
5982.000000	64.722895 
5981.000000	64.770960 
5980.000000	64.783716 
5979.000000	64.752960 
5978.000000	64.680409 
5977.000000	64.577007 
5976.000000	64.461398 
5975.000000	64.356017 
5974.000000	64.281511 
5973.000000	64.252448 
5972.000000	64.273023 
5971.000000	64.337158 
5970.000000	64.428353 
5969.000000	64.524674 
5968.000000	64.602923 
5967.000000	64.642977 
5966.000000	64.634013 
5965.000000	64.575481 
5964.000000	64.479207 
5963.000000	64.365172 
5962.000000	64.258003 
5961.000000	64.180755 
5960.000000	64.148545 
5959.000000	64.165282 
5958.000000	64.221835 
5957.000000	64.299178 
5956.000000	64.373397 
5955.000000	64.422559 
5954.000000	64.433026 
5953.000000	64.403438 
5952.000000	64.344573 
5951.000000	64.276504 
5950.000000	64.222598 
5949.000000	64.202380 
5948.000000	64.225959 
5947.000000	64.290332 
5946.000000	64.380574 
5945.000000	64.473366 
5944.000000	64.544034 
5943.000000	64.573073 
5942.000000	64.551782 
5941.000000	64.484453 
5940.000000	64.386129 
5939.000000	64.279532 
5938.000000	64.187717 
5937.000000	64.129257 
5936.000000	64.113545 
5935.000000	64.139056 
5934.000000	64.195299 
5933.000000	64.264941 
5932.000000	64.329695 
5931.000000	64.374327 
5930.000000	64.390611 
5929.000000	64.379477 
5928.000000	64.350175 
5927.000000	64.317941 
5926.000000	64.299345 
5925.000000	64.308500 
5924.000000	64.352607 
5923.000000	64.430594 
5922.000000	64.532399 
5921.000000	64.642286 
5920.000000	64.741492 
5919.000000	64.812827 
5918.000000	64.844322 
5917.000000	64.831423 
5916.000000	64.778566 
5915.000000	64.697146 
5914.000000	64.604234 
5913.000000	64.518713 
5912.000000	64.457583 
5911.000000	64.433264 
5910.000000	64.450287 
5909.000000	64.505767 
5908.000000	64.588737 
5907.000000	64.683723 
5906.000000	64.772462 
5905.000000	64.837813 
5904.000000	64.867043 
5903.000000	64.854049 
5902.000000	64.801335 
5901.000000	64.719152 
5900.000000	64.623308 
5899.000000	64.531159 
5898.000000	64.457917 
5897.000000	64.412546 
5896.000000	64.396476 
5895.000000	64.403223 
5894.000000	64.420819 
5893.000000	64.435362 
5892.000000	64.434862 
5891.000000	64.413332 
5890.000000	64.371132 
5889.000000	64.316010 
5888.000000	64.259362 
5887.000000	64.214515 
5886.000000	64.192533 
5885.000000	64.199638 
5884.000000	64.235687 
5883.000000	64.293360 
5882.000000	64.360809 
5881.000000	64.423251 
5880.000000	64.467072 
5879.000000	64.482021 
5878.000000	64.463448 
5877.000000	64.413213 
5876.000000	64.338755 
5875.000000	64.252567 
5874.000000	64.169311 
5873.000000	64.103412 
5872.000000	64.065980 
5871.000000	64.063096 
5870.000000	64.094662 
5869.000000	64.154624 
5868.000000	64.232897 
5867.000000	64.317750 
5866.000000	64.398717 
5865.000000	64.468526 
5864.000000	64.524459 
5863.000000	64.567112 
5862.000000	64.599967 
5861.000000	64.627504 
5860.000000	64.653086 
5859.000000	64.677715 
5858.000000	64.699029 
5857.000000	64.713907 
5856.000000	64.717078 
5855.000000	64.703750 
5854.000000	64.670538 
5853.000000	64.617276 
5852.000000	64.547395 
5851.000000	64.468097 
5850.000000	64.388656 
5849.000000	64.318752 
5848.000000	64.266848 
5847.000000	64.238357 
5846.000000	64.234113 
5845.000000	64.250016 
5844.000000	64.277195 
5843.000000	64.304113 
5842.000000	64.318752 
5841.000000	64.312291 
5840.000000	64.280343 
5839.000000	64.226365 
5838.000000	64.159846 
5837.000000	64.096593 
5836.000000	64.054107 
5835.000000	64.049172 
5834.000000	64.092779 
5833.000000	64.188194 
5832.000000	64.331269 
5831.000000	64.508652 
5830.000000	64.701151 
5829.000000	64.885306 
5828.000000	65.038347 
5827.000000	65.140795 
5826.000000	65.179800 
5825.000000	65.151500 
5824.000000	65.061283 
5823.000000	64.923381 
5822.000000	64.757990 
5821.000000	64.587807 
5820.000000	64.433956 
5819.000000	64.313030 
5818.000000	64.234948 
5817.000000	64.201927 
5816.000000	64.210009 
5815.000000	64.250755 
5814.000000	64.314413 
5813.000000	64.392089 
5812.000000	64.477181 
5811.000000	64.565110 
5810.000000	64.652180 
5809.000000	64.733743 
5808.000000	64.802908 
5807.000000	64.850568 
5806.000000	64.866638 
5805.000000	64.842391 
5804.000000	64.773058 
5803.000000	64.661288 
5802.000000	64.516520 
5801.000000	64.354634 
5800.000000	64.194393 
5799.000000	64.054226 
5798.000000	63.948178 
5797.000000	63.883852 
5796.000000	63.860607 
5795.000000	63.870739 
5794.000000	63.901615 
5793.000000	63.939261 
5792.000000	63.971447 
5791.000000	63.990688 
5790.000000	63.993740 
5789.000000	63.982272 
5788.000000	63.961148 
5787.000000	63.937568 
5786.000000	63.918256 
5785.000000	63.909101 
5784.000000	63.914012 
5783.000000	63.934826 
5782.000000	63.971805 
5781.000000	64.023756 
5780.000000	64.088153 
5779.000000	64.162039 
5778.000000	64.241909 
5777.000000	64.324331 
5776.000000	64.405846 
5775.000000	64.483261 
5774.000000	64.553380 
5773.000000	64.613485 
5772.000000	64.661574 
5771.000000	64.696884 
5770.000000	64.719891 
5769.000000	64.733266 
5768.000000	64.741587 
5767.000000	64.750814 
5766.000000	64.766907 
5765.000000	64.795446 
5764.000000	64.839696 
5763.000000	64.899230 
5762.000000	64.969062 
5761.000000	65.040087 
5760.000000	65.100812 
5759.000000	65.140342 
5758.000000	65.151262 
5757.000000	65.130639 
5756.000000	65.082502 
5755.000000	65.017485 
5754.000000	64.951181 
5753.000000	64.899969 
5752.000000	64.877939 
5751.000000	64.894604 
5750.000000	64.951324 
5749.000000	65.041542 
5748.000000	65.151214 
5747.000000	65.262651 
5746.000000	65.357518 
5745.000000	65.420532 
5744.000000	65.443110 
5743.000000	65.424489 
5742.000000	65.372037 
5741.000000	65.298819 
5740.000000	65.221786 
5739.000000	65.157413 
5738.000000	65.118670 
5737.000000	65.111327 
5736.000000	65.133190 
5735.000000	65.173578 
5734.000000	65.216350 
5733.000000	65.242481 
5732.000000	65.234637 
5731.000000	65.180325 
5730.000000	65.074992 
5729.000000	64.922690 
5728.000000	64.734053 
5727.000000	64.525079 
5726.000000	64.313173 
5725.000000	64.115333 
5724.000000	63.944983 
5723.000000	63.811659 
5722.000000	63.720202 
5721.000000	63.671946 
5720.000000	63.665413 
5719.000000	63.696908 
5718.000000	63.760161 
5717.000000	63.847064 
5716.000000	63.947343 
5715.000000	64.049124 
5714.000000	64.139270 
5713.000000	64.205980 
5712.000000	64.240264 
5711.000000	64.238476 
5710.000000	64.203214 
5709.000000	64.142465 
5708.000000	64.068889 
5707.000000	63.997507 
5706.000000	63.943719 
5705.000000	63.920640 
5704.000000	63.937282 
5703.000000	63.997745 
5702.000000	64.100146 
5701.000000	64.238262 
5700.000000	64.400959 
5699.000000	64.574122 
5698.000000	64.741444 
5697.000000	64.887022 
5696.000000	64.996409 
5695.000000	65.059018 
5694.000000	65.069127 
5693.000000	65.026283 
5692.000000	64.936971 
5691.000000	64.814281 
5690.000000	64.676284 
5689.000000	64.543390 
5688.000000	64.436125 
5687.000000	64.371895 
5686.000000	64.361882 
5685.000000	64.409184 
5684.000000	64.508152 
5683.000000	64.645409 
5682.000000	64.802074 
5681.000000	64.957118 
5680.000000	65.090775 
5679.000000	65.187168 
5678.000000	65.236830 
5677.000000	65.236401 
5676.000000	65.188837 
5675.000000	65.100145 
5674.000000	64.978313 
5673.000000	64.830636 
5672.000000	64.664173 
5671.000000	64.485263 
5670.000000	64.301252 
5669.000000	64.120984 
5668.000000	63.955068 
5667.000000	63.815784 
5666.000000	63.715600 
5665.000000	63.665008 
5664.000000	63.668870 
5663.000000	63.726449 
5662.000000	63.830089 
5661.000000	63.967442 
5660.000000	64.122819 
5659.000000	64.280962 
5658.000000	64.428877 
5657.000000	64.558196 
5656.000000	64.665126 
5655.000000	64.749002 
5654.000000	64.810681 
5653.000000	64.850807 
5652.000000	64.868903 
5651.000000	64.864873 
5650.000000	64.838695 
5649.000000	64.792895 
5648.000000	64.731526 
5647.000000	64.662408 
5646.000000	64.594006 
5645.000000	64.535164 
5644.000000	64.492177 
5643.000000	64.467430 
5642.000000	64.459609 
5641.000000	64.464592 
5640.000000	64.477229 
5639.000000	64.492034 
5638.000000	64.506554 
5637.000000	64.522075 
5636.000000	64.542603 
5635.000000	64.572668 
5634.000000	64.616513 
5633.000000	64.675664 
5632.000000	64.747977 
5631.000000	64.826989 
5630.000000	64.903044 
5629.000000	64.964723 
5628.000000	65.001654 
5627.000000	65.005946 
5626.000000	64.972805 
5625.000000	64.901876 
5624.000000	64.798426 
5623.000000	64.672183 
5622.000000	64.535737 
5621.000000	64.402842 
5620.000000	64.286613 
5619.000000	64.197802 
5618.000000	64.143395 
5617.000000	64.126491 
5616.000000	64.145445 
5615.000000	64.196014 
5614.000000	64.271163 
5613.000000	64.364552 
5612.000000	64.469933 
5611.000000	64.583635 
5610.000000	64.702987 
5609.000000	64.827442 
5608.000000	64.956426 
5607.000000	65.088391 
5606.000000	65.219330 
5605.000000	65.342378 
5604.000000	65.448212 
5603.000000	65.525460 
5602.000000	65.562534 
5601.000000	65.549683 
5600.000000	65.481257 
5599.000000	65.356945 
5598.000000	65.183115 
5597.000000	64.973378 
5596.000000	64.747333 
5595.000000	64.528083 
5594.000000	64.338850 
5593.000000	64.199256 
5592.000000	64.122056 
5591.000000	64.111542 
5590.000000	64.162755 
5589.000000	64.261960 
5588.000000	64.390110 
5587.000000	64.525866 
5586.000000	64.649748 
5585.000000	64.745879 
5584.000000	64.805269 
5583.000000	64.825463 
5582.000000	64.810276 
5581.000000	64.767360 
5580.000000	64.705991 
5579.000000	64.634633 
5578.000000	64.558815 
5577.000000	64.480566 
5576.000000	64.398407 
5575.000000	64.308667 
5574.000000	64.207100 
5573.000000	64.091658 
5572.000000	63.962888 
5571.000000	63.826179 
5570.000000	63.690733 
5569.000000	63.569498 
5568.000000	63.475465 
5567.000000	63.420534 
5566.000000	63.411736 
5565.000000	63.451075 
5564.000000	63.533568 
5563.000000	63.649797 
5562.000000	63.786387 
5561.000000	63.930273 
5560.000000	64.069652 
5559.000000	64.197182 
5558.000000	64.309406 
5557.000000	64.406871 
5556.000000	64.491963 
5555.000000	64.567732 
5554.000000	64.636278 
5553.000000	64.697360 
5552.000000	64.748430 
5551.000000	64.785814 
5550.000000	64.806079 
5549.000000	64.807724 
5548.000000	64.792108 
5547.000000	64.763188 
5546.000000	64.726686 
5545.000000	64.689898 
5544.000000	64.658713 
5543.000000	64.636254 
5542.000000	64.620923 
5541.000000	64.608573 
5540.000000	64.591884 
5539.000000	64.562082 
5538.000000	64.511466 
5537.000000	64.436101 
5536.000000	64.337229 
5535.000000	64.220714 
5534.000000	64.097380 
5533.000000	63.980603 
5532.000000	63.884067 
5531.000000	63.818955 
5530.000000	63.790965 
5529.000000	63.798904 
5528.000000	63.834762 
5527.000000	63.885664 
5526.000000	63.935756 
5525.000000	63.969540 
5524.000000	63.976049 
5523.000000	63.951396 
5522.000000	63.898968 
5521.000000	63.828754 
5520.000000	63.755321 
5519.000000	63.694500 
5518.000000	63.659596 
5517.000000	63.659095 
5516.000000	63.695025 
5515.000000	63.763713 
5514.000000	63.857364 
5513.000000	63.966655 
5512.000000	64.082813 
5511.000000	64.199447 
5510.000000	64.312744 
5509.000000	64.421033 
5508.000000	64.523220 
5507.000000	64.617538 
5506.000000	64.700555 
5505.000000	64.767241 
5504.000000	64.812517 
5503.000000	64.831948 
5502.000000	64.824509 
5501.000000	64.791440 
5500.000000	64.737343 
5499.000000	64.668226 
5498.000000	64.591002 
5497.000000	64.511466 
5496.000000	64.433670 
5495.000000	64.359998 
5494.000000	64.291930 
5493.000000	64.231085 
5492.000000	64.180135 
5491.000000	64.143443 
5490.000000	64.125990 
5489.000000	64.131569 
5488.000000	64.161252 
5487.000000	64.212489 
5486.000000	64.278221 
5485.000000	64.347743 
5484.000000	64.408087 
5483.000000	64.447259 
5482.000000	64.455676 
5481.000000	64.428949 
5480.000000	64.367532 
5479.000000	64.276647 
5478.000000	64.164829 
5477.000000	64.042806 
5476.000000	63.920736 
5475.000000	63.806605 
5474.000000	63.706159 
5473.000000	63.623237 
5472.000000	63.559341 
5471.000000	63.514518 
5470.000000	63.488626 
5469.000000	63.482165 
5468.000000	63.495612 
5467.000000	63.529729 
5466.000000	63.584947 
5465.000000	63.661527 
5464.000000	63.758778 
5463.000000	63.875102 
5462.000000	64.006876 
5461.000000	64.148640 
5460.000000	64.294171 
5459.000000	64.436411 
5458.000000	64.567947 
5457.000000	64.681386 
5456.000000	64.772248 
5455.000000	64.837050 
5454.000000	64.874672 
5453.000000	64.884448 
5452.000000	64.868092 
5451.000000	64.826750 
5450.000000	64.763116 
5449.000000	64.678359 
5448.000000	64.574027 
5447.000000	64.450454 
5446.000000	64.308643 
5445.000000	64.150333 
5444.000000	63.979744 
5443.000000	63.803482 
5442.000000	63.631033 
5441.000000	63.474369 
5440.000000	63.347005 
5439.000000	63.260936 
5438.000000	63.225674 
5437.000000	63.245248 
5436.000000	63.319134 
5435.000000	63.440918 
5434.000000	63.601636 
5433.000000	63.789057 
5432.000000	63.991737 
5431.000000	64.200305 
5430.000000	64.407277 
5429.000000	64.606809 
5428.000000	64.791631 
5427.000000	64.953446 
5426.000000	65.080046 
5425.000000	65.158438 
5424.000000	65.174841 
5423.000000	65.120053 
5422.000000	64.991354 
5421.000000	64.796495 
5420.000000	64.552879 
5419.000000	64.286708 
5418.000000	64.028811 
5417.000000	63.809895 
5416.000000	63.655805 
5415.000000	63.583278 
5414.000000	63.598561 
5413.000000	63.696980 
5412.000000	63.863492 
5411.000000	64.075684 
5410.000000	64.307808 
5409.000000	64.534568 
5408.000000	64.732527 
5407.000000	64.884400 
5406.000000	64.977931 
5405.000000	65.009808 
5404.000000	64.985013 
5403.000000	64.916253 
5402.000000	64.821481 
5401.000000	64.720344 
5400.000000	64.634060 
5399.000000	64.577388 
5398.000000	64.558339 
5397.000000	64.573860 
5396.000000	64.614057 
5395.000000	64.661335 
5394.000000	64.695358 
5393.000000	64.697861 
5392.000000	64.657044 
5391.000000	64.571738 
5390.000000	64.451551 
5389.000000	64.316678 
5388.000000	64.193224 
5387.000000	64.109587 
5386.000000	64.089560 
5385.000000	64.146423 
5384.000000	64.278817 
5383.000000	64.471960 
5382.000000	64.698529 
5381.000000	64.924740 
5380.000000	65.115380 
5379.000000	65.240621 
5378.000000	65.280604 
5377.000000	65.229654 
5376.000000	65.094614 
5375.000000	64.892911 
5374.000000	64.646983 
5373.000000	64.380288 
5372.000000	64.112520 
5371.000000	63.859391 
5370.000000	63.630223 
5369.000000	63.429737 
5368.000000	63.260412 
5367.000000	63.125610 
5366.000000	63.029789 
5365.000000	62.977957 
5364.000000	62.974929 
5363.000000	63.021898 
5362.000000	63.117885 
5361.000000	63.257765 
5360.000000	63.432431 
5359.000000	63.628816 
5358.000000	63.831114 
5357.000000	64.022064 
5356.000000	64.185857 
5355.000000	64.309239 
5354.000000	64.382076 
5353.000000	64.399075 
5352.000000	64.360094 
5351.000000	64.271783 
5350.000000	64.146637 
5349.000000	64.003157 
5348.000000	63.862490 
5347.000000	63.747835 
5346.000000	63.681268 
5345.000000	63.680601 
5344.000000	63.757586 
5343.000000	63.913059 
5342.000000	64.136910 
5341.000000	64.406991 
5340.000000	64.693593 
5339.000000	64.960408 
5338.000000	65.170741 
5337.000000	65.293431 
5336.000000	65.308260 
5335.000000	65.214252 
5334.000000	65.030884 
5333.000000	64.795207 
5332.000000	64.554381 
5331.000000	64.358949 
5330.000000	64.250516 
5329.000000	64.252924 
5328.000000	64.365696 
5327.000000	64.566731 
5326.000000	64.815688 
5325.000000	65.062665 
5324.000000	65.260195 
5323.000000	65.372586 
5322.000000	65.385222 
5321.000000	65.303325 
5320.000000	65.153193 
5319.000000	64.972567 
5318.000000	64.803624 
5317.000000	64.683508 
5316.000000	64.634275 
5315.000000	64.662790 
5314.000000	64.753341 
5313.000000	64.877223 
5312.000000	64.990448 
5311.000000	65.046501 
5310.000000	65.001893 
5309.000000	64.826941 
5308.000000	64.510941 
5307.000000	64.065337 
5306.000000	63.523459 
5305.000000	62.934589 
5304.000000	62.354636 
5303.000000	61.835670 
5302.000000	61.417365 
5301.000000	61.121058 
5300.000000	60.945415 
5299.000000	60.872769 
5298.000000	60.874199 
5297.000000	60.921239 
5296.000000	60.991382 
5295.000000	61.073350 
5294.000000	61.164331 
5293.000000	61.266708 
5292.000000	61.378693 
5291.000000	61.492633 
5290.000000	61.587929 
5289.000000	61.641526 
5288.000000	61.631298 
5287.000000	61.549520 
5286.000000	61.408352 
5285.000000	61.239385 
5284.000000	61.087441 
5283.000000	61.000919 
5282.000000	61.019444 
5281.000000	61.163878 
5280.000000	61.430311 
5279.000000	61.791324 
5278.000000	62.202739 
5277.000000	62.614417 
5276.000000	62.982034 
5275.000000	63.277506 
5274.000000	63.492774 
5273.000000	63.636636 
5272.000000	63.729166 
5271.000000	63.794827 
5270.000000	63.852596 
5269.000000	63.910841 
5268.000000	63.965415 
5267.000000	64.006519 
5266.000000	64.021062 
5265.000000	64.001679 
5264.000000	63.949918 
5263.000000	63.878655 
5262.000000	63.810706 
5261.000000	63.773941 
5260.000000	63.793230 
5259.000000	63.883757 
5258.000000	64.044141 
5257.000000	64.255571 
5256.000000	64.484429 
5255.000000	64.690089 
5254.000000	64.834618 
5253.000000	64.891910 
5252.000000	64.854216 
5251.000000	64.733171 
5250.000000	64.555144 
5249.000000	64.353752 
5248.000000	64.160799 
5247.000000	63.998866 
5246.000000	63.879680 
5245.000000	63.802146 
5244.000000	63.755416 
5243.000000	63.723969 
5242.000000	63.695263 
5241.000000	63.662600 
5240.000000	63.625383 
5239.000000	63.589906 
5238.000000	63.563609 
5237.000000	63.555288 
5236.000000	63.568234 
5235.000000	63.603258 
5234.000000	63.657355 
5233.000000	63.725876 
5232.000000	63.804292 
5231.000000	63.888239 
5230.000000	63.973879 
5229.000000	64.058065 
5228.000000	64.137697 
5227.000000	64.211821 
5226.000000	64.281058 
5225.000000	64.348053 
5224.000000	64.415359 
5223.000000	64.483833 
5222.000000	64.550614 
5221.000000	64.608073 
5220.000000	64.645314 
5219.000000	64.651012 
5218.000000	64.617419 
5217.000000	64.544653 
5216.000000	64.441680 
5215.000000	64.325332 
5214.000000	64.217114 
5213.000000	64.139032 
5212.000000	64.107871 
5211.000000	64.130783 
5210.000000	64.203953 
5209.000000	64.312958 
5208.000000	64.437794 
5207.000000	64.558553 
5206.000000	64.659428 
5205.000000	64.732623 
5204.000000	64.777231 
5203.000000	64.797449 
5202.000000	64.799308 
5201.000000	64.787030 
5200.000000	64.764189 
5199.000000	64.733266 
5198.000000	64.697051 
5197.000000	64.659023 
5196.000000	64.623498 
5195.000000	64.594888 
5194.000000	64.575982 
5193.000000	64.567518 
5192.000000	64.567756 
5191.000000	64.573192 
5190.000000	64.580154 
5189.000000	64.585161 
5188.000000	64.585900 
5187.000000	64.580988 
5186.000000	64.570403 
5185.000000	64.554500 
5184.000000	64.533019 
5183.000000	64.505434 
5182.000000	64.470648 
5181.000000	64.428114 
5180.000000	64.378833 
5179.000000	64.325141 
5178.000000	64.271259 
5177.000000	64.220762 
5176.000000	64.176130 
5175.000000	64.136648 
5174.000000	64.098310 
5173.000000	64.056420 
5172.000000	64.007306 
5171.000000	63.950514 
5170.000000	63.889980 
5169.000000	63.833379 
5168.000000	63.791322 
5167.000000	63.773846 
5166.000000	63.789319 
5165.000000	63.842153 
5164.000000	63.932156 
5163.000000	64.054918 
5162.000000	64.201521 
5161.000000	64.359807 
5160.000000	64.515447 
5159.000000	64.654254 
5158.000000	64.763593 
5157.000000	64.833903 
5156.000000	64.859843 
5155.000000	64.841604 
5154.000000	64.784383 
5153.000000	64.697575 
5152.000000	64.593315 
5151.000000	64.485502 
5150.000000	64.386558 
5149.000000	64.306020 
5148.000000	64.249110 
5147.000000	64.217066 
5146.000000	64.207124 
5145.000000	64.214158 
5144.000000	64.231991 
5143.000000	64.254856 
5142.000000	64.277768 
5141.000000	64.297556 
5140.000000	64.311981 
5139.000000	64.320874 
5138.000000	64.325499 
5137.000000	64.328956 
5136.000000	64.335322 
5135.000000	64.348602 
5134.000000	64.371991 
5133.000000	64.406442 
5132.000000	64.450049 
5131.000000	64.498972 
5130.000000	64.548707 
5129.000000	64.594578 
5128.000000	64.633178 
5127.000000	64.662551 
5126.000000	64.682936 
5125.000000	64.695692 
5124.000000	64.702987 
5123.000000	64.706540 
5122.000000	64.707183 
5121.000000	64.704799 
5120.000000	64.698815 
5119.000000	64.687919 
5118.000000	64.670825 
5117.000000	64.647126 
5116.000000	64.617848 
5115.000000	64.585208 
5114.000000	64.552521 
5113.000000	64.523649 
5112.000000	64.502358 
5111.000000	64.491963 
5110.000000	64.494371 
5109.000000	64.509630 
5108.000000	64.535236 
5107.000000	64.566469 
5106.000000	64.597058 
5105.000000	64.619803 
5104.000000	64.629387 
5103.000000	64.623093 
5102.000000	64.602756 
5101.000000	64.574027 
5100.000000	64.545559 
5099.000000	64.526677 
5098.000000	64.525127 
5097.000000	64.544892 
5096.000000	64.585256 
5095.000000	64.641094 
5094.000000	64.703989 
5093.000000	64.764523 
5092.000000	64.814138 
5091.000000	64.847135 
5090.000000	64.861345 
5089.000000	64.858365 
5088.000000	64.842724 
5087.000000	64.820384 
5086.000000	64.797329 
5085.000000	64.777779 
5084.000000	64.763855 
5083.000000	64.754891 
5082.000000	64.748835 
5081.000000	64.742422 
5080.000000	64.732861 
5079.000000	64.718651 
5078.000000	64.699649 
5077.000000	64.677834 
5076.000000	64.656352 
5075.000000	64.639496 
5074.000000	64.630699 
5073.000000	64.632892 
5072.000000	64.647603 
5071.000000	64.674663 
5070.000000	64.711833 
5069.000000	64.755344 
5068.000000	64.800739 
5067.000000	64.842724 
5066.000000	64.876174 
5065.000000	64.896440 
5064.000000	64.900112 
5063.000000	64.885497 
5062.000000	64.853000 
5061.000000	64.805316 
5060.000000	64.747214 
5059.000000	64.685368 
5058.000000	64.626884 
5057.000000	64.577794 
5056.000000	64.541697 
5055.000000	64.520192 
5054.000000	64.511990 
5053.000000	64.513587 
5052.000000	64.520001 
5051.000000	64.526820 
5050.000000	64.530253 
5049.000000	64.527702 
5048.000000	64.517474 
5047.000000	64.498710 
5046.000000	64.470720 
5045.000000	64.432907 
5044.000000	64.384341 
5043.000000	64.324212 
5042.000000	64.252448 
5041.000000	64.170455 
5040.000000	64.081525 
5039.000000	63.990807 
5038.000000	63.906002 
5037.000000	63.836407 
5036.000000	63.791441 
5035.000000	63.779330 
5034.000000	63.805937 
5033.000000	63.873887 
5032.000000	63.981389 
5031.000000	64.122891 
5030.000000	64.289164 
5029.000000	64.468836 
5028.000000	64.649701 
5027.000000	64.820480 
5026.000000	64.971303 
5025.000000	65.094685 
5024.000000	65.186762 
5023.000000	65.246057 
5022.000000	65.273642 
5021.000000	65.271615 
5020.000000	65.244245 
5019.000000	65.195465 
5018.000000	65.130352 
5017.000000	65.053248 
5016.000000	64.969396 
5015.000000	64.883041 
5014.000000	64.798474 
5013.000000	64.718985 
5012.000000	64.647531 
5011.000000	64.586019 
5010.000000	64.535665 
5009.000000	64.497232 
5008.000000	64.471364 
5007.000000	64.458274 
5006.000000	64.458179 
5005.000000	64.470839 
5004.000000	64.495944 
5003.000000	64.532852 
5002.000000	64.580750 
5001.000000	64.637422 
5000.000000	64.700055 
4999.000000	64.765214 
4998.000000	64.828848 
4997.000000	64.886045 
4996.000000	64.931797 
4995.000000	64.962983 
4994.000000	64.977312 
4993.000000	64.974093 
4992.000000	64.953660 
4991.000000	64.918136 
4990.000000	64.870333 
4989.000000	64.813828 
4988.000000	64.753055 
4987.000000	64.693403 
4986.000000	64.641070 
4985.000000	64.602279 
4984.000000	64.582443 
4983.000000	64.585018 
4982.000000	64.610719 
4981.000000	64.656710 
4980.000000	64.716935 
4979.000000	64.782810 
4978.000000	64.844751 
4977.000000	64.894008 
4976.000000	64.924097 
4975.000000	64.931726 
4974.000000	64.917492 
4973.000000	64.884829 
4972.000000	64.838981 
4971.000000	64.785313 
4970.000000	64.728641 
4969.000000	64.671850 
4968.000000	64.616942 
4967.000000	64.564108 
4966.000000	64.513564 
4965.000000	64.464569 
4964.000000	64.416623 
4963.000000	64.368915 
4962.000000	64.320468 
4961.000000	64.270377 
4960.000000	64.218020 
4959.000000	64.163374 
4958.000000	64.107346 
4957.000000	64.051485 
4956.000000	63.997912 
4955.000000	63.949155 
4954.000000	63.907933 
4953.000000	63.876271 
4952.000000	63.855552 
4951.000000	63.846397 
4950.000000	63.848805 
4949.000000	63.862204 
4948.000000	63.885450 
4947.000000	63.916802 
4946.000000	63.953900 
4945.000000	63.993883 
4944.000000	64.033699 
4943.000000	64.069795 
4942.000000	64.099144 
4941.000000	64.119529 
4940.000000	64.130353 
4939.000000	64.132976 
4938.000000	64.130067 
4937.000000	64.125132 
4936.000000	64.121532 
4935.000000	64.121961 
4934.000000	64.127635 
4933.000000	64.138221 
4932.000000	64.152407 
4931.000000	64.168500 
4930.000000	64.186024 
4929.000000	64.205956 
4928.000000	64.231038 
4927.000000	64.264798 
4926.000000	64.310574 
4925.000000	64.369940 
4924.000000	64.441490 
4923.000000	64.520382 
4922.000000	64.598941 
4921.000000	64.667606 
4920.000000	64.717650 
4919.000000	64.742326 
4918.000000	64.738678 
4917.000000	64.707875 
4916.000000	64.655518 
4915.000000	64.589715 
4914.000000	64.519691 
4913.000000	64.453649 
4912.000000	64.398097 
4911.000000	64.356017 
4910.000000	64.327454 
4909.000000	64.309382 
4908.000000	64.297413 
4907.000000	64.286279 
4906.000000	64.271187 
4905.000000	64.248204 
4904.000000	64.214682 
4903.000000	64.169549 
4902.000000	64.113402 
4901.000000	64.047980 
4900.000000	63.975977 
4899.000000	63.900756 
4898.000000	63.826155 
4897.000000	63.755536 
4896.000000	63.692331 
4895.000000	63.639378 
4894.000000	63.599896 
4893.000000	63.575863 
4892.000000	63.569617 
4891.000000	63.582515 
4890.000000	63.616085 
4889.000000	63.670229 
4888.000000	63.744425 
4887.000000	63.836431 
4886.000000	63.942670 
4885.000000	64.058089 
4884.000000	64.175558 
4883.000000	64.286541 
4882.000000	64.381957 
4881.000000	64.453816 
4880.000000	64.496374 
4879.000000	64.507317 
4878.000000	64.488506 
4877.000000	64.446091 
4876.000000	64.388990 
4875.000000	64.327383 
4874.000000	64.270782 
4873.000000	64.226317 
4872.000000	64.197444 
4871.000000	64.183926 
4870.000000	64.182662 
4869.000000	64.189028 
4868.000000	64.198136 
4867.000000	64.206790 
4866.000000	64.213609 
4865.000000	64.219951 
4864.000000	64.228105 
4863.000000	64.241552 
4862.000000	64.262580 
4861.000000	64.292621 
4860.000000	64.331626 
4859.000000	64.377880 
4858.000000	64.428663 
4857.000000	64.479923 
4856.000000	64.527654 
4855.000000	64.567613 
4854.000000	64.596128 
4853.000000	64.610552 
4852.000000	64.610028 
4851.000000	64.595389 
4850.000000	64.569163 
4849.000000	64.535021 
4848.000000	64.497232 
4847.000000	64.459586 
4846.000000	64.424824 
4845.000000	64.394330 
4844.000000	64.368414 
4843.000000	64.346790 
4842.000000	64.329075 
4841.000000	64.315390 
4840.000000	64.306402 
4839.000000	64.303612 
4838.000000	64.308428 
4837.000000	64.321279 
4836.000000	64.341211 
4835.000000	64.365148 
4834.000000	64.389038 
4833.000000	64.408183 
4832.000000	64.419198 
4831.000000	64.420413 
4830.000000	64.413356 
4829.000000	64.402294 
4828.000000	64.393591 
4827.000000	64.393901 
4826.000000	64.408230 
4825.000000	64.438509 
4824.000000	64.482402 
4823.000000	64.533829 
4822.000000	64.583611 
4821.000000	64.621782 
4820.000000	64.639830 
4819.000000	64.632916 
4818.000000	64.601016 
4817.000000	64.549183 
4816.000000	64.486598 
4815.000000	64.424538 
4814.000000	64.374017 
4813.000000	64.343309 
4812.000000	64.336824 
4811.000000	64.353942 
4810.000000	64.390015 
4809.000000	64.437222 
4808.000000	64.486765 
4807.000000	64.530563 
4806.000000	64.562344 
4805.000000	64.579343 
4804.000000	64.581346 
4803.000000	64.571666 
4802.000000	64.555287 
4801.000000	64.538359 
4800.000000	64.526700 
4799.000000	64.524936 
4798.000000	64.536166 
4797.000000	64.561009 
4796.000000	64.597892 
4795.000000	64.642906 
4794.000000	64.690923 
4793.000000	64.736032 
4792.000000	64.772891 
4791.000000	64.797663 
4790.000000	64.808750 
4789.000000	64.806938 
4788.000000	64.794921 
4787.000000	64.776539 
4786.000000	64.755630 
4785.000000	64.735603 
4784.000000	64.718413 
4783.000000	64.704751 
4782.000000	64.694428 
4781.000000	64.687299 
4780.000000	64.683079 
4779.000000	64.682102 
4778.000000	64.684653 
4777.000000	64.690804 
4776.000000	64.699792 
4775.000000	64.709901 
4774.000000	64.718294 
4773.000000	64.721488 
4772.000000	64.716219 
4771.000000	64.700341 
4770.000000	64.673709 
4769.000000	64.638257 
4768.000000	64.597773 
4767.000000	64.556860 
4766.000000	64.519929 
4765.000000	64.490294 
4764.000000	64.469647 
4763.000000	64.457964 
4762.000000	64.453601 
4761.000000	64.454007 
4760.000000	64.456605 
4759.000000	64.459395 
4758.000000	64.461016 
4757.000000	64.460992 
4756.000000	64.459419 
4755.000000	64.456939 
4754.000000	64.454293 
4753.000000	64.452219 
4752.000000	64.450883 
4751.000000	64.450263 
4750.000000	64.450693 
4749.000000	64.452338 
4748.000000	64.455461 
4747.000000	64.460372 
4746.000000	64.467430 
4745.000000	64.476799 
4744.000000	64.488625 
4743.000000	64.502668 
4742.000000	64.518356 
4741.000000	64.534926 
4740.000000	64.551615 
4739.000000	64.567422 
4738.000000	64.581131 
4737.000000	64.591598 
4736.000000	64.597702 
4735.000000	64.598608 
4734.000000	64.593791 
4733.000000	64.582943 
4732.000000	64.566588 
4731.000000	64.545869 
4730.000000	64.523291 
4729.000000	64.502048 
4728.000000	64.486122 
4727.000000	64.479875 
4726.000000	64.487361 
4725.000000	64.511013 
4724.000000	64.551377 
4723.000000	64.606738 
4722.000000	64.672636 
4721.000000	64.742493 
4720.000000	64.808249 
4719.000000	64.861702 
4718.000000	64.895486 
4717.000000	64.904713 
4716.000000	64.887094 
4715.000000	64.843654 
4714.000000	64.778065 
4713.000000	64.696216 
4712.000000	64.605164 
4711.000000	64.512324 
4710.000000	64.424347 
4709.000000	64.346742 
4708.000000	64.283275 
4707.000000	64.236330 
4706.000000	64.206981 
4705.000000	64.195799 
4704.000000	64.202070 
4703.000000	64.225292 
4702.000000	64.264488 
4701.000000	64.319157 
4700.000000	64.387583 
4699.000000	64.467549 
4698.000000	64.555549 
4697.000000	64.646577 
4696.000000	64.734435 
4695.000000	64.811587 
4694.000000	64.870309 
4693.000000	64.903593 
4692.000000	64.906787 
4691.000000	64.878940 
4690.000000	64.823484 
4689.000000	64.748334 
4688.000000	64.664888 
4687.000000	64.586257 
4686.000000	64.524650 
4685.000000	64.489364 
4684.000000	64.484763 
4683.000000	64.509081 
4682.000000	64.554762 
4681.000000	64.610600 
4680.000000	64.663910 
4679.000000	64.702367 
4678.000000	64.717245 
4677.000000	64.704489 
4676.000000	64.666032 
4675.000000	64.608144 
4674.000000	64.540624 
4673.000000	64.474081 
4672.000000	64.418053 
4671.000000	64.379906 
4670.000000	64.363098 
4669.000000	64.367175 
4668.000000	64.388084 
4667.000000	64.419865 
4666.000000	64.455699 
4665.000000	64.488887 
4664.000000	64.515066 
4663.000000	64.532399 
4662.000000	64.541769 
4661.000000	64.545679 
4660.000000	64.547872 
4659.000000	64.551901 
4658.000000	64.560461 
4657.000000	64.575028 
4656.000000	64.595985 
4655.000000	64.622831 
4654.000000	64.655375 
4653.000000	64.693212 
4652.000000	64.735817 
4651.000000	64.781522 
4650.000000	64.827966 
4649.000000	64.871096 
4648.000000	64.905405 
4647.000000	64.924645 
4646.000000	64.923429 
4645.000000	64.898300 
4644.000000	64.848756 
4643.000000	64.777827 
4642.000000	64.692497 
4641.000000	64.601683 
4640.000000	64.514899 
4639.000000	64.440155 
4638.000000	64.382600 
4637.000000	64.343976 
4636.000000	64.322853 
4635.000000	64.315509 
4634.000000	64.316916 
4633.000000	64.322376 
4632.000000	64.328503 
4631.000000	64.333319 
4630.000000	64.336299 
4629.000000	64.337992 
4628.000000	64.339852 
4627.000000	64.343261 
4626.000000	64.349818 
4625.000000	64.360928 
4624.000000	64.378309 
4623.000000	64.403820 
4622.000000	64.439558 
4621.000000	64.487671 
4620.000000	64.549207 
4619.000000	64.623975 
4618.000000	64.708900 
4617.000000	64.798212 
4616.000000	64.883136 
4615.000000	64.953804 
4614.000000	65.000104 
4613.000000	65.014004 
4612.000000	64.991021 
4611.000000	64.932441 
4610.000000	64.844298 
4609.000000	64.736652 
4608.000000	64.621973 
4607.000000	64.513278 
4606.000000	64.421558 
4605.000000	64.354181 
4604.000000	64.313983 
4603.000000	64.299654 
4602.000000	64.306950 
4601.000000	64.330244 
4600.000000	64.363360 
4599.000000	64.401125 
4598.000000	64.439678 
4597.000000	64.477252 
4596.000000	64.512300 
4595.000000	64.544463 
4594.000000	64.573597 
4593.000000	64.600062 
4592.000000	64.624094 
4591.000000	64.646100 
4590.000000	64.666962 
4589.000000	64.687633 
4588.000000	64.709067 
4587.000000	64.732336 
4586.000000	64.758992 
4585.000000	64.790105 
4584.000000	64.826130 
4583.000000	64.866089 
4582.000000	64.907574 
4581.000000	64.946508 
4580.000000	64.977812 
4579.000000	64.995837 
4578.000000	64.995479 
4577.000000	64.973640 
4576.000000	64.930033 
4575.000000	64.866852 
4574.000000	64.788460 
4573.000000	64.701223 
4572.000000	64.612436 
4571.000000	64.528942 
4570.000000	64.456391 
4569.000000	64.398622 
4568.000000	64.357304 
4567.000000	64.332270 
4566.000000	64.321613 
4565.000000	64.321875 
4564.000000	64.328765 
4563.000000	64.337348 
4562.000000	64.342951 
4561.000000	64.340853 
4560.000000	64.328265 
4559.000000	64.304137 
4558.000000	64.270234 
4557.000000	64.230084 
4556.000000	64.188861 
4555.000000	64.152240 
4554.000000	64.125323 
4553.000000	64.111328 
4552.000000	64.111518 
4551.000000	64.125370 
4550.000000	64.150619 
4549.000000	64.183974 
4548.000000	64.221596 
4547.000000	64.259862 
4546.000000	64.295578 
4545.000000	64.326477 
4544.000000	64.351058 
4543.000000	64.368772 
4542.000000	64.379978 
4541.000000	64.385747 
4540.000000	64.387321 
4539.000000	64.385747 
4538.000000	64.382386 
4537.000000	64.377808 
4536.000000	64.372253 
4535.000000	64.365220 
4534.000000	64.356184 
4533.000000	64.344453 
4532.000000	64.330005 
4531.000000	64.313077 
4530.000000	64.294648 
4529.000000	64.275598 
4528.000000	64.256668 
4527.000000	64.238214 
4526.000000	64.220309 
4525.000000	64.203000 
4524.000000	64.186763 
4523.000000	64.172792 
4522.000000	64.162850 
4521.000000	64.159059 
4520.000000	64.163112 
4519.000000	64.175248 
4518.000000	64.194130 
4517.000000	64.216899 
4516.000000	64.239740 
4515.000000	64.258503 
4514.000000	64.269661 
4513.000000	64.270901 
4512.000000	64.261746 
4511.000000	64.243626 
4510.000000	64.219141 
4509.000000	64.191412 
4508.000000	64.163327 
4507.000000	64.136862 
4506.000000	64.113378 
4505.000000	64.093661 
4504.000000	64.078354 
4503.000000	64.068198 
4502.000000	64.064240 
4501.000000	64.067649 
4500.000000	64.079117 
4499.000000	64.098143 
4498.000000	64.122366 
4497.000000	64.147663 
4496.000000	64.168405 
4495.000000	64.178895 
4494.000000	64.173817 
4493.000000	64.150094 
4492.000000	64.108014 
4491.000000	64.052081 
4490.000000	63.990163 
4489.000000	63.932704 
4488.000000	63.890647 
4487.000000	63.873219 
4486.000000	63.886427 
4485.000000	63.930630 
4484.000000	64.001011 
4483.000000	64.087247 
4482.000000	64.176368 
4481.000000	64.253878 
4480.000000	64.307045 
4479.000000	64.326810 
4478.000000	64.309334 
4477.000000	64.256668 
4476.000000	64.175748 
4475.000000	64.077329 
4474.000000	63.973474 
4473.000000	63.876318 
4472.000000	63.796162 
4471.000000	63.740873 
4470.000000	63.715291 
4469.000000	63.721656 
4468.000000	63.759589 
4467.000000	63.826274 
4466.000000	63.916468 
4465.000000	64.022445 
4464.000000	64.134716 
4463.000000	64.242434 
4462.000000	64.334583 
4461.000000	64.401221 
4460.000000	64.434719 
4459.000000	64.430999 
4458.000000	64.389801 
4457.000000	64.316272 
4456.000000	64.218902 
4455.000000	64.108610 
4454.000000	63.996791 
4453.000000	63.894724 
4452.000000	63.810896 
4451.000000	63.750624 
4450.000000	63.715314 
4449.000000	63.702964 
4448.000000	63.709664 
4447.000000	63.730764 
4446.000000	63.762044 
4445.000000	63.799786 
4444.000000	63.842654 
4443.000000	63.891029 
4442.000000	63.945841 
4441.000000	64.007234 
4440.000000	64.072990 
4439.000000	64.138293 
4438.000000	64.195942 
4437.000000	64.238214 
4436.000000	64.258670 
4435.000000	64.254641 
4434.000000	64.228701 
4433.000000	64.188957 
4432.000000	64.147806 
4431.000000	64.119577 
4430.000000	64.116096 
4429.000000	64.145207 
4428.000000	64.210486 
4427.000000	64.308547 
4426.000000	64.431142 
4425.000000	64.564371 
4424.000000	64.691209 
4423.000000	64.794516 
4422.000000	64.862895 
4421.000000	64.886713 
4420.000000	64.858603 
4419.000000	64.775991 
4418.000000	64.641690 
4417.000000	64.465069 
4416.000000	64.262127 
4415.000000	64.051103 
4414.000000	63.850736 
4413.000000	63.679170 
4412.000000	63.551640 
4411.000000	63.479733 
4410.000000	63.468503 
4409.000000	63.517880 
4408.000000	63.619136 
4407.000000	63.754606 
4406.000000	63.898158 
4405.000000	64.019918 
4404.000000	64.089798 
4403.000000	64.079976 
4402.000000	63.976168 
4401.000000	63.769435 
4400.000000	63.480710 
4399.000000	63.146972 
4398.000000	62.840127 
4397.000000	62.657952 
4396.000000	62.698125 
4395.000000	63.044404 
4394.000000	63.712549 
4393.000000	64.638733 
4392.000000	65.675306 
4391.000000	66.617536 
4390.000000	67.266821 
4389.000000	67.480921 
4388.000000	67.223620 
4387.000000	66.572856 
4386.000000	65.687322 
4385.000000	64.762091 
4384.000000	63.965320 
4383.000000	63.401126 
4382.000000	63.095402 
4381.000000	62.999820 
4380.000000	63.034629 
4379.000000	63.109827 
4378.000000	63.160347 
4377.000000	63.160562 
4376.000000	63.116550 
4375.000000	63.068699 
4374.000000	63.062810 
4373.000000	63.141536 
4372.000000	63.319158 
4371.000000	63.582849 
4370.000000	63.892602 
4369.000000	64.195179 
4368.000000	64.440298 
4367.000000	64.594602 
4366.000000	64.652109 
4365.000000	64.631938 
4364.000000	64.571404 
4363.000000	64.512586 
4362.000000	64.489531 
4361.000000	64.519739 
4360.000000	64.599990 
4359.000000	64.715147 
4358.000000	64.842081 
4357.000000	64.959168 
4356.000000	65.049767 
4355.000000	65.104222 
4354.000000	65.119528 
4353.000000	65.097570 
4352.000000	65.042829 
4351.000000	64.957118 
4350.000000	64.842367 
4349.000000	64.704370 
4348.000000	64.550542 
4347.000000	64.391899 
4346.000000	64.239835 
4345.000000	64.104723 
4344.000000	63.994622 
4343.000000	63.914680 
4342.000000	63.865852 
4341.000000	63.845300 
4340.000000	63.846635 
4339.000000	63.861012 
4338.000000	63.878870 
4337.000000	63.890767 
4336.000000	63.891625 
4335.000000	63.881301 
4334.000000	63.864135 
4333.000000	63.847351 
4332.000000	63.838815 
4331.000000	63.844704 
4330.000000	63.867712 
4329.000000	63.905930 
4328.000000	63.953518 
4327.000000	64.002156 
4326.000000	64.042735 
4325.000000	64.068531 
4324.000000	64.077234 
4323.000000	64.071345 
4322.000000	64.057159 
4321.000000	64.042830 
4320.000000	64.035224 
4319.000000	64.038538 
4318.000000	64.053010 
4317.000000	64.075136 
4316.000000	64.098668 
4315.000000	64.117479 
4314.000000	64.128088 
4313.000000	64.130067 
4312.000000	64.125847 
4311.000000	64.120626 
4310.000000	64.120411 
4309.000000	64.130830 
4308.000000	64.155268 
4307.000000	64.194393 
4306.000000	64.245462 
4305.000000	64.302825 
4304.000000	64.358592 
4303.000000	64.404058 
4302.000000	64.431118 
4301.000000	64.433884 
4300.000000	64.409899 
4299.000000	64.360404 
4298.000000	64.290738 
4297.000000	64.208889 
4296.000000	64.124727 
4295.000000	64.048194 
4294.000000	63.987851 
4293.000000	63.949656 
4292.000000	63.936448 
4291.000000	63.947820 
4290.000000	63.980913 
4289.000000	64.030957 
4288.000000	64.092445 
4287.000000	64.159679 
4286.000000	64.227533 
4285.000000	64.291405 
4284.000000	64.347386 
4283.000000	64.391899 
4282.000000	64.422893 
4281.000000	64.439606 
4280.000000	64.443111 
4279.000000	64.435791 
4278.000000	64.421296 
4277.000000	64.403295 
4276.000000	64.385080 
4275.000000	64.368677 
4274.000000	64.354920 
4273.000000	64.343738 
4272.000000	64.334177 
4271.000000	64.325690 
4270.000000	64.318943 
4269.000000	64.316248 
4268.000000	64.320921 
4267.000000	64.336752 
4266.000000	64.366769 
4265.000000	64.411854 
4264.000000	64.470505 
4263.000000	64.537882 
4262.000000	64.606785 
4261.000000	64.668631 
4260.000000	64.715361 
4259.000000	64.741015 
4258.000000	64.742827 
4257.000000	64.721870 
4256.000000	64.682483 
4255.000000	64.631843 
4254.000000	64.578390 
4253.000000	64.530014 
4252.000000	64.492321 
4251.000000	64.467787 
4250.000000	64.455223 
4249.000000	64.450478 
4248.000000	64.447522 
4247.000000	64.440035 
4246.000000	64.423251 
4245.000000	64.394974 
4244.000000	64.356660 
4243.000000	64.312243 
4242.000000	64.267969 
4241.000000	64.230370 
4240.000000	64.205336 
4239.000000	64.196348 
4238.000000	64.204216 
4237.000000	64.226722 
4236.000000	64.259362 
4235.000000	64.296412 
4234.000000	64.331984 
4233.000000	64.360952 
4232.000000	64.379858 
4231.000000	64.387178 
4230.000000	64.383101 
4229.000000	64.368844 
4228.000000	64.347052 
4227.000000	64.320898 
4226.000000	64.293909 
4225.000000	64.269471 
4224.000000	64.250540 
4223.000000	64.239668 
4222.000000	64.238762 
4221.000000	64.249253 
4220.000000	64.271426 
4219.000000	64.304733 
4218.000000	64.347672 
4217.000000	64.397740 
4216.000000	64.451336 
4215.000000	64.504122 
4214.000000	64.551448 
4213.000000	64.589262 
4212.000000	64.614391 
4211.000000	64.625525 
4210.000000	64.623641 
4209.000000	64.611315 
4208.000000	64.592504 
4207.000000	64.570999 
4206.000000	64.550256 
4205.000000	64.532065 
4204.000000	64.516735 
4203.000000	64.502716 
4202.000000	64.487338 
4201.000000	64.467668 
4200.000000	64.441680 
4199.000000	64.409089 
4198.000000	64.371752 
4197.000000	64.333462 
4196.000000	64.299154 
4195.000000	64.273953 
4194.000000	64.261770 
4193.000000	64.264321 
4192.000000	64.280772 
4191.000000	64.307475 
4190.000000	64.339470 
4189.000000	64.371085 
4188.000000	64.397859 
4187.000000	64.417219 
4186.000000	64.429354 
4185.000000	64.436793 
4184.000000	64.443159 
4183.000000	64.451694 
4182.000000	64.463615 
4181.000000	64.477443 
4180.000000	64.488697 
4179.000000	64.491248 
4178.000000	64.479351 
4177.000000	64.449882 
4176.000000	64.404153 
4175.000000	64.348435 
4174.000000	64.292860 
4173.000000	64.249134 
4172.000000	64.227557 
4171.000000	64.234280 
4170.000000	64.269185 
4169.000000	64.325904 
4168.000000	64.393019 
4167.000000	64.457559 
4166.000000	64.508175 
4165.000000	64.538359 
4164.000000	64.547967 
4163.000000	64.542841 
4162.000000	64.532566 
4161.000000	64.527320 
4160.000000	64.534902 
4159.000000	64.558100 
4158.000000	64.594531 
4157.000000	64.636778 
4156.000000	64.675569 
4155.000000	64.701819 
4154.000000	64.709806 
4153.000000	64.698052 
4152.000000	64.669990 
4151.000000	64.632725 
4150.000000	64.594745 
4149.000000	64.564037 
4148.000000	64.545822 
4147.000000	64.541721 
4146.000000	64.549684 
4145.000000	64.564990 
4144.000000	64.581656 
4143.000000	64.593815 
4142.000000	64.597105 
4141.000000	64.589405 
4140.000000	64.571523 
4139.000000	64.546322 
4138.000000	64.518785 
4137.000000	64.494252 
4136.000000	64.478135 
4135.000000	64.474844 
4134.000000	64.486885 
4133.000000	64.514446 
4132.000000	64.555287 
4131.000000	64.605355 
4130.000000	64.659237 
4129.000000	64.711117 
4128.000000	64.755892 
4127.000000	64.789962 
4126.000000	64.811706 
4125.000000	64.821481 
4124.000000	64.821314 
4123.000000	64.814257 
4122.000000	64.803385 
4121.000000	64.791393 
4120.000000	64.780426 
4119.000000	64.772033 
4118.000000	64.767360 
4117.000000	64.767432 
4116.000000	64.772772 
4115.000000	64.783596 
4114.000000	64.799308 
4113.000000	64.818644 
4112.000000	64.839816 
4111.000000	64.860725 
4110.000000	64.879322 
4109.000000	64.893913 
4108.000000	64.903426 
4107.000000	64.907240 
4106.000000	64.905810 
4105.000000	64.899921 
4104.000000	64.890480 
4103.000000	64.878511 
4102.000000	64.865016 
4101.000000	64.850616 
4100.000000	64.835977 
4099.000000	64.821481 
4098.000000	64.807319 
4097.000000	64.793348 
4096.000000	64.779448 
4095.000000	64.764857 
4094.000000	64.748501 
4093.000000	64.728975 
4092.000000	64.704680 
4091.000000	64.674258 
4090.000000	64.637184 
4089.000000	64.594078 
4088.000000	64.546871 
4087.000000	64.498734 
4086.000000	64.453697 
4085.000000	64.415597 
4084.000000	64.387917 
4083.000000	64.372754 
4082.000000	64.371132 
4081.000000	64.382767 
4080.000000	64.406561 
4079.000000	64.440631 
4078.000000	64.482712 
4077.000000	64.529848 
4076.000000	64.578723 
4075.000000	64.625501 
4074.000000	64.666295 
4073.000000	64.697527 
4072.000000	64.716720 
4071.000000	64.722871 
4070.000000	64.716792 
4069.000000	64.701056 
4068.000000	64.679288 
4067.000000	64.655709 
4066.000000	64.633941 
4065.000000	64.616322 
4064.000000	64.603638 
4063.000000	64.595437 
4062.000000	64.590549 
4061.000000	64.587903 
4060.000000	64.587235 
4059.000000	64.589262 
4058.000000	64.595365 
4057.000000	64.607214 
4056.000000	64.625644 
4055.000000	64.650344 
4054.000000	64.679503 
4053.000000	64.710330 
4052.000000	64.739513 
4051.000000	64.763736 
4050.000000	64.780855 
4049.000000	64.789795 
4048.000000	64.790868 
4047.000000	64.785408 
4046.000000	64.775300 
4045.000000	64.762306 
4044.000000	64.747381 
4043.000000	64.731049 
4042.000000	64.713287 
4041.000000	64.693880 
4040.000000	64.672827 
4039.000000	64.650464 
4038.000000	64.627790 
4037.000000	64.606165 
4036.000000	64.587187 
4035.000000	64.572024 
4034.000000	64.561176 
4033.000000	64.554548 
4032.000000	64.551353 
4031.000000	64.549756 
4030.000000	64.547705 
4029.000000	64.542984 
4028.000000	64.533996 
4027.000000	64.520049 
4026.000000	64.501523 
4025.000000	64.479756 
4024.000000	64.457058 
4023.000000	64.436244 
4022.000000	64.419865 
4021.000000	64.409780 
4020.000000	64.406561 
4019.000000	64.409446 
4018.000000	64.416551 
4017.000000	64.424991 
4016.000000	64.431762 
4015.000000	64.434432 
4014.000000	64.431619 
4013.000000	64.423394 
4012.000000	64.411473 
4011.000000	64.398813 
4010.000000	64.389133 
4009.000000	64.386200 
4008.000000	64.393448 
4007.000000	64.413213 
4006.000000	64.446616 
4005.000000	64.492964 
4004.000000	64.549708 
4003.000000	64.612460 
4002.000000	64.675879 
4001.000000	64.734029 
4000.000000	64.781284 
3999.000000	64.812898 
3998.000000	64.826035 
3997.000000	64.820194 
3996.000000	64.797210 
3995.000000	64.760947 
3994.000000	64.716982 
3993.000000	64.671230 
3992.000000	64.629602 
3991.000000	64.596247 
3990.000000	64.573812 
3989.000000	64.562177 
3988.000000	64.559245 
3987.000000	64.560794 
3986.000000	64.561939 
3985.000000	64.557623 
3984.000000	64.544153 
3983.000000	64.519786 
3982.000000	64.485239 
3981.000000	64.444136 
3980.000000	64.402437 
3979.000000	64.367103 
3978.000000	64.345145 
3977.000000	64.341926 
3976.000000	64.360356 
3975.000000	64.399862 
3974.000000	64.456367 
3973.000000	64.523410 
3972.000000	64.592957 
3971.000000	64.656853 
3970.000000	64.708304 
3969.000000	64.742827 
3968.000000	64.758777 
3967.000000	64.757084 
3966.000000	64.740729 
3965.000000	64.713788 
3964.000000	64.680528 
3963.000000	64.645195 
3962.000000	64.611053 
3961.000000	64.580631 
3960.000000	64.555644 
3959.000000	64.537477 
3958.000000	64.526653 
3957.000000	64.523029 
3956.000000	64.525556 
3955.000000	64.532351 
3954.000000	64.541029 
3953.000000	64.549088 
3952.000000	64.554286 
3951.000000	64.555287 
3950.000000	64.551782 
3949.000000	64.545130 
3948.000000	64.537549 
3947.000000	64.531874 
3946.000000	64.530920 
3945.000000	64.536571 
3944.000000	64.549493 
3943.000000	64.568948 
3942.000000	64.593219 
3941.000000	64.619684 
3940.000000	64.645433 
3939.000000	64.667677 
3938.000000	64.684438 
3937.000000	64.694452 
3936.000000	64.697289 
3935.000000	64.693427 
3934.000000	64.683890 
3933.000000	64.670157 
3932.000000	64.654135 
3931.000000	64.637470 
3930.000000	64.621257 
3929.000000	64.606142 
3928.000000	64.592266 
3927.000000	64.579176 
3926.000000	64.565944 
3925.000000	64.551877 
3924.000000	64.536404 
3923.000000	64.519357 
3922.000000	64.500737 
3921.000000	64.481115 
3920.000000	64.461255 
3919.000000	64.441609 
3918.000000	64.422631 
3917.000000	64.404439 
3916.000000	64.387106 
3915.000000	64.370775 
3914.000000	64.355921 
3913.000000	64.343261 
3912.000000	64.333820 
3911.000000	64.328813 
3910.000000	64.329195 
3909.000000	64.335274 
3908.000000	64.346623 
3907.000000	64.362144 
3906.000000	64.380192 
3905.000000	64.398765 
3904.000000	64.416170 
3903.000000	64.431452 
3902.000000	64.444518 
3901.000000	64.456343 
3900.000000	64.468336 
3899.000000	64.482140 
3898.000000	64.499378 
3897.000000	64.521074 
3896.000000	64.547610 
3895.000000	64.578533 
3894.000000	64.612913 
3893.000000	64.649081 
3892.000000	64.684867 
3891.000000	64.717364 
3890.000000	64.743804 
3889.000000	64.761567 
3888.000000	64.768862 
3887.000000	64.764714 
3886.000000	64.749789 
3885.000000	64.725804 
3884.000000	64.695549 
3883.000000	64.662051 
3882.000000	64.628195 
3881.000000	64.596295 
3880.000000	64.567947 
3879.000000	64.543676 
3878.000000	64.523434 
3877.000000	64.506793 
3876.000000	64.493441 
3875.000000	64.483213 
3874.000000	64.476156 
3873.000000	64.472532 
3872.000000	64.472889 
3871.000000	64.477443 
3870.000000	64.486050 
3869.000000	64.498209 
3868.000000	64.513182 
3867.000000	64.530158 
3866.000000	64.548349 
3865.000000	64.567041 
3864.000000	64.585518 
3863.000000	64.603137 
3862.000000	64.618825 
3861.000000	64.631295 
3860.000000	64.638686 
3859.000000	64.639258 
3858.000000	64.631533 
3857.000000	64.614939 
3856.000000	64.589977 
3855.000000	64.558672 
3854.000000	64.523792 
3853.000000	64.488410 
3852.000000	64.455175 
3851.000000	64.426183 
3850.000000	64.401865 
3849.000000	64.381480 
3848.000000	64.363455 
3847.000000	64.346361 
3846.000000	64.329218 
3845.000000	64.312458 
3844.000000	64.297628 
3843.000000	64.287281 
3842.000000	64.284372 
3841.000000	64.291262 
3840.000000	64.308762 
3839.000000	64.335918 
3838.000000	64.369702 
3837.000000	64.406156 
3836.000000	64.440393 
3835.000000	64.468407 
3834.000000	64.487624 
3833.000000	64.497733 
3832.000000	64.500188 
3831.000000	64.498233 
3830.000000	64.495682 
3829.000000	64.496350 
3828.000000	64.503121 
3827.000000	64.517593 
3826.000000	64.540123 
3825.000000	64.569926 
3824.000000	64.605665 
3823.000000	64.645266 
3822.000000	64.686346 
3821.000000	64.726328 
3820.000000	64.762616 
3819.000000	64.792585 
3818.000000	64.813828 
3817.000000	64.824652 
3816.000000	64.824008 
3815.000000	64.812040 
3814.000000	64.789962 
3813.000000	64.759993 
3812.000000	64.724993 
3811.000000	64.688205 
3810.000000	64.652705 
3809.000000	64.621138 
3808.000000	64.595484 
3807.000000	64.577388 
3806.000000	64.567565 
3805.000000	64.566063 
3804.000000	64.572072 
3803.000000	64.584040 
3802.000000	64.599752 
3801.000000	64.616203 
3800.000000	64.630484 
3799.000000	64.640140 
3798.000000	64.643812 
3797.000000	64.641189 
3796.000000	64.633202 
3795.000000	64.621591 
3794.000000	64.608573 
3793.000000	64.596176 
3792.000000	64.586019 
3791.000000	64.578771 
3790.000000	64.574551 
3789.000000	64.572882 
3788.000000	64.573049 
3787.000000	64.574170 
3786.000000	64.575481 
3785.000000	64.576220 
3784.000000	64.575362 
3783.000000	64.572048 
3782.000000	64.565110 
3781.000000	64.553761 
3780.000000	64.537906 
3779.000000	64.518094 
3778.000000	64.496183 
3777.000000	64.474344 
3776.000000	64.455032 
3775.000000	64.440178 
3774.000000	64.430713 
3773.000000	64.426445 
3772.000000	64.426088 
3771.000000	64.427900 
3770.000000	64.430236 
3769.000000	64.432597 
3768.000000	64.435887 
3767.000000	64.442467 
3766.000000	64.455342 
3765.000000	64.477491 
3764.000000	64.510679 
3763.000000	64.554691 
3762.000000	64.607024 
3761.000000	64.663290 
3760.000000	64.717745 
3759.000000	64.764833 
3758.000000	64.800095 
3757.000000	64.820551 
3756.000000	64.825606 
3755.000000	64.816641 
3754.000000	64.796638 
3753.000000	64.769458 
3752.000000	64.738893 
3751.000000	64.708495 
3750.000000	64.680600 
3749.000000	64.656758 
3748.000000	64.637303 
3747.000000	64.622044 
3746.000000	64.610242 
3745.000000	64.601278 
3744.000000	64.594602 
3743.000000	64.589905 
3742.000000	64.587211 
3741.000000	64.586734 
3740.000000	64.588546 
3739.000000	64.592599 
3738.000000	64.598536 
3737.000000	64.605760 
3736.000000	64.613318 
3735.000000	64.620447 
3734.000000	64.626765 
3733.000000	64.632654 
3732.000000	64.639091 
3731.000000	64.647388 
3730.000000	64.659094 
3729.000000	64.675140 
3728.000000	64.695477 
3727.000000	64.718699 
3726.000000	64.742350 
3725.000000	64.762973 
3724.000000	64.777064 
3723.000000	64.781403 
3722.000000	64.773964 
3721.000000	64.754414 
3720.000000	64.724469 
3719.000000	64.687371 
3718.000000	64.647388 
3717.000000	64.609265 
3716.000000	64.577388 
3715.000000	64.555191 
3714.000000	64.544367 
3713.000000	64.544963 
3712.000000	64.555454 
3711.000000	64.572787 
3710.000000	64.593148 
3709.000000	64.612293 
3708.000000	64.626693 
3707.000000	64.633727 
3706.000000	64.632344 
3705.000000	64.623045 
3704.000000	64.607739 
3703.000000	64.589118 
3702.000000	64.570188 
3701.000000	64.553403 
3700.000000	64.540219 
3699.000000	64.531397 
3698.000000	64.526486 
3697.000000	64.524364 
3696.000000	64.523553 
3695.000000	64.522910 
3694.000000	64.521789 
3693.000000	64.520049 
3692.000000	64.518475 
3691.000000	64.518284 
3690.000000	64.520978 
3689.000000	64.527821 
3688.000000	64.539480 
3687.000000	64.555883 
3686.000000	64.576339 
3685.000000	64.599752 
3684.000000	64.624762 
3683.000000	64.650082 
3682.000000	64.674901 
3681.000000	64.698839 
3680.000000	64.721822 
3679.000000	64.743685 
3678.000000	64.763903 
3677.000000	64.780783 
3676.000000	64.791989 
3675.000000	64.794564 
3674.000000	64.785456 
3673.000000	64.762687 
3672.000000	64.725804 
3671.000000	64.676928 
3670.000000	64.620518 
3669.000000	64.562797 
3668.000000	64.510774 
3667.000000	64.470744 
3666.000000	64.447212 
3665.000000	64.441847 
3664.000000	64.453411 
3663.000000	64.478206 
3662.000000	64.510941 
3661.000000	64.546275 
3660.000000	64.579868 
3659.000000	64.609169 
3658.000000	64.633488 
3657.000000	64.653348 
3656.000000	64.669919 
3655.000000	64.683914 
3654.000000	64.695072 
3653.000000	64.702057 
3652.000000	64.702677 
3651.000000	64.695143 
3650.000000	64.678215 
3649.000000	64.652371 
3648.000000	64.619469 
3647.000000	64.582920 
3646.000000	64.546608 
3645.000000	64.514446 
3644.000000	64.489340 
3643.000000	64.472651 
3642.000000	64.464211 
3641.000000	64.462471 
3640.000000	64.465117 
3639.000000	64.469885 
3638.000000	64.474892 
3637.000000	64.478874 
3636.000000	64.481568 
3635.000000	64.483261 
3634.000000	64.484691 
3633.000000	64.486503 
3632.000000	64.489197 
3631.000000	64.492988 
3630.000000	64.498090 
3629.000000	64.504933 
3628.000000	64.514088 
3627.000000	64.525985 
3626.000000	64.541482 
3625.000000	64.560794 
3624.000000	64.583754 
3623.000000	64.608931 
3622.000000	64.633870 
3621.000000	64.655256 
3620.000000	64.669418 
3619.000000	64.673495 
3618.000000	64.666008 
3617.000000	64.647579 
3616.000000	64.621186 
3615.000000	64.591598 
3614.000000	64.564490 
3613.000000	64.545202 
3612.000000	64.537739 
3611.000000	64.543604 
3610.000000	64.561581 
3609.000000	64.587831 
3608.000000	64.616942 
3607.000000	64.642739 
3606.000000	64.659833 
3605.000000	64.664363 
3604.000000	64.655017 
3603.000000	64.632868 
3602.000000	64.601397 
3601.000000	64.565491 
3600.000000	64.530587 
3599.000000	64.501786 
3598.000000	64.482879 
3597.000000	64.475750 
3596.000000	64.480233 
3595.000000	64.494419 
3594.000000	64.515066 
3593.000000	64.538049 
3592.000000	64.559674 
3591.000000	64.576935 
3590.000000	64.588236 
3589.000000	64.593267 
3588.000000	64.593005 
3587.000000	64.588975 
3586.000000	64.582943 
3585.000000	64.576435 
3584.000000	64.570283 
3583.000000	64.564609 
3582.000000	64.559030 
3581.000000	64.553356 
3580.000000	64.547419 
3579.000000	64.541363 
3578.000000	64.535760 
3577.000000	64.531493 
3576.000000	64.529538 
3575.000000	64.530515 
3574.000000	64.534401 
3573.000000	64.540505 
3572.000000	64.547610 
3571.000000	64.554309 
3570.000000	64.559340 
3569.000000	64.561915 
3568.000000	64.561653 
3567.000000	64.559006 
3566.000000	64.554834 
3565.000000	64.550399 
3564.000000	64.546728 
3563.000000	64.544606 
3562.000000	64.544415 
3561.000000	64.546227 
3560.000000	64.550089 
3559.000000	64.556097 
3558.000000	64.564538 
3557.000000	64.576005 
3556.000000	64.591288 
3555.000000	64.611053 
3554.000000	64.635491 
3553.000000	64.663934 
3552.000000	64.694666 
3551.000000	64.724922 
3550.000000	64.751267 
3549.000000	64.769983 
3548.000000	64.777779 
3547.000000	64.772629 
3546.000000	64.754199 
3545.000000	64.724206 
3544.000000	64.686131 
3543.000000	64.645028 
3542.000000	64.606547 
3541.000000	64.576148 
3540.000000	64.557909 
3539.000000	64.554214 
3538.000000	64.564752 
3537.000000	64.586877 
3536.000000	64.615702 
3535.000000	64.645290 
3534.000000	64.669895 
3533.000000	64.684772 
3532.000000	64.687323 
3531.000000	64.677333 
3530.000000	64.656782 
3529.000000	64.629149 
3528.000000	64.598536 
3527.000000	64.568686 
3526.000000	64.542746 
3525.000000	64.522624 
3524.000000	64.509081 
3523.000000	64.501857 
3522.000000	64.500069 
3521.000000	64.502644 
3520.000000	64.508271 
3519.000000	64.515614 
3518.000000	64.523863 
3517.000000	64.532709 
3516.000000	64.541840 
3515.000000	64.551496 
3514.000000	64.562296 
3513.000000	64.575076 
3512.000000	64.590597 
3511.000000	64.609146 
3510.000000	64.630579 
3509.000000	64.653968 
3508.000000	64.678001 
3507.000000	64.700984 
3506.000000	64.721441 
3505.000000	64.738011 
3504.000000	64.750099 
3503.000000	64.757132 
3502.000000	64.758634 
3501.000000	64.753937 
3500.000000	64.742374 
3499.000000	64.723300 
3498.000000	64.696383 
3497.000000	64.662504 
3496.000000	64.623403 
3495.000000	64.581727 
3494.000000	64.540219 
3493.000000	64.501595 
3492.000000	64.467382 
3491.000000	64.437556 
3490.000000	64.410424 
3489.000000	64.383053 
3488.000000	64.352226 
3487.000000	64.315557 
3486.000000	64.272642 
3485.000000	64.224982 
3484.000000	64.176535 
3483.000000	64.132308 
3482.000000	64.097881 
3481.000000	64.077544 
3480.000000	64.074158 
3479.000000	64.088058 
3478.000000	64.117550 
3477.000000	64.158987 
3476.000000	64.207863 
3475.000000	64.259314 
3474.000000	64.308953 
3473.000000	64.353156 
3472.000000	64.389729 
3471.000000	64.417791 
3470.000000	64.437770 
3469.000000	64.450764 
3468.000000	64.458608 
3467.000000	64.462947 
3466.000000	64.465451 
3465.000000	64.467287 
3464.000000	64.468908 
3463.000000	64.470100 
3462.000000	64.470601 
3461.000000	64.470434 
3460.000000	64.469838 
3459.000000	64.469647 
3458.000000	64.471387 
3457.000000	64.477038 
3456.000000	64.488387 
3455.000000	64.506554 
3454.000000	64.531564 
3453.000000	64.562034 
3452.000000	64.595413 
3451.000000	64.628171 
3450.000000	64.656734 
3449.000000	64.677762 
3448.000000	64.689087 
3447.000000	64.689755 
3446.000000	64.680147 
3445.000000	64.661884 
3444.000000	64.637470 
3443.000000	64.609670 
3442.000000	64.581274 
3441.000000	64.555025 
3440.000000	64.533662 
3439.000000	64.519548 
3438.000000	64.514708 
3437.000000	64.520931 
3436.000000	64.539122 
3435.000000	64.569139 
3434.000000	64.609265 
3433.000000	64.656329 
3432.000000	64.705824 
3431.000000	64.752507 
3430.000000	64.790987 
3429.000000	64.816808 
3428.000000	64.826989 
3427.000000	64.820647 
3426.000000	64.798879 
3425.000000	64.764714 
3424.000000	64.722275 
3423.000000	64.676213 
3422.000000	64.630889 
3421.000000	64.590311 
3420.000000	64.557385 
3419.000000	64.533948 
3418.000000	64.520573 
3417.000000	64.516806 
3416.000000	64.521098 
3415.000000	64.531254 
3414.000000	64.544343 
3413.000000	64.557337 
3412.000000	64.567184 
3411.000000	64.571738 
3410.000000	64.569520 
3409.000000	64.560484 
3408.000000	64.545798 
3407.000000	64.527869 
3406.000000	64.509534 
3405.000000	64.493632 
3404.000000	64.482736 
3403.000000	64.478206 
3402.000000	64.480376 
3401.000000	64.488124 
3400.000000	64.499330 
3399.000000	64.510798 
3398.000000	64.519119 
3397.000000	64.521241 
3396.000000	64.514851 
3395.000000	64.499568 
3394.000000	64.476919 
3393.000000	64.450526 
3392.000000	64.425468 
3391.000000	64.407348 
3390.000000	64.400911 
3389.000000	64.408993 
3388.000000	64.431762 
3387.000000	64.466452 
3386.000000	64.507937 
3385.000000	64.549827 
3384.000000	64.585995 
3383.000000	64.611864 
3382.000000	64.625597 
3381.000000	64.628148 
3380.000000	64.622950 
3379.000000	64.614605 
3378.000000	64.607906 
3377.000000	64.606285 
3376.000000	64.611220 
3375.000000	64.622449 
3374.000000	64.637851 
3373.000000	64.655065 
3372.000000	64.671325 
3371.000000	64.684796 
3370.000000	64.694190 
3369.000000	64.699149 
3368.000000	64.699816 
3367.000000	64.696574 
3366.000000	64.689850 
3365.000000	64.679765 
3364.000000	64.666509 
3363.000000	64.650392 
3362.000000	64.632201 
3361.000000	64.613223 
3360.000000	64.595174 
3359.000000	64.580011 
3358.000000	64.569473 
3357.000000	64.564800 
3356.000000	64.566373 
3355.000000	64.573526 
3354.000000	64.584565 
3353.000000	64.597082 
3352.000000	64.608335 
3351.000000	64.615797 
3350.000000	64.617466 
3349.000000	64.612340 
3348.000000	64.600753 
3347.000000	64.584207 
3346.000000	64.565205 
3345.000000	64.546537 
3344.000000	64.530682 
3343.000000	64.519214 
3342.000000	64.512538 
3341.000000	64.509868 
3340.000000	64.509510 
3339.000000	64.509487 
3338.000000	64.507985 
3337.000000	64.504003 
3336.000000	64.497709 
3335.000000	64.490246 
3334.000000	64.483571 
3333.000000	64.479851 
3332.000000	64.480972 
3331.000000	64.488053 
3330.000000	64.501166 
3329.000000	64.519262 
3328.000000	64.540314 
3327.000000	64.562106 
3326.000000	64.582276 
3325.000000	64.598798 
3324.000000	64.610052 
3323.000000	64.615249 
3322.000000	64.614129 
3321.000000	64.606761 
3320.000000	64.593625 
3319.000000	64.575719 
3318.000000	64.554190 
3317.000000	64.530682 
3316.000000	64.507007 
3315.000000	64.485239 
3314.000000	64.467167 
3313.000000	64.454007 
3312.000000	64.445996 
3311.000000	64.442467 
3310.000000	64.441704 
3309.000000	64.441442 
3308.000000	64.439392 
3307.000000	64.433765 
3306.000000	64.423871 
3305.000000	64.410591 
3304.000000	64.396023 
3303.000000	64.383077 
3302.000000	64.375019 
3301.000000	64.374732 
3300.000000	64.383816 
3299.000000	64.402437 
3298.000000	64.429354 
3297.000000	64.462280 
3296.000000	64.498329 
3295.000000	64.534401 
3294.000000	64.567828 
3293.000000	64.596605 
3292.000000	64.619517 
3291.000000	64.636087 
3290.000000	64.646792 
3289.000000	64.652490 
3288.000000	64.654469 
3287.000000	64.653682 
3286.000000	64.650964 
3285.000000	64.646458 
3284.000000	64.640140 
3283.000000	64.631843 
3282.000000	64.621472 
3281.000000	64.609289 
3280.000000	64.595866 
3279.000000	64.581871 
3278.000000	64.567923 
3277.000000	64.554166 
3276.000000	64.540672 
3275.000000	64.527058 
3274.000000	64.513182 
3273.000000	64.499187 
3272.000000	64.485812 
3271.000000	64.474344 
3270.000000	64.466619 
3269.000000	64.464211 
3268.000000	64.468216 
3267.000000	64.478969 
3266.000000	64.495468 
3265.000000	64.515304 
3264.000000	64.535188 
3263.000000	64.551591 
3262.000000	64.561390 
3261.000000	64.562296 
3260.000000	64.553570 
3259.000000	64.536142 
3258.000000	64.512395 
3257.000000	64.485812 
3256.000000	64.460420 
3255.000000	64.440131 
3254.000000	64.428257 
3253.000000	64.427089 
3252.000000	64.437484 
3251.000000	64.458799 
3250.000000	64.489102 
3249.000000	64.525437 
3248.000000	64.563941 
3247.000000	64.600491 
3246.000000	64.631247 
3245.000000	64.652895 
3244.000000	64.663195 
3243.000000	64.661026 
3242.000000	64.646792 
3241.000000	64.621829 
3240.000000	64.588522 
3239.000000	64.549708 
3238.000000	64.508438 
3237.000000	64.467644 
3236.000000	64.429998 
3235.000000	64.397668 
3234.000000	64.372324 
3233.000000	64.355206 
3232.000000	64.347147 
3231.000000	64.348435 
3230.000000	64.358758 
3229.000000	64.377284 
3228.000000	64.402318 
3227.000000	64.431834 
3226.000000	64.463448 
3225.000000	64.494657 
3224.000000	64.523577 
3223.000000	64.548778 
3222.000000	64.569568 
3221.000000	64.586162 
3220.000000	64.599084 
3219.000000	64.609074 
3218.000000	64.616441 
3217.000000	64.621472 
3216.000000	64.623880 
3215.000000	64.623141 
3214.000000	64.618659 
3213.000000	64.610290 
3212.000000	64.598250 
3211.000000	64.583516 
3210.000000	64.567661 
3209.000000	64.552235 
3208.000000	64.538979 
3207.000000	64.529418 
3206.000000	64.524674 
3205.000000	64.525246 
3204.000000	64.531207 
3203.000000	64.542222 
3202.000000	64.557504 
3201.000000	64.575839 
3200.000000	64.595603 
3199.000000	64.614653 
3198.000000	64.630889 
3197.000000	64.642214 
3196.000000	64.646911 
3195.000000	64.643788 
3194.000000	64.632749 
3193.000000	64.614605 
3192.000000	64.590978 
3191.000000	64.563989 
3190.000000	64.536118 
3189.000000	64.509725 
3188.000000	64.486694 
3187.000000	64.468574 
3186.000000	64.456272 
3185.000000	64.450407 
3184.000000	64.451169 
3183.000000	64.458513 
3182.000000	64.471888 
3181.000000	64.490175 
3180.000000	64.511823 
3179.000000	64.534616 
3178.000000	64.555954 
3177.000000	64.573168 
3176.000000	64.584040 
3175.000000	64.587068 
3174.000000	64.581799 
3173.000000	64.568948 
3172.000000	64.550328 
3171.000000	64.528179 
3170.000000	64.504981 
3169.000000	64.482712 
3168.000000	64.462566 
3167.000000	64.444923 
3166.000000	64.429545 
3165.000000	64.415693 
3164.000000	64.402747 
3163.000000	64.390397 
3162.000000	64.379310 
3161.000000	64.370536 
3160.000000	64.365887 
3159.000000	64.366936 
3158.000000	64.375185 
3157.000000	64.391255 
3156.000000	64.414691 
3155.000000	64.443874 
3154.000000	64.476180 
3153.000000	64.508605 
3152.000000	64.538002 
3151.000000	64.561676 
3150.000000	64.577841 
3149.000000	64.585876 
3148.000000	64.586353 
3147.000000	64.580869 
3146.000000	64.571595 
3145.000000	64.560699 
3144.000000	64.549827 
3143.000000	64.539599 
3142.000000	64.529919 
3141.000000	64.520001 
3140.000000	64.508795 
3139.000000	64.495420 
3138.000000	64.479756 
3137.000000	64.462542 
3136.000000	64.445018 
3135.000000	64.428734 
3134.000000	64.415025 
3133.000000	64.404797 
3132.000000	64.398312 
3131.000000	64.395523 
3130.000000	64.395833 
3129.000000	64.398860 
3128.000000	64.404463 
3127.000000	64.412784 
3126.000000	64.424085 
3125.000000	64.438223 
3124.000000	64.454293 
3123.000000	64.470744 
3122.000000	64.485335 
3121.000000	64.496016 
3120.000000	64.501500 
3119.000000	64.502000 
3118.000000	64.499163 
3117.000000	64.495849 
3116.000000	64.495325 
3115.000000	64.500451 
3114.000000	64.512658 
3113.000000	64.531397 
3112.000000	64.553999 
3111.000000	64.576530 
3110.000000	64.594411 
3109.000000	64.603400 
3108.000000	64.600849 
3107.000000	64.586091 
3106.000000	64.560747 
3105.000000	64.528036 
3104.000000	64.492511 
3103.000000	64.458918 
3102.000000	64.431715 
3101.000000	64.414286 
3100.000000	64.408588 
3099.000000	64.415168 
3098.000000	64.432811 
3097.000000	64.458990 
3096.000000	64.489984 
3095.000000	64.521718 
3094.000000	64.550185 
3093.000000	64.572310 
3092.000000	64.586424 
3091.000000	64.592337 
3090.000000	64.591407 
3089.000000	64.586114 
3088.000000	64.579176 
3087.000000	64.572954 
3086.000000	64.569067 
3085.000000	64.567899 
3084.000000	64.568948 
3083.000000	64.570975 
3082.000000	64.572620 
3081.000000	64.572954 
3080.000000	64.571714 
3079.000000	64.569473 
3078.000000	64.567136 
3077.000000	64.566040 
3076.000000	64.566969 
3075.000000	64.570498 
3074.000000	64.576506 
3073.000000	64.584708 
3072.000000	64.594769 
3071.000000	64.606475 
3070.000000	64.619755 
3069.000000	64.634418 
3068.000000	64.650130 
3067.000000	64.666247 
3066.000000	64.681887 
3065.000000	64.695501 
3064.000000	64.705252 
3063.000000	64.709591 
3062.000000	64.707636 
3061.000000	64.699244 
3060.000000	64.685416 
3059.000000	64.668035 
3058.000000	64.649724 
3057.000000	64.633250 
3056.000000	64.621305 
3055.000000	64.615631 
3054.000000	64.617085 
3053.000000	64.625549 
3052.000000	64.640140 
3051.000000	64.659118 
3050.000000	64.680576 
3049.000000	64.702677 
3048.000000	64.723682 
3047.000000	64.742279 
3046.000000	64.757251 
3045.000000	64.767765 
3044.000000	64.772701 
3043.000000	64.770984 
3042.000000	64.761352 
3041.000000	64.742755 
3040.000000	64.714622 
3039.000000	64.677262 
3038.000000	64.632105 
3037.000000	64.581942 
3036.000000	64.530372 
3035.000000	64.481663 
3034.000000	64.439916 
3033.000000	64.408636 
3032.000000	64.389848 
3031.000000	64.384269 
3030.000000	64.390850 
3029.000000	64.407587 
3028.000000	64.431524 
3027.000000	64.459991 
3026.000000	64.490365 
3025.000000	64.521050 
3024.000000	64.550852 
3023.000000	64.579296 
3022.000000	64.605832 
3021.000000	64.629840 
3020.000000	64.650368 
3019.000000	64.666032 
3018.000000	64.675450 
3017.000000	64.677548 
3016.000000	64.672064 
3015.000000	64.659857 
3014.000000	64.643025 
3013.000000	64.624834 
3012.000000	64.609003 
3011.000000	64.599156 
3010.000000	64.598083 
3009.000000	64.606976 
3008.000000	64.625287 
3007.000000	64.650630 
3006.000000	64.679384 
3005.000000	64.707469 
3004.000000	64.731073 
3003.000000	64.747500 
3002.000000	64.755535 
3001.000000	64.755630 
3000.000000	64.749407 
2999.000000	64.739084 
2998.000000	64.726924 
2997.000000	64.714741 
2996.000000	64.703202 
2995.000000	64.692163 
2994.000000	64.680838 
2993.000000	64.668726 
2992.000000	64.655518 
2991.000000	64.641666 
2990.000000	64.628219 
2989.000000	64.616894 
2988.000000	64.609241 
2987.000000	64.606165 
2986.000000	64.607882 
2985.000000	64.613580 
2984.000000	64.621591 
2983.000000	64.629745 
2982.000000	64.635634 
2981.000000	64.637184 
2980.000000	64.633083 
2979.000000	64.622926 
2978.000000	64.607119 
2977.000000	64.587092 
2976.000000	64.564561 
2975.000000	64.541673 
2974.000000	64.520478 
2973.000000	64.502573 
2972.000000	64.489102 
2971.000000	64.480328 
2970.000000	64.475893 
2969.000000	64.474511 
2968.000000	64.474654 
2967.000000	64.474582 
2966.000000	64.472651 
2965.000000	64.467763 
2964.000000	64.459323 
2963.000000	64.447259 
2962.000000	64.432072 
2961.000000	64.414668 
2960.000000	64.396047 
2959.000000	64.377641 
2958.000000	64.361047 
2957.000000	64.347934 
2956.000000	64.339780 
2955.000000	64.337778 
2954.000000	64.342379 
2953.000000	64.352989 
2952.000000	64.368128 
2951.000000	64.385581 
2950.000000	64.403009 
2949.000000	64.418172 
2948.000000	64.429736 
2947.000000	64.437437 
2946.000000	64.442348 
2945.000000	64.446401 
2944.000000	64.451789 
2943.000000	64.460229 
2942.000000	64.472317 
2941.000000	64.487528 
2940.000000	64.503955 
2939.000000	64.518904 
2938.000000	64.529466 
2937.000000	64.533519 
2936.000000	64.530086 
2935.000000	64.519786 
2934.000000	64.504432 
2933.000000	64.486551 
2932.000000	64.468431 
2931.000000	64.451551 
2930.000000	64.436197 
2929.000000	64.421415 
2928.000000	64.405536 
2927.000000	64.386844 
2926.000000	64.364242 
2925.000000	64.337897 
2924.000000	64.309167 
2923.000000	64.280605 
2922.000000	64.254927 
2921.000000	64.234924 
2920.000000	64.222741 
2919.000000	64.219737 
2918.000000	64.225792 
2917.000000	64.239859 
2916.000000	64.260172 
2915.000000	64.284324 
2914.000000	64.309644 
2913.000000	64.333415 
2912.000000	64.353108 
2911.000000	64.366674 
2910.000000	64.372777 
2909.000000	64.371156 
2908.000000	64.362764 
2907.000000	64.349651 
2906.000000	64.334845 
2905.000000	64.321684 
2904.000000	64.312887 
2903.000000	64.310216 
2902.000000	64.314222 
2901.000000	64.323997 
2900.000000	64.337587 
2899.000000	64.352798 
2898.000000	64.367556 
2897.000000	64.380216 
2896.000000	64.389848 
2895.000000	64.396166 
2894.000000	64.399433 
2893.000000	64.399886 
2892.000000	64.397692 
2891.000000	64.392924 
2890.000000	64.385700 
2889.000000	64.376401 
2888.000000	64.365792 
2887.000000	64.355373 
2886.000000	64.346909 
2885.000000	64.342427 
2884.000000	64.343667 
2883.000000	64.351391 
2882.000000	64.365530 
2881.000000	64.385199 
2880.000000	64.408564 
2879.000000	64.433407 
2878.000000	64.457297 
2877.000000	64.478015 
2876.000000	64.493894 
2875.000000	64.503884 
2874.000000	64.507770 
2873.000000	64.505958 
2872.000000	64.499640 
2871.000000	64.490532 
2870.000000	64.480471 
2869.000000	64.471149 
2868.000000	64.464259 
2867.000000	64.460778 
2866.000000	64.461326 
2865.000000	64.465618 
2864.000000	64.473032 
2863.000000	64.482307 
2862.000000	64.491987 
2861.000000	64.500355 
2860.000000	64.505910 
2859.000000	64.507269 
2858.000000	64.503407 
2857.000000	64.493894 
2856.000000	64.478874 
2855.000000	64.459323 
2854.000000	64.436912 
2853.000000	64.414143 
2852.000000	64.393734 
2851.000000	64.378285 
2850.000000	64.369845 
2849.000000	64.369320 
2848.000000	64.376425 
2847.000000	64.389944 
2846.000000	64.408159 
2845.000000	64.429116 
2844.000000	64.451098 
2843.000000	64.473056 
2842.000000	64.494752 
2841.000000	64.516496 
2840.000000	64.538812 
2839.000000	64.561986 
2838.000000	64.585757 
2837.000000	64.609456 
2836.000000	64.631772 
2835.000000	64.651346 
2834.000000	64.666867 
2833.000000	64.677762 
2832.000000	64.684224 
2831.000000	64.687228 
2830.000000	64.688110 
2829.000000	64.688444 
2828.000000	64.689517 
2827.000000	64.692115 
2826.000000	64.696335 
2825.000000	64.701676 
2824.000000	64.706969 
2823.000000	64.710831 
2822.000000	64.711880 
2821.000000	64.709186 
2820.000000	64.702653 
2819.000000	64.693212 
2818.000000	64.682507 
2817.000000	64.673042 
2816.000000	64.667487 
2815.000000	64.668321 
2814.000000	64.676976 
2813.000000	64.693641 
2812.000000	64.717054 
2811.000000	64.744734 
2810.000000	64.773225 
2809.000000	64.798951 
2808.000000	64.818787 
2807.000000	64.830899 
2806.000000	64.834761 
2805.000000	64.831328 
2804.000000	64.822769 
2803.000000	64.811897 
2802.000000	64.801430 
2801.000000	64.793372 
2800.000000	64.788794 
2799.000000	64.787578 
2798.000000	64.788746 
2797.000000	64.790582 
2796.000000	64.791202 
2795.000000	64.788937 
2794.000000	64.782762 
2793.000000	64.772367 
2792.000000	64.758324 
2791.000000	64.741683 
2790.000000	64.724206 
2789.000000	64.707779 
2788.000000	64.694428 
2787.000000	64.685964 
2786.000000	64.683747 
2785.000000	64.688515 
2784.000000	64.699864 
2783.000000	64.716672 
2782.000000	64.736819 
2781.000000	64.757704 
2780.000000	64.776515 
2779.000000	64.790463 
2778.000000	64.797782 
2777.000000	64.797639 
2776.000000	64.790606 
2775.000000	64.778256 
2774.000000	64.762902 
2773.000000	64.747333 
2772.000000	64.733982 
2771.000000	64.724707 
2770.000000	64.720392 
2769.000000	64.720988 
2768.000000	64.725565 
2767.000000	64.732813 
2766.000000	64.741325 
2765.000000	64.750051 
2764.000000	64.758205 
2763.000000	64.765572 
2762.000000	64.772367 
2761.000000	64.778971 
2760.000000	64.785647 
2759.000000	64.792585 
2758.000000	64.799571 
2757.000000	64.806151 
2756.000000	64.811801 
2755.000000	64.815735 
2754.000000	64.817309 
2753.000000	64.815807 
2752.000000	64.810800 
2751.000000	64.802002 
2750.000000	64.789462 
2749.000000	64.773750 
2748.000000	64.755797 
2747.000000	64.737105 
2746.000000	64.719581 
2745.000000	64.705419 
2744.000000	64.696478 
2743.000000	64.694237 
2742.000000	64.699220 
2741.000000	64.710855 
2740.000000	64.727473 
2739.000000	64.746713 
2738.000000	64.765834 
2737.000000	64.782238 
2736.000000	64.793944 
2735.000000	64.800047 
2734.000000	64.800524 
2733.000000	64.796400 
2732.000000	64.789223 
2731.000000	64.780855 
2730.000000	64.772987 
2729.000000	64.766979 
2728.000000	64.763402 
2727.000000	64.762496 
2726.000000	64.763808 
2725.000000	64.766645 
2724.000000	64.770197 
2723.000000	64.773797 
2722.000000	64.776897 
2721.000000	64.779186 
2720.000000	64.780521 
2719.000000	64.780735 
2718.000000	64.779853 
2717.000000	64.777755 
2716.000000	64.774417 
2715.000000	64.769768 
2714.000000	64.763903 
2713.000000	64.757156 
2712.000000	64.750027 
2711.000000	64.743113 
2710.000000	64.737200 
2709.000000	64.732909 
2708.000000	64.730882 
2707.000000	64.731550 
2706.000000	64.734911 
2705.000000	64.740514 
2704.000000	64.747405 
2703.000000	64.754366 
2702.000000	64.759850 
2701.000000	64.762711 
2700.000000	64.762091 
2699.000000	64.757990 
2698.000000	64.751076 
2697.000000	64.742875 
2696.000000	64.735126 
2695.000000	64.729404 
2694.000000	64.726901 
2693.000000	64.727902 
2692.000000	64.731955 
2691.000000	64.737796 
2690.000000	64.743804 
2689.000000	64.748382 
2688.000000	64.750289 
2687.000000	64.748907 
2686.000000	64.744305 
2685.000000	64.737296 
2684.000000	64.728975 
2683.000000	64.720630 
2682.000000	64.713263 
2681.000000	64.707851 
2680.000000	64.704751 
2679.000000	64.704132 
2678.000000	64.705920 
2677.000000	64.709782 
2676.000000	64.715337 
2675.000000	64.722013 
2674.000000	64.729189 
2673.000000	64.736270 
2672.000000	64.742708 
2671.000000	64.747881 
2670.000000	64.751601 
2669.000000	64.753818 
2668.000000	64.754724 
2667.000000	64.754867 
2666.000000	64.754748 
2665.000000	64.754891 
2664.000000	64.755487 
2663.000000	64.756512 
2662.000000	64.757466 
2661.000000	64.757513 
2660.000000	64.755582 
2659.000000	64.750790 
2658.000000	64.742755 
2657.000000	64.731574 
2656.000000	64.718079 
2655.000000	64.703583 
2654.000000	64.689660 
2653.000000	64.677810 
2652.000000	64.669084 
2651.000000	64.663982 
2650.000000	64.662241 
2649.000000	64.663052 
2648.000000	64.665246 
2647.000000	64.667892 
2646.000000	64.670181 
2645.000000	64.671897 
2644.000000	64.673161 
2643.000000	64.674448 
2642.000000	64.676189 
2641.000000	64.678645 
2640.000000	64.681744 
2639.000000	64.685297 
2638.000000	64.689230 
2637.000000	64.693665 
2636.000000	64.699077 
2635.000000	64.706349 
2634.000000	64.716362 
2633.000000	64.729857 
2632.000000	64.747023 
2631.000000	64.767241 
2630.000000	64.789104 
2629.000000	64.810633 
2628.000000	64.829754 
2627.000000	64.844560 
2626.000000	64.853906 
2625.000000	64.857602 
2624.000000	64.856290 
2623.000000	64.851236 
2622.000000	64.843869 
2621.000000	64.835715 
2620.000000	64.827704 
2619.000000	64.820504 
2618.000000	64.814114 
2617.000000	64.808440 
2616.000000	64.802885 
2615.000000	64.796876 
2614.000000	64.789724 
2613.000000	64.781069 
2612.000000	64.770722 
2611.000000	64.758872 
2610.000000	64.746212 
2609.000000	64.733839 
2608.000000	64.723134 
2607.000000	64.715576 
2606.000000	64.712452 
2605.000000	64.714431 
2604.000000	64.721488 
2603.000000	64.732909 
2602.000000	64.747190 
2601.000000	64.762496 
2600.000000	64.777374 
2599.000000	64.790749 
2598.000000	64.802217 
2597.000000	64.811921 
2596.000000	64.820122 
2595.000000	64.826869 
2594.000000	64.831876 
2593.000000	64.834213 
2592.000000	64.832854 
2591.000000	64.826917 
2590.000000	64.816260 
2589.000000	64.801740 
2588.000000	64.785075 
2587.000000	64.768886 
2586.000000	64.756131 
2585.000000	64.749526 
2584.000000	64.750885 
2583.000000	64.760780 
2582.000000	64.778447 
2581.000000	64.801955 
2580.000000	64.828610 
2579.000000	64.855265 
2578.000000	64.878964 
2577.000000	64.897036 
2576.000000	64.907741 
2575.000000	64.910054 
2574.000000	64.903974 
2573.000000	64.890599 
2572.000000	64.872050 
2571.000000	64.851307 
2570.000000	64.831471 
2569.000000	64.815592 
2568.000000	64.805626 
2567.000000	64.802455 
2566.000000	64.805340 
2565.000000	64.812493 
2564.000000	64.821577 
2563.000000	64.830136 
2562.000000	64.836454 
2561.000000	64.839863 
2560.000000	64.840793 
2559.000000	64.840579 
2558.000000	64.840984 
2557.000000	64.843511 
2556.000000	64.848852 
2555.000000	64.856553 
2554.000000	64.864897 
2553.000000	64.871239 
2552.000000	64.872598 
2551.000000	64.866590 
2550.000000	64.852023 
2549.000000	64.829325 
2548.000000	64.800620 
2547.000000	64.769053 
2546.000000	64.738345 
2545.000000	64.711952 
2544.000000	64.692258 
2543.000000	64.680147 
2542.000000	64.675068 
2541.000000	64.675450 
2540.000000	64.679169 
2539.000000	64.684271 
2538.000000	64.689207 
2537.000000	64.693450 
2536.000000	64.697051 
2535.000000	64.700770 
2534.000000	64.705395 
2533.000000	64.711570 
2532.000000	64.719510 
2531.000000	64.729046 
2530.000000	64.739608 
2529.000000	64.750456 
2528.000000	64.760971 
2527.000000	64.770698 
2526.000000	64.779472 
2525.000000	64.787340 
2524.000000	64.794373 
2523.000000	64.800500 
2522.000000	64.805245 
2521.000000	64.807963 
2520.000000	64.808034 
2519.000000	64.805030 
2518.000000	64.798998 
2517.000000	64.790606 
2516.000000	64.781045 
2515.000000	64.771699 
2514.000000	64.763927 
2513.000000	64.758849 
2512.000000	64.757061 
2511.000000	64.758515 
2510.000000	64.762663 
2509.000000	64.768767 
2508.000000	64.775681 
2507.000000	64.782595 
2506.000000	64.788508 
2505.000000	64.792871 
2504.000000	64.795184 
2503.000000	64.795017 
2502.000000	64.792323 
2501.000000	64.787364 
2500.000000	64.780950 
2499.000000	64.774322 
2498.000000	64.768981 
2497.000000	64.766502 
2496.000000	64.767837 
2495.000000	64.773273 
2494.000000	64.781928 
2493.000000	64.791893 
2492.000000	64.800858 
2491.000000	64.806437 
2490.000000	64.806842 
2489.000000	64.801406 
2488.000000	64.790463 
2487.000000	64.775609 
2486.000000	64.758777 
2485.000000	64.742231 
2484.000000	64.727854 
2483.000000	64.717125 
2482.000000	64.710736 
2481.000000	64.709043 
2480.000000	64.712166 
2479.000000	64.720225 
2478.000000	64.733266 
2477.000000	64.751362 
2476.000000	64.774107 
2475.000000	64.800572 
2474.000000	64.828968 
2473.000000	64.856910 
2472.000000	64.881634 
2471.000000	64.900469 
2470.000000	64.911603 
2469.000000	64.914083 
2468.000000	64.908027 
2467.000000	64.894986 
2466.000000	64.877295 
2465.000000	64.857840 
2464.000000	64.839172 
2463.000000	64.823603 
2462.000000	64.812397 
2461.000000	64.805984 
2460.000000	64.803576 
2459.000000	64.803886 
2458.000000	64.805173 
2457.000000	64.805793 
2456.000000	64.804601 
2455.000000	64.800930 
2454.000000	64.794826 
2453.000000	64.786887 
2452.000000	64.778041 
2451.000000	64.769291 
2450.000000	64.761519 
2449.000000	64.755392 
2448.000000	64.751434 
2447.000000	64.749741 
2446.000000	64.750552 
2445.000000	64.754128 
2444.000000	64.760780 
2443.000000	64.770841 
2442.000000	64.784359 
2441.000000	64.801096 
2440.000000	64.820241 
2439.000000	64.840364 
2438.000000	64.859819 
2437.000000	64.876961 
2436.000000	64.890336 
2435.000000	64.899158 
2434.000000	64.903426 
2433.000000	64.903831 
2432.000000	64.901733 
2431.000000	64.898443 
2430.000000	64.895462 
2429.000000	64.893317 
2428.000000	64.892125 
2427.000000	64.891242 
2426.000000	64.889669 
2425.000000	64.886283 
2424.000000	64.880275 
2423.000000	64.871263 
2422.000000	64.859509 
2421.000000	64.845919 
2420.000000	64.831805 
2419.000000	64.818716 
2418.000000	64.808082 
2417.000000	64.801144 
2416.000000	64.798736 
2415.000000	64.801263 
2414.000000	64.808511 
2413.000000	64.819908 
2412.000000	64.834475 
2411.000000	64.850878 
2410.000000	64.867568 
2409.000000	64.883041 
2408.000000	64.895868 
2407.000000	64.904808 
2406.000000	64.908981 
2405.000000	64.907932 
2404.000000	64.901494 
2403.000000	64.890122 
2402.000000	64.874434 
2401.000000	64.855432 
2400.000000	64.834189 
2399.000000	64.811635 
2398.000000	64.788818 
2397.000000	64.766669 
2396.000000	64.746189 
2395.000000	64.728403 
2394.000000	64.714288 
2393.000000	64.704656 
2392.000000	64.699983 
2391.000000	64.700126 
2390.000000	64.704442 
2389.000000	64.711785 
2388.000000	64.720916 
2387.000000	64.730930 
2386.000000	64.741301 
2385.000000	64.752149 
2384.000000	64.764118 
2383.000000	64.777946 
2382.000000	64.794111 
2381.000000	64.812207 
2380.000000	64.831113 
2379.000000	64.848947 
2378.000000	64.863371 
2377.000000	64.872193 
2376.000000	64.874219 
2375.000000	64.869260 
2374.000000	64.858555 
2373.000000	64.844298 
2372.000000	64.829087 
2371.000000	64.815354 
2370.000000	64.804911 
2369.000000	64.798617 
2368.000000	64.796328 
2367.000000	64.797139 
2366.000000	64.800047 
2365.000000	64.803791 
2364.000000	64.807248 
2363.000000	64.809441 
2362.000000	64.809560 
2361.000000	64.806866 
2360.000000	64.800715 
2359.000000	64.790582 
2358.000000	64.776229 
2357.000000	64.758038 
2356.000000	64.737129 
2355.000000	64.715099 
2354.000000	64.693975 
2353.000000	64.675998 
2352.000000	64.662933 
2351.000000	64.655876 
2350.000000	64.655017 
2349.000000	64.659738 
2348.000000	64.668846 
2347.000000	64.680767 
2346.000000	64.694166 
2345.000000	64.707827 
2344.000000	64.721322 
2343.000000	64.734435 
2342.000000	64.747428 
2341.000000	64.760684 
2340.000000	64.774370 
2339.000000	64.788532 
2338.000000	64.802670 
2337.000000	64.815831 
2336.000000	64.826726 
2335.000000	64.833974 
2334.000000	64.836430 
2333.000000	64.833259 
2332.000000	64.824295 
2331.000000	64.810132 
2330.000000	64.792108 
2329.000000	64.772057 
2328.000000	64.752268 
2327.000000	64.734983 
2326.000000	64.722228 
2325.000000	64.715337 
2324.000000	64.715123 
2323.000000	64.721584 
2322.000000	64.734029 
2321.000000	64.751315 
2320.000000	64.771914 
2319.000000	64.794158 
2318.000000	64.816236 
2317.000000	64.836525 
2316.000000	64.853453 
2315.000000	64.865875 
2314.000000	64.873242 
2313.000000	64.875531 
2312.000000	64.873290 
2311.000000	64.867758 
2310.000000	64.860534 
2309.000000	64.853262 
2308.000000	64.847326 
2307.000000	64.843678 
2306.000000	64.842629 
2305.000000	64.843702 
2304.000000	64.845895 
2303.000000	64.847946 
2302.000000	64.848589 
2301.000000	64.847064 
2300.000000	64.842987 
2299.000000	64.836740 
2298.000000	64.829063 
2297.000000	64.820957 
2296.000000	64.813637 
2295.000000	64.807868 
2294.000000	64.803981 
2293.000000	64.801907 
2292.000000	64.801120 
2291.000000	64.800977 
2290.000000	64.800739 
2289.000000	64.799880 
2288.000000	64.798140 
2287.000000	64.795780 
2286.000000	64.793276 
2285.000000	64.791059 
2284.000000	64.789438 
2283.000000	64.788460 
2282.000000	64.787721 
2281.000000	64.786577 
2280.000000	64.784193 
2279.000000	64.779853 
2278.000000	64.773321 
2277.000000	64.764833 
2276.000000	64.755296 
2275.000000	64.746093 
2274.000000	64.738678 
2273.000000	64.734578 
2272.000000	64.734816 
2271.000000	64.739871 
2270.000000	64.749479 
2269.000000	64.762592 
2268.000000	64.777874 
2267.000000	64.793705 
2266.000000	64.808440 
2265.000000	64.820599 
2264.000000	64.828920 
2263.000000	64.832592 
2262.000000	64.831185 
2261.000000	64.824819 
2260.000000	64.813995 
2259.000000	64.799880 
2258.000000	64.784073 
2257.000000	64.768457 
2256.000000	64.754915 
2255.000000	64.745283 
2254.000000	64.740824 
2253.000000	64.742136 
2252.000000	64.749050 
2251.000000	64.760684 
2250.000000	64.775586 
2249.000000	64.791870 
2248.000000	64.807534 
2247.000000	64.820909 
2246.000000	64.830589 
2245.000000	64.835643 
2244.000000	64.835548 
2243.000000	64.830422 
2242.000000	64.820671 
2241.000000	64.807176 
2240.000000	64.791059 
2239.000000	64.773654 
2238.000000	64.756250 
2237.000000	64.740061 
2236.000000	64.725995 
2235.000000	64.714622 
2234.000000	64.706158 
2233.000000	64.700627 
2232.000000	64.697885 
2231.000000	64.697623 
2230.000000	64.699363 
2229.000000	64.702534 
2228.000000	64.706540 
2227.000000	64.710640 
2226.000000	64.714217 
2225.000000	64.716839 
2224.000000	64.718341 
2223.000000	64.719009 
2222.000000	64.719629 
2221.000000	64.721274 
2220.000000	64.725112 
2219.000000	64.732074 
2218.000000	64.742445 
2217.000000	64.755702 
2216.000000	64.770579 
2215.000000	64.785361 
2214.000000	64.798212 
2213.000000	64.807701 
2212.000000	64.813232 
2211.000000	64.814901 
2210.000000	64.813566 
2209.000000	64.810419 
2208.000000	64.806771 
2207.000000	64.803481 
2206.000000	64.800858 
2205.000000	64.798593 
2204.000000	64.796233 
2203.000000	64.793157 
2202.000000	64.788746 
2201.000000	64.782762 
2200.000000	64.775323 
2199.000000	64.766645 
2198.000000	64.756989 
2197.000000	64.746499 
2196.000000	64.735078 
2195.000000	64.722776 
2194.000000	64.709711 
2193.000000	64.696335 
2192.000000	64.683437 
2191.000000	64.671874 
2190.000000	64.662766 
2189.000000	64.656639 
2188.000000	64.653897 
2187.000000	64.654445 
2186.000000	64.657974 
2185.000000	64.663815 
2184.000000	64.671516 
2183.000000	64.680671 
2182.000000	64.691281 
2181.000000	64.703416 
2180.000000	64.717435 
2179.000000	64.733433 
2178.000000	64.751386 
2177.000000	64.770627 
2176.000000	64.790153 
2175.000000	64.808487 
2174.000000	64.823913 
2173.000000	64.834928 
2172.000000	64.840102 
2171.000000	64.838624 
2170.000000	64.830398 
2169.000000	64.816427 
2168.000000	64.798426 
2167.000000	64.778780 
2166.000000	64.760255 
2165.000000	64.745378 
2164.000000	64.735770 
2163.000000	64.732050 
2162.000000	64.733362 
2161.000000	64.738011 
2160.000000	64.743947 
2159.000000	64.749288 
2158.000000	64.752769 
2157.000000	64.754247 
2156.000000	64.754486 
2155.000000	64.754748 
2154.000000	64.756250 
2153.000000	64.759469 
2152.000000	64.764046 
2151.000000	64.768695 
2150.000000	64.771413 
2149.000000	64.770388 
2148.000000	64.764690 
2147.000000	64.754748 
2146.000000	64.742469 
2145.000000	64.730930 
2144.000000	64.723801 
2143.000000	64.724206 
2142.000000	64.733743 
2141.000000	64.752125 
2140.000000	64.776897 
2139.000000	64.804053 
2138.000000	64.828658 
2137.000000	64.846181 
2136.000000	64.853167 
2135.000000	64.848327 
2134.000000	64.832472 
2133.000000	64.808011 
2132.000000	64.778423 
2131.000000	64.747548 
2130.000000	64.718508 
2129.000000	64.693212 
2128.000000	64.672136 
2127.000000	64.654755 
2126.000000	64.639711 
2125.000000	64.625740 
2124.000000	64.611768 
2123.000000	64.597558 
2122.000000	64.583587 
2121.000000	64.570784 
2120.000000	64.560294 
2119.000000	64.552998 
2118.000000	64.549422 
2117.000000	64.549636 
2116.000000	64.553308 
2115.000000	64.559936 
2114.000000	64.568901 
2113.000000	64.579772 
2112.000000	64.592218 
2111.000000	64.606285 
2110.000000	64.622020 
2109.000000	64.639592 
2108.000000	64.658856 
2107.000000	64.679527 
2106.000000	64.701128 
2105.000000	64.722824 
2104.000000	64.743709 
2103.000000	64.762616 
2102.000000	64.778351 
2101.000000	64.790010 
2100.000000	64.797043 
2099.000000	64.799213 
2098.000000	64.796686 
2097.000000	64.790272 
2096.000000	64.781165 
2095.000000	64.770817 
2094.000000	64.760565 
2093.000000	64.751672 
2092.000000	64.745020 
2091.000000	64.741158 
2090.000000	64.740204 
2089.000000	64.742112 
2088.000000	64.746356 
2087.000000	64.752244 
2086.000000	64.758753 
2085.000000	64.764595 
2084.000000	64.768385 
2083.000000	64.768791 
2082.000000	64.764881 
2081.000000	64.755964 
2080.000000	64.742016 
2079.000000	64.723825 
2078.000000	64.702606 
2077.000000	64.680027 
2076.000000	64.657878 
2075.000000	64.637899 
2074.000000	64.621353 
2073.000000	64.608907 
2072.000000	64.600706 
2071.000000	64.596509 
2070.000000	64.595675 
2069.000000	64.597296 
2068.000000	64.600300 
2067.000000	64.603686 
2066.000000	64.606404 
2065.000000	64.607453 
2064.000000	64.606189 
2063.000000	64.602303 
2062.000000	64.595985 
2061.000000	64.587950 
2060.000000	64.579176 
2059.000000	64.570736 
2058.000000	64.563584 
2057.000000	64.558315 
2056.000000	64.555001 
2055.000000	64.553308 
2054.000000	64.552497 
2053.000000	64.552021 
2052.000000	64.551615 
2051.000000	64.551520 
2050.000000	64.552545 
2049.000000	64.555835 
2048.000000	64.562535 
2047.000000	64.573359 
2046.000000	64.588260 
2045.000000	64.606189 
2044.000000	64.625167 
2043.000000	64.642643 
2042.000000	64.656162 
2041.000000	64.663529 
2040.000000	64.663624 
2039.000000	64.656376 
2038.000000	64.642858 
2037.000000	64.625024 
2036.000000	64.605307 
2035.000000	64.586043 
2034.000000	64.569258 
2033.000000	64.556241 
2032.000000	64.547562 
2031.000000	64.543199 
2030.000000	64.542675 
2029.000000	64.545297 
2028.000000	64.550280 
2027.000000	64.556765 
2026.000000	64.564085 
2025.000000	64.571237 
2024.000000	64.577627 
2023.000000	64.582371 
2022.000000	64.585065 
2021.000000	64.585638 
2020.000000	64.584445 
2019.000000	64.582252 
2018.000000	64.580082 
2017.000000	64.578986 
2016.000000	64.579796 
2015.000000	64.582824 
2014.000000	64.587998 
2013.000000	64.594817 
2012.000000	64.602637 
2011.000000	64.610815 
2010.000000	64.618945 
2009.000000	64.626765 
2008.000000	64.634275 
2007.000000	64.641594 
2006.000000	64.648723 
2005.000000	64.655566 
2004.000000	64.661788 
2003.000000	64.666962 
2002.000000	64.670777 
2001.000000	64.672851 
2000.000000	64.673328 
1999.000000	64.672398 
1998.000000	64.670443 
1997.000000	64.667534 
1996.000000	64.663696 
1995.000000	64.658570 
1994.000000	64.651751 
1993.000000	64.642882 
1992.000000	64.632105 
1991.000000	64.620137 
1990.000000	64.608359 
1989.000000	64.598774 
1988.000000	64.593386 
1987.000000	64.594006 
1986.000000	64.601516 
1985.000000	64.615654 
1984.000000	64.635014 
1983.000000	64.657306 
1982.000000	64.679694 
1981.000000	64.699482 
1980.000000	64.714598 
1979.000000	64.724087 
1978.000000	64.727878 
1977.000000	64.726853 
1976.000000	64.722299 
1975.000000	64.715671 
1974.000000	64.708042 
1973.000000	64.700150 
1972.000000	64.692068 
1971.000000	64.683699 
1970.000000	64.674687 
1969.000000	64.665055 
1968.000000	64.654755 
1967.000000	64.644312 
1966.000000	64.634203 
1965.000000	64.624810 
1964.000000	64.616584 
1963.000000	64.609766 
1962.000000	64.604687 
1961.000000	64.601564 
1960.000000	64.600825 
1959.000000	64.603018 
1958.000000	64.608597 
1957.000000	64.617705 
1956.000000	64.630007 
1955.000000	64.644551 
1954.000000	64.659643 
1953.000000	64.673113 
1952.000000	64.682674 
1951.000000	64.686536 
1950.000000	64.683699 
1949.000000	64.674282 
1948.000000	64.659786 
1947.000000	64.642620 
1946.000000	64.625597 
1945.000000	64.611268 
1944.000000	64.601492 
1943.000000	64.596939 
1942.000000	64.597082 
1941.000000	64.600443 
1940.000000	64.605045 
1939.000000	64.608955 
1938.000000	64.610815 
1937.000000	64.610195 
1936.000000	64.607453 
1935.000000	64.603400 
1934.000000	64.599084 
1933.000000	64.595127 
1932.000000	64.591503 
1931.000000	64.587545 
1930.000000	64.582300 
1929.000000	64.575076 
1928.000000	64.565730 
1927.000000	64.554929 
1926.000000	64.543843 
1925.000000	64.534139 
1924.000000	64.527010 
1923.000000	64.522814 
1922.000000	64.520764 
1921.000000	64.519095 
1920.000000	64.515638 
1919.000000	64.508342 
1918.000000	64.496207 
1917.000000	64.479660 
1916.000000	64.460611 
1915.000000	64.442086 
1914.000000	64.427781 
1913.000000	64.420533 
1912.000000	64.422225 
1911.000000	64.432811 
1910.000000	64.450812 
1909.000000	64.473628 
1908.000000	64.498162 
1907.000000	64.521741 
1906.000000	64.542293 
1905.000000	64.558720 
1904.000000	64.570736 
1903.000000	64.578390 
1902.000000	64.581894 
1901.000000	64.581203 
1900.000000	64.576172 
1899.000000	64.566564 
1898.000000	64.552474 
1897.000000	64.534354 
1896.000000	64.513468 
1895.000000	64.491748 
1894.000000	64.471650 
1893.000000	64.455628 
1892.000000	64.445877 
1891.000000	64.443588 
1890.000000	64.449071 
1889.000000	64.461231 
1888.000000	64.478063 
1887.000000	64.496827 
1886.000000	64.514517 
1885.000000	64.528393 
1884.000000	64.536356 
1883.000000	64.537453 
1882.000000	64.531707 
1881.000000	64.520525 
1880.000000	64.506077 
1879.000000	64.490985 
1878.000000	64.477753 
1877.000000	64.468431 
1876.000000	64.464044 
1875.000000	64.464712 
1874.000000	64.469647 
1873.000000	64.477276 
1872.000000	64.485716 
1871.000000	64.493107 
1870.000000	64.498090 
1869.000000	64.499950 
1868.000000	64.498782 
1867.000000	64.495182 
1866.000000	64.490222 
1865.000000	64.485096 
1864.000000	64.480900 
1863.000000	64.478206 
1862.000000	64.477300 
1861.000000	64.477944 
1860.000000	64.479613 
1859.000000	64.481639 
1858.000000	64.483356 
1857.000000	64.484262 
1856.000000	64.484143 
1855.000000	64.483070 
1854.000000	64.481329 
1853.000000	64.479112 
1852.000000	64.476609 
1851.000000	64.473748 
1850.000000	64.470291 
1849.000000	64.465904 
1848.000000	64.460563 
1847.000000	64.454770 
1846.000000	64.449501 
1845.000000	64.446234 
1844.000000	64.446544 
1843.000000	64.451956 
1842.000000	64.463067 
1841.000000	64.479660 
1840.000000	64.500260 
1839.000000	64.522624 
1838.000000	64.543843 
1837.000000	64.561152 
1836.000000	64.572358 
1835.000000	64.576172 
1834.000000	64.572668 
1833.000000	64.562773 
1832.000000	64.548039 
1831.000000	64.530277 
1830.000000	64.511203 
1829.000000	64.492225 
1828.000000	64.474368 
1827.000000	64.458322 
1826.000000	64.444708 
1825.000000	64.434075 
1824.000000	64.426779 
1823.000000	64.422965 
1822.000000	64.422488 
1821.000000	64.424681 
1820.000000	64.428520 
1819.000000	64.432621 
1818.000000	64.435625 
1817.000000	64.436483 
1816.000000	64.434719 
1815.000000	64.430618 
1814.000000	64.425086 
1813.000000	64.419531 
1812.000000	64.415454 
1811.000000	64.414072 
1810.000000	64.416098 
1809.000000	64.421677 
1808.000000	64.430308 
1807.000000	64.441037 
1806.000000	64.452528 
1805.000000	64.463639 
1804.000000	64.473128 
1803.000000	64.480113 
1802.000000	64.483976 
1801.000000	64.484405 
1800.000000	64.481520 
1799.000000	64.475679 
1798.000000	64.467597 
1797.000000	64.458155 
1796.000000	64.448499 
1795.000000	64.439773 
1794.000000	64.433193 
1793.000000	64.429759 
1792.000000	64.430284 
1791.000000	64.434957 
1790.000000	64.443540 
1789.000000	64.455103 
1788.000000	64.468288 
1787.000000	64.481353 
1786.000000	64.492440 
1785.000000	64.499878 
1784.000000	64.502334 
1783.000000	64.499068 
1782.000000	64.490079 
1781.000000	64.476156 
1780.000000	64.458727 
1779.000000	64.439725 
1778.000000	64.421272 
1777.000000	64.405417 
1776.000000	64.393973 
1775.000000	64.387822 
1774.000000	64.387083 
1773.000000	64.390897 
1772.000000	64.397644 
1771.000000	64.405322 
1770.000000	64.411783 
1769.000000	64.415144 
1768.000000	64.414048 
1767.000000	64.408111 
1766.000000	64.397835 
1765.000000	64.384365 
1764.000000	64.369201 
1763.000000	64.354062 
1762.000000	64.340472 
1761.000000	64.329457 
1760.000000	64.321446 
1759.000000	64.316129 
1758.000000	64.312648 
1757.000000	64.309716 
1756.000000	64.305877 
1755.000000	64.299917 
1754.000000	64.291071 
1753.000000	64.279150 
1752.000000	64.264893 
1751.000000	64.249563 
1750.000000	64.235067 
1749.000000	64.223337 
1748.000000	64.216327 
1747.000000	64.215207 
1746.000000	64.220309 
1745.000000	64.230895 
1744.000000	64.245104 
1743.000000	64.260101 
1742.000000	64.272618 
1741.000000	64.279580 
1740.000000	64.278674 
1739.000000	64.268922 
1738.000000	64.250802 
1737.000000	64.226365 
1736.000000	64.198589 
1735.000000	64.171051 
1734.000000	64.147305 
1733.000000	64.130067 
1732.000000	64.121103 
1731.000000	64.120793 
1730.000000	64.128613 
1729.000000	64.142990 
1728.000000	64.161658 
1727.000000	64.181971 
1726.000000	64.201307 
1725.000000	64.217424 
1724.000000	64.228510 
1723.000000	64.233756 
1722.000000	64.233064 
1721.000000	64.227557 
1720.000000	64.219236 
1719.000000	64.210796 
1718.000000	64.205074 
1717.000000	64.204263 
1716.000000	64.209532 
1715.000000	64.220690 
1714.000000	64.236259 
1713.000000	64.253711 
1712.000000	64.270257 
1711.000000	64.283323 
1710.000000	64.291477 
1709.000000	64.294505 
1708.000000	64.293503 
1707.000000	64.290380 
1706.000000	64.287400 
1705.000000	64.286565 
1704.000000	64.288997 
1703.000000	64.294981 
1702.000000	64.303517 
1701.000000	64.313101 
1700.000000	64.321565 
1699.000000	64.327073 
1698.000000	64.328026 
1697.000000	64.323711 
1696.000000	64.314198 
1695.000000	64.300251 
1694.000000	64.283490 
1693.000000	64.266014 
1692.000000	64.250230 
1691.000000	64.238500 
1690.000000	64.232754 
1689.000000	64.234089 
1688.000000	64.242482 
1687.000000	64.256739 
1686.000000	64.274668 
1685.000000	64.293456 
1684.000000	64.309978 
1683.000000	64.321708 
1682.000000	64.327001 
1681.000000	64.325451 
1680.000000	64.317774 
1679.000000	64.305853 
1678.000000	64.292192 
1677.000000	64.279246 
1676.000000	64.269042 
1675.000000	64.262771 
1674.000000	64.260745 
1673.000000	64.262247 
1672.000000	64.266204 
1671.000000	64.271140 
1670.000000	64.275813 
1669.000000	64.279270 
1668.000000	64.280891 
1667.000000	64.280629 
1666.000000	64.278697 
1665.000000	64.275693 
1664.000000	64.272189 
1663.000000	64.268708 
1662.000000	64.265608 
1661.000000	64.263105 
1660.000000	64.261364 
1659.000000	64.260411 
1658.000000	64.259982 
1657.000000	64.259719 
1656.000000	64.259171 
1655.000000	64.257812 
1654.000000	64.255166 
1653.000000	64.250731 
1652.000000	64.244413 
1651.000000	64.236426 
1650.000000	64.227271 
1649.000000	64.217877 
1648.000000	64.209198 
1647.000000	64.202380 
1646.000000	64.198064 
1645.000000	64.196586 
1644.000000	64.197540 
1643.000000	64.200043 
1642.000000	64.202690 
1641.000000	64.204025 
1640.000000	64.202928 
1639.000000	64.199137 
1638.000000	64.193415 
1637.000000	64.187216 
1636.000000	64.182782 
1635.000000	64.182615 
1634.000000	64.188694 
1633.000000	64.201855 
1632.000000	64.221739 
1631.000000	64.246606 
1630.000000	64.273786 
1629.000000	64.300060 
1628.000000	64.322423 
1627.000000	64.338684 
1626.000000	64.347815 
1625.000000	64.350056 
1624.000000	64.346837 
1623.000000	64.340066 
1622.000000	64.331722 
1621.000000	64.323258 
1620.000000	64.315366 
1619.000000	64.307808 
1618.000000	64.299798 
1617.000000	64.290308 
1616.000000	64.278841 
1615.000000	64.265441 
1614.000000	64.251017 
1613.000000	64.236783 
1612.000000	64.224052 
1611.000000	64.213585 
1610.000000	64.205336 
1609.000000	64.198565 
1608.000000	64.192008 
1607.000000	64.184260 
1606.000000	64.174342 
1605.000000	64.162158 
1604.000000	64.148616 
1603.000000	64.135265 
1602.000000	64.124011 
1601.000000	64.116382 
1600.000000	64.113283 
1599.000000	64.114451 
1598.000000	64.118599 
1597.000000	64.123964 
1596.000000	64.128518 
1595.000000	64.130520 
1594.000000	64.128994 
1593.000000	64.123415 
1592.000000	64.114093 
1591.000000	64.101743 
1590.000000	64.087367 
1589.000000	64.072084 
1588.000000	64.056992 
1587.000000	64.043354 
1586.000000	64.032077 
1585.000000	64.023780 
1584.000000	64.018702 
1583.000000	64.016580 
1582.000000	64.016795 
1581.000000	64.018368 
1580.000000	64.020228 
1579.000000	64.021372 
1578.000000	64.021205 
1577.000000	64.019680 
1576.000000	64.017200 
1575.000000	64.014434 
1574.000000	64.012169 
1573.000000	64.011073 
1572.000000	64.011478 
1571.000000	64.013266 
1570.000000	64.016151 
1569.000000	64.019703 
1568.000000	64.023828 
1567.000000	64.028739 
1566.000000	64.034843 
1565.000000	64.042758 
1564.000000	64.053058 
1563.000000	64.065909 
1562.000000	64.081096 
1561.000000	64.097952 
1560.000000	64.115428 
1559.000000	64.132308 
1558.000000	64.147424 
1557.000000	64.159870 
1556.000000	64.169216 
1555.000000	64.175271 
1554.000000	64.178037 
1553.000000	64.177560 
1552.000000	64.173793 
1551.000000	64.166378 
1550.000000	64.155006 
1549.000000	64.139461 
1548.000000	64.119982 
1547.000000	64.097452 
1546.000000	64.073729 
1545.000000	64.051103 
1544.000000	64.032363 
1543.000000	64.019870 
1542.000000	64.015388 
1541.000000	64.019417 
1540.000000	64.031338 
1539.000000	64.049291 
1538.000000	64.070725 
1537.000000	64.092803 
1536.000000	64.112877 
1535.000000	64.128947 
1534.000000	64.139819 
1533.000000	64.145183 
1532.000000	64.145541 
1531.000000	64.142036 
1530.000000	64.136099 
1529.000000	64.129137 
1528.000000	64.122438 
1527.000000	64.116787 
1526.000000	64.112544 
1525.000000	64.109778 
1524.000000	64.108324 
1523.000000	64.107966 
1522.000000	64.108633 
1521.000000	64.110279 
1520.000000	64.113163 
1519.000000	64.117527 
1518.000000	64.123487 
1517.000000	64.130806 
1516.000000	64.138746 
1515.000000	64.145946 
1514.000000	64.150881 
1513.000000	64.152145 
1512.000000	64.148950 
1511.000000	64.141201 
1510.000000	64.129757 
1509.000000	64.116430 
1508.000000	64.103412 
1507.000000	64.093089 
1506.000000	64.087367 
1505.000000	64.087700 
1504.000000	64.095020 
1503.000000	64.109492 
1502.000000	64.130663 
1501.000000	64.157462 
1500.000000	64.188098 
1499.000000	64.220023 
1498.000000	64.250159 
1497.000000	64.274859 
1496.000000	64.290618 
1495.000000	64.294528 
1494.000000	64.285206 
1493.000000	64.263272 
1492.000000	64.231514 
1491.000000	64.194607 
1490.000000	64.158105 
1489.000000	64.127254 
1488.000000	64.105796 
1487.000000	64.095211 
1486.000000	64.094638 
1485.000000	64.101457 
1484.000000	64.112091 
1483.000000	64.123129 
1482.000000	64.132118 
1481.000000	64.138054 
1480.000000	64.141392 
1479.000000	64.143133 
1478.000000	64.144825 
1477.000000	64.147686 
1476.000000	64.152359 
1475.000000	64.158773 
1474.000000	64.166140 
1473.000000	64.173507 
1472.000000	64.179921 
1471.000000	64.184880 
1470.000000	64.188337 
1469.000000	64.190697 
1468.000000	64.192485 
1467.000000	64.194178 
1466.000000	64.195942 
1465.000000	64.197611 
1464.000000	64.198780 
1463.000000	64.199113 
1462.000000	64.198422 
1461.000000	64.196825 
1460.000000	64.194893 
1459.000000	64.193320 
1458.000000	64.192461 
1457.000000	64.192199 
1456.000000	64.191865 
1455.000000	64.190530 
1454.000000	64.187049 
1453.000000	64.180731 
1452.000000	64.171457 
1451.000000	64.160013 
1450.000000	64.148020 
1449.000000	64.137458 
1448.000000	64.130139 
1447.000000	64.127397 
1446.000000	64.129638 
1445.000000	64.136314 
1444.000000	64.146161 
1443.000000	64.157509 
1442.000000	64.169025 
1441.000000	64.179682 
1440.000000	64.189267 
1439.000000	64.198207 
1438.000000	64.207291 
1437.000000	64.217472 
1436.000000	64.229202 
1435.000000	64.242720 
1434.000000	64.257359 
1433.000000	64.272403 
1432.000000	64.286446 
1431.000000	64.298176 
1430.000000	64.306259 
1429.000000	64.309692 
1428.000000	64.307618 
1427.000000	64.299654 
1426.000000	64.285850 
1425.000000	64.266800 
1424.000000	64.243674 
1423.000000	64.218211 
1422.000000	64.192390 
1421.000000	64.168238 
1420.000000	64.147305 
1419.000000	64.130520 
1418.000000	64.117813 
1417.000000	64.108395 
1416.000000	64.100980 
1415.000000	64.094376 
1414.000000	64.087700 
1413.000000	64.080905 
1412.000000	64.074587 
1411.000000	64.069962 
1410.000000	64.068078 
1409.000000	64.069652 
1408.000000	64.074373 
1407.000000	64.081192 
1406.000000	64.088320 
1405.000000	64.093971 
1404.000000	64.096832 
1403.000000	64.096522 
1402.000000	64.093852 
1401.000000	64.090394 
1400.000000	64.087867 
1399.000000	64.087677 
1398.000000	64.090156 
1397.000000	64.094805 
1396.000000	64.100456 
1395.000000	64.105701 
1394.000000	64.109563 
1393.000000	64.111733 
1392.000000	64.112663 
1391.000000	64.113211 
1390.000000	64.114379 
1389.000000	64.116740 
1388.000000	64.120173 
1387.000000	64.123940 
1386.000000	64.126920 
1385.000000	64.128232 
1384.000000	64.127731 
1383.000000	64.126229 
1382.000000	64.125251 
1381.000000	64.126873 
1380.000000	64.133000 
1379.000000	64.144635 
1378.000000	64.161705 
1377.000000	64.182949 
1376.000000	64.206409 
1375.000000	64.229702 
1374.000000	64.250588 
1373.000000	64.267659 
1372.000000	64.280223 
1371.000000	64.288449 
1370.000000	64.292931 
1369.000000	64.294457 
1368.000000	64.293646 
1367.000000	64.290881 
1366.000000	64.286255 
1365.000000	64.279627 
1364.000000	64.270949 
1363.000000	64.260339 
1362.000000	64.248061 
1361.000000	64.234614 
1360.000000	64.220356 
1359.000000	64.205646 
1358.000000	64.190602 
1357.000000	64.175415 
1356.000000	64.160227 
1355.000000	64.145445 
1354.000000	64.131569 
1353.000000	64.119410 
1352.000000	64.109706 
1351.000000	64.103031 
1350.000000	64.099526 
1349.000000	64.098882 
1348.000000	64.100217 
1347.000000	64.102458 
1346.000000	64.104390 
1345.000000	64.105319 
1344.000000	64.104914 
1343.000000	64.103603 
1342.000000	64.102387 
1341.000000	64.102506 
1340.000000	64.104938 
1339.000000	64.110088 
1338.000000	64.117479 
1337.000000	64.125680 
1336.000000	64.132761 
1335.000000	64.136385 
1334.000000	64.134573 
1333.000000	64.126157 
1332.000000	64.111256 
1331.000000	64.091491 
1330.000000	64.069652 
1329.000000	64.049243 
1328.000000	64.033746 
1327.000000	64.025712 
1326.000000	64.026212 
1325.000000	64.034748 
1324.000000	64.049386 
1323.000000	64.067268 
1322.000000	64.085221 
1321.000000	64.100527 
1320.000000	64.111328 
1319.000000	64.116668 
1318.000000	64.116477 
1317.000000	64.111185 
1316.000000	64.101576 
1315.000000	64.088606 
1314.000000	64.073276 
1313.000000	64.056730 
1312.000000	64.040303 
1311.000000	64.025568 
1310.000000	64.014172 
1309.000000	64.007544 
1308.000000	64.006400 
1307.000000	64.010739 
1306.000000	64.019441 
1305.000000	64.030671 
1304.000000	64.042043 
1303.000000	64.051342 
1302.000000	64.056968 
1301.000000	64.058494 
1300.000000	64.056587 
1299.000000	64.052700 
1298.000000	64.048886 
1297.000000	64.046645 
1296.000000	64.046788 
1295.000000	64.048814 
1294.000000	64.051365 
1293.000000	64.052557 
1292.000000	64.050531 
1291.000000	64.044117 
1290.000000	64.033126 
1289.000000	64.018702 
1288.000000	64.002704 
1287.000000	63.987398 
1286.000000	63.974618 
1285.000000	63.965511 
1284.000000	63.960242 
1283.000000	63.958168 
1282.000000	63.958168 
1281.000000	63.959288 
1280.000000	63.960981 
1279.000000	63.963222 
1278.000000	63.966584 
1277.000000	63.971853 
1276.000000	63.979601 
1275.000000	63.989830 
1274.000000	64.001941 
1273.000000	64.014887 
1272.000000	64.027452 
1271.000000	64.038729 
1270.000000	64.048433 
1269.000000	64.057016 
1268.000000	64.065456 
1267.000000	64.075040 
1266.000000	64.086675 
1265.000000	64.100575 
1264.000000	64.115858 
1263.000000	64.130926 
1262.000000	64.143776 
1261.000000	64.152479 
1260.000000	64.155745 
1259.000000	64.153218 
1258.000000	64.145445 
1257.000000	64.133572 
1256.000000	64.118885 
1255.000000	64.102554 
1254.000000	64.085292 
1253.000000	64.067554 
1252.000000	64.049458 
1251.000000	64.031219 
1250.000000	64.013242 
1249.000000	63.996291 
1248.000000	63.981294 
1247.000000	63.969349 
1246.000000	63.961291 
1245.000000	63.957929 
1244.000000	63.959193 
1243.000000	63.964796 
1242.000000	63.974094 
1241.000000	63.986372 
1240.000000	64.000940 
1239.000000	64.017295 
1238.000000	64.035010 
1237.000000	64.053845 
1236.000000	64.073348 
1235.000000	64.092922 
1234.000000	64.111638 
1233.000000	64.128446 
1232.000000	64.142155 
1231.000000	64.151597 
1230.000000	64.155936 
1229.000000	64.154767 
1228.000000	64.148283 
1227.000000	64.137268 
1226.000000	64.123129 
1225.000000	64.107632 
1224.000000	64.092731 
1223.000000	64.080142 
1222.000000	64.071083 
1221.000000	64.066195 
1220.000000	64.065623 
1219.000000	64.068818 
1218.000000	64.074850 
1217.000000	64.082646 
1216.000000	64.091348 
1215.000000	64.100146 
1214.000000	64.108610 
1213.000000	64.116597 
1212.000000	64.124155 
1211.000000	64.131212 
1210.000000	64.137601 
1209.000000	64.142966 
1208.000000	64.146971 
1207.000000	64.149379 
1206.000000	64.150023 
1205.000000	64.148974 
1204.000000	64.146566 
1203.000000	64.143371 
1202.000000	64.139986 
1201.000000	64.136934 
1200.000000	64.134788 
1199.000000	64.133930 
1198.000000	64.134812 
1197.000000	64.137744 
1196.000000	64.142942 
1195.000000	64.150428 
1194.000000	64.159965 
1193.000000	64.171242 
1192.000000	64.183449 
1191.000000	64.196109 
1190.000000	64.208579 
1189.000000	64.220619 
1188.000000	64.232444 
1187.000000	64.244532 
1186.000000	64.257597 
1185.000000	64.271974 
1184.000000	64.287614 
1183.000000	64.303588 
1182.000000	64.318227 
1181.000000	64.329290 
1180.000000	64.334487 
1179.000000	64.331984 
1178.000000	64.320993 
1177.000000	64.301991 
1176.000000	64.276766 
1175.000000	64.248108 
1174.000000	64.219307 
1173.000000	64.193606 
1172.000000	64.173436 
1171.000000	64.160323 
1170.000000	64.154458 
1169.000000	64.154958 
1168.000000	64.160132 
1167.000000	64.167928 
1166.000000	64.176273 
1165.000000	64.183378 
1164.000000	64.187717 
1163.000000	64.188265 
1162.000000	64.184522 
1161.000000	64.176416 
1160.000000	64.164328 
1159.000000	64.149069 
1158.000000	64.131665 
1157.000000	64.113306 
1156.000000	64.095163 
1155.000000	64.078235 
1154.000000	64.063429 
1153.000000	64.051604 
1152.000000	64.043545 
1151.000000	64.039707 
1150.000000	64.040303 
1149.000000	64.045262 
1148.000000	64.054059 
1147.000000	64.065790 
1146.000000	64.079451 
1145.000000	64.094138 
1144.000000	64.109158 
1143.000000	64.124155 
1142.000000	64.139080 
1141.000000	64.154148 
1140.000000	64.169645 
1139.000000	64.185905 
1138.000000	64.202904 
1137.000000	64.220452 
1136.000000	64.238071 
1135.000000	64.255309 
1134.000000	64.271616 
1133.000000	64.286375 
1132.000000	64.299249 
1131.000000	64.309859 
1130.000000	64.317727 
1129.000000	64.322280 
1128.000000	64.322876 
1127.000000	64.319109 
1126.000000	64.310932 
1125.000000	64.298820 
1124.000000	64.283871 
1123.000000	64.267373 
1122.000000	64.250445 
1121.000000	64.233827 
1120.000000	64.217805 
1119.000000	64.202260 
1118.000000	64.186716 
1117.000000	64.170718 
1116.000000	64.154219 
1115.000000	64.137601 
1114.000000	64.121913 
1113.000000	64.108371 
1112.000000	64.098668 
1111.000000	64.094495 
1110.000000	64.097595 
1109.000000	64.109110 
1108.000000	64.129590 
1107.000000	64.158225 
1106.000000	64.192986 
1105.000000	64.230728 
1104.000000	64.267516 
1103.000000	64.299106 
1102.000000	64.321660 
1101.000000	64.332437 
1100.000000	64.330530 
1099.000000	64.317083 
1098.000000	64.295220 
1097.000000	64.269399 
1096.000000	64.244699 
1095.000000	64.225745 
1094.000000	64.215755 
1093.000000	64.216065 
1092.000000	64.225745 
1091.000000	64.242124 
1090.000000	64.261269 
1089.000000	64.278817 
1088.000000	64.290714 
1087.000000	64.294314 
1086.000000	64.288568 
1085.000000	64.274883 
1084.000000	64.256572 
1083.000000	64.238572 
1082.000000	64.226627 
1081.000000	64.225387 
1080.000000	64.237546 
1079.000000	64.262723 
1078.000000	64.297437 
1077.000000	64.335584 
1076.000000	64.370059 
1075.000000	64.393973 
1074.000000	64.402413 
1073.000000	64.393424 
1072.000000	64.368534 
1071.000000	64.331817 
1070.000000	64.288949 
1069.000000	64.245533 
1068.000000	64.205980 
1067.000000	64.172458 
1066.000000	64.144992 
1065.000000	64.122128 
1064.000000	64.101743 
1063.000000	64.082288 
1062.000000	64.063334 
1061.000000	64.045405 
1060.000000	64.030122 
1059.000000	64.019036 
1058.000000	64.013624 
1057.000000	64.014577 
1056.000000	64.022088 
1055.000000	64.035487 
1054.000000	64.053535 
1053.000000	64.074659 
1052.000000	64.096760 
1051.000000	64.117622 
1050.000000	64.134860 
1049.000000	64.146137 
1048.000000	64.149689 
1047.000000	64.144515 
1046.000000	64.130878 
1045.000000	64.110302 
1044.000000	64.085268 
1043.000000	64.058852 
1042.000000	64.033865 
1041.000000	64.012312 
1040.000000	63.994932 
1039.000000	63.981199 
1038.000000	63.969850 
1037.000000	63.959431 
1036.000000	63.949203 
1035.000000	63.939785 
1034.000000	63.932824 
1033.000000	63.930535 
1032.000000	63.935160 
1031.000000	63.948202 
1030.000000	63.969302 
1029.000000	63.996505 
1028.000000	64.026427 
1027.000000	64.055156 
1026.000000	64.078903 
1025.000000	64.095187 
1024.000000	64.103221 
1023.000000	64.103841 
1022.000000	64.099597 
1021.000000	64.093255 
1020.000000	64.087033 
1019.000000	64.082121 
1018.000000	64.078521 
1017.000000	64.074897 
1016.000000	64.069199 
1015.000000	64.059138 
1014.000000	64.043331 
1013.000000	64.021754 
1012.000000	63.996005 
1011.000000	63.969326 
1010.000000	63.945865 
1009.000000	63.930201 
1008.000000	63.926529 
1007.000000	63.937807 
1006.000000	63.965153 
1005.000000	64.007663 
1004.000000	64.062213 
1003.000000	64.124441 
1002.000000	64.188909 
1001.000000	64.250135 
1000.000000	64.302945 
999.000000	 64.343690 
998.000000	 64.369630 
997.000000	 64.379811 
996.000000	 64.373540 
995.000000	 64.351034 
994.000000	 64.312553 
993.000000	 64.258909 
992.000000	 64.191508 
991.000000	 64.113044 
990.000000	 64.027738 
989.000000	 63.941574 
988.000000	 63.861823 
987.000000	 63.796019 
986.000000	 63.750910 
985.000000	 63.730978 
984.000000	 63.737487 
983.000000	 63.767957 
982.000000	 63.816285 
981.000000	 63.873839 
980.000000	 63.931107 
979.000000	 63.979434 
978.000000	 64.011955 
977.000000	 64.025020 
976.000000	 64.017868 
975.000000	 63.992857 
974.000000	 63.954257 
973.000000	 63.908052 
972.000000	 63.860988 
971.000000	 63.819503 
970.000000	 63.789439 
969.000000	 63.774418 
968.000000	 63.776016 
967.000000	 63.792514 
966.000000	 63.819837 
965.000000	 63.852167 
964.000000	 63.883042 
963.000000	 63.907289 
962.000000	 63.921809 
961.000000	 63.926601 
960.000000	 63.924145 
959.000000	 63.918924 
958.000000	 63.915777 
957.000000	 63.917493 
956.000000	 63.923716 
955.000000	 63.930797 
954.000000	 63.932800 
953.000000	 63.923525 
952.000000	 63.898563 
951.000000	 63.856935 
950.000000	 63.802075 
949.000000	 63.741254 
948.000000	 63.684248 
947.000000	 63.640522 
946.000000	 63.617396 
945.000000	 63.618230 
944.000000	 63.641834 
943.000000	 63.683319 
942.000000	 63.735127 
941.000000	 63.789105 
940.000000	 63.837862 
939.000000	 63.875865 
938.000000	 63.900446 
937.000000	 63.911604 
936.000000	 63.911724 
935.000000	 63.904047 
934.000000	 63.893198 
933.000000	 63.884043 
932.000000	 63.880944 
931.000000	 63.886547 
930.000000	 63.900780 
929.000000	 63.920474 
928.000000	 63.939237 
927.000000	 63.949012 
926.000000	 63.941121 
925.000000	 63.909769 
924.000000	 63.853454 
923.000000	 63.777112 
922.000000	 63.691878 
921.000000	 63.612890 
920.000000	 63.556885 
919.000000	 63.536882 
918.000000	 63.559103 
917.000000	 63.619923 
916.000000	 63.707327 
915.000000	 63.802146 
914.000000	 63.882708 
913.000000	 63.929343 
912.000000	 63.929510 
911.000000	 63.879632 
910.000000	 63.785386 
909.000000	 63.659882 
908.000000	 63.519692 
907.000000	 63.381910 
906.000000	 63.260483 
905.000000	 63.164544 
904.000000	 63.097763 
903.000000	 63.059759 
902.000000	 63.047432 
901.000000	 63.056302 
900.000000	 63.081669 
899.000000	 63.118720 
898.000000	 63.163590 
897.000000	 63.211274 
896.000000	 63.257861 
895.000000	 63.300061 
894.000000	 63.337135 
893.000000	 63.370037 
892.000000	 63.402271 
891.000000	 63.438582 
890.000000	 63.483333 
889.000000	 63.539648 
888.000000	 63.607740 
887.000000	 63.684439 
886.000000	 63.763952 
885.000000	 63.839316 
884.000000	 63.903689 
883.000000	 63.952088 
882.000000	 63.981938 
881.000000	 63.993644 
880.000000	 63.989186 
879.000000	 63.971304 
878.000000	 63.942456 
877.000000	 63.904428 
876.000000	 63.857817 
875.000000	 63.802552 
874.000000	 63.739657 
873.000000	 63.671541 
872.000000	 63.601899 
871.000000	 63.535022 
870.000000	 63.475203 
869.000000	 63.425803 
868.000000	 63.388276 
867.000000	 63.362455 
866.000000	 63.346028 
865.000000	 63.336038 
864.000000	 63.329434 
863.000000	 63.324451 
862.000000	 63.319993 
861.000000	 63.316750 
860.000000	 63.316273 
859.000000	 63.320612 
858.000000	 63.330936 
857.000000	 63.347721 
856.000000	 63.370323 
855.000000	 63.397121 
854.000000	 63.425946 
853.000000	 63.454771 
852.000000	 63.482165 
851.000000	 63.507223 
850.000000	 63.529348 
849.000000	 63.548064 
848.000000	 63.562917 
847.000000	 63.573288 
846.000000	 63.578796 
845.000000	 63.579416 
844.000000	 63.575577 
843.000000	 63.569140 
842.000000	 63.562655 
841.000000	 63.558650 
840.000000	 63.559150 
839.000000	 63.565373 
838.000000	 63.577222 
837.000000	 63.592863 
836.000000	 63.609647 
835.000000	 63.624835 
834.000000	 63.636374 
833.000000	 63.643527 
832.000000	 63.646841 
831.000000	 63.647842 
830.000000	 63.648200 
829.000000	 63.648891 
828.000000	 63.649559 
827.000000	 63.648295 
826.000000	 63.642811 
825.000000	 63.631153 
824.000000	 63.612484 
823.000000	 63.587617 
822.000000	 63.558697 
821.000000	 63.528943 
820.000000	 63.501167 
819.000000	 63.477563 
818.000000	 63.459610 
817.000000	 63.448143 
816.000000	 63.443517 
815.000000	 63.445973 
814.000000	 63.455772 
813.000000	 63.473153 
812.000000	 63.497877 
811.000000	 63.529038 
810.000000	 63.564777 
809.000000	 63.602137 
808.000000	 63.637638 
807.000000	 63.667345 
806.000000	 63.687777 
805.000000	 63.696217 
804.000000	 63.691496 
803.000000	 63.673806 
802.000000	 63.644886 
801.000000	 63.607454 
800.000000	 63.564872 
799.000000	 63.520646 
798.000000	 63.478136 
797.000000	 63.440203 
796.000000	 63.408994 
795.000000	 63.385558 
794.000000	 63.369727 
793.000000	 63.360095 
792.000000	 63.354539 
791.000000	 63.350510 
790.000000	 63.345956 
789.000000	 63.339233 
788.000000	 63.329863 
787.000000	 63.318228 
786.000000	 63.306045 
785.000000	 63.295030 
784.000000	 63.287329 
783.000000	 63.285303 
782.000000	 63.290548 
781.000000	 63.303852 
780.000000	 63.324356 
779.000000	 63.349914 
778.000000	 63.376975 
777.000000	 63.400983 
776.000000	 63.417363 
775.000000	 63.422560 
774.000000	 63.414931 
773.000000	 63.395071 
772.000000	 63.366079 
771.000000	 63.332986 
770.000000	 63.301920 
769.000000	 63.278460 
768.000000	 63.266372 
767.000000	 63.266587 
766.000000	 63.277220 
765.000000	 63.293981 
764.000000	 63.311529 
763.000000	 63.324427 
762.000000	 63.328838 
761.000000	 63.322591 
760.000000	 63.305282 
759.000000	 63.277912 
758.000000	 63.242173 
757.000000	 63.200092 
756.000000	 63.154053 
755.000000	 63.106417 
754.000000	 63.060045 
753.000000	 63.017725 
752.000000	 62.982058 
751.000000	 62.954902 
750.000000	 62.937021 
749.000000	 62.928199 
748.000000	 62.927150 
747.000000	 62.932157 
746.000000	 62.941050 
745.000000	 62.952280 
744.000000	 62.965083 
743.000000	 62.979316 
742.000000	 62.995219 
741.000000	 63.012814 
740.000000	 63.031530 
739.000000	 63.050007 
738.000000	 63.066220 
737.000000	 63.078045 
736.000000	 63.083791 
735.000000	 63.083219 
734.000000	 63.077497 
733.000000	 63.069534 
732.000000	 63.063001 
731.000000	 63.061356 
730.000000	 63.067054 
729.000000	 63.080954 
728.000000	 63.101887 
727.000000	 63.127303 
726.000000	 63.153266 
725.000000	 63.175487 
724.000000	 63.190102 
723.000000	 63.194799 
722.000000	 63.188552 
721.000000	 63.171792 
720.000000	 63.146042 
719.000000	 63.113689 
718.000000	 63.077235 
717.000000	 63.039183 
716.000000	 63.001966 
715.000000	 62.967753 
714.000000	 62.938833 
713.000000	 62.917375 
712.000000	 62.905144 
711.000000	 62.902522 
710.000000	 62.907958 
709.000000	 62.917709 
708.000000	 62.925887 
707.000000	 62.925791 
706.000000	 62.911295 
705.000000	 62.878513 
704.000000	 62.826776 
703.000000	 62.759613 
702.000000	 62.683987 
701.000000	 62.609434 
700.000000	 62.545609 
699.000000	 62.500882 
698.000000	 62.480592 
697.000000	 62.486267 
696.000000	 62.515163 
695.000000	 62.561297 
694.000000	 62.616562 
693.000000	 62.671923 
692.000000	 62.719297 
691.000000	 62.752079 
690.000000	 62.766003 
689.000000	 62.759709 
688.000000	 62.734413 
687.000000	 62.693858 
686.000000	 62.643599 
685.000000	 62.590861 
684.000000	 62.542819 
683.000000	 62.505555 
682.000000	 62.482738 
681.000000	 62.475562 
680.000000	 62.482237 
679.000000	 62.498712 
678.000000	 62.519621 
677.000000	 62.539362 
676.000000	 62.553429 
675.000000	 62.558889 
674.000000	 62.554979 
673.000000	 62.542462 
672.000000	 62.523460 
671.000000	 62.500476 
670.000000	 62.476062 
669.000000	 62.452507 
668.000000	 62.431430 
667.000000	 62.413525 
666.000000	 62.398958 
665.000000	 62.387752 
664.000000	 62.379384 
663.000000	 62.373328 
662.000000	 62.368655 
661.000000	 62.364411 
660.000000	 62.360405 
659.000000	 62.357330 
658.000000	 62.356710 
657.000000	 62.360382 
656.000000	 62.370204 
655.000000	 62.387156 
654.000000	 62.410974 
653.000000	 62.439560 
652.000000	 62.469172 
651.000000	 62.494802 
650.000000	 62.511754 
649.000000	 62.516403 
648.000000	 62.507081 
647.000000	 62.484693 
646.000000	 62.452602 
645.000000	 62.416195 
644.000000	 62.382054 
643.000000	 62.356305 
642.000000	 62.343835 
641.000000	 62.346887 
640.000000	 62.365007 
639.000000	 62.394666 
638.000000	 62.430238 
637.000000	 62.464475 
636.000000	 62.490248 
635.000000	 62.501168 
634.000000	 62.493014 
633.000000	 62.464880 
632.000000	 62.419509 
631.000000	 62.362599 
630.000000	 62.302112 
629.000000	 62.247037 
628.000000	 62.205386 
627.000000	 62.183165 
626.000000	 62.182927 
625.000000	 62.203669 
624.000000	 62.241244 
623.000000	 62.289094 
622.000000	 62.339973 
621.000000	 62.386822 
620.000000	 62.424516 
619.000000	 62.450098 
618.000000	 62.463331 
617.000000	 62.466192 
616.000000	 62.462019 
615.000000	 62.454462 
614.000000	 62.446093 
613.000000	 62.438058 
612.000000	 62.429141 
611.000000	 62.416934 
610.000000	 62.397408 
609.000000	 62.366724 
608.000000	 62.322068 
607.000000	 62.262845 
606.000000	 62.191081 
605.000000	 62.111496 
604.000000	 62.030577 
603.000000	 61.955547 
602.000000	 61.893224 
601.000000	 61.849021 
600.000000	 61.825609 
599.000000	 61.822962 
598.000000	 61.838483 
597.000000	 61.867928 
596.000000	 61.905956 
595.000000	 61.947727 
594.000000	 61.989688 
593.000000	 62.029314 
592.000000	 62.064981 
591.000000	 62.095046 
590.000000	 62.117791 
589.000000	 62.130689 
588.000000	 62.130641 
587.000000	 62.115287 
586.000000	 62.083911 
585.000000	 62.038326 
584.000000	 61.983227 
583.000000	 61.925029 
582.000000	 61.870861 
581.000000	 61.826586 
580.000000	 61.795663 
579.000000	 61.777639 
578.000000	 61.768364 
577.000000	 61.761713 
576.000000	 61.751174 
575.000000	 61.731576 
574.000000	 61.700177 
573.000000	 61.657977 
572.000000	 61.608457 
571.000000	 61.555361 
570.000000	 61.501717 
569.000000	 61.448550 
568.000000	 61.395311 
567.000000	 61.340427 
566.000000	 61.282658 
565.000000	 61.222434 
564.000000	 61.162114 
563.000000	 61.106300 
562.000000	 61.059999 
561.000000	 61.026811 
560.000000	 61.008262 
559.000000	 61.002731 
558.000000	 61.006355 
557.000000	 61.013507 
556.000000	 61.019468 
555.000000	 61.021709 
554.000000	 61.020851 
553.000000	 61.020517 
552.000000	 61.026334 
551.000000	 61.044335 
550.000000	 61.079096 
549.000000	 61.132502 
548.000000	 61.203455 
547.000000	 61.287951 
546.000000	 61.380815 
545.000000	 61.475729 
544.000000	 61.566948 
543.000000	 61.648607 
542.000000	 61.715841 
541.000000	 61.763930 
540.000000	 61.788916 
539.000000	 61.787891 
538.000000	 61.759972 
537.000000	 61.706566 
536.000000	 61.632513 
535.000000	 61.545157 
534.000000	 61.454701 
533.000000	 61.370968 
532.000000	 61.302161 
531.000000	 61.252641 
530.000000	 61.222696 
529.000000	 61.208057 
528.000000	 61.201453 
527.000000	 61.194610 
526.000000	 61.180686 
525.000000	 61.155986 
524.000000	 61.120843 
523.000000	 61.078763 
522.000000	 61.035156 
521.000000	 60.996246 
520.000000	 60.966610 
519.000000	 60.948157 
518.000000	 60.939097 
517.000000	 60.934925 
516.000000	 60.929012 
515.000000	 60.914397 
514.000000	 60.885548 
513.000000	 60.839867 
512.000000	 60.778450 
511.000000	 60.704827 
510.000000	 60.625433 
509.000000	 60.547614 
508.000000	 60.479211 
507.000000	 60.426259 
506.000000	 60.393333 
505.000000	 60.382652 
504.000000	 60.394072 
503.000000	 60.425138 
502.000000	 60.471081 
501.000000	 60.525226 
500.000000	 60.579538 
499.000000	 60.625696 
498.000000	 60.655975 
497.000000	 60.664844 
496.000000	 60.649847 
495.000000	 60.612583 
494.000000	 60.558867 
493.000000	 60.497379 
492.000000	 60.438370 
491.000000	 60.391020 
490.000000	 60.362339 
489.000000	 60.354828 
488.000000	 60.366129 
487.000000	 60.389637 
486.000000	 60.416865 
485.000000	 60.438871 
484.000000	 60.448908 
483.000000	 60.443091 
482.000000	 60.420656 
481.000000	 60.383749 
480.000000	 60.336518 
479.000000	 60.283637 
478.000000	 60.228776 
477.000000	 60.174441 
476.000000	 60.122251 
475.000000	 60.072565 
474.000000	 60.025167 
473.000000	 59.980559 
472.000000	 59.940266 
471.000000	 59.906768 
470.000000	 59.882545 
469.000000	 59.869384 
468.000000	 59.866547 
467.000000	 59.870219 
466.000000	 59.872674 
465.000000	 59.863328 
464.000000	 59.830331 
463.000000	 59.762620 
462.000000	 59.654188 
461.000000	 59.505200 
460.000000	 59.325408 
459.000000	 59.132266 
458.000000	 58.949470 
457.000000	 58.802843 
456.000000	 58.714151 
455.000000	 58.695054 
454.000000	 58.745479 
453.000000	 58.852839 
452.000000	 58.995842 
451.000000	 59.148478 
450.000000	 59.287476 
449.000000	 59.396576 
448.000000	 59.469842 
447.000000	 59.510588 
446.000000	 59.529256 
445.000000	 59.538578 
444.000000	 59.548783 
443.000000	 59.563708 
442.000000	 59.581804 
441.000000	 59.596586 
440.000000	 59.600543 
439.000000	 59.587192 
438.000000	 59.555625 
437.000000	 59.510159 
436.000000	 59.457731 
435.000000	 59.407973 
434.000000	 59.367990 
433.000000	 59.345197 
432.000000	 59.345340 
431.000000	 59.374976 
430.000000	 59.439873 
429.000000	 59.545445 
428.000000	 59.695959 
427.000000	 59.890747 
426.000000	 60.122752 
425.000000	 60.376620 
424.000000	 60.629367 
423.000000	 60.854864 
422.000000	 61.028385 
421.000000	 61.134147 
420.000000	 61.169195 
419.000000	 61.145281 
418.000000	 61.086511 
417.000000	 61.020827 
416.000000	 60.972905 
415.000000	 60.962462 
414.000000	 60.999965 
413.000000	 61.081409 
412.000000	 61.191082 
411.000000	 61.317157 
410.000000	 61.447334 
409.000000	 61.567997 
408.000000	 61.664271 
407.000000	 61.723136 
406.000000	 61.732530 
405.000000	 61.679363 
404.000000	 61.555862 
403.000000	 61.367726 
402.000000	 61.129736 
401.000000	 60.855150 
400.000000	 60.567593 
399.000000	 60.312604 
398.000000	 60.125494 
397.000000	 60.017561 
396.000000	 59.982848 
395.000000	 59.998250 
394.000000	 60.039186 
393.000000	 60.089397 
392.000000	 60.151720 
391.000000	 60.252618 
390.000000	 60.438013 
389.000000	 60.768222 
388.000000	 61.309432 
387.000000	 62.120294 
386.000000	 63.246893 
385.000000	 64.698600 
384.000000	 66.445970 
383.000000	 68.398022 
382.000000	 70.407581 
381.000000	 72.298860 
380.000000	 73.820376 
379.000000	 74.801039 
378.000000	 75.204730 
377.000000	 75.187683 
376.000000	 75.055289 
375.000000	 75.229525 
374.000000	 76.154160 
373.000000	 78.158307 
372.000000	 81.366562 
371.000000	 85.626697 
370.000000	 90.543389 

