PE IR       SPECTRUM    SPECTRUM    ASCII       PEDS        1.60        
  -1
C-9AE0~1.ASC
17/05/02
13:20:42.00
17/05/02
13:20:42.00
tln
$C-4040-8_t0029$<tbV0>[-7.5,7.0,8.0,0.0,22,1,0]
370.000000
64









2002,4.07    
MIRTGS : RIGHTBACK : INTERNAL 2
MIR : ON : INTERNAL 2
OPTKBR

0.200000
8
8.000000
FILLER
RATIO
SPECTRUM
UNLOCKED 256

DOUBLE
64
COMBINED
1
0
0


1.000000
RATIO


1
0
TRUE
51149
0
LEFT NOT FITTED RIGHT NOT FITTED 0
NONE
NONE
15600
12.000000
4.427000
51148
TRUE
1 0 8 72 0 0 0 0 

15798.010000






#HDR
-1
-1
#GR
CM-1
%T
0.00002384185791015625
0.0
7800.000000
-1.000000
7431
8
88.974952
51.864624
#DATA
7800.000000	74.499011 
7799.000000	76.668119 
7798.000000	78.305315 
7797.000000	79.146075 
7796.000000	79.030036 
7795.000000	77.938485 
7794.000000	76.010632 
7793.000000	73.520827 
7792.000000	70.818090 
7791.000000	68.258690 
7790.000000	66.132378 
7789.000000	64.617443 
7788.000000	63.777709 
7787.000000	63.570713 
7786.000000	63.879275 
7785.000000	64.554429 
7784.000000	65.450024 
7783.000000	66.458010 
7782.000000	67.481160 
7781.000000	68.471407 
7780.000000	69.395256 
7779.000000	70.247960 
7778.000000	71.033191 
7777.000000	71.751976 
7776.000000	72.390723 
7775.000000	72.919321 
7774.000000	73.305249 
7773.000000	73.512792 
7772.000000	73.527002 
7771.000000	73.346662 
7770.000000	72.999882 
7769.000000	72.521567 
7768.000000	71.952700 
7767.000000	71.327185 
7766.000000	70.670652 
7765.000000	70.007038 
7764.000000	69.361376 
7763.000000	68.768668 
7762.000000	68.270039 
7761.000000	67.894792 
7760.000000	67.656540 
7759.000000	67.549657 
7758.000000	67.551064 
7757.000000	67.617535 
7756.000000	67.703056 
7755.000000	67.761349 
7754.000000	67.765426 
7753.000000	67.718553 
7752.000000	67.646479 
7751.000000	67.575550 
7750.000000	67.534327 
7749.000000	67.539072 
7748.000000	67.596840 
7747.000000	67.689609 
7746.000000	67.809271 
7745.000000	67.966580 
7744.000000	68.192005 
7743.000000	68.530511 
7742.000000	69.021821 
7741.000000	69.683694 
7740.000000	70.496869 
7739.000000	71.401286 
7738.000000	72.320461 
7737.000000	73.175048 
7736.000000	73.919820 
7735.000000	74.540567 
7734.000000	75.046467 
7733.000000	75.442171 
7732.000000	75.723338 
7731.000000	75.847315 
7730.000000	75.734448 
7729.000000	75.278997 
7728.000000	74.395132 
7727.000000	73.037052 
7726.000000	71.239757 
7725.000000	69.111990 
7724.000000	66.840100 
7723.000000	64.635396 
7722.000000	62.694716 
7721.000000	61.155176 
7720.000000	60.063028 
7719.000000	59.381818 
7718.000000	59.008693 
7717.000000	58.817243 
7716.000000	58.692789 
7715.000000	58.564186 
7714.000000	58.412337 
7713.000000	58.266377 
7712.000000	58.179283 
7711.000000	58.220863 
7710.000000	58.451604 
7709.000000	58.912324 
7708.000000	59.611272 
7707.000000	60.530900 
7706.000000	61.624550 
7705.000000	62.822937 
7704.000000	64.038991 
7703.000000	65.182113 
7702.000000	66.165900 
7701.000000	66.914391 
7700.000000	67.377901 
7699.000000	67.540073 
7698.000000	67.424654 
7697.000000	67.099452 
7696.000000	66.658473 
7695.000000	66.209888 
7694.000000	65.850329 
7693.000000	65.659141 
7692.000000	65.670561 
7691.000000	65.872001 
7690.000000	66.213655 
7689.000000	66.629457 
7688.000000	67.049860 
7687.000000	67.419528 
7686.000000	67.710876 
7685.000000	67.925357 
7684.000000	68.086862 
7683.000000	68.226265 
7682.000000	68.367671 
7681.000000	68.512773 
7680.000000	68.638634 
7679.000000	68.696999 
7678.000000	68.632340 
7677.000000	68.391776 
7676.000000	67.945599 
7675.000000	67.294502 
7674.000000	66.472911 
7673.000000	65.545487 
7672.000000	64.598727 
7671.000000	63.722562 
7670.000000	62.990093 
7669.000000	62.447786 
7668.000000	62.112450 
7667.000000	61.966323 
7666.000000	61.965584 
7665.000000	62.048840 
7664.000000	62.147712 
7663.000000	62.205147 
7662.000000	62.181043 
7661.000000	62.065577 
7660.000000	61.873602 
7659.000000	61.646056 
7658.000000	61.435699 
7657.000000	61.295318 
7656.000000	61.263871 
7655.000000	61.359286 
7654.000000	61.576032 
7653.000000	61.891269 
7652.000000	62.271046 
7651.000000	62.682151 
7650.000000	63.095235 
7649.000000	63.487458 
7648.000000	63.840699 
7647.000000	64.138054 
7646.000000	64.364242 
7645.000000	64.500761 
7644.000000	64.535212 
7643.000000	64.467096 
7642.000000	64.311385 
7641.000000	64.097261 
7640.000000	63.869166 
7639.000000	63.684320 
7638.000000	63.596534 
7637.000000	63.643574 
7636.000000	63.840889 
7635.000000	64.176917 
7634.000000	64.619350 
7633.000000	65.122818 
7632.000000	65.641045 
7631.000000	66.135597 
7630.000000	66.588139 
7629.000000	66.999173 
7628.000000	67.382240 
7627.000000	67.751789 
7626.000000	68.110203 
7625.000000	68.441700 
7624.000000	68.713879 
7623.000000	68.886470 
7622.000000	68.927431 
7621.000000	68.824911 
7620.000000	68.599367 
7619.000000	68.300747 
7618.000000	68.002319 
7617.000000	67.782568 
7616.000000	67.701888 
7615.000000	67.794322 
7614.000000	68.065643 
7613.000000	68.484973 
7612.000000	68.998813 
7611.000000	69.531798 
7610.000000	70.005702 
7609.000000	70.346498 
7608.000000	70.499849 
7607.000000	70.434117 
7606.000000	70.142936 
7605.000000	69.653248 
7604.000000	69.021320 
7603.000000	68.321800 
7602.000000	67.636322 
7601.000000	67.044448 
7600.000000	66.611385 
7599.000000	66.384315 
7598.000000	66.383099 
7597.000000	66.596436 
7596.000000	66.981983 
7595.000000	67.480111 
7594.000000	68.015122 
7593.000000	68.503642 
7592.000000	68.864154 
7591.000000	69.030165 
7590.000000	68.956947 
7589.000000	68.619871 
7588.000000	68.030166 
7587.000000	67.230200 
7586.000000	66.300940 
7585.000000	65.342974 
7584.000000	64.480566 
7583.000000	63.838005 
7582.000000	63.532090 
7581.000000	63.647150 
7580.000000	64.230489 
7579.000000	65.279102 
7578.000000	66.736698 
7577.000000	68.495535 
7576.000000	70.402145 
7575.000000	72.273707 
7574.000000	73.922538 
7573.000000	75.180315 
7572.000000	75.921416 
7571.000000	76.077842 
7570.000000	75.659418 
7569.000000	74.737906 
7568.000000	73.440718 
7567.000000	71.913862 
7566.000000	70.310544 
7565.000000	68.752884 
7564.000000	67.338323 
7563.000000	66.114997 
7562.000000	65.100717 
7561.000000	64.280772 
7560.000000	63.623166 
7559.000000	63.096570 
7558.000000	62.670826 
7557.000000	62.339782 
7556.000000	62.107014 
7555.000000	61.997175 
7554.000000	62.032628 
7553.000000	62.234973 
7552.000000	62.605595 
7551.000000	63.130283 
7550.000000	63.773441 
7549.000000	64.494466 
7548.000000	65.250134 
7547.000000	66.003155 
7546.000000	66.717314 
7545.000000	67.362475 
7544.000000	67.900562 
7543.000000	68.280601 
7542.000000	68.437719 
7541.000000	68.305468 
7540.000000	67.833423 
7539.000000	67.005825 
7538.000000	65.863108 
7537.000000	64.504313 
7536.000000	63.084959 
7535.000000	61.801123 
7534.000000	60.845875 
7533.000000	60.365772 
7532.000000	60.431098 
7531.000000	61.021876 
7530.000000	62.027215 
7529.000000	63.265633 
7528.000000	64.530825 
7527.000000	65.633606 
7526.000000	66.439604 
7525.000000	66.887211 
7524.000000	66.991519 
7523.000000	66.824674 
7522.000000	66.487908 
7521.000000	66.078543 
7520.000000	65.667581 
7519.000000	65.286469 
7518.000000	64.938592 
7517.000000	64.608287 
7516.000000	64.282727 
7515.000000	63.962745 
7514.000000	63.673782 
7513.000000	63.460993 
7512.000000	63.364267 
7511.000000	63.417720 
7510.000000	63.633537 
7509.000000	64.002370 
7508.000000	64.487028 
7507.000000	65.036201 
7506.000000	65.590333 
7505.000000	66.099429 
7504.000000	66.529321 
7503.000000	66.871142 
7502.000000	67.136907 
7501.000000	67.355656 
7500.000000	67.563414 
7499.000000	67.785811 
7498.000000	68.029570 
7497.000000	68.278527 
7496.000000	68.498158 
7495.000000	68.650460 
7494.000000	68.704462 
7493.000000	68.647623 
7492.000000	68.484735 
7491.000000	68.232083 
7490.000000	67.905521 
7489.000000	67.516446 
7488.000000	67.062377 
7487.000000	66.527676 
7486.000000	65.890336 
7485.000000	65.137887 
7484.000000	64.275670 
7483.000000	63.336372 
7482.000000	62.376713 
7481.000000	61.468315 
7480.000000	60.684680 
7479.000000	60.079121 
7478.000000	59.681487 
7477.000000	59.482479 
7476.000000	59.452986 
7475.000000	59.548211 
7474.000000	59.728002 
7473.000000	59.961175 
7472.000000	60.235762 
7471.000000	60.552835 
7470.000000	60.920166 
7469.000000	61.339402 
7468.000000	61.805152 
7467.000000	62.299704 
7466.000000	62.799263 
7465.000000	63.275814 
7464.000000	63.706707 
7463.000000	64.074087 
7462.000000	64.370441 
7461.000000	64.592313 
7460.000000	64.736700 
7459.000000	64.799356 
7458.000000	64.776611 
7457.000000	64.668846 
7456.000000	64.485335 
7455.000000	64.247512 
7454.000000	63.995528 
7453.000000	63.776373 
7452.000000	63.635349 
7451.000000	63.606619 
7450.000000	63.704657 
7449.000000	63.923096 
7448.000000	64.234352 
7447.000000	64.601302 
7446.000000	64.986944 
7445.000000	65.359497 
7444.000000	65.696954 
7443.000000	65.986609 
7442.000000	66.222357 
7441.000000	66.402006 
7440.000000	66.523909 
7439.000000	66.584515 
7438.000000	66.578745 
7437.000000	66.507267 
7436.000000	66.376256 
7435.000000	66.200160 
7434.000000	65.997529 
7433.000000	65.792036 
7432.000000	65.603613 
7431.000000	65.443754 
7430.000000	65.312981 
7429.000000	65.204048 
7428.000000	65.103387 
7427.000000	64.996862 
7426.000000	64.873957 
7425.000000	64.729833 
7424.000000	64.569187 
7423.000000	64.402914 
7422.000000	64.248895 
7421.000000	64.124274 
7420.000000	64.046859 
7419.000000	64.029216 
7418.000000	64.078402 
7417.000000	64.193558 
7416.000000	64.364075 
7415.000000	64.569878 
7414.000000	64.781928 
7413.000000	64.966249 
7412.000000	65.088176 
7411.000000	65.119051 
7410.000000	65.042495 
7409.000000	64.858484 
7408.000000	64.584898 
7407.000000	64.253401 
7406.000000	63.904595 
7405.000000	63.578510 
7404.000000	63.306903 
7403.000000	63.109302 
7402.000000	62.986993 
7401.000000	62.932753 
7400.000000	62.934708 
7399.000000	62.985849 
7398.000000	63.085985 
7397.000000	63.242316 
7396.000000	63.464546 
7395.000000	63.755822 
7394.000000	64.104056 
7393.000000	64.479970 
7392.000000	64.836263 
7391.000000	65.124106 
7390.000000	65.303635 
7389.000000	65.361237 
7388.000000	65.314364 
7387.000000	65.209698 
7386.000000	65.109682 
7385.000000	65.074706 
7384.000000	65.143251 
7383.000000	65.316510 
7382.000000	65.557861 
7381.000000	65.799975 
7380.000000	65.969014 
7379.000000	66.009950 
7378.000000	65.906882 
7377.000000	65.691065 
7376.000000	65.433883 
7375.000000	65.229082 
7374.000000	65.162420 
7373.000000	65.284752 
7372.000000	65.595340 
7371.000000	66.041827 
7370.000000	66.530084 
7369.000000	66.953444 
7368.000000	67.215847 
7367.000000	67.258715 
7366.000000	67.073607 
7365.000000	66.702222 
7364.000000	66.224932 
7363.000000	65.737724 
7362.000000	65.329837 
7361.000000	65.062069 
7360.000000	64.960646 
7359.000000	65.014815 
7358.000000	65.186238 
7357.000000	65.420126 
7356.000000	65.661740 
7355.000000	65.864753 
7354.000000	65.996146 
7353.000000	66.036200 
7352.000000	65.974521 
7351.000000	65.806579 
7350.000000	65.529441 
7349.000000	65.143251 
7348.000000	64.653182 
7347.000000	64.074850 
7346.000000	63.436794 
7345.000000	62.783837 
7344.000000	62.171769 
7343.000000	61.663699 
7342.000000	61.318016 
7341.000000	61.179018 
7340.000000	61.265110 
7339.000000	61.564087 
7338.000000	62.032055 
7337.000000	62.599277 
7336.000000	63.181376 
7335.000000	63.692665 
7334.000000	64.060187 
7333.000000	64.237070 
7332.000000	64.208793 
7331.000000	63.994717 
7330.000000	63.640666 
7329.000000	63.207578 
7328.000000	62.757205 
7327.000000	62.341594 
7326.000000	61.993908 
7325.000000	61.729121 
7324.000000	61.545109 
7323.000000	61.430978 
7322.000000	61.374068 
7321.000000	61.363720 
7320.000000	61.398005 
7319.000000	61.480045 
7318.000000	61.617779 
7317.000000	61.810255 
7316.000000	62.052297 
7315.000000	62.328624 
7314.000000	62.618660 
7313.000000	62.896823 
7312.000000	63.141608 
7311.000000	63.340640 
7310.000000	63.489890 
7309.000000	63.593029 
7308.000000	63.656949 
7307.000000	63.687896 
7306.000000	63.685822 
7305.000000	63.643097 
7304.000000	63.544106 
7303.000000	63.370275 
7302.000000	63.108825 
7301.000000	62.759995 
7300.000000	62.338256 
7299.000000	61.877393 
7298.000000	61.423802 
7297.000000	61.035370 
7296.000000	60.767316 
7295.000000	60.667848 
7294.000000	60.765194 
7293.000000	61.065363 
7292.000000	61.550140 
7291.000000	62.177634 
7290.000000	62.886691 
7289.000000	63.606262 
7288.000000	64.262580 
7287.000000	64.794874 
7286.000000	65.162372 
7285.000000	65.351581 
7284.000000	65.375232 
7283.000000	65.267825 
7282.000000	65.076327 
7281.000000	64.849543 
7280.000000	64.628672 
7279.000000	64.437174 
7278.000000	64.278340 
7277.000000	64.137864 
7276.000000	63.990664 
7275.000000	63.808631 
7274.000000	63.571834 
7273.000000	63.272666 
7272.000000	62.923789 
7271.000000	62.554407 
7270.000000	62.209415 
7269.000000	61.935186 
7268.000000	61.773657 
7267.000000	61.752986 
7266.000000	61.879253 
7265.000000	62.135815 
7264.000000	62.482094 
7263.000000	62.858986 
7262.000000	63.202428 
7261.000000	63.453388 
7260.000000	63.574886 
7259.000000	63.555145 
7258.000000	63.416838 
7257.000000	63.208246 
7256.000000	62.996792 
7255.000000	62.851810 
7254.000000	62.828445 
7253.000000	62.953877 
7252.000000	63.219332 
7251.000000	63.581585 
7250.000000	63.973093 
7249.000000	64.316987 
7248.000000	64.545154 
7247.000000	64.611148 
7246.000000	64.499258 
7245.000000	64.223456 
7244.000000	63.818311 
7243.000000	63.331556 
7242.000000	62.808012 
7241.000000	62.290000 
7240.000000	61.810588 
7239.000000	61.401748 
7238.000000	61.093616 
7237.000000	60.920715 
7236.000000	60.917353 
7235.000000	61.114168 
7234.000000	61.524486 
7233.000000	62.141275 
7232.000000	62.928652 
7231.000000	63.825678 
7230.000000	64.749050 
7229.000000	65.611767 
7228.000000	66.336369 
7227.000000	66.868519 
7226.000000	67.184090 
7225.000000	67.286539 
7224.000000	67.200493 
7223.000000	66.964149 
7222.000000	66.618013 
7221.000000	66.197395 
7220.000000	65.727066 
7219.000000	65.230655 
7218.000000	64.727473 
7217.000000	64.239072 
7216.000000	63.786673 
7215.000000	63.392925 
7214.000000	63.076996 
7213.000000	62.850236 
7212.000000	62.714648 
7211.000000	62.657570 
7210.000000	62.658309 
7209.000000	62.687611 
7208.000000	62.718915 
7207.000000	62.729310 
7206.000000	62.709188 
7205.000000	62.661218 
7204.000000	62.598943 
7203.000000	62.538218 
7202.000000	62.496352 
7201.000000	62.485885 
7200.000000	62.512183 
7199.000000	62.572312 
7198.000000	62.662720 
7197.000000	62.782907 
7196.000000	62.937021 
7195.000000	63.134574 
7194.000000	63.390326 
7193.000000	63.717103 
7192.000000	64.120936 
7191.000000	64.592051 
7190.000000	65.100669 
7189.000000	65.597987 
7188.000000	66.027832 
7187.000000	66.333699 
7186.000000	66.474986 
7185.000000	66.431164 
7184.000000	66.214346 
7183.000000	65.856742 
7182.000000	65.406274 
7181.000000	64.912056 
7180.000000	64.417338 
7179.000000	63.951826 
7178.000000	63.532233 
7177.000000	63.165545 
7176.000000	62.856698 
7175.000000	62.610650 
7174.000000	62.435746 
7173.000000	62.341976 
7172.000000	62.337517 
7171.000000	62.426471 
7170.000000	62.605309 
7169.000000	62.859797 
7168.000000	63.166093 
7167.000000	63.496875 
7166.000000	63.824176 
7165.000000	64.122867 
7164.000000	64.371824 
7163.000000	64.557671 
7162.000000	64.671587 
7161.000000	64.707446 
7160.000000	64.661264 
7159.000000	64.535832 
7158.000000	64.337658 
7157.000000	64.079451 
7156.000000	63.779497 
7155.000000	63.462924 
7154.000000	63.159060 
7153.000000	62.897396 
7152.000000	62.706923 
7151.000000	62.611246 
7150.000000	62.626814 
7149.000000	62.761545 
7148.000000	63.005900 
7147.000000	63.331270 
7146.000000	63.693952 
7145.000000	64.041972 
7144.000000	64.320158 
7143.000000	64.480161 
7142.000000	64.492392 
7141.000000	64.350891 
7140.000000	64.073848 
7139.000000	63.697862 
7138.000000	63.271999 
7137.000000	62.843823 
7136.000000	62.453150 
7135.000000	62.120747 
7134.000000	61.849021 
7133.000000	61.622381 
7132.000000	61.417126 
7131.000000	61.209726 
7130.000000	60.982346 
7129.000000	60.733842 
7128.000000	60.476016 
7127.000000	60.238194 
7126.000000	60.051536 
7125.000000	59.951853 
7124.000000	59.964227 
7123.000000	60.105419 
7122.000000	60.375547 
7121.000000	60.763335 
7120.000000	61.245608 
7119.000000	61.793041 
7118.000000	62.372589 
7117.000000	62.951922 
7116.000000	63.501334 
7115.000000	63.994336 
7114.000000	64.408183 
7113.000000	64.726352 
7112.000000	64.937329 
7111.000000	65.039849 
7110.000000	65.038800 
7109.000000	64.947342 
7108.000000	64.780902 
7107.000000	64.563655 
7106.000000	64.317297 
7105.000000	64.062023 
7104.000000	63.810634 
7103.000000	63.574624 
7102.000000	63.358855 
7101.000000	63.163709 
7100.000000	62.988138 
7099.000000	62.832283 
7098.000000	62.699246 
7097.000000	62.594819 
7096.000000	62.525200 
7095.000000	62.493467 
7094.000000	62.497258 
7093.000000	62.527084 
7092.000000	62.565755 
7091.000000	62.591147 
7090.000000	62.583065 
7089.000000	62.529802 
7088.000000	62.432026 
7087.000000	62.305188 
7086.000000	62.179803 
7085.000000	62.094235 
7084.000000	62.083530 
7083.000000	62.170290 
7082.000000	62.358140 
7081.000000	62.630248 
7080.000000	62.949991 
7079.000000	63.272833 
7078.000000	63.557791 
7077.000000	63.777446 
7076.000000	63.924384 
7075.000000	64.009356 
7074.000000	64.058256 
7073.000000	64.097356 
7072.000000	64.146256 
7071.000000	64.205360 
7070.000000	64.255428 
7069.000000	64.263963 
7068.000000	64.197802 
7067.000000	64.036560 
7066.000000	63.783407 
7065.000000	63.470053 
7064.000000	63.152694 
7063.000000	62.894701 
7062.000000	62.750554 
7061.000000	62.750411 
7060.000000	62.892222 
7059.000000	63.144278 
7058.000000	63.452887 
7057.000000	63.759088 
7056.000000	64.009952 
7055.000000	64.172434 
7054.000000	64.233899 
7053.000000	64.199399 
7052.000000	64.083933 
7051.000000	63.902211 
7050.000000	63.665080 
7049.000000	63.377237 
7048.000000	63.041377 
7047.000000	62.664270 
7046.000000	62.261748 
7045.000000	61.863780 
7044.000000	61.509323 
7043.000000	61.239337 
7042.000000	61.089515 
7041.000000	61.077570 
7040.000000	61.207699 
7039.000000	61.467123 
7038.000000	61.832261 
7037.000000	62.271261 
7036.000000	62.749719 
7035.000000	63.232612 
7034.000000	63.684606 
7033.000000	64.070844 
7032.000000	64.356255 
7031.000000	64.509868 
7030.000000	64.511847 
7029.000000	64.358353 
7028.000000	64.062619 
7027.000000	63.659024 
7026.000000	63.200259 
7025.000000	62.752938 
7024.000000	62.390112 
7023.000000	62.177038 
7022.000000	62.159776 
7021.000000	62.354850 
7020.000000	62.748026 
7019.000000	63.292050 
7018.000000	63.917422 
7017.000000	64.540433 
7016.000000	65.079522 
7015.000000	65.465760 
7014.000000	65.653634 
7013.000000	65.625214 
7012.000000	65.389943 
7011.000000	64.982843 
7010.000000	64.457368 
7009.000000	63.880014 
7008.000000	63.321614 
7007.000000	62.851262 
7006.000000	62.527680 
7005.000000	62.397050 
7004.000000	62.483382 
7003.000000	62.784790 
7002.000000	63.268566 
7001.000000	63.874435 
7000.000000	64.520621 
6999.000000	65.113091 
6998.000000	65.563988 
6997.000000	65.805077 
6996.000000	65.802335 
6995.000000	65.563082 
6994.000000	65.130281 
6993.000000	64.571785 
6992.000000	63.965010 
6991.000000	63.385081 
6990.000000	62.886881 
6989.000000	62.500953 
6988.000000	62.231349 
6987.000000	62.064766 
6986.000000	61.976242 
6985.000000	61.941289 
6984.000000	61.938428 
6983.000000	61.952948 
6982.000000	61.977982 
6981.000000	62.011909 
6980.000000	62.052464 
6979.000000	62.095069 
6978.000000	62.132143 
6977.000000	62.155675 
6976.000000	62.160634 
6975.000000	62.147784 
6974.000000	62.123775 
6973.000000	62.101602 
6972.000000	62.096834 
6971.000000	62.126064 
6970.000000	62.200951 
6969.000000	62.328505 
6968.000000	62.506628 
6967.000000	62.728548 
6966.000000	62.984609 
6965.000000	63.264560 
6964.000000	63.558173 
6963.000000	63.856744 
6962.000000	64.153265 
6961.000000	64.439487 
6960.000000	64.706325 
6959.000000	64.938950 
6958.000000	65.118241 
6957.000000	65.223622 
6956.000000	65.238785 
6955.000000	65.152597 
6954.000000	64.963531 
6953.000000	64.682483 
6952.000000	64.332723 
6951.000000	63.946390 
6950.000000	63.560605 
6949.000000	63.211536 
6948.000000	62.930607 
6947.000000	62.740302 
6946.000000	62.653064 
6945.000000	62.669897 
6944.000000	62.782263 
6943.000000	62.974762 
6942.000000	63.225269 
6941.000000	63.507151 
6940.000000	63.789629 
6939.000000	64.039492 
6938.000000	64.223980 
6937.000000	64.312982 
6936.000000	64.286398 
6935.000000	64.137840 
6934.000000	63.878726 
6933.000000	63.537669 
6932.000000	63.157749 
6931.000000	62.789940 
6930.000000	62.483763 
6929.000000	62.278413 
6928.000000	62.196564 
6927.000000	62.241077 
6926.000000	62.394118 
6925.000000	62.622284 
6924.000000	62.883639 
6923.000000	63.137316 
6922.000000	63.349485 
6921.000000	63.500523 
6920.000000	63.583302 
6919.000000	63.604736 
6918.000000	63.581204 
6917.000000	63.533616 
6916.000000	63.481521 
6915.000000	63.438129 
6914.000000	63.410782 
6913.000000	63.398265 
6912.000000	63.394522 
6911.000000	63.391256 
6910.000000	63.381266 
6909.000000	63.363862 
6908.000000	63.346505 
6907.000000	63.342761 
6906.000000	63.368916 
6905.000000	63.436317 
6904.000000	63.546156 
6903.000000	63.686299 
6902.000000	63.832831 
6901.000000	63.952732 
6900.000000	64.012408 
6899.000000	63.988590 
6898.000000	63.876175 
6897.000000	63.690900 
6896.000000	63.467144 
6895.000000	63.251423 
6894.000000	63.089799 
6893.000000	63.017439 
6892.000000	63.047909 
6891.000000	63.169550 
6890.000000	63.347959 
6889.000000	63.537669 
6888.000000	63.691353 
6887.000000	63.772916 
6886.000000	63.764619 
6885.000000	63.667392 
6884.000000	63.502645 
6883.000000	63.301420 
6882.000000	63.102269 
6881.000000	62.939381 
6880.000000	62.840414 
6879.000000	62.821626 
6878.000000	62.888097 
6877.000000	63.035345 
6876.000000	63.249945 
6875.000000	63.512539 
6874.000000	63.800764 
6873.000000	64.091920 
6872.000000	64.363598 
6871.000000	64.595603 
6870.000000	64.772915 
6869.000000	64.885759 
6868.000000	64.930915 
6867.000000	64.910411 
6866.000000	64.831280 
6865.000000	64.704370 
6864.000000	64.543414 
6863.000000	64.365386 
6862.000000	64.190244 
6861.000000	64.039516 
6860.000000	63.936138 
6859.000000	63.898372 
6858.000000	63.937807 
6857.000000	64.053702 
6856.000000	64.232659 
6855.000000	64.448952 
6854.000000	64.669179 
6853.000000	64.857244 
6852.000000	64.982175 
6851.000000	65.021538 
6850.000000	64.965391 
6849.000000	64.817333 
6848.000000	64.593052 
6847.000000	64.317321 
6846.000000	64.019012 
6845.000000	63.726639 
6844.000000	63.463425 
6843.000000	63.245749 
6842.000000	63.080692 
6841.000000	62.967562 
6840.000000	62.898635 
6839.000000	62.860131 
6838.000000	62.836885 
6837.000000	62.812614 
6836.000000	62.776947 
6835.000000	62.723827 
6834.000000	62.657022 
6833.000000	62.584829 
6832.000000	62.522387 
6831.000000	62.485575 
6830.000000	62.489557 
6829.000000	62.542939 
6828.000000	62.647557 
6827.000000	62.798428 
6826.000000	62.982177 
6825.000000	63.180303 
6824.000000	63.368940 
6823.000000	63.523316 
6822.000000	63.620328 
6821.000000	63.643288 
6820.000000	63.586807 
6819.000000	63.459730 
6818.000000	63.286590 
6817.000000	63.104820 
6816.000000	62.958550 
6815.000000	62.890243 
6814.000000	62.934613 
6813.000000	63.108277 
6812.000000	63.406109 
6811.000000	63.798451 
6810.000000	64.239764 
6809.000000	64.672422 
6808.000000	65.039086 
6807.000000	65.290260 
6806.000000	65.395164 
6805.000000	65.343284 
6804.000000	65.144181 
6803.000000	64.824938 
6802.000000	64.423942 
6801.000000	63.985347 
6800.000000	63.553977 
6799.000000	63.168716 
6798.000000	62.860560 
6797.000000	62.648773 
6796.000000	62.542438 
6795.000000	62.537765 
6794.000000	62.620425 
6793.000000	62.770533 
6792.000000	62.966609 
6791.000000	63.186597 
6790.000000	63.411235 
6789.000000	63.625192 
6788.000000	63.818573 
6787.000000	63.984942 
6786.000000	64.122176 
6785.000000	64.230227 
6784.000000	64.311742 
6783.000000	64.372348 
6782.000000	64.419078 
6781.000000	64.461874 
6780.000000	64.508318 
6779.000000	64.565753 
6778.000000	64.634251 
6777.000000	64.711189 
6776.000000	64.784264 
6775.000000	64.836478 
6774.000000	64.846062 
6773.000000	64.794564 
6772.000000	64.667844 
6771.000000	64.462137 
6770.000000	64.182949 
6769.000000	63.845396 
6768.000000	63.472914 
6767.000000	63.094282 
6766.000000	62.738466 
6765.000000	62.431168 
6764.000000	62.193417 
6763.000000	62.040114 
6762.000000	61.979150 
6761.000000	62.011408 
6760.000000	62.129783 
6759.000000	62.320351 
6758.000000	62.562656 
6757.000000	62.832093 
6756.000000	63.098978 
6755.000000	63.334059 
6754.000000	63.512563 
6753.000000	63.616180 
6752.000000	63.636589 
6751.000000	63.573145 
6750.000000	63.433957 
6749.000000	63.231229 
6748.000000	62.981104 
6747.000000	62.699985 
6746.000000	62.404584 
6745.000000	62.111496 
6744.000000	61.838316 
6743.000000	61.602687 
6742.000000	61.421346 
6741.000000	61.309361 
6740.000000	61.277794 
6739.000000	61.331176 
6738.000000	61.465597 
6737.000000	61.669278 
6736.000000	61.923146 
6735.000000	62.201237 
6734.000000	62.474298 
6733.000000	62.714886 
6732.000000	62.901043 
6731.000000	63.017654 
6730.000000	63.058781 
6729.000000	63.028216 
6728.000000	62.937736 
6727.000000	62.805461 
6726.000000	62.651753 
6725.000000	62.497973 
6724.000000	62.361574 
6723.000000	62.255620 
6722.000000	62.186527 
6721.000000	62.155580 
6720.000000	62.159252 
6719.000000	62.190914 
6718.000000	62.243580 
6717.000000	62.311005 
6716.000000	62.388706 
6715.000000	62.472462 
6714.000000	62.560987 
6713.000000	62.654328 
6712.000000	62.754487 
6711.000000	62.863850 
6710.000000	62.984776 
6709.000000	63.117742 
6708.000000	63.261985 
6707.000000	63.414025 
6706.000000	63.565874 
6705.000000	63.706755 
6704.000000	63.826012 
6703.000000	63.915944 
6702.000000	63.972210 
6701.000000	63.997316 
6700.000000	64.001584 
6699.000000	64.000582 
6698.000000	64.013051 
6697.000000	64.054775 
6696.000000	64.134025 
6695.000000	64.250063 
6694.000000	64.392924 
6693.000000	64.547586 
6692.000000	64.698314 
6691.000000	64.833498 
6690.000000	64.948940 
6689.000000	65.046930 
6688.000000	65.134525 
6687.000000	65.216970 
6686.000000	65.294146 
6685.000000	65.356040 
6684.000000	65.383434 
6683.000000	65.351772 
6682.000000	65.237164 
6681.000000	65.024042 
6680.000000	64.711165 
6679.000000	64.314532 
6678.000000	63.867497 
6677.000000	63.413858 
6676.000000	63.002872 
6675.000000	62.677311 
6674.000000	62.469696 
6673.000000	62.397789 
6672.000000	62.462401 
6671.000000	62.648510 
6670.000000	62.926912 
6669.000000	63.259100 
6668.000000	63.601589 
6667.000000	63.908672 
6666.000000	64.142084 
6665.000000	64.273929 
6664.000000	64.292788 
6663.000000	64.202237 
6662.000000	64.022850 
6661.000000	63.787460 
6660.000000	63.535737 
6659.000000	63.306927 
6658.000000	63.133811 
6657.000000	63.037896 
6656.000000	63.027334 
6655.000000	63.097190 
6654.000000	63.231492 
6653.000000	63.407611 
6652.000000	63.600730 
6651.000000	63.788962 
6650.000000	63.954138 
6649.000000	64.085292 
6648.000000	64.176464 
6647.000000	64.227628 
6646.000000	64.242529 
6645.000000	64.226436 
6644.000000	64.188504 
6643.000000	64.134788 
6642.000000	64.069294 
6641.000000	63.990879 
6640.000000	63.897109 
6639.000000	63.783073 
6638.000000	63.645362 
6637.000000	63.483595 
6636.000000	63.302445 
6635.000000	63.112831 
6634.000000	62.930655 
6633.000000	62.775087 
6632.000000	62.664651 
6631.000000	62.615227 
6630.000000	62.636089 
6629.000000	62.728381 
6628.000000	62.883281 
6627.000000	63.082051 
6626.000000	63.298034 
6625.000000	63.500809 
6624.000000	63.661074 
6623.000000	63.755297 
6622.000000	63.770699 
6621.000000	63.704681 
6620.000000	63.568067 
6619.000000	63.384318 
6618.000000	63.184356 
6617.000000	63.000106 
6616.000000	62.859082 
6615.000000	62.779879 
6614.000000	62.770175 
6613.000000	62.826347 
6612.000000	62.937593 
6611.000000	63.089323 
6610.000000	63.267660 
6609.000000	63.462567 
6608.000000	63.665223 
6607.000000	63.866043 
6606.000000	64.054465 
6605.000000	64.217948 
6604.000000	64.344763 
6603.000000	64.425158 
6602.000000	64.457464 
6601.000000	64.446735 
6600.000000	64.404225 
6599.000000	64.341330 
6598.000000	64.268851 
6597.000000	64.189505 
6596.000000	64.097356 
6595.000000	63.977551 
6594.000000	63.811874 
6593.000000	63.584947 
6592.000000	63.291525 
6591.000000	62.941694 
6590.000000	62.560224 
6589.000000	62.185645 
6588.000000	61.860394 
6587.000000	61.625933 
6586.000000	61.509919 
6585.000000	61.525654 
6584.000000	61.667609 
6583.000000	61.915135 
6582.000000	62.236094 
6581.000000	62.592554 
6580.000000	62.946414 
6579.000000	63.264322 
6578.000000	63.520789 
6577.000000	63.703370 
6576.000000	63.812470 
6575.000000	63.860774 
6574.000000	63.868665 
6573.000000	63.861346 
6572.000000	63.861894 
6571.000000	63.888263 
6570.000000	63.948059 
6569.000000	64.040684 
6568.000000	64.155745 
6567.000000	64.278483 
6566.000000	64.391636 
6565.000000	64.480757 
6564.000000	64.535903 
6563.000000	64.554452 
6562.000000	64.539647 
6561.000000	64.497494 
6560.000000	64.436697 
6559.000000	64.366483 
6558.000000	64.295530 
6557.000000	64.231085 
6556.000000	64.179372 
6555.000000	64.147138 
6554.000000	64.138770 
6553.000000	64.156055 
6552.000000	64.197134 
6551.000000	64.256358 
6550.000000	64.325404 
6549.000000	64.394378 
6548.000000	64.452886 
6547.000000	64.490938 
6546.000000	64.501070 
6545.000000	64.477753 
6544.000000	64.416432 
6543.000000	64.314126 
6542.000000	64.169812 
6541.000000	63.986468 
6540.000000	63.770508 
6539.000000	63.534641 
6538.000000	63.297438 
6537.000000	63.082051 
6536.000000	62.913322 
6535.000000	62.812685 
6534.000000	62.793183 
6533.000000	62.856149 
6532.000000	62.988305 
6531.000000	63.166165 
6530.000000	63.359236 
6529.000000	63.538670 
6528.000000	63.680982 
6527.000000	63.776993 
6526.000000	63.831734 
6525.000000	63.863205 
6524.000000	63.895058 
6523.000000	63.949823 
6522.000000	64.040446 
6521.000000	64.166474 
6520.000000	64.312291 
6519.000000	64.451146 
6518.000000	64.551067 
6517.000000	64.584541 
6516.000000	64.535617 
6515.000000	64.403009 
6514.000000	64.203548 
6513.000000	63.967013 
6512.000000	63.732933 
6511.000000	63.541460 
6510.000000	63.425707 
6509.000000	63.408017 
6508.000000	63.491272 
6507.000000	63.660860 
6506.000000	63.883447 
6505.000000	64.115738 
6504.000000	64.310693 
6503.000000	64.427280 
6502.000000	64.438104 
6501.000000	64.333105 
6500.000000	64.123320 
6499.000000	63.837242 
6498.000000	63.515377 
6497.000000	63.201141 
6496.000000	62.934565 
6495.000000	62.745022 
6494.000000	62.647128 
6493.000000	62.640261 
6492.000000	62.710046 
6491.000000	62.834143 
6490.000000	62.987446 
6489.000000	63.148808 
6488.000000	63.301801 
6487.000000	63.438653 
6486.000000	63.558101 
6485.000000	63.663887 
6484.000000	63.760352 
6483.000000	63.848853 
6482.000000	63.928508 
6481.000000	63.991427 
6480.000000	64.026069 
6479.000000	64.017701 
6478.000000	63.955426 
6477.000000	63.833069 
6476.000000	63.653755 
6475.000000	63.429307 
6474.000000	63.179230 
6473.000000	62.928295 
6472.000000	62.702655 
6471.000000	62.524104 
6470.000000	62.406134 
6469.000000	62.354135 
6468.000000	62.366271 
6467.000000	62.434792 
6466.000000	62.550377 
6465.000000	62.704992 
6464.000000	62.894916 
6463.000000	63.118839 
6462.000000	63.377714 
6461.000000	63.670873 
6460.000000	63.994050 
6459.000000	64.336013 
6458.000000	64.678931 
6457.000000	65.001678 
6456.000000	65.281057 
6455.000000	65.499043 
6454.000000	65.641951 
6453.000000	65.706419 
6452.000000	65.694642 
6451.000000	65.617847 
6450.000000	65.487718 
6449.000000	65.316915 
6448.000000	65.114307 
6447.000000	64.888119 
6446.000000	64.643144 
6445.000000	64.384031 
6444.000000	64.116787 
6443.000000	63.851189 
6442.000000	63.596916 
6441.000000	63.363027 
6440.000000	63.155674 
6439.000000	62.977719 
6438.000000	62.826299 
6437.000000	62.695813 
6436.000000	62.578439 
6435.000000	62.469148 
6434.000000	62.367653 
6433.000000	62.280464 
6432.000000	62.216377 
6431.000000	62.186646 
6430.000000	62.199664 
6429.000000	62.259435 
6428.000000	62.359833 
6427.000000	62.488842 
6426.000000	62.629699 
6425.000000	62.765932 
6424.000000	62.883448 
6423.000000	62.975859 
6422.000000	63.044428 
6421.000000	63.098073 
6420.000000	63.149166 
6419.000000	63.211679 
6418.000000	63.296341 
6417.000000	63.409805 
6416.000000	63.553071 
6415.000000	63.721537 
6414.000000	63.905906 
6413.000000	64.094996 
6412.000000	64.277005 
6411.000000	64.439797 
6410.000000	64.572191 
6409.000000	64.664936 
6408.000000	64.712119 
6407.000000	64.712548 
6406.000000	64.670443 
6405.000000	64.596176 
6404.000000	64.504194 
6403.000000	64.411830 
6402.000000	64.335298 
6401.000000	64.288544 
6400.000000	64.279079 
6399.000000	64.307761 
6398.000000	64.368104 
6397.000000	64.449858 
6396.000000	64.538884 
6395.000000	64.620232 
6394.000000	64.680528 
6393.000000	64.710426 
6392.000000	64.704966 
6391.000000	64.663910 
6390.000000	64.591431 
6389.000000	64.494705 
6388.000000	64.383387 
6387.000000	64.267253 
6386.000000	64.154195 
6385.000000	64.048075 
6384.000000	63.948154 
6383.000000	63.849139 
6382.000000	63.740754 
6381.000000	63.612532 
6380.000000	63.457155 
6379.000000	63.275718 
6378.000000	63.076186 
6377.000000	62.877273 
6376.000000	62.702512 
6375.000000	62.579894 
6374.000000	62.531661 
6373.000000	62.574577 
6372.000000	62.713003 
6371.000000	62.941479 
6370.000000	63.242840 
6369.000000	63.594484 
6368.000000	63.971090 
6367.000000	64.348840 
6366.000000	64.707398 
6365.000000	65.030241 
6364.000000	65.304470 
6363.000000	65.519165 
6362.000000	65.664696 
6361.000000	65.734076 
6360.000000	65.723586 
6359.000000	65.635466 
6358.000000	65.478205 
6357.000000	65.265440 
6356.000000	65.014910 
6355.000000	64.748549 
6354.000000	64.489412 
6353.000000	64.258575 
6352.000000	64.072680 
6351.000000	63.944935 
6350.000000	63.881301 
6349.000000	63.879394 
6348.000000	63.929271 
6347.000000	64.014220 
6346.000000	64.114570 
6345.000000	64.208745 
6344.000000	64.279317 
6343.000000	64.313721 
6342.000000	64.308190 
6341.000000	64.267635 
6340.000000	64.202427 
6339.000000	64.124846 
6338.000000	64.044213 
6337.000000	63.965034 
6336.000000	63.883948 
6335.000000	63.791751 
6334.000000	63.680744 
6333.000000	63.550162 
6332.000000	63.407897 
6331.000000	63.271951 
6330.000000	63.168573 
6329.000000	63.127326 
6328.000000	63.171029 
6327.000000	63.311719 
6326.000000	63.545703 
6325.000000	63.855004 
6324.000000	64.211106 
6323.000000	64.579582 
6322.000000	64.926505 
6321.000000	65.222716 
6320.000000	65.449976 
6319.000000	65.598535 
6318.000000	65.665364 
6317.000000	65.652966 
6316.000000	65.568637 
6315.000000	65.423154 
6314.000000	65.231895 
6313.000000	65.012907 
6312.000000	64.789485 
6311.000000	64.581727 
6310.000000	64.406108 
6309.000000	64.268398 
6308.000000	64.164423 
6307.000000	64.078092 
6306.000000	63.986515 
6305.000000	63.865804 
6304.000000	63.698983 
6303.000000	63.480377 
6302.000000	63.219738 
6301.000000	62.938976 
6300.000000	62.669968 
6299.000000	62.446117 
6298.000000	62.297368 
6297.000000	62.239980 
6296.000000	62.277698 
6295.000000	62.400889 
6294.000000	62.591457 
6293.000000	62.824869 
6292.000000	63.077354 
6291.000000	63.329482 
6290.000000	63.568139 
6289.000000	63.782572 
6288.000000	63.967680 
6287.000000	64.120841 
6286.000000	64.241838 
6285.000000	64.331293 
6284.000000	64.390254 
6283.000000	64.420366 
6282.000000	64.425778 
6281.000000	64.414262 
6280.000000	64.394330 
6279.000000	64.373922 
6278.000000	64.360356 
6277.000000	64.357757 
6276.000000	64.363980 
6275.000000	64.370155 
6274.000000	64.363789 
6273.000000	64.330863 
6272.000000	64.258790 
6271.000000	64.140152 
6270.000000	63.976359 
6269.000000	63.777279 
6268.000000	63.560009 
6267.000000	63.344073 
6266.000000	63.148236 
6265.000000	62.984824 
6264.000000	62.856864 
6263.000000	62.759041 
6262.000000	62.676930 
6261.000000	62.597775 
6260.000000	62.514686 
6259.000000	62.431716 
6258.000000	62.361526 
6257.000000	62.325024 
6256.000000	62.343788 
6255.000000	62.433528 
6254.000000	62.597036 
6253.000000	62.823891 
6252.000000	63.091135 
6251.000000	63.368988 
6250.000000	63.627266 
6249.000000	63.842153 
6248.000000	64.000582 
6247.000000	64.102339 
6246.000000	64.157772 
6245.000000	64.182806 
6244.000000	64.192914 
6243.000000	64.200925 
6242.000000	64.210700 
6241.000000	64.220619 
6240.000000	64.220023 
6239.000000	64.198827 
6238.000000	64.144492 
6237.000000	64.047336 
6236.000000	63.902544 
6235.000000	63.711905 
6234.000000	63.486433 
6233.000000	63.243937 
6232.000000	63.009476 
6231.000000	62.811088 
6230.000000	62.673664 
6229.000000	62.613320 
6228.000000	62.633681 
6227.000000	62.724709 
6226.000000	62.864995 
6225.000000	63.026666 
6224.000000	63.181591 
6223.000000	63.308143 
6222.000000	63.396430 
6221.000000	63.449478 
6220.000000	63.479018 
6219.000000	63.500738 
6218.000000	63.529467 
6217.000000	63.573336 
6216.000000	63.630414 
6215.000000	63.689637 
6214.000000	63.736963 
6213.000000	63.758111 
6212.000000	63.746500 
6211.000000	63.702678 
6210.000000	63.634300 
6209.000000	63.554978 
6208.000000	63.479614 
6207.000000	63.423228 
6206.000000	63.395810 
6205.000000	63.404631 
6204.000000	63.453936 
6203.000000	63.544082 
6202.000000	63.671588 
6201.000000	63.828587 
6200.000000	64.003515 
6199.000000	64.179301 
6198.000000	64.335179 
6197.000000	64.448547 
6196.000000	64.498805 
6195.000000	64.471721 
6194.000000	64.362406 
6193.000000	64.178109 
6192.000000	63.936495 
6191.000000	63.664007 
6190.000000	63.390231 
6189.000000	63.141655 
6188.000000	62.939095 
6187.000000	62.794709 
6186.000000	62.714099 
6185.000000	62.695193 
6184.000000	62.734556 
6183.000000	62.827467 
6182.000000	62.971854 
6181.000000	63.164830 
6180.000000	63.403916 
6179.000000	63.682866 
6178.000000	63.990020 
6177.000000	64.306235 
6176.000000	64.605927 
6175.000000	64.859962 
6174.000000	65.041136 
6173.000000	65.129876 
6172.000000	65.118813 
6171.000000	65.014958 
6170.000000	64.840245 
6169.000000	64.626836 
6168.000000	64.411377 
6167.000000	64.226126 
6166.000000	64.093804 
6165.000000	64.021825 
6164.000000	64.003396 
6163.000000	64.019370 
6162.000000	64.044666 
6161.000000	64.055657 
6160.000000	64.036059 
6159.000000	63.981938 
6158.000000	63.900661 
6157.000000	63.809394 
6156.000000	63.727736 
6155.000000	63.673210 
6154.000000	63.655161 
6153.000000	63.672709 
6152.000000	63.714671 
6151.000000	63.764452 
6150.000000	63.804888 
6149.000000	63.825201 
6148.000000	63.824486 
6147.000000	63.812041 
6146.000000	63.804173 
6145.000000	63.819694 
6144.000000	63.873648 
6143.000000	63.971662 
6142.000000	64.106750 
6141.000000	64.261221 
6140.000000	64.409422 
6139.000000	64.525389 
6138.000000	64.587235 
6137.000000	64.582180 
6136.000000	64.508247 
6135.000000	64.374685 
6134.000000	64.198875 
6133.000000	64.000248 
6132.000000	63.799190 
6131.000000	63.612580 
6130.000000	63.455247 
6129.000000	63.339662 
6128.000000	63.276124 
6127.000000	63.273143 
6126.000000	63.334798 
6125.000000	63.459134 
6124.000000	63.636374 
6123.000000	63.847446 
6122.000000	64.068365 
6121.000000	64.272856 
6120.000000	64.438509 
6119.000000	64.550137 
6118.000000	64.603638 
6117.000000	64.605545 
6116.000000	64.570641 
6115.000000	64.517402 
6114.000000	64.462995 
6113.000000	64.419150 
6112.000000	64.390754 
6111.000000	64.375829 
6110.000000	64.369702 
6109.000000	64.366531 
6108.000000	64.363527 
6107.000000	64.360761 
6106.000000	64.360976 
6105.000000	64.367914 
6104.000000	64.383220 
6103.000000	64.406156 
6102.000000	64.432215 
6101.000000	64.454555 
6100.000000	64.467620 
6099.000000	64.465284 
6098.000000	64.442300 
6097.000000	64.395070 
6096.000000	64.322471 
6095.000000	64.227223 
6094.000000	64.116120 
6093.000000	63.999724 
6092.000000	63.890790 
6091.000000	63.802909 
6090.000000	63.747715 
6089.000000	63.731932 
6088.000000	63.755536 
6087.000000	63.810968 
6086.000000	63.884258 
6085.000000	63.957571 
6084.000000	64.013504 
6083.000000	64.037156 
6082.000000	64.021444 
6081.000000	63.966989 
6080.000000	63.884305 
6079.000000	63.790249 
6078.000000	63.706636 
6077.000000	63.653540 
6076.000000	63.647794 
6075.000000	63.700771 
6074.000000	63.814353 
6073.000000	63.982367 
6072.000000	64.188027 
6071.000000	64.407682 
6070.000000	64.613056 
6069.000000	64.775943 
6068.000000	64.874410 
6067.000000	64.896416 
6066.000000	64.844179 
6065.000000	64.733529 
6064.000000	64.592409 
6063.000000	64.455032 
6062.000000	64.355707 
6061.000000	64.321422 
6060.000000	64.368104 
6059.000000	64.496111 
6058.000000	64.692330 
6057.000000	64.930605 
6056.000000	65.177512 
6055.000000	65.396738 
6054.000000	65.555763 
6053.000000	65.630435 
6052.000000	65.608048 
6051.000000	65.489411 
6050.000000	65.287351 
6049.000000	65.025258 
6048.000000	64.732193 
6047.000000	64.439845 
6046.000000	64.178848 
6045.000000	63.973999 
6044.000000	63.843059 
6043.000000	63.792729 
6042.000000	63.819766 
6041.000000	63.909721 
6040.000000	64.040303 
6039.000000	64.183306 
6038.000000	64.309000 
6037.000000	64.391922 
6036.000000	64.414978 
6035.000000	64.372396 
6034.000000	64.270234 
6033.000000	64.124917 
6032.000000	63.959598 
6031.000000	63.799309 
6030.000000	63.666129 
6029.000000	63.575220 
6028.000000	63.533186 
6027.000000	63.538098 
6026.000000	63.582015 
6025.000000	63.654828 
6024.000000	63.746643 
6023.000000	63.848948 
6022.000000	63.956117 
6021.000000	64.063763 
6020.000000	64.168715 
6019.000000	64.265942 
6018.000000	64.349532 
6017.000000	64.411473 
6016.000000	64.445829 
6015.000000	64.451098 
6014.000000	64.430665 
6013.000000	64.392828 
6012.000000	64.350318 
6011.000000	64.317822 
6010.000000	64.307785 
6009.000000	64.327335 
6008.000000	64.375615 
6007.000000	64.443588 
6006.000000	64.517593 
6005.000000	64.582109 
6004.000000	64.623165 
6003.000000	64.631557 
6002.000000	64.604687 
6001.000000	64.546394 
6000.000000	64.465713 
5999.000000	64.374136 
5998.000000	64.281964 
5997.000000	64.197278 
5996.000000	64.125514 
5995.000000	64.069938 
5994.000000	64.031839 
5993.000000	64.012765 
5992.000000	64.014506 
5991.000000	64.040040 
5990.000000	64.092659 
5989.000000	64.174246 
5988.000000	64.282798 
5987.000000	64.411997 
5986.000000	64.550876 
5985.000000	64.683651 
5984.000000	64.791846 
5983.000000	64.856958 
5982.000000	64.863944 
5981.000000	64.803409 
5980.000000	64.674425 
5979.000000	64.484715 
5978.000000	64.250683 
5977.000000	63.995409 
5976.000000	63.746190 
5975.000000	63.530778 
5974.000000	63.373517 
5973.000000	63.292050 
5972.000000	63.294267 
5971.000000	63.377237 
5970.000000	63.528227 
5969.000000	63.725924 
5968.000000	63.945484 
5967.000000	64.161229 
5966.000000	64.351820 
5965.000000	64.501976 
5964.000000	64.603805 
5963.000000	64.655566 
5962.000000	64.660096 
5961.000000	64.623093 
5960.000000	64.550685 
5959.000000	64.449024 
5958.000000	64.323711 
5957.000000	64.181280 
5956.000000	64.029312 
5955.000000	63.877224 
5954.000000	63.735675 
5953.000000	63.615512 
5952.000000	63.525438 
5951.000000	63.470911 
5950.000000	63.452196 
5949.000000	63.465785 
5948.000000	63.504838 
5947.000000	63.561654 
5946.000000	63.628935 
5945.000000	63.701176 
5944.000000	63.773536 
5943.000000	63.842678 
5942.000000	63.905286 
5941.000000	63.958549 
5940.000000	63.999557 
5939.000000	64.026212 
5938.000000	64.037728 
5937.000000	64.034914 
5936.000000	64.021110 
5935.000000	64.000177 
5934.000000	63.976335 
5933.000000	63.952851 
5932.000000	63.931727 
5931.000000	63.913798 
5930.000000	63.899374 
5929.000000	63.889670 
5928.000000	63.887143 
5927.000000	63.895940 
5926.000000	63.920426 
5925.000000	63.963031 
5924.000000	64.022445 
5923.000000	64.092683 
5922.000000	64.163875 
5921.000000	64.223313 
5920.000000	64.258933 
5919.000000	64.263176 
5918.000000	64.234352 
5917.000000	64.178180 
5916.000000	64.105510 
5915.000000	64.029574 
5914.000000	63.962960 
5913.000000	63.914227 
5912.000000	63.886880 
5911.000000	63.878583 
5910.000000	63.884425 
5909.000000	63.899660 
5908.000000	63.921475 
5907.000000	63.950586 
5906.000000	63.989424 
5905.000000	64.040589 
5904.000000	64.103531 
5903.000000	64.172959 
5902.000000	64.238500 
5901.000000	64.286589 
5900.000000	64.304637 
5899.000000	64.284777 
5898.000000	64.227533 
5897.000000	64.142179 
5896.000000	64.045524 
5895.000000	63.957166 
5894.000000	63.894867 
5893.000000	63.869476 
5892.000000	63.881540 
5891.000000	63.921928 
5890.000000	63.975977 
5889.000000	64.026904 
5888.000000	64.061260 
5887.000000	64.071440 
5886.000000	64.057445 
5885.000000	64.025211 
5884.000000	63.983464 
5883.000000	63.941264 
5882.000000	63.903951 
5881.000000	63.873887 
5880.000000	63.850474 
5879.000000	63.832497 
5878.000000	63.819694 
5877.000000	63.814353 
5876.000000	63.821434 
5875.000000	63.846373 
5874.000000	63.892793 
5873.000000	63.960051 
5872.000000	64.042019 
5871.000000	64.127922 
5870.000000	64.203810 
5869.000000	64.256381 
5868.000000	64.274740 
5867.000000	64.252662 
5866.000000	64.189219 
5865.000000	64.089298 
5864.000000	63.962173 
5863.000000	63.818430 
5862.000000	63.669991 
5861.000000	63.528800 
5860.000000	63.405966 
5859.000000	63.310813 
5858.000000	63.250517 
5857.000000	63.229179 
5856.000000	63.247871 
5855.000000	63.304042 
5854.000000	63.391923 
5853.000000	63.501596 
5852.000000	63.622641 
5851.000000	63.744735 
5850.000000	63.859605 
5849.000000	63.961005 
5848.000000	64.045166 
5847.000000	64.110207 
5846.000000	64.154934 
5845.000000	64.179134 
5844.000000	64.183902 
5843.000000	64.172792 
5842.000000	64.152240 
5841.000000	64.132022 
5840.000000	64.124727 
5839.000000	64.143705 
5838.000000	64.200448 
5837.000000	64.301156 
5836.000000	64.445567 
5835.000000	64.624571 
5834.000000	64.822077 
5833.000000	65.016484 
5832.000000	65.185928 
5831.000000	65.310382 
5830.000000	65.377545 
5829.000000	65.381693 
5828.000000	65.324592 
5827.000000	65.214061 
5826.000000	65.063047 
5825.000000	64.886283 
5824.000000	64.698624 
5823.000000	64.513540 
5822.000000	64.342689 
5821.000000	64.194488 
5820.000000	64.074707 
5819.000000	63.984894 
5818.000000	63.923621 
5817.000000	63.887023 
5816.000000	63.870263 
5815.000000	63.867402 
5814.000000	63.872885 
5813.000000	63.882470 
5812.000000	63.892960 
5811.000000	63.901209 
5810.000000	63.903832 
5809.000000	63.895797 
5808.000000	63.872289 
5807.000000	63.827681 
5806.000000	63.760113 
5805.000000	63.672113 
5804.000000	63.573098 
5803.000000	63.477683 
5802.000000	63.404417 
5801.000000	63.371825 
5800.000000	63.393354 
5799.000000	63.472986 
5798.000000	63.603782 
5797.000000	63.768649 
5796.000000	63.943886 
5795.000000	64.104390 
5794.000000	64.228677 
5793.000000	64.303255 
5792.000000	64.325547 
5791.000000	64.303112 
5790.000000	64.249348 
5789.000000	64.179301 
5788.000000	64.105892 
5787.000000	64.036989 
5786.000000	63.975262 
5785.000000	63.918972 
5784.000000	63.866281 
5783.000000	63.816308 
5782.000000	63.771533 
5781.000000	63.736820 
5780.000000	63.718461 
5779.000000	63.721370 
5778.000000	63.745737 
5777.000000	63.786959 
5776.000000	63.834905 
5775.000000	63.877153 
5774.000000	63.901376 
5773.000000	63.899564 
5772.000000	63.869905 
5771.000000	63.818049 
5770.000000	63.755655 
5769.000000	63.697695 
5768.000000	63.658022 
5767.000000	63.646745 
5766.000000	63.667440 
5765.000000	63.716197 
5764.000000	63.782525 
5763.000000	63.852596 
5762.000000	63.912534 
5761.000000	63.950586 
5760.000000	63.960814 
5759.000000	63.943505 
5758.000000	63.906097 
5757.000000	63.860392 
5756.000000	63.820981 
5755.000000	63.801503 
5754.000000	63.811969 
5753.000000	63.857722 
5752.000000	63.936901 
5751.000000	64.041495 
5750.000000	64.157819 
5749.000000	64.270138 
5748.000000	64.362525 
5747.000000	64.422154 
5746.000000	64.441275 
5745.000000	64.419078 
5744.000000	64.360260 
5743.000000	64.273738 
5742.000000	64.170598 
5741.000000	64.061903 
5740.000000	63.957095 
5739.000000	63.862919 
5738.000000	63.782978 
5737.000000	63.718318 
5736.000000	63.667893 
5735.000000	63.629817 
5734.000000	63.601589 
5733.000000	63.581442 
5732.000000	63.568210 
5731.000000	63.561987 
5730.000000	63.562989 
5729.000000	63.572049 
5728.000000	63.589119 
5727.000000	63.614153 
5726.000000	63.645982 
5725.000000	63.683605 
5724.000000	63.724875 
5723.000000	63.768887 
5722.000000	63.815140 
5721.000000	63.864994 
5720.000000	63.921046 
5719.000000	63.986253 
5718.000000	64.062476 
5717.000000	64.149284 
5716.000000	64.243721 
5715.000000	64.338564 
5714.000000	64.423322 
5713.000000	64.485621 
5712.000000	64.514160 
5711.000000	64.501166 
5710.000000	64.444994 
5709.000000	64.350748 
5708.000000	64.230108 
5707.000000	64.100122 
5706.000000	63.980364 
5705.000000	63.888406 
5704.000000	63.837456 
5703.000000	63.834238 
5702.000000	63.878774 
5701.000000	63.965368 
5700.000000	64.084053 
5699.000000	64.222645 
5698.000000	64.368367 
5697.000000	64.510011 
5696.000000	64.636969 
5695.000000	64.740061 
5694.000000	64.810490 
5693.000000	64.840555 
5692.000000	64.823770 
5691.000000	64.757108 
5690.000000	64.641427 
5689.000000	64.483094 
5688.000000	64.293432 
5687.000000	64.088463 
5686.000000	63.886404 
5685.000000	63.705587 
5684.000000	63.561749 
5683.000000	63.466382 
5682.000000	63.425588 
5681.000000	63.439917 
5680.000000	63.505315 
5679.000000	63.613629 
5678.000000	63.753151 
5677.000000	63.909363 
5676.000000	64.065885 
5675.000000	64.205765 
5674.000000	64.311003 
5673.000000	64.367389 
5672.000000	64.365339 
5671.000000	64.304590 
5670.000000	64.194607 
5669.000000	64.054179 
5668.000000	63.909125 
5667.000000	63.785791 
5666.000000	63.707137 
5665.000000	63.685441 
5664.000000	63.720273 
5663.000000	63.798689 
5662.000000	63.899374 
5661.000000	63.998341 
5660.000000	64.075374 
5659.000000	64.119839 
5658.000000	64.133167 
5657.000000	64.127516 
5656.000000	64.122128 
5655.000000	64.137148 
5654.000000	64.187955 
5653.000000	64.281082 
5652.000000	64.412856 
5651.000000	64.572000 
5650.000000	64.741992 
5649.000000	64.907026 
5648.000000	65.053534 
5647.000000	65.173649 
5646.000000	65.263676 
5645.000000	65.322923 
5644.000000	65.352034 
5643.000000	65.352296 
5642.000000	65.324735 
5641.000000	65.271472 
5640.000000	65.195083 
5639.000000	65.100884 
5638.000000	64.995765 
5637.000000	64.889764 
5636.000000	64.791989 
5635.000000	64.709806 
5634.000000	64.647054 
5633.000000	64.603662 
5632.000000	64.575195 
5631.000000	64.554023 
5630.000000	64.531397 
5629.000000	64.499378 
5628.000000	64.452409 
5627.000000	64.388680 
5626.000000	64.308834 
5625.000000	64.216470 
5624.000000	64.117097 
5623.000000	64.017415 
5622.000000	63.923740 
5621.000000	63.841342 
5620.000000	63.773655 
5619.000000	63.722515 
5618.000000	63.687086 
5617.000000	63.666248 
5616.000000	63.658833 
5615.000000	63.665103 
5614.000000	63.684964 
5613.000000	63.719773 
5612.000000	63.770508 
5611.000000	63.838171 
5610.000000	63.921928 
5609.000000	64.019918 
5608.000000	64.128541 
5607.000000	64.243626 
5606.000000	64.360523 
5605.000000	64.474439 
5604.000000	64.580273 
5603.000000	64.673495 
5602.000000	64.749932 
5601.000000	64.804840 
5600.000000	64.833736 
5599.000000	64.833617 
5598.000000	64.803981 
5597.000000	64.748215 
5596.000000	64.673113 
5595.000000	64.589881 
5594.000000	64.510560 
5593.000000	64.446425 
5592.000000	64.404726 
5591.000000	64.388012 
5590.000000	64.393186 
5589.000000	64.412498 
5588.000000	64.435958 
5587.000000	64.453911 
5586.000000	64.459586 
5585.000000	64.450645 
5584.000000	64.428758 
5583.000000	64.398360 
5582.000000	64.365005 
5581.000000	64.332962 
5580.000000	64.304733 
5579.000000	64.280390 
5578.000000	64.260172 
5577.000000	64.245295 
5576.000000	64.238524 
5575.000000	64.243626 
5574.000000	64.264154 
5573.000000	64.301729 
5572.000000	64.353275 
5571.000000	64.411807 
5570.000000	64.467740 
5569.000000	64.511299 
5568.000000	64.535522 
5567.000000	64.537405 
5566.000000	64.519882 
5565.000000	64.489531 
5564.000000	64.455318 
5563.000000	64.424896 
5562.000000	64.401674 
5561.000000	64.385008 
5560.000000	64.370894 
5559.000000	64.354681 
5558.000000	64.333462 
5557.000000	64.308166 
5556.000000	64.284563 
5555.000000	64.270114 
5554.000000	64.271640 
5553.000000	64.291334 
5552.000000	64.324951 
5551.000000	64.362883 
5550.000000	64.392328 
5549.000000	64.401316 
5548.000000	64.382076 
5547.000000	64.333558 
5546.000000	64.261460 
5545.000000	64.176440 
5544.000000	64.091014 
5543.000000	64.015316 
5542.000000	63.955426 
5541.000000	63.911318 
5540.000000	63.879537 
5539.000000	63.855361 
5538.000000	63.836050 
5537.000000	63.822388 
5536.000000	63.819408 
5535.000000	63.834691 
5534.000000	63.875794 
5533.000000	63.945913 
5532.000000	64.043045 
5531.000000	64.158868 
5530.000000	64.279866 
5529.000000	64.390325 
5528.000000	64.474320 
5527.000000	64.519429 
5526.000000	64.518094 
5525.000000	64.469289 
5524.000000	64.378499 
5523.000000	64.256763 
5522.000000	64.119076 
5521.000000	63.981842 
5520.000000	63.860559 
5519.000000	63.767433 
5518.000000	63.710665 
5517.000000	63.692784 
5516.000000	63.710379 
5515.000000	63.754749 
5514.000000	63.813972 
5513.000000	63.874816 
5512.000000	63.924407 
5511.000000	63.953208 
5510.000000	63.955569 
5509.000000	63.931012 
5508.000000	63.883376 
5507.000000	63.819646 
5506.000000	63.747739 
5505.000000	63.675332 
5504.000000	63.608837 
5503.000000	63.552045 
5502.000000	63.506340 
5501.000000	63.470530 
5500.000000	63.442111 
5499.000000	63.417339 
5498.000000	63.392496 
5497.000000	63.365197 
5496.000000	63.335776 
5495.000000	63.306760 
5494.000000	63.283014 
5493.000000	63.271141 
5492.000000	63.278412 
5491.000000	63.312101 
5490.000000	63.377428 
5489.000000	63.475036 
5488.000000	63.599967 
5487.000000	63.743519 
5486.000000	63.891983 
5485.000000	64.028358 
5484.000000	64.134669 
5483.000000	64.195466 
5482.000000	64.200425 
5481.000000	64.147424 
5480.000000	64.042544 
5479.000000	63.899445 
5478.000000	63.736486 
5477.000000	63.574123 
5476.000000	63.430047 
5475.000000	63.316726 
5474.000000	63.238692 
5473.000000	63.193392 
5472.000000	63.172125 
5471.000000	63.163566 
5470.000000	63.157033 
5469.000000	63.146042 
5468.000000	63.129758 
5467.000000	63.114285 
5466.000000	63.111257 
5465.000000	63.135862 
5464.000000	63.202929 
5463.000000	63.323163 
5462.000000	63.500046 
5461.000000	63.727092 
5460.000000	63.989663 
5459.000000	64.263796 
5458.000000	64.521121 
5457.000000	64.731311 
5456.000000	64.868974 
5455.000000	64.916825 
5454.000000	64.870047 
5453.000000	64.736032 
5452.000000	64.534354 
5451.000000	64.291429 
5450.000000	64.037179 
5449.000000	63.798260 
5448.000000	63.595771 
5447.000000	63.440942 
5446.000000	63.336229 
5445.000000	63.276362 
5444.000000	63.252472 
5443.000000	63.254261 
5442.000000	63.273406 
5441.000000	63.303971 
5440.000000	63.343787 
5439.000000	63.393831 
5438.000000	63.457846 
5437.000000	63.538980 
5436.000000	63.639593 
5435.000000	63.760590 
5434.000000	63.900518 
5433.000000	64.055991 
5432.000000	64.220309 
5431.000000	64.384651 
5430.000000	64.537429 
5429.000000	64.666461 
5428.000000	64.760017 
5427.000000	64.809656 
5426.000000	64.811539 
5425.000000	64.768028 
5424.000000	64.687728 
5423.000000	64.585161 
5422.000000	64.477086 
5421.000000	64.380526 
5420.000000	64.308309 
5419.000000	64.267373 
5418.000000	64.256978 
5417.000000	64.270162 
5416.000000	64.293599 
5415.000000	64.311552 
5414.000000	64.309287 
5413.000000	64.277338 
5412.000000	64.212346 
5411.000000	64.118933 
5410.000000	64.008140 
5409.000000	63.896155 
5408.000000	63.800406 
5407.000000	63.736987 
5406.000000	63.716745 
5405.000000	63.744449 
5404.000000	63.819360 
5403.000000	63.934731 
5402.000000	64.078831 
5401.000000	64.236783 
5400.000000	64.394235 
5399.000000	64.536547 
5398.000000	64.650273 
5397.000000	64.723873 
5396.000000	64.749002 
5395.000000	64.721035 
5394.000000	64.639949 
5393.000000	64.510989 
5392.000000	64.344477 
5391.000000	64.156579 
5390.000000	63.967919 
5389.000000	63.801121 
5388.000000	63.677453 
5387.000000	63.614678 
5386.000000	63.623929 
5385.000000	63.707661 
5384.000000	63.858604 
5383.000000	64.061260 
5382.000000	64.293146 
5381.000000	64.527821 
5380.000000	64.737796 
5379.000000	64.898467 
5378.000000	64.990758 
5377.000000	65.003609 
5376.000000	64.934897 
5375.000000	64.791035 
5374.000000	64.586162 
5373.000000	64.340925 
5372.000000	64.079356 
5371.000000	63.826513 
5370.000000	63.605594 
5369.000000	63.436675 
5368.000000	63.333559 
5367.000000	63.302898 
5366.000000	63.343071 
5365.000000	63.444757 
5364.000000	63.592267 
5363.000000	63.765859 
5362.000000	63.945698 
5361.000000	64.114689 
5360.000000	64.261794 
5359.000000	64.382815 
5358.000000	64.480924 
5357.000000	64.563465 
5356.000000	64.639997 
5355.000000	64.716553 
5354.000000	64.794969 
5353.000000	64.868521 
5352.000000	64.925050 
5351.000000	64.947128 
5350.000000	64.918398 
5349.000000	64.826750 
5348.000000	64.669823 
5347.000000	64.456415 
5346.000000	64.205431 
5345.000000	63.944387 
5344.000000	63.704276 
5343.000000	63.514709 
5342.000000	63.397288 
5341.000000	63.363385 
5340.000000	63.412094 
5339.000000	63.531565 
5338.000000	63.701772 
5337.000000	63.898491 
5336.000000	64.097261 
5335.000000	64.277291 
5334.000000	64.423489 
5333.000000	64.525485 
5332.000000	64.577126 
5331.000000	64.576482 
5330.000000	64.524960 
5329.000000	64.424824 
5328.000000	64.280867 
5327.000000	64.102602 
5326.000000	63.905620 
5325.000000	63.709354 
5324.000000	63.537955 
5323.000000	63.419103 
5322.000000	63.378548 
5321.000000	63.434767 
5320.000000	63.593649 
5319.000000	63.845729 
5318.000000	64.165210 
5317.000000	64.513421 
5316.000000	64.844989 
5315.000000	65.116715 
5314.000000	65.294289 
5313.000000	65.358901 
5312.000000	65.308618 
5311.000000	65.157341 
5310.000000	64.930558 
5309.000000	64.659929 
5308.000000	64.374065 
5307.000000	64.093565 
5306.000000	63.830566 
5305.000000	63.588118 
5304.000000	63.362884 
5303.000000	63.146853 
5302.000000	62.931871 
5301.000000	62.711095 
5300.000000	62.476634 
5299.000000	62.224531 
5298.000000	61.951470 
5297.000000	61.662316 
5296.000000	61.367964 
5295.000000	61.087918 
5294.000000	60.848975 
5293.000000	60.676288 
5292.000000	60.586833 
5291.000000	60.581755 
5290.000000	60.642528 
5289.000000	60.735321 
5288.000000	60.815382 
5287.000000	60.842967 
5286.000000	60.790205 
5285.000000	60.656523 
5284.000000	60.468101 
5283.000000	60.275316 
5282.000000	60.138559 
5281.000000	60.114717 
5280.000000	60.240864 
5279.000000	60.524582 
5278.000000	60.941195 
5277.000000	61.439394 
5276.000000	61.954021 
5275.000000	62.423801 
5274.000000	62.804889 
5273.000000	63.077425 
5272.000000	63.248300 
5271.000000	63.344264 
5270.000000	63.402748 
5269.000000	63.459658 
5268.000000	63.538885 
5267.000000	63.650798 
5266.000000	63.787102 
5265.000000	63.929414 
5264.000000	64.052605 
5263.000000	64.138412 
5262.000000	64.176464 
5261.000000	64.169406 
5260.000000	64.130091 
5259.000000	64.077949 
5258.000000	64.032983 
5257.000000	64.009714 
5256.000000	64.014625 
5255.000000	64.045214 
5254.000000	64.092564 
5253.000000	64.144921 
5252.000000	64.192128 
5251.000000	64.228200 
5250.000000	64.252614 
5249.000000	64.268541 
5248.000000	64.280462 
5247.000000	64.289903 
5246.000000	64.293789 
5245.000000	64.283490 
5244.000000	64.245367 
5243.000000	64.165830 
5242.000000	64.038920 
5241.000000	63.867402 
5240.000000	63.664817 
5239.000000	63.452100 
5238.000000	63.253450 
5237.000000	63.090777 
5236.000000	62.976956 
5235.000000	62.915778 
5234.000000	62.901377 
5233.000000	62.922096 
5232.000000	62.963509 
5231.000000	63.014268 
5230.000000	63.068389 
5229.000000	63.125348 
5228.000000	63.187670 
5227.000000	63.259291 
5226.000000	63.342165 
5225.000000	63.434600 
5224.000000	63.530325 
5223.000000	63.620352 
5222.000000	63.695049 
5221.000000	63.747549 
5220.000000	63.775372 
5219.000000	63.781571 
5218.000000	63.773608 
5217.000000	63.761687 
5216.000000	63.756060 
5215.000000	63.764667 
5214.000000	63.790988 
5213.000000	63.835072 
5212.000000	63.891863 
5211.000000	63.953614 
5210.000000	64.010405 
5209.000000	64.053797 
5208.000000	64.076447 
5207.000000	64.073419 
5206.000000	64.042854 
5205.000000	63.986587 
5204.000000	63.908410 
5203.000000	63.813328 
5202.000000	63.706970 
5201.000000	63.595223 
5200.000000	63.484382 
5199.000000	63.381052 
5198.000000	63.291740 
5197.000000	63.222408 
5196.000000	63.177824 
5195.000000	63.160943 
5194.000000	63.172006 
5193.000000	63.208508 
5192.000000	63.264632 
5191.000000	63.332509 
5190.000000	63.402652 
5189.000000	63.466525 
5188.000000	63.516688 
5187.000000	63.549900 
5186.000000	63.565993 
5185.000000	63.569450 
5184.000000	63.567447 
5183.000000	63.569045 
5182.000000	63.583064 
5181.000000	63.615202 
5180.000000	63.667798 
5179.000000	63.737082 
5178.000000	63.814973 
5177.000000	63.889217 
5176.000000	63.946580 
5175.000000	63.975501 
5174.000000	63.969326 
5173.000000	63.928532 
5172.000000	63.861393 
5171.000000	63.783478 
5170.000000	63.714408 
5169.000000	63.673853 
5168.000000	63.677287 
5167.000000	63.732600 
5166.000000	63.838386 
5165.000000	63.984775 
5164.000000	64.155149 
5163.000000	64.330196 
5162.000000	64.491200 
5161.000000	64.623641 
5160.000000	64.718890 
5159.000000	64.774417 
5158.000000	64.792871 
5157.000000	64.780354 
5156.000000	64.744091 
5155.000000	64.691376 
5154.000000	64.627623 
5153.000000	64.556980 
5152.000000	64.482164 
5151.000000	64.406561 
5150.000000	64.333677 
5149.000000	64.268255 
5148.000000	64.215016 
5147.000000	64.178180 
5146.000000	64.160084 
5145.000000	64.160203 
5144.000000	64.174842 
5143.000000	64.197397 
5142.000000	64.219689 
5141.000000	64.233517 
5140.000000	64.232277 
5139.000000	64.212703 
5138.000000	64.175224 
5137.000000	64.124345 
5136.000000	64.067029 
5135.000000	64.011931 
5134.000000	63.967323 
5133.000000	63.940024 
5132.000000	63.933420 
5131.000000	63.948154 
5130.000000	63.982844 
5129.000000	64.034032 
5128.000000	64.096879 
5127.000000	64.165878 
5126.000000	64.235091 
5125.000000	64.299392 
5124.000000	64.353871 
5123.000000	64.395856 
5122.000000	64.424610 
5121.000000	64.442348 
5120.000000	64.453339 
5119.000000	64.462971 
5118.000000	64.476227 
5117.000000	64.496421 
5116.000000	64.524364 
5115.000000	64.557909 
5114.000000	64.592432 
5113.000000	64.622116 
5112.000000	64.641284 
5111.000000	64.646077 
5110.000000	64.634966 
5109.000000	64.609503 
5108.000000	64.573407 
5107.000000	64.531469 
5106.000000	64.488577 
5105.000000	64.449024 
5104.000000	64.415836 
5103.000000	64.391136 
5102.000000	64.375543 
5101.000000	64.369297 
5100.000000	64.370894 
5099.000000	64.377498 
5098.000000	64.384913 
5097.000000	64.387774 
5096.000000	64.381480 
5095.000000	64.362955 
5094.000000	64.331841 
5093.000000	64.290666 
5092.000000	64.243745 
5091.000000	64.196062 
5090.000000	64.151072 
5089.000000	64.109992 
5088.000000	64.071893 
5087.000000	64.034652 
5086.000000	63.995814 
5085.000000	63.954591 
5084.000000	63.913154 
5083.000000	63.876771 
5082.000000	63.852787 
5081.000000	63.848638 
5080.000000	63.869166 
5079.000000	63.914799 
5078.000000	63.980317 
5077.000000	64.055633 
5076.000000	64.127588 
5075.000000	64.183425 
5074.000000	64.213871 
5073.000000	64.215588 
5072.000000	64.191532 
5071.000000	64.151024 
5070.000000	64.106917 
5069.000000	64.072966 
5068.000000	64.060640 
5067.000000	64.075589 
5066.000000	64.116597 
5065.000000	64.174604 
5064.000000	64.235115 
5063.000000	64.280772 
5062.000000	64.296030 
5061.000000	64.270567 
5060.000000	64.202618 
5059.000000	64.099693 
5058.000000	63.977503 
5057.000000	63.855719 
5056.000000	63.754010 
5055.000000	63.687729 
5054.000000	63.664746 
5053.000000	63.684177 
5052.000000	63.737511 
5051.000000	63.811612 
5050.000000	63.892245 
5049.000000	63.967728 
5048.000000	64.031004 
5047.000000	64.080047 
5046.000000	64.116644 
5045.000000	64.144206 
5044.000000	64.164757 
5043.000000	64.176917 
5042.000000	64.176273 
5041.000000	64.156484 
5040.000000	64.111924 
5039.000000	64.040374 
5038.000000	63.944768 
5037.000000	63.834047 
5036.000000	63.721942 
5035.000000	63.624501 
5034.000000	63.556528 
5033.000000	63.528513 
5032.000000	63.544034 
5031.000000	63.599395 
5030.000000	63.684344 
5029.000000	63.784861 
5028.000000	63.885784 
5027.000000	63.974475 
5026.000000	64.042711 
5025.000000	64.087963 
5024.000000	64.112377 
5023.000000	64.121270 
5022.000000	64.120364 
5021.000000	64.113807 
5020.000000	64.103698 
5019.000000	64.088964 
5018.000000	64.067411 
5017.000000	64.036178 
5016.000000	63.994336 
5015.000000	63.943195 
5014.000000	63.887500 
5013.000000	63.834095 
5012.000000	63.790702 
5011.000000	63.764190 
5010.000000	63.758945 
5009.000000	63.776397 
5008.000000	63.814616 
5007.000000	63.868808 
5006.000000	63.932037 
5005.000000	63.996839 
5004.000000	64.056038 
5003.000000	64.102530 
5002.000000	64.130306 
5001.000000	64.135169 
5000.000000	64.115548 
4999.000000	64.072346 
4998.000000	64.010143 
4997.000000	63.936591 
4996.000000	63.861584 
4995.000000	63.796734 
4994.000000	63.752055 
4993.000000	63.734245 
4992.000000	63.744640 
4991.000000	63.779139 
4990.000000	63.828778 
4989.000000	63.881349 
4988.000000	63.925385 
4987.000000	63.952565 
4986.000000	63.960504 
4985.000000	63.952636 
4984.000000	63.937854 
4983.000000	63.927674 
4982.000000	63.932943 
4981.000000	63.960981 
4980.000000	64.013981 
4979.000000	64.088487 
4978.000000	64.176988 
4977.000000	64.269900 
4976.000000	64.358735 
4975.000000	64.437532 
4974.000000	64.503908 
4973.000000	64.558219 
4972.000000	64.602541 
4971.000000	64.638376 
4970.000000	64.665818 
4969.000000	64.682221 
4968.000000	64.683699 
4967.000000	64.665532 
4966.000000	64.625597 
4965.000000	64.563894 
4964.000000	64.484381 
4963.000000	64.393544 
4962.000000	64.300322 
4961.000000	64.212989 
4960.000000	64.137864 
4959.000000	64.078044 
4958.000000	64.033222 
4957.000000	64.000487 
4956.000000	63.975548 
4955.000000	63.953852 
4954.000000	63.931632 
4953.000000	63.906598 
4952.000000	63.878297 
4951.000000	63.847017 
4950.000000	63.814115 
4949.000000	63.781213 
4948.000000	63.750410 
4947.000000	63.723587 
4946.000000	63.702416 
4945.000000	63.688755 
4944.000000	63.683438 
4943.000000	63.685917 
4942.000000	63.694477 
4941.000000	63.705754 
4940.000000	63.716530 
4939.000000	63.723230 
4938.000000	63.724517 
4937.000000	63.721346 
4936.000000	63.717317 
4935.000000	63.717889 
4934.000000	63.728380 
4933.000000	63.752293 
4932.000000	63.789749 
4931.000000	63.837027 
4930.000000	63.887214 
4929.000000	63.931822 
4928.000000	63.963389 
4927.000000	63.977456 
4926.000000	63.973617 
4925.000000	63.955330 
4924.000000	63.928937 
4923.000000	63.901734 
4922.000000	63.879537 
4921.000000	63.865351 
4920.000000	63.859105 
4919.000000	63.858103 
4918.000000	63.858413 
4917.000000	63.856267 
4916.000000	63.850307 
4915.000000	63.841271 
4914.000000	63.831472 
4913.000000	63.824033 
4912.000000	63.820815 
4911.000000	63.822412 
4910.000000	63.827610 
4909.000000	63.833713 
4908.000000	63.837432 
4907.000000	63.835740 
4906.000000	63.826942 
4905.000000	63.810682 
4904.000000	63.788294 
4903.000000	63.761734 
4902.000000	63.733363 
4901.000000	63.705325 
4900.000000	63.679432 
4899.000000	63.656687 
4898.000000	63.637733 
4897.000000	63.622999 
4896.000000	63.613319 
4895.000000	63.610363 
4894.000000	63.616633 
4893.000000	63.634324 
4892.000000	63.665056 
4891.000000	63.709115 
4890.000000	63.764691 
4889.000000	63.827943 
4888.000000	63.892674 
4887.000000	63.951659 
4886.000000	63.996958 
4885.000000	64.021611 
4884.000000	64.020776 
4883.000000	63.993024 
4882.000000	63.940978 
4881.000000	63.870763 
4880.000000	63.792014 
4879.000000	63.716149 
4878.000000	63.655257 
4877.000000	63.619875 
4876.000000	63.617730 
4875.000000	63.651967 
4874.000000	63.720822 
4873.000000	63.817524 
4872.000000	63.930273 
4871.000000	64.044213 
4870.000000	64.143681 
4869.000000	64.215064 
4868.000000	64.248895 
4867.000000	64.241671 
4866.000000	64.196920 
4865.000000	64.123821 
4864.000000	64.035177 
4863.000000	63.944125 
4862.000000	63.862419 
4861.000000	63.797092 
4860.000000	63.750672 
4859.000000	63.720154 
4858.000000	63.699722 
4857.000000	63.682007 
4856.000000	63.661003 
4855.000000	63.633584 
4854.000000	63.599681 
4853.000000	63.563132 
4852.000000	63.529706 
4851.000000	63.506269 
4850.000000	63.498258 
4849.000000	63.509273 
4848.000000	63.540053 
4847.000000	63.588714 
4846.000000	63.651347 
4845.000000	63.722491 
4844.000000	63.796520 
4843.000000	63.868212 
4842.000000	63.933920 
4841.000000	63.991951 
4840.000000	64.042472 
4839.000000	64.087104 
4838.000000	64.127683 
4837.000000	64.165830 
4836.000000	64.201426 
4835.000000	64.233088 
4834.000000	64.257359 
4833.000000	64.270305 
4832.000000	64.268088 
4831.000000	64.249038 
4830.000000	64.213681 
4829.000000	64.165019 
4828.000000	64.108204 
4827.000000	64.049839 
4826.000000	63.995933 
4825.000000	63.950896 
4824.000000	63.916611 
4823.000000	63.892459 
4822.000000	63.875865 
4821.000000	63.863420 
4820.000000	63.852310 
4819.000000	63.841104 
4818.000000	63.830542 
4817.000000	63.823366 
4816.000000	63.822889 
4815.000000	63.832378 
4814.000000	63.853812 
4813.000000	63.887381 
4812.000000	63.930845 
4811.000000	63.979840 
4810.000000	64.029073 
4809.000000	64.072728 
4808.000000	64.105892 
4807.000000	64.125013 
4806.000000	64.128446 
4805.000000	64.116716 
4804.000000	64.091968 
4803.000000	64.058160 
4802.000000	64.020514 
4801.000000	63.984799 
4800.000000	63.956928 
4799.000000	63.941478 
4798.000000	63.941335 
4797.000000	63.956642 
4796.000000	63.985109 
4795.000000	64.021253 
4794.000000	64.057636 
4793.000000	64.086127 
4792.000000	64.099907 
4791.000000	64.094734 
4790.000000	64.070248 
4789.000000	64.030194 
4788.000000	63.981938 
4787.000000	63.935112 
4786.000000	63.899111 
4785.000000	63.881516 
4784.000000	63.885569 
4783.000000	63.910317 
4782.000000	63.949847 
4781.000000	63.995504 
4780.000000	64.037084 
4779.000000	64.065456 
4778.000000	64.074158 
4777.000000	64.060521 
4776.000000	64.026641 
4775.000000	63.977861 
4774.000000	63.922309 
4773.000000	63.868713 
4772.000000	63.824963 
4771.000000	63.796544 
4770.000000	63.786268 
4769.000000	63.794112 
4768.000000	63.817763 
4767.000000	63.853430 
4766.000000	63.896536 
4765.000000	63.942551 
4764.000000	63.987350 
4763.000000	64.027571 
4762.000000	64.060235 
4761.000000	64.083099 
4760.000000	64.094758 
4759.000000	64.095139 
4758.000000	64.085412 
4757.000000	64.068102 
4756.000000	64.046955 
4755.000000	64.026427 
4754.000000	64.011335 
4753.000000	64.005923 
4752.000000	64.012956 
4751.000000	64.033412 
4750.000000	64.066290 
4749.000000	64.108562 
4748.000000	64.156222 
4747.000000	64.204239 
4746.000000	64.247989 
4745.000000	64.283156 
4744.000000	64.306521 
4743.000000	64.316058 
4742.000000	64.311242 
4741.000000	64.292502 
4740.000000	64.261078 
4739.000000	64.218997 
4738.000000	64.168739 
4737.000000	64.113593 
4736.000000	64.057040 
4735.000000	64.002275 
4734.000000	63.952302 
4733.000000	63.909864 
4732.000000	63.877081 
4731.000000	63.854956 
4730.000000	63.843703 
4729.000000	63.842654 
4728.000000	63.850903 
4727.000000	63.866567 
4726.000000	63.887858 
4725.000000	63.912820 
4724.000000	63.939905 
4723.000000	63.967585 
4722.000000	63.995242 
4721.000000	64.022231 
4720.000000	64.048767 
4719.000000	64.075303 
4718.000000	64.102602 
4717.000000	64.131522 
4716.000000	64.162302 
4715.000000	64.194369 
4714.000000	64.225578 
4713.000000	64.252305 
4712.000000	64.269828 
4711.000000	64.273118 
4710.000000	64.258122 
4709.000000	64.222812 
4708.000000	64.168238 
4707.000000	64.098405 
4706.000000	64.019703 
4705.000000	63.939833 
4704.000000	63.866567 
4703.000000	63.806366 
4702.000000	63.763213 
4701.000000	63.738751 
4700.000000	63.732218 
4699.000000	63.741564 
4698.000000	63.763809 
4697.000000	63.796305 
4696.000000	63.836503 
4695.000000	63.882374 
4694.000000	63.931584 
4693.000000	63.981676 
4692.000000	64.029264 
4691.000000	64.071178 
4690.000000	64.104628 
4689.000000	64.127898 
4688.000000	64.140486 
4687.000000	64.142823 
4686.000000	64.136242 
4685.000000	64.122104 
4684.000000	64.101696 
4683.000000	64.076447 
4682.000000	64.047884 
4681.000000	64.018130 
4680.000000	63.989615 
4679.000000	63.964867 
4678.000000	63.946247 
4677.000000	63.935661 
4676.000000	63.934159 
4675.000000	63.941073 
4674.000000	63.955116 
4673.000000	63.974356 
4672.000000	63.997173 
4671.000000	64.021897 
4670.000000	64.047479 
4669.000000	64.073419 
4668.000000	64.099359 
4667.000000	64.124369 
4666.000000	64.147210 
4665.000000	64.165830 
4664.000000	64.178562 
4663.000000	64.184880 
4662.000000	64.185333 
4661.000000	64.181494 
4660.000000	64.175438 
4659.000000	64.169263 
4658.000000	64.163613 
4657.000000	64.157652 
4656.000000	64.149761 
4655.000000	64.138531 
4654.000000	64.123725 
4653.000000	64.107108 
4652.000000	64.092755 
4651.000000	64.086318 
4650.000000	64.093875 
4649.000000	64.120244 
4648.000000	64.166975 
4647.000000	64.231777 
4646.000000	64.308714 
4645.000000	64.389157 
4644.000000	64.463710 
4643.000000	64.523959 
4642.000000	64.564394 
4641.000000	64.582538 
4640.000000	64.579629 
4639.000000	64.558553 
4638.000000	64.522910 
4637.000000	64.475917 
4636.000000	64.420127 
4635.000000	64.356923 
4634.000000	64.287137 
4633.000000	64.211416 
4632.000000	64.131283 
4631.000000	64.049100 
4630.000000	63.968586 
4629.000000	63.894295 
4628.000000	63.831305 
4627.000000	63.784003 
4626.000000	63.755989 
4625.000000	63.749074 
4624.000000	63.763785 
4623.000000	63.798689 
4622.000000	63.851237 
4621.000000	63.917636 
4620.000000	63.993382 
4619.000000	64.073586 
4618.000000	64.152431 
4617.000000	64.224004 
4616.000000	64.281630 
4615.000000	64.319229 
4614.000000	64.331150 
4613.000000	64.313459 
4612.000000	64.264488 
4611.000000	64.186024 
4610.000000	64.083671 
4609.000000	63.966798 
4608.000000	63.847398 
4607.000000	63.738465 
4606.000000	63.651871 
4605.000000	63.596391 
4604.000000	63.575911 
4603.000000	63.589024 
4602.000000	63.629269 
4601.000000	63.687276 
4600.000000	63.752079 
4599.000000	63.814353 
4598.000000	63.867616 
4597.000000	63.909697 
4596.000000	63.941907 
4595.000000	63.968634 
4594.000000	63.994264 
4593.000000	64.022564 
4592.000000	64.055037 
4591.000000	64.091181 
4590.000000	64.129018 
4589.000000	64.165759 
4588.000000	64.199566 
4587.000000	64.229464 
4586.000000	64.256429 
4585.000000	64.281368 
4584.000000	64.304900 
4583.000000	64.325523 
4582.000000	64.339876 
4581.000000	64.342689 
4580.000000	64.328265 
4579.000000	64.291715 
4578.000000	64.230585 
4577.000000	64.146065 
4576.000000	64.043521 
4575.000000	63.931059 
4574.000000	63.818669 
4573.000000	63.716030 
4572.000000	63.631796 
4571.000000	63.572430 
4570.000000	63.542103 
4569.000000	63.542246 
4568.000000	63.571882 
4567.000000	63.628339 
4566.000000	63.706755 
4565.000000	63.799715 
4564.000000	63.898015 
4563.000000	63.991141 
4562.000000	64.068722 
4561.000000	64.121270 
4560.000000	64.142775 
4559.000000	64.131569 
4558.000000	64.091229 
4557.000000	64.030051 
4556.000000	63.959360 
4555.000000	63.891553 
4554.000000	63.837051 
4553.000000	63.802576 
4552.000000	63.789677 
4551.000000	63.795304 
4550.000000	63.812708 
4549.000000	63.833665 
4548.000000	63.850140 
4547.000000	63.856625 
4546.000000	63.850736 
4545.000000	63.833904 
4544.000000	63.810133 
4543.000000	63.784766 
4542.000000	63.763189 
4541.000000	63.748955 
4540.000000	63.742733 
4539.000000	63.742160 
4538.000000	63.742876 
4537.000000	63.740086 
4536.000000	63.730645 
4535.000000	63.713526 
4534.000000	63.690376 
4533.000000	63.664889 
4532.000000	63.641643 
4531.000000	63.624310 
4530.000000	63.614296 
4529.000000	63.610506 
4528.000000	63.609766 
4527.000000	63.607954 
4526.000000	63.601565 
4525.000000	63.588643 
4524.000000	63.569593 
4523.000000	63.546967 
4522.000000	63.524889 
4521.000000	63.507819 
4520.000000	63.499259 
4519.000000	63.501024 
4518.000000	63.512539 
4517.000000	63.531446 
4516.000000	63.553857 
4515.000000	63.575744 
4514.000000	63.592886 
4513.000000	63.601613 
4512.000000	63.598990 
4511.000000	63.583207 
4510.000000	63.553714 
4509.000000	63.510966 
4508.000000	63.457441 
4507.000000	63.397192 
4506.000000	63.336229 
4505.000000	63.281965 
4504.000000	63.241791 
4503.000000	63.221979 
4502.000000	63.225889 
4501.000000	63.253331 
4500.000000	63.299512 
4499.000000	63.355803 
4498.000000	63.411116 
4497.000000	63.454318 
4496.000000	63.476085 
4495.000000	63.471174 
4494.000000	63.439226 
4493.000000	63.384842 
4492.000000	63.316893 
4491.000000	63.246774 
4490.000000	63.186120 
4489.000000	63.144826 
4488.000000	63.129854 
4487.000000	63.143610 
4486.000000	63.184618 
4485.000000	63.246989 
4484.000000	63.322353 
4483.000000	63.400745 
4482.000000	63.472533 
4481.000000	63.529396 
4480.000000	63.565230 
4479.000000	63.576745 
4478.000000	63.563513 
4477.000000	63.527345 
4476.000000	63.472151 
4475.000000	63.402605 
4474.000000	63.323521 
4473.000000	63.239765 
4472.000000	63.156151 
4471.000000	63.077592 
4470.000000	63.009166 
4469.000000	62.956357 
4468.000000	62.924623 
4467.000000	62.918543 
4466.000000	62.940764 
4465.000000	62.990856 
4464.000000	63.064861 
4463.000000	63.155269 
4462.000000	63.251590 
4461.000000	63.342213 
4460.000000	63.415789 
4459.000000	63.463115 
4458.000000	63.478589 
4457.000000	63.461685 
4456.000000	63.415765 
4455.000000	63.347911 
4454.000000	63.266849 
4453.000000	63.181805 
4452.000000	63.100504 
4451.000000	63.028883 
4450.000000	62.969970 
4449.000000	62.924528 
4448.000000	62.891864 
4447.000000	62.871146 
4446.000000	62.861657 
4445.000000	62.862777 
4444.000000	62.875366 
4443.000000	62.900996 
4442.000000	62.941026 
4441.000000	62.995505 
4440.000000	63.062214 
4439.000000	63.136649 
4438.000000	63.211870 
4437.000000	63.280057 
4436.000000	63.334393 
4435.000000	63.370227 
4434.000000	63.386154 
4433.000000	63.383865 
4432.000000	63.367652 
4431.000000	63.343286 
4430.000000	63.316321 
4429.000000	63.291263 
4428.000000	63.272500 
4427.000000	63.261866 
4426.000000	63.261222 
4425.000000	63.268637 
4424.000000	63.276219 
4423.000000	63.275742 
4422.000000	63.268280 
4421.000000	63.247966 
4420.000000	63.196110 
4419.000000	63.101911 
4418.000000	62.968230 
4417.000000	62.804079 
4416.000000	62.624311 
4415.000000	62.444901 
4414.000000	62.279367 
4413.000000	62.142157 
4412.000000	62.044954 
4411.000000	61.992454 
4410.000000	61.981081 
4409.000000	62.000203 
4408.000000	62.035441 
4407.000000	62.062001 
4406.000000	62.058305 
4405.000000	62.026381 
4404.000000	61.976909 
4403.000000	61.926794 
4402.000000	61.890339 
4401.000000	61.837553 
4400.000000	61.761236 
4399.000000	61.624002 
4398.000000	61.492061 
4397.000000	61.528706 
4396.000000	61.999726 
4395.000000	63.227581 
4394.000000	65.454649 
4393.000000	68.754339 
4392.000000	72.942829 
4391.000000	77.576422 
4390.000000	82.053303 
4389.000000	85.739088 
4388.000000	88.132977 
4387.000000	88.974952 
4386.000000	88.272285 
4385.000000	86.278057 
4384.000000	83.399772 
4383.000000	80.097508 
4382.000000	76.800346 
4381.000000	73.816704 
4380.000000	71.349287 
4379.000000	69.451022 
4378.000000	68.090009 
4377.000000	67.159175 
4376.000000	66.536235 
4375.000000	66.113567 
4374.000000	65.809798 
4373.000000	65.590071 
4372.000000	65.420341 
4371.000000	65.295529 
4370.000000	65.196251 
4369.000000	65.111327 
4368.000000	65.015411 
4367.000000	64.894819 
4366.000000	64.748287 
4365.000000	64.585733 
4364.000000	64.423441 
4363.000000	64.283370 
4362.000000	64.186930 
4361.000000	64.142584 
4360.000000	64.142799 
4359.000000	64.175677 
4358.000000	64.226746 
4357.000000	64.273333 
4356.000000	64.293098 
4355.000000	64.273905 
4354.000000	64.214372 
4353.000000	64.124250 
4352.000000	64.021205 
4351.000000	63.914513 
4350.000000	63.812017 
4349.000000	63.729548 
4348.000000	63.679003 
4347.000000	63.660907 
4346.000000	63.669824 
4345.000000	63.699889 
4344.000000	63.741540 
4343.000000	63.782596 
4342.000000	63.811969 
4341.000000	63.821434 
4340.000000	63.806724 
4339.000000	63.767290 
4338.000000	63.707804 
4337.000000	63.636827 
4336.000000	63.565158 
4335.000000	63.503575 
4334.000000	63.461208 
4333.000000	63.443851 
4332.000000	63.453078 
4331.000000	63.486194 
4330.000000	63.537740 
4329.000000	63.600707 
4328.000000	63.667488 
4327.000000	63.731312 
4326.000000	63.786673 
4325.000000	63.830161 
4324.000000	63.860607 
4323.000000	63.878178 
4322.000000	63.884329 
4321.000000	63.880205 
4320.000000	63.866615 
4319.000000	63.843560 
4318.000000	63.811540 
4317.000000	63.770985 
4316.000000	63.723444 
4315.000000	63.671636 
4314.000000	63.620114 
4313.000000	63.573789 
4312.000000	63.537192 
4311.000000	63.513350 
4310.000000	63.503074 
4309.000000	63.505005 
4308.000000	63.515758 
4307.000000	63.531064 
4306.000000	63.546657 
4305.000000	63.558840 
4304.000000	63.565230 
4303.000000	63.564801 
4302.000000	63.557910 
4301.000000	63.545680 
4300.000000	63.529467 
4299.000000	63.510179 
4298.000000	63.488101 
4297.000000	63.463115 
4296.000000	63.434886 
4295.000000	63.403177 
4294.000000	63.369011 
4293.000000	63.334560 
4292.000000	63.303685 
4291.000000	63.280868 
4290.000000	63.270783 
4289.000000	63.276791 
4288.000000	63.300442 
4287.000000	63.340568 
4286.000000	63.393402 
4285.000000	63.452982 
4284.000000	63.512682 
4283.000000	63.566493 
4282.000000	63.610672 
4281.000000	63.644051 
4280.000000	63.668179 
4279.000000	63.686203 
4278.000000	63.701629 
4277.000000	63.716745 
4276.000000	63.731646 
4275.000000	63.744258 
4274.000000	63.751173 
4273.000000	63.748860 
4272.000000	63.735508 
4271.000000	63.711595 
4270.000000	63.680338 
4269.000000	63.646554 
4268.000000	63.616180 
4267.000000	63.594174 
4266.000000	63.582944 
4265.000000	63.582372 
4264.000000	63.589859 
4263.000000	63.601684 
4262.000000	63.614416 
4261.000000	63.626074 
4260.000000	63.636708 
4259.000000	63.647747 
4258.000000	63.661122 
4257.000000	63.677573 
4256.000000	63.695788 
4255.000000	63.712668 
4254.000000	63.723611 
4253.000000	63.723802 
4252.000000	63.709688 
4251.000000	63.680362 
4250.000000	63.638257 
4249.000000	63.588333 
4248.000000	63.537621 
4247.000000	63.493537 
4246.000000	63.462710 
4245.000000	63.449645 
4244.000000	63.456201 
4243.000000	63.481688 
4242.000000	63.523149 
4241.000000	63.576126 
4240.000000	63.635301 
4239.000000	63.695263 
4238.000000	63.750934 
4237.000000	63.797593 
4236.000000	63.831830 
4235.000000	63.851833 
4234.000000	63.857603 
4233.000000	63.850975 
4232.000000	63.834619 
4231.000000	63.811850 
4230.000000	63.785696 
4229.000000	63.758683 
4228.000000	63.732123 
4227.000000	63.706421 
4226.000000	63.681578 
4225.000000	63.657712 
4224.000000	63.635110 
4223.000000	63.614583 
4222.000000	63.597607 
4221.000000	63.586020 
4220.000000	63.581585 
4219.000000	63.585448 
4218.000000	63.597893 
4217.000000	63.617849 
4216.000000	63.642930 
4215.000000	63.669252 
4214.000000	63.692474 
4213.000000	63.707542 
4212.000000	63.709640 
4211.000000	63.695216 
4210.000000	63.662290 
4209.000000	63.612222 
4208.000000	63.549256 
4207.000000	63.480949 
4206.000000	63.416743 
4205.000000	63.366746 
4204.000000	63.339519 
4203.000000	63.340616 
4202.000000	63.371253 
4201.000000	63.428664 
4200.000000	63.506484 
4199.000000	63.596343 
4198.000000	63.689541 
4197.000000	63.778543 
4196.000000	63.858032 
4195.000000	63.925266 
4194.000000	63.979554 
4193.000000	64.021515 
4192.000000	64.052104 
4191.000000	64.072227 
4190.000000	64.082169 
4189.000000	64.082193 
4188.000000	64.072394 
4187.000000	64.054489 
4186.000000	64.031004 
4185.000000	64.005422 
4184.000000	63.981819 
4183.000000	63.964462 
4182.000000	63.957118 
4181.000000	63.962674 
4180.000000	63.982272 
4179.000000	64.015507 
4178.000000	64.059495 
4177.000000	64.109587 
4176.000000	64.159512 
4175.000000	64.202547 
4174.000000	64.232325 
4173.000000	64.244174 
4172.000000	64.236116 
4171.000000	64.209151 
4170.000000	64.167284 
4169.000000	64.116477 
4168.000000	64.063143 
4167.000000	64.013171 
4166.000000	63.971138 
4165.000000	63.939929 
4164.000000	63.920140 
4163.000000	63.911223 
4162.000000	63.912463 
4161.000000	63.923573 
4160.000000	63.944411 
4159.000000	63.975167 
4158.000000	64.015555 
4157.000000	64.064073 
4156.000000	64.117193 
4155.000000	64.169549 
4154.000000	64.214706 
4153.000000	64.246702 
4152.000000	64.261126 
4151.000000	64.256715 
4150.000000	64.235758 
4149.000000	64.203977 
4148.000000	64.169216 
4147.000000	64.139342 
4146.000000	64.120411 
4145.000000	64.115190 
4144.000000	64.122772 
4143.000000	64.138913 
4142.000000	64.157271 
4141.000000	64.171648 
4140.000000	64.177584 
4139.000000	64.173007 
4138.000000	64.158701 
4137.000000	64.137554 
4136.000000	64.113616 
4135.000000	64.090251 
4134.000000	64.069485 
4133.000000	64.051461 
4132.000000	64.034676 
4131.000000	64.016819 
4130.000000	63.995718 
4129.000000	63.970232 
4128.000000	63.941144 
4127.000000	63.910794 
4126.000000	63.882899 
4125.000000	63.860964 
4124.000000	63.848352 
4123.000000	63.847041 
4122.000000	63.857626 
4121.000000	63.879108 
4120.000000	63.909959 
4119.000000	63.948607 
4118.000000	63.993906 
4117.000000	64.045143 
4116.000000	64.101982 
4115.000000	64.163875 
4114.000000	64.229512 
4113.000000	64.296483 
4112.000000	64.360833 
4111.000000	64.417505 
4110.000000	64.461421 
4109.000000	64.488172 
4108.000000	64.495420 
4107.000000	64.483237 
4106.000000	64.454817 
4105.000000	64.415454 
4104.000000	64.371967 
4103.000000	64.330911 
4102.000000	64.298129 
4101.000000	64.276957 
4100.000000	64.268231 
4099.000000	64.269924 
4098.000000	64.278221 
4097.000000	64.288210 
4096.000000	64.295029 
4095.000000	64.294791 
4094.000000	64.285397 
4093.000000	64.266896 
4092.000000	64.241170 
4091.000000	64.211726 
4090.000000	64.182615 
4089.000000	64.158129 
4088.000000	64.141678 
4087.000000	64.135217 
4086.000000	64.138817 
4085.000000	64.150881 
4084.000000	64.168596 
4083.000000	64.188146 
4082.000000	64.205884 
4081.000000	64.219117 
4080.000000	64.226675 
4079.000000	64.228892 
4078.000000	64.227390 
4077.000000	64.224433 
4076.000000	64.222240 
4075.000000	64.222335 
4074.000000	64.225339 
4073.000000	64.230656 
4072.000000	64.237189 
4071.000000	64.243865 
4070.000000	64.249801 
4069.000000	64.254546 
4068.000000	64.258217 
4067.000000	64.261221 
4066.000000	64.264178 
4065.000000	64.267444 
4064.000000	64.270925 
4063.000000	64.273738 
4062.000000	64.274573 
4061.000000	64.271998 
4060.000000	64.264798 
4059.000000	64.252376 
4058.000000	64.235019 
4057.000000	64.214062 
4056.000000	64.191746 
4055.000000	64.170789 
4054.000000	64.153885 
4053.000000	64.143466 
4052.000000	64.140820 
4051.000000	64.146232 
4050.000000	64.158821 
4049.000000	64.176893 
4048.000000	64.198064 
4047.000000	64.219999 
4046.000000	64.240646 
4045.000000	64.258384 
4044.000000	64.272189 
4043.000000	64.281034 
4042.000000	64.283967 
4041.000000	64.279580 
4040.000000	64.266467 
4039.000000	64.243459 
4038.000000	64.210104 
4037.000000	64.167261 
4036.000000	64.117264 
4035.000000	64.063549 
4034.000000	64.010119 
4033.000000	63.961100 
4032.000000	63.919973 
4031.000000	63.888859 
4030.000000	63.868260 
4029.000000	63.857197 
4028.000000	63.853859 
4027.000000	63.855600 
4026.000000	63.859891 
4025.000000	63.864517 
4024.000000	63.868522 
4023.000000	63.871765 
4022.000000	63.875389 
4021.000000	63.880610 
4020.000000	63.888883 
4019.000000	63.901066 
4018.000000	63.917255 
4017.000000	63.936376 
4016.000000	63.956689 
4015.000000	63.976073 
4014.000000	63.992643 
4013.000000	64.005184 
4012.000000	64.013862 
4011.000000	64.020061 
4010.000000	64.026355 
4009.000000	64.035820 
4008.000000	64.051103 
4007.000000	64.073872 
4006.000000	64.104461 
4005.000000	64.141535 
4004.000000	64.182496 
4003.000000	64.223647 
4002.000000	64.261651 
4001.000000	64.293074 
4000.000000	64.315032 
3999.000000	64.325046 
3998.000000	64.321804 
3997.000000	64.304733 
3996.000000	64.274525 
3995.000000	64.233231 
3994.000000	64.183950 
3993.000000	64.130949 
3992.000000	64.079236 
3991.000000	64.033722 
3990.000000	63.998579 
3989.000000	63.976407 
3988.000000	63.967871 
3987.000000	63.971543 
3986.000000	63.984417 
3985.000000	64.002847 
3984.000000	64.023280 
3983.000000	64.042973 
3982.000000	64.060330 
3981.000000	64.074850 
3980.000000	64.087033 
3979.000000	64.097523 
3978.000000	64.107012 
3977.000000	64.116072 
3976.000000	64.125084 
3975.000000	64.134359 
3974.000000	64.143705 
3973.000000	64.152979 
3972.000000	64.161300 
3971.000000	64.167451 
3970.000000	64.169836 
3969.000000	64.166522 
3968.000000	64.156413 
3967.000000	64.139127 
3966.000000	64.116120 
3965.000000	64.090561 
3964.000000	64.067053 
3963.000000	64.050865 
3962.000000	64.046549 
3961.000000	64.056658 
3960.000000	64.081382 
3959.000000	64.118051 
3958.000000	64.161729 
3957.000000	64.206242 
3956.000000	64.245629 
3955.000000	64.275240 
3954.000000	64.292359 
3953.000000	64.296436 
3952.000000	64.288306 
3951.000000	64.269900 
3950.000000	64.243721 
3949.000000	64.212679 
3948.000000	64.179468 
3947.000000	64.146947 
3946.000000	64.118599 
3945.000000	64.097905 
3944.000000	64.088416 
3943.000000	64.092254 
3942.000000	64.110159 
3941.000000	64.140439 
3940.000000	64.178943 
3939.000000	64.220023 
3938.000000	64.257311 
3937.000000	64.285588 
3936.000000	64.301896 
3935.000000	64.306282 
3934.000000	64.301419 
3933.000000	64.291977 
3932.000000	64.283132 
3931.000000	64.278864 
3930.000000	64.280557 
3929.000000	64.286971 
3928.000000	64.294171 
3927.000000	64.296865 
3926.000000	64.289522 
3925.000000	64.268040 
3924.000000	64.230513 
3923.000000	64.177608 
3922.000000	64.112114 
3921.000000	64.038252 
3920.000000	63.960838 
3919.000000	63.884258 
3918.000000	63.812518 
3917.000000	63.748645 
3916.000000	63.695478 
3915.000000	63.655614 
3914.000000	63.631606 
3913.000000	63.625359 
3912.000000	63.638138 
3911.000000	63.669300 
3910.000000	63.716721 
3909.000000	63.775730 
3908.000000	63.840770 
3907.000000	63.905644 
3906.000000	63.965010 
3905.000000	64.014625 
3904.000000	64.052557 
3903.000000	64.078974 
3902.000000	64.095735 
3901.000000	64.105725 
3900.000000	64.112234 
3899.000000	64.118123 
3898.000000	64.126157 
3897.000000	64.138078 
3896.000000	64.155054 
3895.000000	64.176774 
3894.000000	64.202475 
3893.000000	64.229893 
3892.000000	64.255499 
3891.000000	64.274859 
3890.000000	64.283490 
3889.000000	64.277982 
3888.000000	64.256572 
3887.000000	64.220333 
3886.000000	64.173698 
3885.000000	64.123153 
3884.000000	64.076209 
3883.000000	64.039254 
3882.000000	64.016485 
3881.000000	64.008355 
3880.000000	64.011931 
3879.000000	64.021134 
3878.000000	64.028573 
3877.000000	64.027452 
3876.000000	64.013648 
3875.000000	63.986229 
3874.000000	63.947749 
3873.000000	63.903760 
3872.000000	63.861536 
3871.000000	63.827943 
3870.000000	63.808083 
3869.000000	63.804316 
3868.000000	63.816118 
3867.000000	63.840460 
3866.000000	63.872957 
3865.000000	63.908982 
3864.000000	63.944840 
3863.000000	63.978004 
3862.000000	64.007663 
3861.000000	64.034295 
3860.000000	64.059138 
3859.000000	64.083313 
3858.000000	64.107322 
3857.000000	64.130568 
3856.000000	64.151120 
3855.000000	64.166784 
3854.000000	64.174485 
3853.000000	64.171338 
3852.000000	64.155268 
3851.000000	64.125800 
3850.000000	64.083957 
3849.000000	64.032411 
3848.000000	63.975310 
3847.000000	63.917851 
3846.000000	63.865470 
3845.000000	63.823103 
3844.000000	63.794255 
3843.000000	63.780379 
3842.000000	63.780498 
3841.000000	63.791608 
3840.000000	63.809037 
3839.000000	63.827824 
3838.000000	63.843274 
3837.000000	63.852572 
3836.000000	63.854670 
3835.000000	63.851022 
3834.000000	63.844633 
3833.000000	63.839697 
3832.000000	63.839983 
3831.000000	63.848471 
3830.000000	63.866710 
3829.000000	63.894557 
3828.000000	63.930201 
3827.000000	63.970708 
3826.000000	64.012551 
3825.000000	64.052081 
3824.000000	64.086103 
3823.000000	64.112305 
3822.000000	64.129400 
3821.000000	64.137172 
3820.000000	64.136409 
3819.000000	64.128422 
3818.000000	64.114737 
3817.000000	64.097285 
3816.000000	64.077949 
3815.000000	64.058303 
3814.000000	64.039421 
3813.000000	64.022183 
3812.000000	64.007210 
3811.000000	63.994884 
3810.000000	63.985466 
3809.000000	63.978838 
3808.000000	63.975095 
3807.000000	63.974118 
3806.000000	63.976049 
3805.000000	63.980817 
3804.000000	63.988375 
3803.000000	63.998699 
3802.000000	64.011502 
3801.000000	64.026308 
3800.000000	64.042139 
3799.000000	64.057564 
3798.000000	64.070701 
3797.000000	64.079713 
3796.000000	64.083003 
3795.000000	64.079952 
3794.000000	64.071059 
3793.000000	64.058017 
3792.000000	64.043688 
3791.000000	64.031124 
3790.000000	64.023327 
3789.000000	64.022231 
3788.000000	64.028072 
3787.000000	64.039278 
3786.000000	64.052748 
3785.000000	64.064240 
3784.000000	64.069557 
3783.000000	64.065456 
3782.000000	64.050245 
3781.000000	64.024639 
3780.000000	63.991308 
3779.000000	63.954782 
3778.000000	63.919997 
3777.000000	63.891673 
3776.000000	63.873171 
3775.000000	63.866019 
3774.000000	63.869786 
3773.000000	63.882589 
3772.000000	63.901615 
3771.000000	63.924026 
3770.000000	63.947629 
3769.000000	63.971424 
3768.000000	63.995695 
3767.000000	64.021492 
3766.000000	64.049911 
3765.000000	64.081454 
3764.000000	64.115548 
3763.000000	64.150476 
3762.000000	64.183425 
3761.000000	64.211225 
3760.000000	64.230728 
3759.000000	64.239931 
3758.000000	64.237856 
3757.000000	64.224696 
3756.000000	64.201831 
3755.000000	64.171457 
3754.000000	64.136505 
3753.000000	64.100313 
3752.000000	64.066338 
3751.000000	64.038157 
3750.000000	64.018750 
3749.000000	64.010405 
3748.000000	64.013886 
3747.000000	64.028406 
3746.000000	64.051437 
3745.000000	64.078927 
3744.000000	64.106178 
3743.000000	64.128708 
3742.000000	64.143490 
3741.000000	64.149522 
3740.000000	64.148235 
3739.000000	64.142775 
3738.000000	64.137363 
3737.000000	64.135789 
3736.000000	64.140319 
3735.000000	64.150953 
3734.000000	64.165830 
3733.000000	64.181470 
3732.000000	64.194178 
3731.000000	64.200639 
3730.000000	64.199304 
3729.000000	64.190602 
3728.000000	64.176487 
3727.000000	64.160180 
3726.000000	64.145040 
3725.000000	64.133739 
3724.000000	64.127993 
3723.000000	64.127874 
3722.000000	64.132308 
3721.000000	64.139294 
3720.000000	64.146757 
3719.000000	64.152908 
3718.000000	64.156460 
3717.000000	64.157009 
3716.000000	64.154744 
3715.000000	64.150595 
3714.000000	64.145636 
3713.000000	64.141130 
3712.000000	64.137935 
3711.000000	64.136385 
3710.000000	64.136219 
3709.000000	64.136409 
3708.000000	64.135432 
3707.000000	64.131617 
3706.000000	64.123749 
3705.000000	64.111232 
3704.000000	64.094662 
3703.000000	64.075660 
3702.000000	64.056634 
3701.000000	64.040422 
3700.000000	64.029598 
3699.000000	64.026045 
3698.000000	64.030337 
3697.000000	64.041519 
3696.000000	64.057374 
3695.000000	64.074802 
3694.000000	64.090776 
3693.000000	64.102816 
3692.000000	64.109635 
3691.000000	64.111375 
3690.000000	64.109420 
3689.000000	64.105963 
3688.000000	64.103293 
3687.000000	64.103150 
3686.000000	64.106059 
3685.000000	64.111208 
3684.000000	64.116787 
3683.000000	64.120507 
3682.000000	64.120268 
3681.000000	64.115238 
3680.000000	64.106178 
3679.000000	64.095711 
3678.000000	64.087581 
3677.000000	64.085674 
3676.000000	64.093017 
3675.000000	64.110541 
3674.000000	64.136672 
3673.000000	64.167451 
3672.000000	64.197397 
3671.000000	64.220595 
3670.000000	64.232587 
3669.000000	64.230895 
3668.000000	64.215850 
3667.000000	64.190340 
3666.000000	64.159321 
3665.000000	64.128398 
3664.000000	64.102649 
3663.000000	64.085340 
3662.000000	64.077591 
3661.000000	64.078164 
3660.000000	64.084315 
3659.000000	64.092350 
3658.000000	64.098739 
3657.000000	64.100623 
3656.000000	64.096450 
3655.000000	64.086031 
3654.000000	64.070582 
3653.000000	64.051938 
3652.000000	64.032459 
3651.000000	64.014339 
3650.000000	63.999414 
3649.000000	63.988399 
3648.000000	63.981437 
3647.000000	63.977837 
3646.000000	63.977074 
3645.000000	63.978910 
3644.000000	63.983774 
3643.000000	63.992595 
3642.000000	64.006590 
3641.000000	64.026618 
3640.000000	64.052534 
3639.000000	64.082574 
3638.000000	64.113306 
3637.000000	64.140057 
3636.000000	64.157843 
3635.000000	64.162588 
3634.000000	64.152383 
3633.000000	64.128112 
3632.000000	64.093875 
3631.000000	64.056038 
3630.000000	64.022064 
3629.000000	63.998866 
3628.000000	63.991308 
3627.000000	64.001297 
3626.000000	64.027786 
3625.000000	64.067101 
3624.000000	64.114236 
3623.000000	64.163637 
3622.000000	64.210128 
3621.000000	64.249467 
3620.000000	64.278626 
3619.000000	64.296078 
3618.000000	64.301204 
3617.000000	64.294552 
3616.000000	64.277529 
3615.000000	64.252376 
3614.000000	64.222216 
3613.000000	64.190483 
3612.000000	64.161062 
3611.000000	64.137029 
3610.000000	64.120602 
3609.000000	64.112210 
3608.000000	64.110732 
3607.000000	64.113616 
3606.000000	64.117717 
3605.000000	64.119887 
3604.000000	64.117884 
3603.000000	64.111018 
3602.000000	64.100313 
3601.000000	64.088153 
3600.000000	64.077711 
3599.000000	64.072155 
3598.000000	64.073801 
3597.000000	64.083647 
3596.000000	64.100694 
3595.000000	64.122223 
3594.000000	64.143943 
3593.000000	64.161133 
3592.000000	64.169430 
3591.000000	64.165925 
3590.000000	64.149832 
3589.000000	64.122581 
3588.000000	64.087653 
3587.000000	64.049935 
3586.000000	64.014673 
3585.000000	63.986682 
3584.000000	63.969039 
3583.000000	63.962697 
3582.000000	63.966655 
3581.000000	63.978147 
3580.000000	63.993501 
3579.000000	64.008879 
3578.000000	64.021110 
3577.000000	64.028406 
3576.000000	64.030241 
3575.000000	64.027214 
3574.000000	64.020538 
3573.000000	64.011764 
3572.000000	64.002418 
3571.000000	63.993573 
3570.000000	63.985967 
3569.000000	63.979578 
3568.000000	63.974285 
3567.000000	63.969492 
3566.000000	63.964819 
3565.000000	63.959932 
3564.000000	63.954710 
3563.000000	63.949513 
3562.000000	63.944983 
3561.000000	63.942241 
3560.000000	63.942432 
3559.000000	63.946676 
3558.000000	63.955545 
3557.000000	63.968849 
3556.000000	63.985490 
3555.000000	64.003801 
3554.000000	64.021730 
3553.000000	64.037728 
3552.000000	64.050817 
3551.000000	64.061117 
3550.000000	64.069604 
3549.000000	64.077520 
3548.000000	64.085745 
3547.000000	64.094209 
3546.000000	64.101624 
3545.000000	64.105772 
3544.000000	64.104056 
3543.000000	64.094638 
3542.000000	64.077115 
3541.000000	64.053106 
3540.000000	64.026141 
3539.000000	64.001297 
3538.000000	63.983535 
3537.000000	63.976502 
3536.000000	63.981342 
3535.000000	63.996505 
3534.000000	64.017748 
3533.000000	64.039731 
3532.000000	64.056873 
3531.000000	64.065122 
3530.000000	64.062666 
3529.000000	64.050340 
3528.000000	64.031100 
3527.000000	64.008808 
3526.000000	63.987827 
3525.000000	63.971686 
3524.000000	63.962650 
3523.000000	63.961410 
3522.000000	63.967418 
3521.000000	63.979268 
3520.000000	63.995313 
3519.000000	64.014124 
3518.000000	64.034605 
3517.000000	64.056229 
3516.000000	64.078569 
3515.000000	64.101338 
3514.000000	64.124345 
3513.000000	64.147138 
3512.000000	64.168930 
3511.000000	64.188575 
3510.000000	64.204931 
3509.000000	64.216446 
3508.000000	64.221787 
3507.000000	64.219641 
3506.000000	64.209556 
3505.000000	64.191555 
3504.000000	64.166545 
3503.000000	64.135885 
3502.000000	64.101409 
3501.000000	64.065146 
3500.000000	64.029192 
3499.000000	63.995885 
3498.000000	63.967728 
3497.000000	63.947510 
3496.000000	63.937973 
3495.000000	63.941431 
3494.000000	63.959050 
3493.000000	63.990545 
3492.000000	64.033818 
3491.000000	64.084672 
3490.000000	64.137387 
3489.000000	64.185428 
3488.000000	64.222335 
3487.000000	64.243102 
3486.000000	64.244365 
3485.000000	64.225625 
3484.000000	64.188313 
3483.000000	64.135646 
3482.000000	64.071679 
3481.000000	64.000606 
3480.000000	63.926339 
3479.000000	63.852286 
3478.000000	63.781881 
3477.000000	63.718366 
3476.000000	63.665270 
3475.000000	63.626313 
3474.000000	63.605093 
3473.000000	63.604259 
3472.000000	63.625073 
3471.000000	63.666510 
3470.000000	63.725399 
3469.000000	63.796186 
3468.000000	63.871836 
3467.000000	63.944911 
3466.000000	64.008688 
3465.000000	64.058327 
3464.000000	64.091444 
3463.000000	64.108324 
3462.000000	64.111614 
3461.000000	64.105248 
3460.000000	64.093685 
3459.000000	64.080286 
3458.000000	64.067649 
3457.000000	64.056158 
3456.000000	64.045381 
3455.000000	64.033627 
3454.000000	64.019489 
3453.000000	64.002060 
3452.000000	63.981413 
3451.000000	63.958883 
3450.000000	63.936734 
3449.000000	63.917779 
3448.000000	63.904428 
3447.000000	63.898420 
3446.000000	63.900399 
3445.000000	63.909840 
3444.000000	63.924932 
3443.000000	63.942933 
3442.000000	63.960886 
3441.000000	63.975858 
3440.000000	63.985538 
3439.000000	63.988375 
3438.000000	63.983917 
3437.000000	63.972878 
3436.000000	63.957071 
3435.000000	63.938808 
3434.000000	63.920569 
3433.000000	63.904666 
3432.000000	63.892626 
3431.000000	63.885140 
3430.000000	63.881993 
3429.000000	63.882422 
3428.000000	63.885307 
3427.000000	63.889718 
3426.000000	63.894844 
3425.000000	63.900256 
3424.000000	63.905596 
3423.000000	63.910531 
3422.000000	63.914465 
3421.000000	63.916635 
3420.000000	63.915967 
3419.000000	63.911461 
3418.000000	63.902354 
3417.000000	63.888621 
3416.000000	63.871169 
3415.000000	63.851976 
3414.000000	63.833427 
3413.000000	63.818144 
3412.000000	63.808393 
3411.000000	63.805818 
3410.000000	63.811111 
3409.000000	63.823771 
3408.000000	63.842463 
3407.000000	63.865184 
3406.000000	63.889479 
3405.000000	63.912820 
3404.000000	63.933086 
3403.000000	63.948702 
3402.000000	63.958883 
3401.000000	63.963365 
3400.000000	63.962745 
3399.000000	63.957381 
3398.000000	63.947725 
3397.000000	63.933539 
3396.000000	63.914346 
3395.000000	63.889336 
3394.000000	63.858079 
3393.000000	63.821005 
3392.000000	63.779735 
3391.000000	63.737559 
3390.000000	63.698959 
3389.000000	63.669037 
3388.000000	63.652682 
3387.000000	63.653278 
3386.000000	63.672041 
3385.000000	63.707470 
3384.000000	63.755512 
3383.000000	63.810372 
3382.000000	63.865733 
3381.000000	63.915657 
3380.000000	63.955664 
3379.000000	63.983106 
3378.000000	63.997411 
3377.000000	63.999438 
3376.000000	63.991212 
3375.000000	63.975381 
3374.000000	63.954710 
3373.000000	63.931703 
3372.000000	63.908338 
3371.000000	63.886332 
3370.000000	63.866782 
3369.000000	63.850736 
3368.000000	63.839006 
3367.000000	63.832306 
3366.000000	63.831233 
3365.000000	63.836145 
3364.000000	63.847279 
3363.000000	63.864445 
3362.000000	63.887047 
3361.000000	63.913846 
3360.000000	63.943147 
3359.000000	63.972687 
3358.000000	63.999915 
3357.000000	64.022326 
3356.000000	64.037680 
3355.000000	64.044308 
3354.000000	64.041423 
3353.000000	64.029073 
3352.000000	64.008569 
3351.000000	63.981747 
3350.000000	63.950967 
3349.000000	63.918781 
3348.000000	63.887858 
3347.000000	63.860845 
3346.000000	63.839888 
3345.000000	63.826346 
3344.000000	63.820672 
3343.000000	63.822078 
3342.000000	63.828969 
3341.000000	63.838744 
3340.000000	63.848257 
3339.000000	63.854575 
3338.000000	63.855266 
3337.000000	63.848996 
3336.000000	63.835811 
3335.000000	63.817358 
3334.000000	63.796448 
3333.000000	63.776898 
3332.000000	63.762545 
3331.000000	63.756752 
3330.000000	63.761329 
3329.000000	63.776254 
3328.000000	63.799214 
3327.000000	63.826203 
3326.000000	63.852190 
3325.000000	63.872122 
3324.000000	63.882303 
3323.000000	63.880872 
3322.000000	63.868713 
3321.000000	63.849043 
3320.000000	63.826775 
3319.000000	63.807463 
3318.000000	63.795852 
3317.000000	63.794755 
3316.000000	63.804435 
3315.000000	63.822770 
3314.000000	63.845801 
3313.000000	63.868808 
3312.000000	63.887572 
3311.000000	63.899207 
3310.000000	63.902735 
3309.000000	63.898944 
3308.000000	63.889932 
3307.000000	63.878440 
3306.000000	63.867282 
3305.000000	63.858795 
3304.000000	63.854670 
3303.000000	63.855767 
3302.000000	63.862419 
3301.000000	63.874316 
3300.000000	63.890767 
3299.000000	63.910531 
3298.000000	63.931918 
3297.000000	63.952803 
3296.000000	63.970780 
3295.000000	63.983535 
3294.000000	63.989233 
3293.000000	63.987088 
3292.000000	63.977432 
3291.000000	63.961887 
3290.000000	63.943219 
3289.000000	63.924479 
3288.000000	63.908648 
3287.000000	63.897919 
3286.000000	63.893413 
3285.000000	63.894891 
3284.000000	63.901114 
3283.000000	63.910222 
3282.000000	63.920283 
3281.000000	63.929557 
3280.000000	63.936805 
3279.000000	63.941264 
3278.000000	63.942766 
3277.000000	63.941335 
3276.000000	63.937258 
3275.000000	63.930916 
3274.000000	63.922929 
3273.000000	63.914322 
3272.000000	63.906526 
3271.000000	63.901448 
3270.000000	63.900899 
3269.000000	63.906550 
3268.000000	63.919138 
3267.000000	63.938379 
3266.000000	63.962626 
3265.000000	63.989090 
3264.000000	64.014410 
3263.000000	64.035391 
3262.000000	64.049506 
3261.000000	64.055657 
3260.000000	64.053845 
3259.000000	64.045166 
3258.000000	64.031410 
3257.000000	64.014697 
3256.000000	63.996863 
3255.000000	63.979363 
3254.000000	63.963413 
3253.000000	63.949990 
3252.000000	63.940095 
3251.000000	63.934707 
3250.000000	63.934779 
3249.000000	63.940882 
3248.000000	63.952827 
3247.000000	63.969731 
3246.000000	63.989663 
3245.000000	64.010119 
3244.000000	64.028263 
3243.000000	64.041590 
3242.000000	64.048457 
3241.000000	64.048075 
3240.000000	64.041042 
3239.000000	64.028859 
3238.000000	64.013671 
3237.000000	63.997888 
3236.000000	63.984084 
3235.000000	63.974475 
3234.000000	63.970780 
3233.000000	63.973951 
3232.000000	63.984203 
3231.000000	64.000678 
3230.000000	64.021658 
3229.000000	64.044570 
3228.000000	64.066314 
3227.000000	64.083814 
3226.000000	64.094495 
3225.000000	64.096975 
3224.000000	64.091467 
3223.000000	64.079833 
3222.000000	64.065003 
3221.000000	64.050674 
3220.000000	64.039993 
3219.000000	64.035105 
3218.000000	64.036226 
3217.000000	64.042067 
3216.000000	64.049577 
3215.000000	64.055204 
3214.000000	64.055562 
3213.000000	64.048290 
3212.000000	64.032745 
3211.000000	64.009976 
3210.000000	63.982725 
3209.000000	63.954043 
3208.000000	63.927412 
3207.000000	63.905549 
3206.000000	63.890171 
3205.000000	63.881850 
3204.000000	63.880205 
3203.000000	63.884186 
3202.000000	63.892197 
3201.000000	63.902616 
3200.000000	63.913750 
3199.000000	63.923978 
3198.000000	63.932132 
3197.000000	63.937401 
3196.000000	63.939285 
3195.000000	63.937711 
3194.000000	63.932657 
3193.000000	63.924193 
3192.000000	63.912272 
3191.000000	63.897228 
3190.000000	63.879466 
3189.000000	63.860225 
3188.000000	63.841462 
3187.000000	63.825869 
3186.000000	63.816785 
3185.000000	63.817453 
3184.000000	63.830399 
3183.000000	63.856720 
3182.000000	63.895463 
3181.000000	63.943457 
3180.000000	63.995695 
3179.000000	64.046072 
3178.000000	64.088463 
3177.000000	64.118099 
3176.000000	64.132475 
3175.000000	64.131426 
3174.000000	64.117121 
3173.000000	64.093589 
3172.000000	64.065742 
3171.000000	64.038562 
3170.000000	64.016008 
3169.000000	64.000868 
3168.000000	63.994240 
3167.000000	63.995814 
3166.000000	64.003992 
3165.000000	64.016461 
3164.000000	64.030766 
3163.000000	64.044380 
3162.000000	64.055585 
3161.000000	64.062952 
3160.000000	64.066076 
3159.000000	64.064979 
3158.000000	64.060473 
3157.000000	64.053559 
3156.000000	64.045357 
3155.000000	64.036893 
3154.000000	64.028954 
3153.000000	64.021897 
3152.000000	64.015984 
3151.000000	64.011335 
3150.000000	64.008021 
3149.000000	64.006018 
3148.000000	64.005517 
3147.000000	64.006829 
3146.000000	64.010143 
3145.000000	64.015245 
3144.000000	64.021563 
3143.000000	64.028072 
3142.000000	64.033722 
3141.000000	64.037370 
3140.000000	64.038395 
3139.000000	64.036655 
3138.000000	64.032959 
3137.000000	64.028334 
3136.000000	64.024019 
3135.000000	64.020609 
3134.000000	64.018130 
3133.000000	64.015936 
3132.000000	64.013147 
3131.000000	64.008879 
3130.000000	64.002966 
3129.000000	63.995718 
3128.000000	63.987994 
3127.000000	63.980817 
3126.000000	63.975119 
3125.000000	63.971233 
3124.000000	63.968753 
3123.000000	63.966631 
3122.000000	63.963699 
3121.000000	63.958859 
3120.000000	63.951563 
3119.000000	63.942122 
3118.000000	63.931775 
3117.000000	63.922381 
3116.000000	63.916015 
3115.000000	63.914370 
3114.000000	63.918018 
3113.000000	63.926625 
3112.000000	63.938641 
3111.000000	63.951587 
3110.000000	63.962769 
3109.000000	63.969707 
3108.000000	63.971066 
3107.000000	63.966512 
3106.000000	63.957452 
3105.000000	63.946342 
3104.000000	63.936591 
3103.000000	63.931584 
3102.000000	63.934278 
3101.000000	63.946247 
3100.000000	63.967514 
3099.000000	63.996529 
3098.000000	64.030432 
3097.000000	64.065647 
3096.000000	64.098525 
3095.000000	64.125943 
3094.000000	64.145684 
3093.000000	64.156723 
3092.000000	64.159011 
3091.000000	64.153361 
3090.000000	64.141058 
3089.000000	64.123535 
3088.000000	64.102268 
3087.000000	64.078426 
3086.000000	64.053273 
3085.000000	64.027786 
3084.000000	64.003205 
3083.000000	63.980746 
3082.000000	63.961505 
3081.000000	63.946509 
3080.000000	63.936519 
3079.000000	63.931798 
3078.000000	63.932204 
3077.000000	63.937211 
3076.000000	63.945889 
3075.000000	63.956928 
3074.000000	63.968777 
3073.000000	63.980102 
3072.000000	63.989448 
3071.000000	63.995957 
3070.000000	63.999295 
3069.000000	63.999700 
3068.000000	63.997745 
3067.000000	63.994169 
3066.000000	63.989710 
3065.000000	63.984513 
3064.000000	63.978338 
3063.000000	63.970541 
3062.000000	63.960552 
3061.000000	63.948059 
3060.000000	63.933348 
3059.000000	63.917446 
3058.000000	63.902020 
3057.000000	63.889193 
3056.000000	63.881278 
3055.000000	63.879942 
3054.000000	63.886260 
3053.000000	63.900184 
3052.000000	63.920783 
3051.000000	63.946223 
3050.000000	63.974094 
3049.000000	64.001941 
3048.000000	64.027404 
3047.000000	64.048624 
3046.000000	64.064145 
3045.000000	64.073228 
3044.000000	64.075446 
3043.000000	64.070844 
3042.000000	64.059734 
3041.000000	64.042901 
3040.000000	64.021348 
3039.000000	63.996386 
3038.000000	63.969612 
3037.000000	63.942956 
3036.000000	63.918399 
3035.000000	63.897776 
3034.000000	63.882541 
3033.000000	63.873529 
3032.000000	63.870692 
3031.000000	63.873147 
3030.000000	63.879275 
3029.000000	63.887143 
3028.000000	63.894701 
3027.000000	63.900399 
3026.000000	63.903307 
3025.000000	63.903188 
3024.000000	63.900256 
3023.000000	63.895201 
3022.000000	63.888764 
3021.000000	63.881683 
3020.000000	63.874650 
3019.000000	63.868284 
3018.000000	63.863086 
3017.000000	63.859677 
3016.000000	63.858747 
3015.000000	63.860940 
3014.000000	63.866710 
3013.000000	63.876152 
3012.000000	63.888978 
3011.000000	63.904428 
3010.000000	63.921451 
3009.000000	63.938832 
3008.000000	63.955473 
3007.000000	63.970494 
3006.000000	63.983559 
3005.000000	63.994526 
3004.000000	64.003539 
3003.000000	64.010858 
3002.000000	64.016795 
3001.000000	64.021587 
3000.000000	64.025163 
2999.000000	64.027738 
2998.000000	64.029026 
2997.000000	64.029264 
2996.000000	64.028263 
2995.000000	64.025950 
2994.000000	64.022064 
2993.000000	64.016246 
2992.000000	64.008164 
2991.000000	63.997626 
2990.000000	63.984704 
2989.000000	63.969969 
2988.000000	63.954520 
2987.000000	63.939762 
2986.000000	63.927364 
2985.000000	63.918805 
2984.000000	63.914966 
2983.000000	63.915967 
2982.000000	63.920974 
2981.000000	63.928389 
2980.000000	63.936138 
2979.000000	63.942122 
2978.000000	63.944745 
2977.000000	63.943076 
2976.000000	63.936948 
2975.000000	63.926863 
2974.000000	63.913750 
2973.000000	63.898539 
2972.000000	63.881778 
2971.000000	63.863945 
2970.000000	63.845109 
2969.000000	63.825559 
2968.000000	63.805723 
2967.000000	63.786530 
2966.000000	63.769245 
2965.000000	63.755321 
2964.000000	63.745808 
2963.000000	63.741493 
2962.000000	63.742375 
2961.000000	63.747835 
2960.000000	63.756346 
2959.000000	63.766598 
2958.000000	63.777375 
2957.000000	63.788247 
2956.000000	63.799214 
2955.000000	63.810801 
2954.000000	63.823699 
2953.000000	63.838267 
2952.000000	63.854336 
2951.000000	63.870930 
2950.000000	63.886427 
2949.000000	63.898921 
2948.000000	63.906598 
2947.000000	63.908147 
2946.000000	63.903045 
2945.000000	63.891863 
2944.000000	63.876080 
2943.000000	63.857746 
2942.000000	63.839173 
2941.000000	63.822770 
2940.000000	63.810133 
2939.000000	63.801789 
2938.000000	63.796877 
2937.000000	63.794016 
2936.000000	63.790845 
2935.000000	63.784694 
2934.000000	63.773298 
2933.000000	63.755440 
2932.000000	63.730835 
2931.000000	63.700461 
2930.000000	63.666439 
2929.000000	63.631486 
2928.000000	63.598585 
2927.000000	63.570427 
2926.000000	63.548874 
2925.000000	63.534641 
2924.000000	63.527393 
2923.000000	63.526082 
2922.000000	63.528943 
2921.000000	63.534212 
2920.000000	63.540339 
2919.000000	63.546800 
2918.000000	63.553333 
2917.000000	63.560843 
2916.000000	63.570451 
2915.000000	63.583612 
2914.000000	63.601446 
2913.000000	63.624691 
2912.000000	63.653278 
2911.000000	63.686370 
2910.000000	63.722443 
2909.000000	63.759589 
2908.000000	63.795566 
2907.000000	63.828182 
2906.000000	63.855671 
2905.000000	63.876485 
2904.000000	63.889408 
2903.000000	63.893675 
2902.000000	63.889217 
2901.000000	63.876628 
2900.000000	63.857007 
2899.000000	63.832426 
2898.000000	63.805222 
2897.000000	63.778018 
2896.000000	63.753080 
2895.000000	63.732266 
2894.000000	63.716769 
2893.000000	63.706970 
2892.000000	63.702535 
2891.000000	63.702797 
2890.000000	63.706755 
2889.000000	63.713407 
2888.000000	63.722038 
2887.000000	63.731813 
2886.000000	63.742136 
2885.000000	63.752317 
2884.000000	63.762044 
2883.000000	63.770818 
2882.000000	63.778519 
2881.000000	63.785481 
2880.000000	63.792371 
2879.000000	63.800144 
2878.000000	63.809680 
2877.000000	63.821530 
2876.000000	63.835477 
2875.000000	63.850355 
2874.000000	63.864541 
2873.000000	63.875865 
2872.000000	63.882279 
2871.000000	63.882374 
2870.000000	63.875579 
2869.000000	63.862395 
2868.000000	63.844466 
2867.000000	63.823938 
2866.000000	63.803410 
2865.000000	63.784956 
2864.000000	63.770270 
2863.000000	63.759970 
2862.000000	63.753771 
2861.000000	63.750600 
2860.000000	63.748955 
2859.000000	63.747477 
2858.000000	63.745141 
2857.000000	63.741803 
2856.000000	63.737893 
2855.000000	63.734793 
2854.000000	63.734316 
2853.000000	63.738203 
2852.000000	63.747572 
2851.000000	63.762569 
2850.000000	63.782048 
2849.000000	63.803577 
2848.000000	63.824200 
2847.000000	63.840746 
2846.000000	63.850879 
2845.000000	63.853526 
2844.000000	63.849091 
2843.000000	63.839292 
2842.000000	63.826727 
2841.000000	63.814163 
2840.000000	63.804078 
2839.000000	63.798093 
2838.000000	63.796806 
2837.000000	63.799881 
2836.000000	63.806486 
2835.000000	63.815546 
2834.000000	63.825988 
2833.000000	63.837051 
2832.000000	63.848233 
2831.000000	63.859081 
2830.000000	63.869261 
2829.000000	63.878202 
2828.000000	63.885617 
2827.000000	63.891100 
2826.000000	63.894605 
2825.000000	63.896369 
2824.000000	63.896822 
2823.000000	63.896441 
2822.000000	63.895606 
2821.000000	63.894534 
2820.000000	63.893389 
2819.000000	63.892436 
2818.000000	63.892054 
2817.000000	63.892865 
2816.000000	63.895940 
2815.000000	63.902115 
2814.000000	63.912200 
2813.000000	63.926196 
2812.000000	63.943338 
2811.000000	63.961982 
2810.000000	63.979935 
2809.000000	63.994669 
2808.000000	64.004135 
2807.000000	64.007019 
2806.000000	64.003324 
2805.000000	63.994336 
2804.000000	63.982462 
2803.000000	63.970685 
2802.000000	63.961887 
2801.000000	63.958287 
2800.000000	63.961315 
2799.000000	63.971042 
2798.000000	63.986277 
2797.000000	64.004898 
2796.000000	64.024353 
2795.000000	64.041924 
2794.000000	64.055466 
2793.000000	64.063525 
2792.000000	64.065742 
2791.000000	64.062714 
2790.000000	64.055991 
2789.000000	64.047479 
2788.000000	64.039373 
2787.000000	64.033436 
2786.000000	64.030861 
2785.000000	64.032101 
2784.000000	64.036941 
2783.000000	64.044618 
2782.000000	64.053869 
2781.000000	64.063644 
2780.000000	64.073061 
2779.000000	64.081478 
2778.000000	64.088368 
2777.000000	64.093303 
2776.000000	64.095544 
2775.000000	64.094138 
2774.000000	64.088129 
2773.000000	64.076638 
2772.000000	64.059257 
2771.000000	64.036464 
2770.000000	64.009833 
2769.000000	63.981819 
2768.000000	63.955545 
2767.000000	63.934302 
2766.000000	63.920974 
2765.000000	63.917326 
2764.000000	63.923597 
2763.000000	63.938307 
2762.000000	63.958501 
2761.000000	63.980412 
2760.000000	63.999938 
2759.000000	64.013552 
2758.000000	64.018797 
2757.000000	64.015007 
2756.000000	64.003205 
2755.000000	63.986086 
2754.000000	63.967180 
2753.000000	63.950467 
2752.000000	63.939547 
2751.000000	63.936781 
2750.000000	63.943004 
2749.000000	63.957118 
2748.000000	63.976669 
2747.000000	63.998150 
2746.000000	64.018011 
2745.000000	64.033269 
2744.000000	64.042162 
2743.000000	64.044380 
2742.000000	64.040946 
2741.000000	64.033818 
2740.000000	64.025211 
2739.000000	64.016914 
2738.000000	64.009952 
2737.000000	64.004468 
2736.000000	63.999819 
2735.000000	63.995122 
2734.000000	63.989591 
2733.000000	63.983273 
2732.000000	63.977026 
2731.000000	63.972544 
2730.000000	63.971734 
2729.000000	63.976263 
2728.000000	63.986706 
2727.000000	64.002275 
2726.000000	64.020776 
2725.000000	64.039039 
2724.000000	64.053630 
2723.000000	64.061498 
2722.000000	64.061069 
2721.000000	64.052438 
2720.000000	64.037346 
2719.000000	64.018464 
2718.000000	63.998794 
2717.000000	63.980889 
2716.000000	63.966417 
2715.000000	63.955831 
2714.000000	63.948631 
2713.000000	63.943505 
2712.000000	63.939189 
2711.000000	63.934731 
2710.000000	63.929677 
2709.000000	63.924169 
2708.000000	63.918709 
2707.000000	63.914084 
2706.000000	63.910794 
2705.000000	63.909196 
2704.000000	63.909196 
2703.000000	63.910555 
2702.000000	63.913154 
2701.000000	63.916969 
2700.000000	63.922190 
2699.000000	63.929271 
2698.000000	63.938665 
2697.000000	63.950800 
2696.000000	63.965845 
2695.000000	63.983511 
2694.000000	64.003133 
2693.000000	64.023327 
2692.000000	64.042377 
2691.000000	64.058303 
2690.000000	64.069128 
2689.000000	64.073252 
2688.000000	64.069747 
2687.000000	64.058518 
2686.000000	64.040446 
2685.000000	64.017128 
2684.000000	63.990688 
2683.000000	63.963508 
2682.000000	63.937973 
2681.000000	63.916206 
2680.000000	63.900041 
2679.000000	63.890695 
2678.000000	63.889002 
2677.000000	63.895034 
2676.000000	63.908386 
2675.000000	63.927841 
2674.000000	63.951683 
2673.000000	63.977527 
2672.000000	64.002847 
2671.000000	64.024925 
2670.000000	64.041662 
2669.000000	64.051723 
2668.000000	64.054918 
2667.000000	64.052081 
2666.000000	64.044833 
2665.000000	64.035201 
2664.000000	64.025044 
2663.000000	64.015841 
2662.000000	64.008164 
2661.000000	64.001893 
2660.000000	63.996362 
2659.000000	63.990592 
2658.000000	63.983798 
2657.000000	63.975644 
2656.000000	63.966250 
2655.000000	63.956284 
2654.000000	63.946700 
2653.000000	63.938522 
2652.000000	63.932561 
2651.000000	63.929390 
2650.000000	63.929057 
2649.000000	63.931179 
2648.000000	63.935089 
2647.000000	63.940143 
2646.000000	63.945484 
2645.000000	63.950586 
2644.000000	63.955020 
2643.000000	63.958668 
2642.000000	63.961887 
2641.000000	63.965344 
2640.000000	63.969826 
2639.000000	63.976097 
2638.000000	63.984727 
2637.000000	63.995742 
2636.000000	64.008688 
2635.000000	64.022517 
2634.000000	64.035773 
2633.000000	64.047002 
2632.000000	64.054942 
2631.000000	64.058947 
2630.000000	64.058947 
2629.000000	64.055752 
2628.000000	64.050483 
2627.000000	64.044666 
2626.000000	64.039397 
2625.000000	64.035391 
2624.000000	64.032602 
2623.000000	64.030432 
2622.000000	64.027643 
2621.000000	64.023113 
2620.000000	64.015913 
2619.000000	64.005661 
2618.000000	63.992691 
2617.000000	63.977956 
2616.000000	63.962888 
2615.000000	63.949131 
2614.000000	63.938331 
2613.000000	63.931727 
2612.000000	63.929939 
2611.000000	63.932919 
2610.000000	63.939905 
2609.000000	63.949751 
2608.000000	63.960862 
2607.000000	63.971567 
2606.000000	63.980364 
2605.000000	63.986110 
2604.000000	63.987922 
2603.000000	63.985538 
2602.000000	63.979315 
2601.000000	63.970184 
2600.000000	63.959717 
2599.000000	63.949680 
2598.000000	63.942098 
2597.000000	63.938474 
2596.000000	63.939476 
2595.000000	63.944864 
2594.000000	63.953256 
2593.000000	63.962626 
2592.000000	63.970613 
2591.000000	63.975119 
2590.000000	63.975000 
2589.000000	63.970279 
2588.000000	63.962078 
2587.000000	63.952302 
2586.000000	63.943314 
2585.000000	63.936972 
2584.000000	63.934326 
2583.000000	63.935351 
2582.000000	63.939118 
2581.000000	63.944292 
2580.000000	63.949537 
2579.000000	63.954138 
2578.000000	63.958144 
2577.000000	63.962030 
2576.000000	63.966679 
2575.000000	63.972616 
2574.000000	63.979816 
2573.000000	63.987755 
2572.000000	63.995575 
2571.000000	64.002275 
2570.000000	64.007258 
2569.000000	64.010500 
2568.000000	64.012575 
2567.000000	64.014601 
2566.000000	64.017629 
2565.000000	64.022636 
2564.000000	64.029979 
2563.000000	64.039468 
2562.000000	64.050197 
2561.000000	64.061021 
2560.000000	64.070725 
2559.000000	64.078307 
2558.000000	64.083123 
2557.000000	64.084887 
2556.000000	64.083647 
2555.000000	64.079689 
2554.000000	64.073252 
2553.000000	64.064645 
2552.000000	64.054322 
2551.000000	64.042735 
2550.000000	64.030408 
2549.000000	64.017748 
2548.000000	64.005017 
2547.000000	63.992309 
2546.000000	63.979625 
2545.000000	63.966822 
2544.000000	63.953781 
2543.000000	63.940453 
2542.000000	63.926982 
2541.000000	63.913679 
2540.000000	63.900899 
2539.000000	63.889241 
2538.000000	63.879275 
2537.000000	63.871502 
2536.000000	63.866186 
2535.000000	63.863348 
2534.000000	63.862609 
2533.000000	63.863492 
2532.000000	63.865447 
2531.000000	63.868212 
2530.000000	63.871908 
2529.000000	63.877201 
2528.000000	63.884878 
2527.000000	63.895940 
2526.000000	63.910984 
2525.000000	63.929963 
2524.000000	63.951945 
2523.000000	63.974952 
2522.000000	63.996386 
2521.000000	64.013361 
2520.000000	64.023494 
2519.000000	64.025378 
2518.000000	64.018893 
2517.000000	64.005422 
2516.000000	63.987588 
2515.000000	63.968420 
2514.000000	63.951182 
2513.000000	63.938307 
2512.000000	63.931536 
2511.000000	63.931727 
2510.000000	63.938951 
2509.000000	63.952875 
2508.000000	63.972544 
2507.000000	63.996672 
2506.000000	64.023494 
2505.000000	64.050889 
2504.000000	64.076328 
2503.000000	64.097094 
2502.000000	64.110755 
2501.000000	64.115595 
2500.000000	64.110851 
2499.000000	64.096999 
2498.000000	64.075827 
2497.000000	64.050006 
2496.000000	64.022803 
2495.000000	63.997197 
2494.000000	63.975596 
2493.000000	63.959193 
2492.000000	63.948321 
2491.000000	63.941931 
2490.000000	63.938450 
2489.000000	63.935875 
2488.000000	63.932442 
2487.000000	63.926982 
2486.000000	63.918781 
2485.000000	63.908481 
2484.000000	63.897132 
2483.000000	63.886809 
2482.000000	63.879585 
2481.000000	63.877367 
2480.000000	63.881278 
2479.000000	63.891339 
2478.000000	63.906621 
2477.000000	63.925457 
2476.000000	63.945984 
2475.000000	63.966536 
2474.000000	63.985943 
2473.000000	64.003658 
2472.000000	64.019680 
2471.000000	64.034295 
2470.000000	64.047503 
2469.000000	64.058876 
2468.000000	64.067482 
2467.000000	64.072251 
2466.000000	64.072394 
2465.000000	64.067745 
2464.000000	64.059162 
2463.000000	64.048671 
2462.000000	64.038801 
2461.000000	64.032125 
2460.000000	64.030385 
2459.000000	64.034175 
2458.000000	64.042758 
2457.000000	64.054393 
2456.000000	64.066791 
2455.000000	64.077949 
2454.000000	64.086389 
2453.000000	64.091610 
2452.000000	64.093637 
2451.000000	64.093017 
2450.000000	64.090323 
2449.000000	64.085721 
2448.000000	64.079213 
2447.000000	64.070415 
2446.000000	64.059376 
2445.000000	64.046525 
2444.000000	64.033102 
2443.000000	64.020895 
2442.000000	64.011907 
2441.000000	64.007687 
2440.000000	64.008927 
2439.000000	64.014959 
2438.000000	64.024019 
2437.000000	64.033532 
2436.000000	64.040875 
2435.000000	64.043951 
2434.000000	64.041948 
2433.000000	64.035511 
2432.000000	64.026236 
2431.000000	64.016699 
2430.000000	64.009284 
2429.000000	64.005994 
2428.000000	64.007592 
2427.000000	64.013552 
2426.000000	64.022397 
2425.000000	64.031982 
2424.000000	64.040088 
2423.000000	64.045143 
2422.000000	64.046478 
2421.000000	64.044451 
2420.000000	64.040255 
2419.000000	64.035487 
2418.000000	64.031696 
2417.000000	64.030170 
2416.000000	64.031481 
2415.000000	64.035654 
2414.000000	64.042115 
2413.000000	64.050078 
2412.000000	64.058637 
2411.000000	64.067125 
2410.000000	64.074921 
2409.000000	64.081525 
2408.000000	64.086365 
2407.000000	64.088606 
2406.000000	64.087176 
2405.000000	64.080905 
2404.000000	64.068746 
2403.000000	64.050173 
2402.000000	64.025425 
2401.000000	63.995504 
2400.000000	63.962459 
2399.000000	63.928937 
2398.000000	63.897871 
2397.000000	63.872003 
2396.000000	63.853549 
2395.000000	63.843941 
2394.000000	63.843393 
2393.000000	63.851118 
2392.000000	63.865351 
2391.000000	63.883709 
2390.000000	63.903379 
2389.000000	63.921570 
2388.000000	63.935732 
2387.000000	63.944172 
2386.000000	63.945984 
2385.000000	63.941454 
2384.000000	63.931870 
2383.000000	63.919353 
2382.000000	63.906598 
2381.000000	63.896203 
2380.000000	63.890266 
2379.000000	63.889789 
2378.000000	63.894963 
2377.000000	63.904595 
2376.000000	63.917016 
2375.000000	63.929963 
2374.000000	63.941478 
2373.000000	63.949918 
2372.000000	63.954377 
2371.000000	63.954281 
2370.000000	63.949871 
2369.000000	63.941478 
2368.000000	63.929557 
2367.000000	63.914775 
2366.000000	63.897871 
2365.000000	63.879656 
2364.000000	63.861036 
2363.000000	63.842988 
2362.000000	63.826680 
2361.000000	63.813090 
2360.000000	63.803005 
2359.000000	63.796830 
2358.000000	63.794517 
2357.000000	63.795971 
2356.000000	63.801217 
2355.000000	63.809990 
2354.000000	63.822245 
2353.000000	63.837742 
2352.000000	63.856029 
2351.000000	63.876056 
2350.000000	63.896298 
2349.000000	63.914585 
2348.000000	63.928532 
2347.000000	63.935875 
2346.000000	63.935184 
2345.000000	63.925957 
2344.000000	63.909196 
2343.000000	63.887143 
2342.000000	63.862991 
2341.000000	63.840365 
2340.000000	63.822579 
2339.000000	63.812065 
2338.000000	63.809895 
2337.000000	63.815736 
2336.000000	63.827896 
2335.000000	63.843965 
2334.000000	63.861155 
2333.000000	63.876891 
2332.000000	63.889288 
2331.000000	63.897442 
2330.000000	63.901281 
2329.000000	63.901638 
2328.000000	63.899803 
2327.000000	63.897371 
2326.000000	63.895964 
2325.000000	63.896632 
2324.000000	63.900136 
2323.000000	63.906478 
2322.000000	63.915014 
2321.000000	63.924551 
2320.000000	63.933515 
2319.000000	63.940525 
2318.000000	63.944554 
2317.000000	63.945412 
2316.000000	63.943624 
2315.000000	63.940525 
2314.000000	63.937878 
2313.000000	63.937306 
2312.000000	63.940000 
2311.000000	63.946366 
2310.000000	63.955807 
2309.000000	63.967037 
2308.000000	63.978481 
2307.000000	63.988733 
2306.000000	63.996887 
2305.000000	64.002919 
2304.000000	64.007401 
2303.000000	64.011406 
2302.000000	64.015841 
2301.000000	64.021229 
2300.000000	64.027357 
2299.000000	64.033436 
2298.000000	64.038419 
2297.000000	64.041161 
2296.000000	64.041113 
2295.000000	64.038348 
2294.000000	64.033842 
2293.000000	64.028954 
2292.000000	64.025568 
2291.000000	64.025378 
2290.000000	64.029669 
2289.000000	64.038920 
2288.000000	64.052605 
2287.000000	64.069390 
2286.000000	64.087319 
2285.000000	64.104008 
2284.000000	64.117145 
2283.000000	64.124870 
2282.000000	64.126062 
2281.000000	64.120507 
2280.000000	64.108824 
2279.000000	64.092636 
2278.000000	64.074039 
2277.000000	64.055490 
2276.000000	64.039349 
2275.000000	64.027523 
2274.000000	64.021229 
2273.000000	64.020824 
2272.000000	64.025807 
2271.000000	64.034891 
2270.000000	64.046287 
2269.000000	64.057970 
2268.000000	64.067959 
2267.000000	64.074635 
2266.000000	64.076876 
2265.000000	64.074254 
2264.000000	64.067077 
2263.000000	64.056301 
2262.000000	64.043235 
2261.000000	64.029598 
2260.000000	64.016842 
2259.000000	64.006280 
2258.000000	63.998675 
2257.000000	63.994359 
2256.000000	63.993167 
2255.000000	63.994598 
2254.000000	63.997936 
2253.000000	64.002370 
2252.000000	64.007139 
2251.000000	64.011740 
2250.000000	64.015769 
2249.000000	64.019107 
2248.000000	64.021778 
2247.000000	64.023971 
2246.000000	64.025855 
2245.000000	64.027357 
2244.000000	64.028310 
2243.000000	64.028358 
2242.000000	64.026999 
2241.000000	64.023780 
2240.000000	64.018487 
2239.000000	64.011120 
2238.000000	64.002132 
2237.000000	63.992094 
2236.000000	63.981986 
2235.000000	63.972711 
2234.000000	63.965272 
2233.000000	63.960433 
2232.000000	63.958549 
2231.000000	63.959693 
2230.000000	63.963532 
2229.000000	63.969254 
2228.000000	63.975787 
2227.000000	63.982152 
2226.000000	63.987445 
2225.000000	63.991165 
2224.000000	63.993167 
2223.000000	63.993954 
2222.000000	63.994407 
2221.000000	63.995528 
2220.000000	63.998222 
2219.000000	64.002776 
2218.000000	64.008831 
2217.000000	64.015388 
2216.000000	64.020800 
2215.000000	64.023494 
2214.000000	64.022350 
2213.000000	64.017152 
2212.000000	64.008760 
2211.000000	63.998937 
2210.000000	63.990044 
2209.000000	63.984203 
2208.000000	63.983035 
2207.000000	63.987112 
2206.000000	63.995838 
2205.000000	64.007735 
2204.000000	64.020919 
2203.000000	64.033555 
2202.000000	64.044404 
2201.000000	64.052915 
2200.000000	64.059281 
2199.000000	64.064073 
2198.000000	64.067816 
2197.000000	64.070606 
2196.000000	64.072060 
2195.000000	64.071393 
2194.000000	64.067625 
2193.000000	64.060139 
2192.000000	64.048838 
2191.000000	64.034342 
2190.000000	64.017891 
2189.000000	64.000964 
2188.000000	63.985228 
2187.000000	63.972043 
2186.000000	63.962435 
2185.000000	63.956856 
2184.000000	63.955211 
2183.000000	63.956832 
2182.000000	63.960742 
2181.000000	63.965702 
2180.000000	63.970565 
2179.000000	63.974428 
2178.000000	63.976716 
2177.000000	63.977074 
2176.000000	63.975596 
2175.000000	63.972449 
2174.000000	63.968014 
2173.000000	63.962697 
2172.000000	63.957023 
2171.000000	63.951635 
2170.000000	63.947224 
2169.000000	63.944387 
2168.000000	63.943552 
2167.000000	63.944768 
2166.000000	63.947749 
2165.000000	63.951921 
2164.000000	63.956475 
2163.000000	63.960647 
2162.000000	63.963866 
2161.000000	63.965940 
2160.000000	63.967180 
2159.000000	63.968229 
2158.000000	63.970112 
2157.000000	63.973736 
2156.000000	63.980007 
2155.000000	63.989257 
2154.000000	64.001297 
2153.000000	64.015221 
2152.000000	64.029550 
2151.000000	64.042401 
2150.000000	64.051914 
2149.000000	64.056777 
2148.000000	64.056420 
2147.000000	64.051198 
2146.000000	64.042496 
2145.000000	64.032340 
2144.000000	64.023113 
2143.000000	64.016842 
2142.000000	64.014959 
2141.000000	64.017748 
2140.000000	64.024329 
2139.000000	64.033031 
2138.000000	64.041662 
2137.000000	64.048147 
2136.000000	64.050936 
2135.000000	64.049458 
2134.000000	64.043974 
2133.000000	64.035582 
2132.000000	64.025640 
2131.000000	64.015555 
2130.000000	64.006304 
2129.000000	63.998603 
2128.000000	63.992571 
2127.000000	63.988113 
2126.000000	63.984799 
2125.000000	63.982248 
2124.000000	63.980007 
2123.000000	63.977646 
2122.000000	63.974905 
2121.000000	63.971710 
2120.000000	63.968110 
2119.000000	63.964438 
2118.000000	63.961148 
2117.000000	63.958811 
2116.000000	63.958144 
2115.000000	63.959646 
2114.000000	63.963627 
2113.000000	63.969850 
2112.000000	63.977837 
2111.000000	63.986802 
2110.000000	63.995742 
2109.000000	64.003777 
2108.000000	64.010190 
2107.000000	64.014697 
2106.000000	64.017128 
2105.000000	64.017486 
2104.000000	64.015889 
2103.000000	64.012289 
2102.000000	64.006733 
2101.000000	63.999271 
2100.000000	63.990044 
2099.000000	63.979411 
2098.000000	63.968038 
2097.000000	63.956761 
2096.000000	63.946557 
2095.000000	63.938522 
2094.000000	63.933563 
2093.000000	63.932394 
2092.000000	63.935279 
2091.000000	63.942122 
2090.000000	63.952302 
2089.000000	63.964986 
2088.000000	63.979053 
2087.000000	63.993239 
2086.000000	64.006376 
2085.000000	64.017438 
2084.000000	64.025950 
2083.000000	64.031767 
2082.000000	64.035248 
2081.000000	64.036965 
2080.000000	64.037585 
2079.000000	64.037656 
2078.000000	64.037084 
2077.000000	64.035487 
2076.000000	64.031791 
2075.000000	64.024949 
2074.000000	64.014029 
2073.000000	63.998770 
2072.000000	63.979411 
2071.000000	63.957166 
2070.000000	63.933706 
2069.000000	63.911128 
2068.000000	63.891434 
2067.000000	63.876199 
2066.000000	63.866472 
2065.000000	63.862681 
2064.000000	63.864779 
2063.000000	63.872385 
2062.000000	63.884997 
2061.000000	63.901782 
2060.000000	63.921737 
2059.000000	63.943552 
2058.000000	63.965439 
2057.000000	63.985323 
2056.000000	64.001011 
2055.000000	64.010453 
2054.000000	64.012408 
2053.000000	64.006590 
2052.000000	63.993978 
2051.000000	63.976407 
2050.000000	63.956594 
2049.000000	63.937258 
2048.000000	63.920712 
2047.000000	63.908171 
2046.000000	63.899970 
2045.000000	63.895583 
2044.000000	63.893914 
2043.000000	63.893842 
2042.000000	63.894510 
2041.000000	63.895463 
2040.000000	63.896608 
2039.000000	63.897943 
2038.000000	63.899183 
2037.000000	63.899779 
2036.000000	63.899111 
2035.000000	63.896489 
2034.000000	63.891673 
2033.000000	63.885116 
2032.000000	63.878202 
2031.000000	63.872885 
2030.000000	63.871288 
2029.000000	63.875126 
2028.000000	63.885140 
2027.000000	63.900613 
2026.000000	63.919711 
2025.000000	63.939738 
2024.000000	63.957953 
2023.000000	63.972163 
2022.000000	63.981366 
2021.000000	63.985776 
2020.000000	63.986992 
2019.000000	63.987207 
2018.000000	63.988757 
2017.000000	63.993263 
2016.000000	64.001441 
2015.000000	64.012908 
2014.000000	64.026212 
2013.000000	64.039254 
2012.000000	64.049744 
2011.000000	64.055919 
2010.000000	64.056468 
2009.000000	64.051127 
2008.000000	64.040350 
2007.000000	64.025306 
2006.000000	64.007949 
2005.000000	63.990330 
2004.000000	63.974595 
2003.000000	63.962411 
2002.000000	63.955020 
2001.000000	63.952851 
2000.000000	63.955330 
1999.000000	63.961219 
1998.000000	63.968920 
1997.000000	63.976478 
1996.000000	63.982343 
1995.000000	63.985419 
1994.000000	63.985204 
1993.000000	63.982057 
1992.000000	63.976740 
1991.000000	63.970565 
1990.000000	63.965129 
1989.000000	63.962101 
1988.000000	63.962793 
1987.000000	63.967967 
1986.000000	63.977837 
1985.000000	63.991808 
1984.000000	64.008665 
1983.000000	64.026451 
1982.000000	64.042782 
1981.000000	64.055252 
1980.000000	64.061689 
1979.000000	64.060711 
1978.000000	64.052081 
1977.000000	64.036583 
1976.000000	64.016127 
1975.000000	63.993310 
1974.000000	63.971018 
1973.000000	63.951921 
1972.000000	63.938164 
1971.000000	63.930988 
1970.000000	63.930821 
1969.000000	63.937187 
1968.000000	63.948774 
1967.000000	63.963699 
1966.000000	63.979864 
1965.000000	63.995075 
1964.000000	64.007520 
1963.000000	64.015936 
1962.000000	64.019942 
1961.000000	64.020085 
1960.000000	64.017605 
1959.000000	64.014077 
1958.000000	64.011073 
1957.000000	64.009714 
1956.000000	64.010334 
1955.000000	64.012360 
1954.000000	64.014363 
1953.000000	64.014530 
1952.000000	64.011216 
1951.000000	64.003658 
1950.000000	63.991999 
1949.000000	63.977503 
1948.000000	63.962221 
1947.000000	63.948464 
1946.000000	63.938212 
1945.000000	63.932704 
1944.000000	63.932013 
1943.000000	63.935351 
1942.000000	63.941359 
1941.000000	63.948607 
1940.000000	63.955831 
1939.000000	63.962507 
1938.000000	63.968777 
1937.000000	63.975429 
1936.000000	63.983511 
1935.000000	63.993787 
1934.000000	64.006352 
1933.000000	64.020252 
1932.000000	64.033770 
1931.000000	64.044427 
1930.000000	64.049744 
1929.000000	64.047765 
1928.000000	64.037466 
1927.000000	64.019250 
1926.000000	63.995027 
1925.000000	63.967633 
1924.000000	63.940429 
1923.000000	63.916707 
1922.000000	63.899111 
1921.000000	63.889145 
1920.000000	63.887238 
1919.000000	63.892555 
1918.000000	63.903689 
1917.000000	63.918781 
1916.000000	63.936185 
1915.000000	63.954257 
1914.000000	63.971996 
1913.000000	63.988542 
1912.000000	64.003348 
1911.000000	64.015746 
1910.000000	64.025330 
1909.000000	64.031744 
1908.000000	64.034795 
1907.000000	64.034628 
1906.000000	64.031600 
1905.000000	64.026260 
1904.000000	64.019465 
1903.000000	64.011883 
1902.000000	64.004421 
1901.000000	63.997793 
1900.000000	63.992643 
1899.000000	63.989424 
1898.000000	63.988351 
1897.000000	63.989424 
1896.000000	63.992261 
1895.000000	63.996219 
1894.000000	64.000320 
1893.000000	64.003586 
1892.000000	64.005160 
1891.000000	64.004659 
1890.000000	64.001917 
1889.000000	63.997149 
1888.000000	63.990926 
1887.000000	63.984131 
1886.000000	63.977432 
1885.000000	63.971352 
1884.000000	63.966035 
1883.000000	63.961291 
1882.000000	63.956928 
1881.000000	63.952732 
1880.000000	63.948583 
1879.000000	63.944578 
1878.000000	63.941073 
1877.000000	63.938355 
1876.000000	63.936781 
1875.000000	63.936471 
1874.000000	63.937282 
1873.000000	63.938879 
1872.000000	63.940954 
1871.000000	63.943099 
1870.000000	63.945341 
1869.000000	63.947820 
1868.000000	63.951182 
1867.000000	63.956069 
1866.000000	63.963198 
1865.000000	63.972926 
1864.000000	63.985300 
1863.000000	63.999795 
1862.000000	64.015221 
1861.000000	64.030218 
1860.000000	64.043068 
1859.000000	64.052248 
1858.000000	64.056634 
1857.000000	64.055752 
1856.000000	64.049792 
1855.000000	64.039659 
1854.000000	64.026618 
1853.000000	64.012455 
1852.000000	63.998794 
1851.000000	63.987040 
1850.000000	63.978075 
1849.000000	63.972353 
1848.000000	63.969755 
1847.000000	63.969850 
1846.000000	63.971948 
1845.000000	63.975286 
1844.000000	63.979244 
1843.000000	63.983345 
1842.000000	63.987326 
1841.000000	63.991022 
1840.000000	63.994407 
1839.000000	63.997411 
1838.000000	63.999962 
1837.000000	64.001870 
1836.000000	64.002871 
1835.000000	64.002776 
1834.000000	64.001560 
1833.000000	63.999390 
1832.000000	63.996911 
1831.000000	63.994836 
1830.000000	63.994264 
1829.000000	63.995933 
1828.000000	64.000153 
1827.000000	64.006543 
1826.000000	64.013910 
1825.000000	64.020514 
1824.000000	64.024281 
1823.000000	64.023494 
1822.000000	64.016985 
1821.000000	64.004611 
1820.000000	63.987374 
1819.000000	63.967108 
1818.000000	63.946294 
1817.000000	63.927507 
1816.000000	63.913059 
1815.000000	63.904547 
1814.000000	63.902568 
1813.000000	63.906860 
1812.000000	63.916444 
1811.000000	63.929772 
1810.000000	63.945341 
1809.000000	63.961911 
1808.000000	63.978743 
1807.000000	63.995432 
1806.000000	64.011836 
1805.000000	64.027857 
1804.000000	64.043164 
1803.000000	64.057207 
1802.000000	64.069199 
1801.000000	64.078521 
1800.000000	64.084744 
1799.000000	64.087963 
1798.000000	64.088344 
1797.000000	64.086222 
1796.000000	64.081811 
1795.000000	64.075231 
1794.000000	64.066505 
1793.000000	64.055633 
1792.000000	64.042925 
1791.000000	64.029121 
1790.000000	64.015269 
1789.000000	64.002585 
1788.000000	63.992428 
1787.000000	63.985824 
1786.000000	63.983297 
1785.000000	63.984727 
1784.000000	63.989424 
1783.000000	63.996434 
1782.000000	64.004278 
1781.000000	64.011812 
1780.000000	64.017868 
1779.000000	64.021754 
1778.000000	64.023137 
1777.000000	64.021992 
1776.000000	64.018249 
1775.000000	64.012026 
1774.000000	64.003491 
1773.000000	63.992881 
1772.000000	63.980460 
1771.000000	63.966727 
1770.000000	63.952684 
1769.000000	63.939428 
1768.000000	63.928246 
1767.000000	63.920378 
1766.000000	63.917016 
1765.000000	63.918709 
1764.000000	63.925480 
1763.000000	63.936734 
1762.000000	63.951230 
1761.000000	63.967156 
1760.000000	63.982605 
1759.000000	63.995599 
1758.000000	64.004302 
1757.000000	64.007663 
1756.000000	64.005184 
1755.000000	63.996958 
1754.000000	63.983893 
1753.000000	63.967490 
1752.000000	63.949489 
1751.000000	63.931751 
1750.000000	63.915729 
1749.000000	63.902640 
1748.000000	63.892865 
1747.000000	63.886094 
1746.000000	63.881349 
1745.000000	63.877344 
1744.000000	63.872480 
1743.000000	63.865399 
1742.000000	63.855147 
1741.000000	63.841438 
1740.000000	63.824701 
1739.000000	63.806104 
1738.000000	63.787221 
1737.000000	63.769721 
1736.000000	63.755106 
1735.000000	63.744354 
1734.000000	63.737821 
1733.000000	63.735318 
1732.000000	63.736152 
1731.000000	63.739562 
1730.000000	63.744831 
1729.000000	63.751745 
1728.000000	63.760256 
1727.000000	63.770914 
1726.000000	63.784146 
1725.000000	63.800477 
1724.000000	63.819885 
1723.000000	63.841962 
1722.000000	63.865709 
1721.000000	63.889670 
1720.000000	63.912272 
1719.000000	63.932013 
1718.000000	63.947725 
1717.000000	63.958859 
1716.000000	63.965225 
1715.000000	63.967084 
1714.000000	63.965082 
1713.000000	63.959932 
1712.000000	63.952326 
1711.000000	63.942813 
1710.000000	63.931894 
1709.000000	63.920068 
1708.000000	63.907909 
1707.000000	63.896179 
1706.000000	63.886022 
1705.000000	63.878774 
1704.000000	63.875794 
1703.000000	63.878083 
1702.000000	63.886213 
1701.000000	63.899660 
1700.000000	63.916969 
1699.000000	63.935708 
1698.000000	63.952898 
1697.000000	63.965678 
1696.000000	63.971757 
1695.000000	63.969945 
1694.000000	63.960576 
1693.000000	63.945412 
1692.000000	63.927316 
1691.000000	63.909554 
1690.000000	63.895106 
1689.000000	63.886260 
1688.000000	63.883876 
1687.000000	63.887310 
1686.000000	63.894772 
1685.000000	63.903665 
1684.000000	63.911294 
1683.000000	63.915443 
1682.000000	63.914775 
1681.000000	63.909029 
1680.000000	63.898944 
1679.000000	63.886308 
1678.000000	63.873362 
1677.000000	63.862538 
1676.000000	63.856005 
1675.000000	63.855195 
1674.000000	63.860750 
1673.000000	63.872456 
1672.000000	63.889169 
1671.000000	63.909101 
1670.000000	63.930344 
1669.000000	63.950824 
1668.000000	63.968658 
1667.000000	63.982391 
1666.000000	63.991117 
1665.000000	63.994383 
1664.000000	63.992333 
1663.000000	63.985562 
1662.000000	63.975071 
1661.000000	63.962292 
1660.000000	63.948988 
1659.000000	63.936948 
1658.000000	63.928008 
1657.000000	63.923645 
1656.000000	63.924694 
1655.000000	63.931202 
1654.000000	63.942074 
1653.000000	63.955307 
1652.000000	63.968348 
1651.000000	63.978695 
1650.000000	63.984251 
1649.000000	63.983774 
1648.000000	63.977098 
1647.000000	63.964915 
1646.000000	63.948655 
1645.000000	63.929939 
1644.000000	63.910365 
1643.000000	63.891363 
1642.000000	63.873910 
1641.000000	63.858628 
1640.000000	63.845992 
1639.000000	63.836407 
1638.000000	63.830232 
1637.000000	63.827562 
1636.000000	63.828587 
1635.000000	63.833141 
1634.000000	63.840842 
1633.000000	63.850951 
1632.000000	63.862347 
1631.000000	63.873863 
1630.000000	63.884162 
1629.000000	63.892221 
1628.000000	63.897275 
1627.000000	63.898849 
1626.000000	63.896870 
1625.000000	63.891887 
1624.000000	63.884639 
1623.000000	63.876199 
1622.000000	63.867807 
1621.000000	63.860535 
1620.000000	63.855195 
1619.000000	63.852024 
1618.000000	63.850736 
1617.000000	63.850498 
1616.000000	63.850212 
1615.000000	63.848757 
1614.000000	63.845276 
1613.000000	63.839364 
1612.000000	63.831305 
1611.000000	63.821983 
1610.000000	63.812613 
1609.000000	63.804435 
1608.000000	63.798451 
1607.000000	63.795351 
1606.000000	63.795089 
1605.000000	63.797140 
1604.000000	63.800644 
1603.000000	63.804554 
1602.000000	63.808107 
1601.000000	63.810634 
1600.000000	63.811969 
1599.000000	63.812184 
1598.000000	63.811588 
1597.000000	63.810563 
1596.000000	63.809418 
1595.000000	63.808345 
1594.000000	63.807249 
1593.000000	63.806247 
1592.000000	63.805103 
1591.000000	63.803720 
1590.000000	63.801860 
1589.000000	63.799166 
1588.000000	63.795137 
1587.000000	63.789105 
1586.000000	63.780522 
1585.000000	63.768911 
1584.000000	63.754415 
1583.000000	63.737678 
1582.000000	63.720011 
1581.000000	63.703298 
1580.000000	63.689756 
1579.000000	63.681435 
1578.000000	63.679909 
1577.000000	63.685870 
1576.000000	63.699030 
1575.000000	63.718056 
1574.000000	63.740992 
1573.000000	63.765406 
1572.000000	63.788819 
1571.000000	63.808989 
1570.000000	63.823938 
1569.000000	63.832211 
1568.000000	63.832998 
1567.000000	63.826274 
1566.000000	63.812947 
1565.000000	63.794732 
1564.000000	63.774228 
1563.000000	63.754320 
1562.000000	63.737797 
1561.000000	63.726687 
1560.000000	63.722062 
1559.000000	63.723683 
1558.000000	63.730311 
1557.000000	63.739848 
1556.000000	63.750100 
1555.000000	63.759303 
1554.000000	63.766431 
1553.000000	63.771462 
1552.000000	63.775014 
1551.000000	63.778018 
1550.000000	63.781285 
1549.000000	63.785052 
1548.000000	63.789057 
1547.000000	63.792562 
1546.000000	63.794851 
1545.000000	63.795542 
1544.000000	63.794898 
1543.000000	63.793563 
1542.000000	63.792657 
1541.000000	63.793087 
1540.000000	63.795590 
1539.000000	63.800430 
1538.000000	63.807415 
1537.000000	63.816189 
1536.000000	63.826036 
1535.000000	63.836479 
1534.000000	63.846969 
1533.000000	63.857340 
1532.000000	63.867259 
1531.000000	63.876318 
1530.000000	63.883876 
1529.000000	63.889002 
1528.000000	63.890695 
1527.000000	63.887953 
1526.000000	63.880228 
1525.000000	63.867664 
1524.000000	63.851165 
1523.000000	63.832521 
1522.000000	63.813972 
1521.000000	63.797926 
1520.000000	63.786411 
1519.000000	63.780736 
1518.000000	63.781237 
1517.000000	63.787341 
1516.000000	63.797640 
1515.000000	63.810420 
1514.000000	63.823771 
1513.000000	63.836193 
1512.000000	63.846802 
1511.000000	63.855242 
1510.000000	63.861560 
1509.000000	63.866019 
1508.000000	63.868880 
1507.000000	63.870263 
1506.000000	63.870215 
1505.000000	63.868761 
1504.000000	63.866281 
1503.000000	63.863325 
1502.000000	63.860702 
1501.000000	63.859176 
1500.000000	63.859605 
1499.000000	63.862228 
1498.000000	63.866686 
1497.000000	63.872170 
1496.000000	63.877511 
1495.000000	63.881611 
1494.000000	63.883805 
1493.000000	63.884234 
1492.000000	63.883662 
1491.000000	63.883519 
1490.000000	63.885378 
1489.000000	63.890242 
1488.000000	63.898372 
1487.000000	63.909101 
1486.000000	63.920879 
1485.000000	63.931989 
1484.000000	63.940763 
1483.000000	63.946270 
1482.000000	63.948202 
1481.000000	63.946986 
1480.000000	63.943290 
1479.000000	63.937640 
1478.000000	63.930153 
1477.000000	63.920593 
1476.000000	63.908314 
1475.000000	63.892817 
1474.000000	63.874030 
1473.000000	63.852643 
1472.000000	63.830113 
1471.000000	63.808751 
1470.000000	63.791179 
1469.000000	63.779783 
1468.000000	63.776278 
1467.000000	63.781189 
1466.000000	63.793826 
1465.000000	63.812398 
1464.000000	63.834333 
1463.000000	63.856840 
1462.000000	63.877463 
1461.000000	63.894367 
1460.000000	63.906598 
1459.000000	63.913750 
1458.000000	63.915681 
1457.000000	63.912415 
1456.000000	63.903832 
1455.000000	63.890004 
1454.000000	63.871049 
1453.000000	63.847684 
1452.000000	63.821268 
1451.000000	63.793802 
1450.000000	63.767838 
1449.000000	63.745951 
1448.000000	63.730263 
1447.000000	63.722133 
1446.000000	63.721776 
1445.000000	63.728356 
1444.000000	63.740181 
1443.000000	63.755059 
1442.000000	63.770747 
1441.000000	63.785338 
1440.000000	63.797545 
1439.000000	63.806581 
1438.000000	63.812351 
1437.000000	63.815045 
1436.000000	63.815093 
1435.000000	63.813185 
1434.000000	63.809919 
1433.000000	63.806056 
1432.000000	63.802337 
1431.000000	63.799595 
1430.000000	63.798403 
1429.000000	63.799238 
1428.000000	63.801908 
1427.000000	63.806009 
1426.000000	63.810610 
1425.000000	63.814544 
1424.000000	63.816666 
1423.000000	63.816189 
1422.000000	63.812780 
1421.000000	63.806724 
1420.000000	63.798761 
1419.000000	63.789963 
1418.000000	63.781476 
1417.000000	63.774228 
1416.000000	63.769006 
1415.000000	63.766217 
1414.000000	63.765978 
1413.000000	63.768362 
1412.000000	63.773369 
1411.000000	63.781070 
1410.000000	63.791298 
1409.000000	63.803672 
1408.000000	63.817405 
1407.000000	63.831567 
1406.000000	63.844966 
1405.000000	63.856387 
1404.000000	63.865017 
1403.000000	63.870573 
1402.000000	63.873457 
1401.000000	63.874340 
1400.000000	63.873958 
1399.000000	63.872814 
1398.000000	63.870930 
1397.000000	63.867902 
1396.000000	63.862943 
1395.000000	63.855457 
1394.000000	63.845324 
1393.000000	63.833093 
1392.000000	63.820099 
1391.000000	63.807964 
1390.000000	63.798356 
1389.000000	63.792324 
1388.000000	63.789963 
1387.000000	63.790321 
1386.000000	63.791489 
1385.000000	63.791131 
1384.000000	63.787102 
1383.000000	63.778114 
1382.000000	63.764071 
1381.000000	63.746047 
1380.000000	63.726067 
1379.000000	63.706612 
1378.000000	63.690137 
1377.000000	63.678503 
1376.000000	63.672733 
1375.000000	63.672971 
1374.000000	63.678455 
1373.000000	63.688111 
1372.000000	63.700652 
1371.000000	63.714861 
1370.000000	63.729572 
1369.000000	63.743829 
1368.000000	63.756704 
1367.000000	63.767218 
1366.000000	63.774204 
1365.000000	63.776469 
1364.000000	63.773131 
1363.000000	63.763737 
1362.000000	63.748574 
1361.000000	63.728785 
1360.000000	63.706421 
1359.000000	63.684201 
1358.000000	63.664984 
1357.000000	63.651299 
1356.000000	63.645052 
1355.000000	63.646984 
1354.000000	63.656640 
1353.000000	63.672399 
1352.000000	63.691759 
1351.000000	63.711881 
1350.000000	63.729834 
1349.000000	63.743329 
1348.000000	63.750815 
1347.000000	63.752055 
1346.000000	63.747882 
1345.000000	63.740205 
1344.000000	63.731408 
1343.000000	63.724017 
1342.000000	63.720178 
1341.000000	63.721227 
1340.000000	63.727307 
1339.000000	63.737440 
1338.000000	63.749647 
1337.000000	63.761520 
1336.000000	63.770747 
1335.000000	63.775444 
1334.000000	63.774633 
1333.000000	63.768339 
1332.000000	63.757586 
1331.000000	63.744139 
1330.000000	63.729882 
1329.000000	63.716602 
1328.000000	63.705635 
1327.000000	63.697552 
1326.000000	63.692259 
1325.000000	63.689208 
1324.000000	63.687348 
1323.000000	63.685631 
1322.000000	63.682937 
1321.000000	63.678240 
1320.000000	63.670754 
1319.000000	63.659787 
1318.000000	63.645172 
1317.000000	63.626933 
1316.000000	63.605952 
1315.000000	63.583922 
1314.000000	63.563585 
1313.000000	63.548088 
1312.000000	63.540792 
1311.000000	63.544535 
1310.000000	63.560962 
1309.000000	63.589787 
1308.000000	63.628625 
1307.000000	63.673233 
1306.000000	63.718152 
1305.000000	63.757681 
1304.000000	63.787031 
1303.000000	63.803243 
1302.000000	63.805699 
1301.000000	63.796186 
1300.000000	63.778209 
1299.000000	63.756179 
1298.000000	63.734555 
1297.000000	63.716697 
1296.000000	63.704276 
1295.000000	63.697361 
1294.000000	63.694810 
1293.000000	63.695001 
1292.000000	63.696384 
1291.000000	63.697981 
1290.000000	63.699722 
1289.000000	63.702011 
1288.000000	63.705468 
1287.000000	63.710308 
1286.000000	63.716030 
1285.000000	63.721585 
1284.000000	63.725614 
1283.000000	63.726973 
1282.000000	63.725042 
1281.000000	63.720154 
1280.000000	63.713359 
1279.000000	63.706159 
1278.000000	63.700127 
1277.000000	63.696312 
1276.000000	63.695287 
1275.000000	63.696694 
1274.000000	63.699913 
1273.000000	63.704228 
1272.000000	63.709306 
1271.000000	63.715481 
1270.000000	63.723349 
1269.000000	63.733744 
1268.000000	63.747191 
1267.000000	63.763666 
1266.000000	63.782215 
1265.000000	63.801264 
1264.000000	63.818573 
1263.000000	63.832211 
1262.000000	63.840675 
1261.000000	63.843226 
1260.000000	63.839960 
1259.000000	63.831639 
1258.000000	63.819313 
1257.000000	63.804221 
1256.000000	63.787293 
1255.000000	63.769292 
1254.000000	63.750863 
1253.000000	63.732695 
1252.000000	63.715958 
1251.000000	63.702034 
1250.000000	63.692378 
1249.000000	63.688516 
1248.000000	63.691234 
1247.000000	63.700747 
1246.000000	63.716316 
1245.000000	63.736462 
1244.000000	63.759160 
1243.000000	63.782262 
1242.000000	63.803815 
1241.000000	63.822245 
1240.000000	63.836455 
1239.000000	63.845896 
1238.000000	63.850450 
1237.000000	63.850283 
1236.000000	63.845777 
1235.000000	63.837289 
1234.000000	63.825178 
1233.000000	63.809752 
1232.000000	63.791561 
1231.000000	63.771271 
1230.000000	63.749742 
1229.000000	63.728070 
1228.000000	63.707566 
1227.000000	63.689708 
1226.000000	63.676095 
1225.000000	63.668012 
1224.000000	63.666486 
1223.000000	63.672089 
1222.000000	63.684630 
1221.000000	63.703250 
1220.000000	63.726282 
1219.000000	63.751506 
1218.000000	63.776493 
1217.000000	63.798761 
1216.000000	63.816356 
1215.000000	63.828015 
1214.000000	63.833570 
1213.000000	63.833618 
1212.000000	63.829851 
1211.000000	63.824415 
1210.000000	63.819694 
1209.000000	63.817763 
1208.000000	63.819980 
1207.000000	63.827109 
1206.000000	63.838839 
1205.000000	63.854169 
1204.000000	63.871264 
1203.000000	63.888025 
1202.000000	63.902163 
1201.000000	63.911890 
1200.000000	63.915777 
1199.000000	63.913130 
1198.000000	63.904047 
1197.000000	63.889551 
1196.000000	63.871264 
1195.000000	63.851118 
1194.000000	63.831019 
1193.000000	63.812708 
1192.000000	63.797569 
1191.000000	63.786506 
1190.000000	63.779735 
1189.000000	63.776803 
1188.000000	63.777017 
1187.000000	63.779306 
1186.000000	63.782382 
1185.000000	63.785052 
1184.000000	63.786196 
1183.000000	63.785195 
1182.000000	63.781356 
1181.000000	63.774561 
1180.000000	63.764929 
1179.000000	63.753199 
1178.000000	63.740515 
1177.000000	63.728451 
1176.000000	63.718938 
1175.000000	63.713955 
1174.000000	63.715052 
1173.000000	63.722991 
1172.000000	63.737177 
1171.000000	63.755607 
1170.000000	63.775038 
1169.000000	63.791441 
1168.000000	63.800621 
1167.000000	63.799309 
1166.000000	63.785696 
1165.000000	63.759660 
1164.000000	63.723134 
1163.000000	63.679814 
1162.000000	63.634014 
1161.000000	63.590121 
1160.000000	63.551354 
1159.000000	63.519716 
1158.000000	63.495802 
1157.000000	63.478899 
1156.000000	63.467597 
1155.000000	63.460254 
1154.000000	63.455629 
1153.000000	63.452982 
1152.000000	63.452386 
1151.000000	63.454079 
1150.000000	63.458538 
1149.000000	63.466119 
1148.000000	63.476800 
1147.000000	63.489913 
1146.000000	63.504242 
1145.000000	63.518285 
1144.000000	63.530302 
1143.000000	63.539147 
1142.000000	63.544297 
1141.000000	63.546586 
1140.000000	63.547658 
1139.000000	63.549804 
1138.000000	63.555765 
1137.000000	63.567781 
1136.000000	63.587117 
1135.000000	63.613390 
1134.000000	63.644576 
1133.000000	63.677120 
1132.000000	63.707017 
1131.000000	63.730144 
1130.000000	63.743376 
1129.000000	63.745093 
1128.000000	63.735842 
1127.000000	63.717460 
1126.000000	63.692879 
1125.000000	63.665151 
1124.000000	63.637113 
1123.000000	63.610482 
1122.000000	63.585805 
1121.000000	63.562798 
1120.000000	63.540768 
1119.000000	63.518738 
1118.000000	63.495874 
1117.000000	63.471531 
1116.000000	63.445520 
1115.000000	63.417768 
1114.000000	63.388681 
1113.000000	63.358449 
1112.000000	63.327813 
1111.000000	63.297820 
1110.000000	63.270163 
1109.000000	63.246750 
1108.000000	63.229513 
1107.000000	63.219857 
1106.000000	63.218331 
1105.000000	63.224124 
1104.000000	63.235616 
1103.000000	63.250303 
1102.000000	63.265919 
1101.000000	63.280487 
1100.000000	63.293504 
1099.000000	63.305664 
1098.000000	63.319087 
1097.000000	63.336253 
1096.000000	63.359642 
1095.000000	63.390827 
1094.000000	63.429951 
1093.000000	63.475489 
1092.000000	63.524317 
1091.000000	63.572335 
1090.000000	63.615298 
1089.000000	63.649511 
1088.000000	63.672280 
1087.000000	63.682651 
1086.000000	63.681268 
1085.000000	63.670206 
1084.000000	63.652849 
1083.000000	63.632822 
1082.000000	63.613986 
1081.000000	63.599133 
1080.000000	63.590073 
1079.000000	63.586688 
1078.000000	63.587641 
1077.000000	63.590383 
1076.000000	63.591980 
1075.000000	63.589859 
1074.000000	63.582086 
1073.000000	63.568234 
1072.000000	63.549351 
1071.000000	63.527584 
1070.000000	63.505411 
1069.000000	63.485097 
1068.000000	63.468313 
1067.000000	63.455271 
1066.000000	63.445043 
1065.000000	63.435745 
1064.000000	63.425135 
1063.000000	63.411235 
1062.000000	63.392901 
1061.000000	63.370084 
1060.000000	63.343977 
1059.000000	63.316321 
1058.000000	63.289284 
1057.000000	63.264942 
1056.000000	63.244891 
1055.000000	63.229990 
1054.000000	63.220214 
1053.000000	63.214683 
1052.000000	63.211822 
1051.000000	63.209891 
1050.000000	63.207125 
1049.000000	63.201856 
1048.000000	63.193035 
1047.000000	63.180255 
1046.000000	63.164019 
1045.000000	63.145232 
1044.000000	63.125586 
1043.000000	63.106942 
1042.000000	63.091516 
1041.000000	63.081383 
1040.000000	63.078308 
1039.000000	63.083148 
1038.000000	63.095545 
1037.000000	63.113903 
1036.000000	63.135480 
1035.000000	63.157153 
1034.000000	63.175654 
1033.000000	63.188552 
1032.000000	63.194632 
1031.000000	63.194251 
1030.000000	63.188862 
1029.000000	63.180804 
1028.000000	63.172721 
1027.000000	63.166856 
1026.000000	63.164687 
1025.000000	63.167047 
1024.000000	63.174057 
1023.000000	63.185286 
1022.000000	63.200044 
1021.000000	63.217425 
1020.000000	63.236451 
1019.000000	63.255786 
1018.000000	63.273596 
1017.000000	63.287711 
1016.000000	63.295888 
1015.000000	63.296413 
1014.000000	63.288426 
1013.000000	63.272690 
1012.000000	63.251614 
1011.000000	63.228845 
1010.000000	63.208413 
1009.000000	63.194251 
1008.000000	63.189029 
1007.000000	63.193869 
1006.000000	63.207626 
1005.000000	63.227605 
1004.000000	63.249635 
1003.000000	63.269281 
1002.000000	63.282537 
1001.000000	63.286304 
1000.000000	63.279247 
999.000000	 63.261842 
998.000000	 63.236522 
997.000000	 63.206601 
996.000000	 63.176178 
995.000000	 63.149237 
994.000000	 63.129162 
993.000000	 63.118076 
992.000000	 63.116884 
991.000000	 63.125157 
990.000000	 63.141727 
989.000000	 63.164687 
988.000000	 63.192391 
987.000000	 63.223671 
986.000000	 63.257837 
985.000000	 63.294625 
984.000000	 63.333773 
983.000000	 63.374805 
982.000000	 63.416600 
981.000000	 63.456988 
980.000000	 63.493251 
979.000000	 63.522100 
978.000000	 63.540840 
977.000000	 63.547372 
976.000000	 63.540911 
975.000000	 63.521623 
974.000000	 63.491392 
973.000000	 63.452863 
972.000000	 63.409304 
971.000000	 63.363981 
970.000000	 63.320136 
969.000000	 63.280463 
968.000000	 63.247108 
967.000000	 63.221549 
966.000000	 63.204574 
965.000000	 63.196206 
964.000000	 63.195610 
963.000000	 63.201236 
962.000000	 63.210678 
961.000000	 63.221144 
960.000000	 63.229751 
959.000000	 63.234043 
958.000000	 63.232326 
957.000000	 63.224291 
956.000000	 63.211035 
955.000000	 63.194775 
954.000000	 63.178420 
953.000000	 63.164854 
952.000000	 63.156509 
951.000000	 63.154602 
950.000000	 63.159370 
949.000000	 63.170099 
948.000000	 63.185739 
947.000000	 63.204932 
946.000000	 63.226461 
945.000000	 63.249731 
944.000000	 63.274598 
943.000000	 63.300776 
942.000000	 63.327813 
941.000000	 63.354706 
940.000000	 63.380074 
939.000000	 63.402652 
938.000000	 63.421058 
937.000000	 63.434147 
936.000000	 63.441371 
935.000000	 63.443207 
934.000000	 63.440752 
933.000000	 63.435578 
932.000000	 63.429307 
931.000000	 63.423490 
930.000000	 63.420128 
929.000000	 63.421177 
928.000000	 63.428521 
927.000000	 63.443279 
926.000000	 63.465881 
925.000000	 63.494920 
924.000000	 63.527011 
923.000000	 63.556241 
922.000000	 63.576078 
921.000000	 63.579630 
920.000000	 63.560914 
919.000000	 63.516783 
918.000000	 63.447880 
917.000000	 63.359737 
916.000000	 63.261532 
915.000000	 63.165879 
914.000000	 63.086652 
913.000000	 63.036441 
912.000000	 63.024425 
911.000000	 63.053584 
910.000000	 63.120102 
909.000000	 63.213229 
908.000000	 63.317608 
907.000000	 63.415479 
906.000000	 63.490271 
905.000000	 63.529562 
904.000000	 63.526940 
903.000000	 63.483214 
902.000000	 63.405060 
901.000000	 63.303351 
900.000000	 63.189697 
899.000000	 63.073825 
898.000000	 62.961363 
897.000000	 62.854170 
896.000000	 62.750649 
895.000000	 62.648177 
894.000000	 62.545180 
893.000000	 62.442660 
892.000000	 62.345600 
891.000000	 62.261199 
890.000000	 62.198758 
889.000000	 62.165093 
888.000000	 62.165284 
887.000000	 62.199378 
886.000000	 62.263965 
885.000000	 62.351799 
884.000000	 62.454032 
883.000000	 62.561368 
882.000000	 62.665605 
881.000000	 62.760233 
880.000000	 62.840223 
879.000000	 62.901425 
878.000000	 62.940645 
877.000000	 62.955713 
876.000000	 62.946534 
875.000000	 62.915444 
874.000000	 62.868261 
873.000000	 62.813448 
872.000000	 62.761139 
871.000000	 62.720847 
870.000000	 62.700223 
869.000000	 62.702846 
868.000000	 62.727260 
867.000000	 62.767410 
866.000000	 62.814855 
865.000000	 62.860369 
864.000000	 62.895965 
863.000000	 62.916731 
862.000000	 62.921905 
861.000000	 62.914276 
860.000000	 62.898325 
859.000000	 62.879467 
858.000000	 62.862300 
857.000000	 62.849760 
856.000000	 62.842535 
855.000000	 62.839698 
854.000000	 62.839722 
853.000000	 62.841415 
852.000000	 62.844944 
851.000000	 62.851285 
850.000000	 62.861824 
849.000000	 62.878370 
848.000000	 62.902522 
847.000000	 62.934732 
846.000000	 62.973952 
845.000000	 63.017821 
844.000000	 63.062691 
843.000000	 63.104343 
842.000000	 63.138484 
841.000000	 63.161444 
840.000000	 63.170981 
839.000000	 63.166594 
838.000000	 63.150095 
837.000000	 63.124871 
836.000000	 63.096570 
835.000000	 63.071775 
834.000000	 63.057446 
833.000000	 63.060331 
832.000000	 63.084411 
831.000000	 63.130688 
830.000000	 63.194870 
829.000000	 63.268327 
828.000000	 63.338541 
827.000000	 63.391733 
826.000000	 63.416457 
825.000000	 63.406252 
824.000000	 63.361907 
823.000000	 63.291430 
822.000000	 63.207960 
821.000000	 63.126468 
820.000000	 63.060045 
819.000000	 63.016700 
818.000000	 62.998223 
817.000000	 63.000130 
816.000000	 63.013958 
815.000000	 63.029742 
814.000000	 63.038945 
813.000000	 63.036656 
812.000000	 63.022017 
811.000000	 62.998485 
810.000000	 62.971973 
809.000000	 62.949109 
808.000000	 62.934684 
807.000000	 62.930440 
806.000000	 62.934350 
805.000000	 62.941431 
804.000000	 62.945437 
803.000000	 62.940573 
802.000000	 62.923574 
801.000000	 62.894654 
800.000000	 62.857246 
799.000000	 62.817239 
798.000000	 62.781262 
797.000000	 62.754940 
796.000000	 62.741374 
795.000000	 62.741374 
794.000000	 62.753391 
793.000000	 62.774443 
792.000000	 62.801027 
791.000000	 62.829494 
790.000000	 62.856864 
789.000000	 62.880849 
788.000000	 62.900376 
787.000000	 62.914586 
786.000000	 62.923407 
785.000000	 62.927198 
784.000000	 62.926697 
783.000000	 62.922763 
782.000000	 62.916398 
781.000000	 62.908458 
780.000000	 62.899422 
779.000000	 62.889671 
778.000000	 62.879180 
777.000000	 62.867808 
776.000000	 62.855100 
775.000000	 62.840652 
774.000000	 62.824153 
773.000000	 62.805628 
772.000000	 62.785482 
771.000000	 62.764430 
770.000000	 62.743663 
769.000000	 62.724590 
768.000000	 62.708926 
767.000000	 62.698173 
766.000000	 62.693810 
765.000000	 62.696719 
764.000000	 62.706875 
763.000000	 62.723040 
762.000000	 62.742853 
761.000000	 62.763309 
760.000000	 62.781333 
759.000000	 62.794208 
758.000000	 62.800121 
757.000000	 62.798190 
756.000000	 62.788677 
755.000000	 62.772607 
754.000000	 62.751173 
753.000000	 62.725591 
752.000000	 62.696981 
751.000000	 62.666511 
750.000000	 62.635397 
749.000000	 62.605452 
748.000000	 62.578964 
747.000000	 62.558674 
746.000000	 62.547397 
745.000000	 62.547397 
744.000000	 62.559580 
743.000000	 62.583112 
742.000000	 62.615156 
741.000000	 62.651467 
740.000000	 62.686896 
739.000000	 62.716603 
738.000000	 62.736892 
737.000000	 62.745833 
736.000000	 62.743568 
735.000000	 62.731814 
734.000000	 62.713575 
733.000000	 62.692165 
732.000000	 62.670493 
731.000000	 62.650537 
730.000000	 62.632727 
729.000000	 62.616658 
728.000000	 62.601113 
727.000000	 62.584757 
726.000000	 62.566900 
725.000000	 62.547826 
724.000000	 62.529134 
723.000000	 62.513113 
722.000000	 62.502145 
721.000000	 62.497901 
720.000000	 62.501049 
719.000000	 62.510728 
718.000000	 62.524890 
717.000000	 62.540745 
716.000000	 62.555503 
715.000000	 62.566995 
714.000000	 62.574219 
713.000000	 62.577223 
712.000000	 62.576889 
711.000000	 62.574362 
710.000000	 62.570452 
709.000000	 62.565183 
708.000000	 62.557506 
707.000000	 62.545609 
706.000000	 62.527704 
705.000000	 62.502431 
704.000000	 62.469720 
703.000000	 62.430620 
702.000000	 62.387323 
701.000000	 62.343025 
700.000000	 62.301135 
699.000000	 62.264943 
698.000000	 62.236690 
697.000000	 62.217593 
696.000000	 62.207818 
695.000000	 62.206387 
694.000000	 62.211346 
693.000000	 62.220144 
692.000000	 62.230134 
691.000000	 62.239122 
690.000000	 62.245655 
689.000000	 62.249398 
688.000000	 62.250638 
687.000000	 62.250375 
686.000000	 62.249660 
685.000000	 62.249016 
684.000000	 62.247872 
683.000000	 62.244939 
682.000000	 62.238240 
681.000000	 62.225556 
680.000000	 62.205219 
679.000000	 62.176465 
678.000000	 62.140464 
677.000000	 62.099885 
676.000000	 62.059545 
675.000000	 62.025165 
674.000000	 62.002754 
673.000000	 61.997151 
672.000000	 62.011027 
671.000000	 62.044191 
670.000000	 62.093257 
669.000000	 62.152409 
668.000000	 62.213921 
667.000000	 62.269449 
666.000000	 62.311816 
665.000000	 62.336468 
664.000000	 62.341690 
663.000000	 62.328624 
662.000000	 62.300586 
661.000000	 62.262058 
660.000000	 62.217116 
659.000000	 62.168574 
658.000000	 62.117648 
657.000000	 62.064266 
656.000000	 62.008595 
655.000000	 61.951589 
654.000000	 61.895918 
653.000000	 61.845564 
652.000000	 61.805081 
651.000000	 61.778306 
650.000000	 61.766576 
649.000000	 61.768627 
648.000000	 61.779689 
647.000000	 61.793494 
646.000000	 61.803174 
645.000000	 61.804246 
644.000000	 61.795234 
643.000000	 61.779093 
642.000000	 61.762118 
641.000000	 61.752629 
640.000000	 61.758255 
639.000000	 61.783766 
638.000000	 61.829280 
637.000000	 61.890220 
636.000000	 61.958527 
635.000000	 62.024068 
634.000000	 62.076735 
633.000000	 62.108540 
632.000000	 62.115001 
631.000000	 62.095308 
630.000000	 62.052369 
629.000000	 61.991763 
628.000000	 61.920881 
627.000000	 61.847591 
626.000000	 61.779260 
625.000000	 61.722040 
624.000000	 61.680245 
623.000000	 61.656498 
622.000000	 61.651706 
621.000000	 61.664581 
620.000000	 61.692643 
619.000000	 61.732196 
618.000000	 61.779046 
617.000000	 61.828517 
616.000000	 61.876034 
615.000000	 61.917448 
614.000000	 61.949157 
613.000000	 61.968421 
612.000000	 61.973071 
611.000000	 61.962056 
610.000000	 61.935591 
609.000000	 61.895465 
608.000000	 61.844778 
607.000000	 61.787629 
606.000000	 61.728358 
605.000000	 61.670994 
604.000000	 61.617922 
603.000000	 61.569809 
602.000000	 61.525869 
601.000000	 61.484766 
600.000000	 61.444592 
599.000000	 61.404776 
598.000000	 61.366438 
597.000000	 61.333489 
596.000000	 61.311125 
595.000000	 61.305451 
594.000000	 61.320614 
593.000000	 61.358475 
592.000000	 61.416912 
591.000000	 61.490416 
590.000000	 61.571121 
589.000000	 61.649823 
588.000000	 61.718320 
587.000000	 61.769843 
586.000000	 61.800169 
585.000000	 61.807751 
584.000000	 61.793541 
583.000000	 61.760759 
582.000000	 61.714053 
581.000000	 61.658811 
580.000000	 61.600160 
579.000000	 61.541247 
578.000000	 61.482620 
577.000000	 61.422419 
576.000000	 61.357522 
575.000000	 61.284518 
574.000000	 61.201763 
573.000000	 61.110520 
572.000000	 61.015629 
571.000000	 60.924601 
570.000000	 60.846328 
569.000000	 60.788416 
568.000000	 60.756087 
567.000000	 60.750079 
566.000000	 60.767459 
565.000000	 60.800957 
564.000000	 60.842251 
563.000000	 60.883092 
562.000000	 60.917949 
561.000000	 60.944128 
560.000000	 60.962700 
559.000000	 60.977077 
558.000000	 60.991883 
557.000000	 61.010503 
556.000000	 61.035132 
555.000000	 61.065769 
554.000000	 61.100673 
553.000000	 61.136651 
552.000000	 61.169910 
551.000000	 61.196422 
550.000000	 61.212992 
549.000000	 61.217236 
548.000000	 61.207771 
547.000000	 61.184024 
546.000000	 61.147236 
545.000000	 61.099362 
544.000000	 61.043047 
543.000000	 60.980939 
542.000000	 60.916495 
541.000000	 60.852670 
540.000000	 60.791707 
539.000000	 60.734820 
538.000000	 60.682940 
537.000000	 60.636067 
536.000000	 60.593676 
535.000000	 60.554981 
534.000000	 60.518980 
533.000000	 60.485148 
532.000000	 60.453796 
531.000000	 60.425400 
530.000000	 60.400080 
529.000000	 60.377931 
528.000000	 60.358667 
527.000000	 60.341310 
526.000000	 60.324478 
525.000000	 60.307025 
524.000000	 60.288453 
523.000000	 60.269069 
522.000000	 60.250163 
521.000000	 60.233569 
520.000000	 60.221886 
519.000000	 60.216641 
518.000000	 60.219454 
517.000000	 60.232090 
516.000000	 60.256481 
515.000000	 60.294365 
514.000000	 60.346174 
513.000000	 60.410714 
512.000000	 60.483956 
511.000000	 60.559463 
510.000000	 60.628437 
509.000000	 60.681438 
508.000000	 60.709524 
507.000000	 60.706639 
506.000000	 60.670018 
505.000000	 60.601401 
504.000000	 60.506486 
503.000000	 60.394191 
502.000000	 60.275959 
501.000000	 60.163784 
500.000000	 60.068988 
499.000000	 60.000181 
498.000000	 59.961366 
497.000000	 59.951186 
496.000000	 59.962844 
495.000000	 59.985351 
494.000000	 60.005331 
493.000000	 60.010004 
492.000000	 59.989166 
491.000000	 59.937953 
490.000000	 59.856820 
489.000000	 59.752392 
488.000000	 59.635281 
487.000000	 59.518241 
486.000000	 59.413766 
485.000000	 59.330701 
484.000000	 59.273719 
483.000000	 59.240818 
482.000000	 59.225082 
481.000000	 59.215307 
480.000000	 59.198594 
479.000000	 59.164428 
478.000000	 59.107542 
477.000000	 59.028744 
476.000000	 58.933782 
475.000000	 58.833503 
474.000000	 58.740997 
473.000000	 58.667731 
472.000000	 58.620810 
471.000000	 58.602070 
470.000000	 58.607912 
469.000000	 58.630943 
468.000000	 58.662223 
467.000000	 58.693480 
466.000000	 58.719468 
465.000000	 58.738422 
464.000000	 58.752346 
463.000000	 58.765053 
462.000000	 58.781194 
461.000000	 58.804345 
460.000000	 58.835816 
459.000000	 58.874678 
458.000000	 58.916759 
457.000000	 58.958411 
456.000000	 58.992338 
455.000000	 59.010434 
454.000000	 59.002065 
453.000000	 58.958578 
452.000000	 58.870792 
451.000000	 58.731389 
450.000000	 58.537006 
449.000000	 58.290600 
448.000000	 58.002209 
447.000000	 57.688713 
446.000000	 57.372331 
445.000000	 57.077670 
444.000000	 56.826710 
443.000000	 56.635689 
442.000000	 56.510496 
441.000000	 56.447196 
440.000000	 56.435394 
439.000000	 56.461429 
438.000000	 56.510615 
437.000000	 56.571221 
436.000000	 56.631922 
435.000000	 56.687045 
434.000000	 56.729936 
433.000000	 56.760573 
432.000000	 56.785750 
431.000000	 56.817770 
430.000000	 56.869268 
429.000000	 56.951427 
428.000000	 57.070732 
427.000000	 57.226157 
426.000000	 57.409191 
425.000000	 57.604670 
424.000000	 57.791733 
423.000000	 57.953929 
422.000000	 58.085942 
421.000000	 58.185935 
420.000000	 58.253931 
419.000000	 58.289837 
418.000000	 58.292126 
417.000000	 58.248615 
416.000000	 58.141613 
415.000000	 57.953739 
414.000000	 57.678389 
413.000000	 57.334399 
412.000000	 56.961870 
411.000000	 56.624317 
410.000000	 56.381034 
409.000000	 56.274223 
408.000000	 56.303811 
407.000000	 56.417202 
406.000000	 56.523656 
405.000000	 56.514716 
404.000000	 56.303119 
403.000000	 55.840182 
402.000000	 55.152726 
401.000000	 54.333949 
400.000000	 53.542375 
399.000000	 52.948999 
398.000000	 52.723479 
397.000000	 52.987480 
396.000000	 53.791952 
395.000000	 55.102872 
394.000000	 56.797766 
393.000000	 58.685922 
392.000000	 60.548019 
391.000000	 62.178182 
390.000000	 63.408970 
389.000000	 64.135217 
388.000000	 64.338111 
387.000000	 64.074373 
386.000000	 63.430070 
385.000000	 62.499833 
384.000000	 61.419320 
383.000000	 60.311055 
382.000000	 59.243154 
381.000000	 58.238744 
380.000000	 57.313895 
379.000000	 56.466579 
378.000000	 55.737423 
377.000000	 55.153751 
376.000000	 54.685926 
375.000000	 54.286813 
374.000000	 53.903269 
373.000000	 53.491258 
372.000000	 52.998232 
371.000000	 52.432322 
370.000000	 51.864624 

