PE IR       SPECTRUM    SPECTRUM    ASCII       PEDS        1.60        
  -1
C-99E1~1.ASC
17/05/02
11:04:08.00
17/05/02
11:04:08.00
tln
$C-4040-8_t0003$<tbV0>[2.5,-13.0,8.0,0.0,22,1,0]
370.000000
64









2002,4.07    
MIRTGS : RIGHTBACK : INTERNAL 2
MIR : ON : INTERNAL 2
OPTKBR

0.200000
8
8.000000
FILLER
RATIO
SPECTRUM
UNLOCKED 256

DOUBLE
64
COMBINED
1
0
0


1.000000
RATIO


1
0
TRUE
51149
0
LEFT NOT FITTED RIGHT NOT FITTED 0
NONE
NONE
15600
12.000000
4.427000
51148
TRUE
1 0 8 72 0 0 0 0 

15798.010000






#HDR
-1
-1
#GR
CM-1
%T
0.00002384185791015625
0.0
7800.000000
-1.000000
7431
8
73.852038
25.595498
#DATA
7800.000000	70.635914 
7799.000000	69.834899 
7798.000000	68.750929 
7797.000000	67.468237 
7796.000000	66.079020 
7795.000000	64.671230 
7794.000000	63.312053 
7793.000000	62.046694 
7792.000000	60.914254 
7791.000000	59.955978 
7790.000000	59.215044 
7789.000000	58.735227 
7788.000000	58.551073 
7787.000000	58.679151 
7786.000000	59.086465 
7785.000000	59.707665 
7784.000000	60.437417 
7783.000000	61.176395 
7782.000000	61.831092 
7781.000000	62.367677 
7780.000000	62.807869 
7779.000000	63.238906 
7778.000000	63.787627 
7777.000000	64.575743 
7776.000000	65.683913 
7775.000000	67.101740 
7774.000000	68.731045 
7773.000000	70.374798 
7772.000000	71.786236 
7771.000000	72.717761 
7770.000000	72.990751 
7769.000000	72.535943 
7768.000000	71.417951 
7767.000000	69.826841 
7766.000000	68.038225 
7765.000000	66.339802 
7764.000000	64.965891 
7763.000000	64.053273 
7762.000000	63.617348 
7761.000000	63.566446 
7760.000000	63.736462 
7759.000000	63.948249 
7758.000000	64.055275 
7757.000000	63.973593 
7756.000000	63.701033 
7755.000000	63.283109 
7754.000000	62.810659 
7753.000000	62.372136 
7752.000000	62.042570 
7751.000000	61.853146 
7750.000000	61.800003 
7749.000000	61.851501 
7748.000000	61.966395 
7747.000000	62.110161 
7746.000000	62.270665 
7745.000000	62.461256 
7744.000000	62.713170 
7743.000000	63.057017 
7742.000000	63.511419 
7741.000000	64.068293 
7740.000000	64.686584 
7739.000000	65.294981 
7738.000000	65.808391 
7737.000000	66.143035 
7736.000000	66.240024 
7735.000000	66.073441 
7734.000000	65.641570 
7733.000000	64.967513 
7732.000000	64.099025 
7731.000000	63.101768 
7730.000000	62.045860 
7729.000000	61.006760 
7728.000000	60.062313 
7727.000000	59.288716 
7726.000000	58.750128 
7725.000000	58.496499 
7724.000000	58.550477 
7723.000000	58.908891 
7722.000000	59.536528 
7721.000000	60.370945 
7720.000000	61.322927 
7719.000000	62.291097 
7718.000000	63.172173 
7717.000000	63.874650 
7716.000000	64.324951 
7715.000000	64.490318 
7714.000000	64.380359 
7713.000000	64.056706 
7712.000000	63.621282 
7711.000000	63.201141 
7710.000000	62.921524 
7709.000000	62.889266 
7708.000000	63.166308 
7707.000000	63.752889 
7706.000000	64.586496 
7705.000000	65.552425 
7704.000000	66.514348 
7703.000000	67.342472 
7702.000000	67.948865 
7701.000000	68.307709 
7700.000000	68.454384 
7699.000000	68.474435 
7698.000000	68.462300 
7697.000000	68.504524 
7696.000000	68.627405 
7695.000000	68.796515 
7694.000000	68.909764 
7693.000000	68.834567 
7692.000000	68.446683 
7691.000000	67.676186 
7690.000000	66.545128 
7689.000000	65.169715 
7688.000000	63.764333 
7687.000000	62.595272 
7686.000000	61.923742 
7685.000000	61.939120 
7684.000000	62.713932 
7683.000000	64.180636 
7682.000000	66.140222 
7681.000000	68.305683 
7680.000000	70.370173 
7679.000000	72.071075 
7678.000000	73.236608 
7677.000000	73.812222 
7676.000000	73.852038 
7675.000000	73.490095 
7674.000000	72.889304 
7673.000000	72.199511 
7672.000000	71.537446 
7671.000000	70.955276 
7670.000000	70.474410 
7669.000000	70.065021 
7668.000000	69.692492 
7667.000000	69.310545 
7666.000000	68.892359 
7665.000000	68.423748 
7664.000000	67.901635 
7663.000000	67.341732 
7662.000000	66.763591 
7661.000000	66.209483 
7660.000000	65.732884 
7659.000000	65.397262 
7658.000000	65.259122 
7657.000000	65.347766 
7656.000000	65.649533 
7655.000000	66.094779 
7654.000000	66.566538 
7653.000000	66.918492 
7652.000000	67.011237 
7651.000000	66.742396 
7650.000000	66.081953 
7649.000000	65.081453 
7648.000000	63.876104 
7647.000000	62.642383 
7646.000000	61.578464 
7645.000000	60.862112 
7644.000000	60.616016 
7643.000000	60.889172 
7642.000000	61.640691 
7641.000000	62.751436 
7640.000000	64.047050 
7639.000000	65.337395 
7638.000000	66.448640 
7637.000000	67.251181 
7636.000000	67.678356 
7635.000000	67.727351 
7634.000000	67.444491 
7633.000000	66.902685 
7632.000000	66.185021 
7631.000000	65.367579 
7630.000000	64.515256 
7629.000000	63.679862 
7628.000000	62.907958 
7627.000000	62.243294 
7626.000000	61.725044 
7625.000000	61.387372 
7624.000000	61.247277 
7623.000000	61.307477 
7622.000000	61.548733 
7621.000000	61.939549 
7620.000000	62.431049 
7619.000000	62.974357 
7618.000000	63.522100 
7617.000000	64.039611 
7616.000000	64.503502 
7615.000000	64.903426 
7614.000000	65.234088 
7613.000000	65.495276 
7612.000000	65.688443 
7611.000000	65.815019 
7610.000000	65.881252 
7609.000000	65.890693 
7608.000000	65.849757 
7607.000000	65.759682 
7606.000000	65.622234 
7605.000000	65.430307 
7604.000000	65.172743 
7603.000000	64.839911 
7602.000000	64.429903 
7601.000000	63.954806 
7600.000000	63.441896 
7599.000000	62.927341 
7598.000000	62.451052 
7597.000000	62.051105 
7596.000000	61.756157 
7595.000000	61.573743 
7594.000000	61.493945 
7593.000000	61.496543 
7592.000000	61.554169 
7591.000000	61.635470 
7590.000000	61.711454 
7589.000000	61.762356 
7588.000000	61.772847 
7587.000000	61.727547 
7586.000000	61.614251 
7585.000000	61.419081 
7584.000000	61.138486 
7583.000000	60.782551 
7582.000000	60.376834 
7581.000000	59.961128 
7580.000000	59.579682 
7579.000000	59.273743 
7578.000000	59.065914 
7577.000000	58.955430 
7576.000000	58.919763 
7575.000000	58.923816 
7574.000000	58.930420 
7573.000000	58.917307 
7572.000000	58.882570 
7571.000000	58.855652 
7570.000000	58.884286 
7569.000000	59.034633 
7568.000000	59.368109 
7567.000000	59.935021 
7566.000000	60.755300 
7565.000000	61.815881 
7564.000000	63.069367 
7563.000000	64.438199 
7562.000000	65.833020 
7561.000000	67.154693 
7560.000000	68.313550 
7559.000000	69.231677 
7558.000000	69.858145 
7557.000000	70.164895 
7556.000000	70.154190 
7555.000000	69.850492 
7554.000000	69.304370 
7553.000000	68.577671 
7552.000000	67.741942 
7551.000000	66.870403 
7550.000000	66.036081 
7549.000000	65.298223 
7548.000000	64.699125 
7547.000000	64.264965 
7546.000000	64.004230 
7545.000000	63.902640 
7544.000000	63.928890 
7543.000000	64.034438 
7542.000000	64.168095 
7541.000000	64.282178 
7540.000000	64.347457 
7539.000000	64.343643 
7538.000000	64.275288 
7537.000000	64.171266 
7536.000000	64.074468 
7535.000000	64.025235 
7534.000000	64.050531 
7533.000000	64.161419 
7532.000000	64.339041 
7531.000000	64.536595 
7530.000000	64.694046 
7529.000000	64.754891 
7528.000000	64.684414 
7527.000000	64.478278 
7526.000000	64.176511 
7525.000000	63.854098 
7524.000000	63.612914 
7523.000000	63.555932 
7522.000000	63.768744 
7521.000000	64.293885 
7520.000000	65.125107 
7519.000000	66.197323 
7518.000000	67.393684 
7517.000000	68.556976 
7516.000000	69.524717 
7515.000000	70.147466 
7514.000000	70.316410 
7513.000000	69.976210 
7512.000000	69.137144 
7511.000000	67.868185 
7510.000000	66.286706 
7509.000000	64.538764 
7508.000000	62.778353 
7507.000000	61.150312 
7506.000000	59.777951 
7505.000000	58.751392 
7504.000000	58.125066 
7503.000000	57.914185 
7502.000000	58.095216 
7501.000000	58.612298 
7500.000000	59.379220 
7499.000000	60.295009 
7498.000000	61.249709 
7497.000000	62.141799 
7496.000000	62.884998 
7495.000000	63.425493 
7494.000000	63.743758 
7493.000000	63.858628 
7492.000000	63.816308 
7491.000000	63.681364 
7490.000000	63.515400 
7489.000000	63.371467 
7488.000000	63.273501 
7487.000000	63.219499 
7486.000000	63.177490 
7485.000000	63.102316 
7484.000000	62.947297 
7483.000000	62.680196 
7482.000000	62.298274 
7481.000000	61.829400 
7480.000000	61.334490 
7479.000000	60.886096 
7478.000000	60.563302 
7477.000000	60.431504 
7476.000000	60.528516 
7475.000000	60.851216 
7474.000000	61.361217 
7473.000000	61.993646 
7472.000000	62.667489 
7471.000000	63.301491 
7470.000000	63.828253 
7469.000000	64.203977 
7468.000000	64.419126 
7467.000000	64.495706 
7466.000000	64.475584 
7465.000000	64.407730 
7464.000000	64.340901 
7463.000000	64.311861 
7462.000000	64.337611 
7461.000000	64.417171 
7460.000000	64.542603 
7459.000000	64.702558 
7458.000000	64.892864 
7457.000000	65.113997 
7456.000000	65.367436 
7455.000000	65.652990 
7454.000000	65.964531 
7453.000000	66.286921 
7452.000000	66.595220 
7451.000000	66.858673 
7450.000000	67.050385 
7449.000000	67.148184 
7448.000000	67.143154 
7447.000000	67.036890 
7446.000000	66.844534 
7445.000000	66.585922 
7444.000000	66.282558 
7443.000000	65.953779 
7442.000000	65.615105 
7441.000000	65.275239 
7440.000000	64.936351 
7439.000000	64.594435 
7438.000000	64.241743 
7437.000000	63.866686 
7436.000000	63.461494 
7435.000000	63.018441 
7434.000000	62.544679 
7433.000000	62.060332 
7432.000000	61.609005 
7431.000000	61.247205 
7430.000000	61.040782 
7429.000000	61.049675 
7428.000000	61.309909 
7427.000000	61.820220 
7426.000000	62.533307 
7425.000000	63.358759 
7424.000000	64.178371 
7423.000000	64.861869 
7422.000000	65.306353 
7421.000000	65.456175 
7420.000000	65.321826 
7419.000000	64.972901 
7418.000000	64.529252 
7417.000000	64.130425 
7416.000000	63.903164 
7415.000000	63.930678 
7414.000000	64.236068 
7413.000000	64.778828 
7412.000000	65.469884 
7411.000000	66.194748 
7410.000000	66.838979 
7409.000000	67.315244 
7408.000000	67.578744 
7407.000000	67.634606 
7406.000000	67.525172 
7405.000000	67.317986 
7404.000000	67.086124 
7403.000000	66.888356 
7402.000000	66.763567 
7401.000000	66.715431 
7400.000000	66.731595 
7399.000000	66.771340 
7398.000000	66.787004 
7397.000000	66.725850 
7396.000000	66.547799 
7395.000000	66.229724 
7394.000000	65.771102 
7393.000000	65.194725 
7392.000000	64.541172 
7391.000000	63.862657 
7390.000000	63.213205 
7389.000000	62.639212 
7388.000000	62.172484 
7387.000000	61.829948 
7386.000000	61.614751 
7385.000000	61.519598 
7384.000000	61.530733 
7383.000000	61.631751 
7382.000000	61.804914 
7381.000000	62.026619 
7380.000000	62.269663 
7379.000000	62.501239 
7378.000000	62.689924 
7377.000000	62.801218 
7376.000000	62.814617 
7375.000000	62.725472 
7374.000000	62.554502 
7373.000000	62.344622 
7372.000000	62.154626 
7371.000000	62.044167 
7370.000000	62.062859 
7369.000000	62.238073 
7368.000000	62.569308 
7367.000000	63.027572 
7366.000000	63.564181 
7365.000000	64.123415 
7364.000000	64.650940 
7363.000000	65.103602 
7362.000000	65.454530 
7361.000000	65.694522 
7360.000000	65.822672 
7359.000000	65.841388 
7358.000000	65.755391 
7357.000000	65.569925 
7356.000000	65.291023 
7355.000000	64.929151 
7354.000000	64.508247 
7353.000000	64.064145 
7352.000000	63.643288 
7351.000000	63.295221 
7350.000000	63.062596 
7349.000000	62.973999 
7348.000000	63.036727 
7347.000000	63.236880 
7346.000000	63.538289 
7345.000000	63.894510 
7344.000000	64.255762 
7343.000000	64.581990 
7342.000000	64.843440 
7341.000000	65.032505 
7340.000000	65.160655 
7339.000000	65.252757 
7338.000000	65.335321 
7337.000000	65.431666 
7336.000000	65.555667 
7335.000000	65.707182 
7334.000000	65.873265 
7333.000000	66.037511 
7332.000000	66.186261 
7331.000000	66.312003 
7330.000000	66.414976 
7329.000000	66.502261 
7328.000000	66.583442 
7327.000000	66.665673 
7326.000000	66.750144 
7325.000000	66.830182 
7324.000000	66.893792 
7323.000000	66.931319 
7322.000000	66.935586 
7321.000000	66.911005 
7320.000000	66.863703 
7319.000000	66.808319 
7318.000000	66.748785 
7317.000000	66.678237 
7316.000000	66.572046 
7315.000000	66.395854 
7314.000000	66.111493 
7313.000000	65.691280 
7312.000000	65.127468 
7311.000000	64.440989 
7310.000000	63.677668 
7309.000000	62.901878 
7308.000000	62.181520 
7307.000000	61.574459 
7306.000000	61.118578 
7305.000000	60.827326 
7304.000000	60.692238 
7303.000000	60.689926 
7302.000000	60.793399 
7301.000000	60.978388 
7300.000000	61.224508 
7299.000000	61.515164 
7298.000000	61.829733 
7297.000000	62.144494 
7296.000000	62.421417 
7295.000000	62.623548 
7294.000000	62.719559 
7293.000000	62.698078 
7292.000000	62.571740 
7291.000000	62.378811 
7290.000000	62.178564 
7289.000000	62.034988 
7288.000000	62.002110 
7287.000000	62.109398 
7286.000000	62.353968 
7285.000000	62.703418 
7284.000000	63.105797 
7283.000000	63.503098 
7282.000000	63.845658 
7281.000000	64.106178 
7280.000000	64.284682 
7279.000000	64.399075 
7278.000000	64.475488 
7277.000000	64.539504 
7276.000000	64.605355 
7275.000000	64.673757 
7274.000000	64.728999 
7273.000000	64.752507 
7272.000000	64.721417 
7271.000000	64.619946 
7270.000000	64.436960 
7269.000000	64.169311 
7268.000000	63.820600 
7267.000000	63.402915 
7266.000000	62.933921 
7265.000000	62.436318 
7264.000000	61.935567 
7263.000000	61.455321 
7262.000000	61.019682 
7261.000000	60.649228 
7260.000000	60.364532 
7259.000000	60.179972 
7258.000000	60.109996 
7257.000000	60.163450 
7256.000000	60.345029 
7255.000000	60.649108 
7254.000000	61.060667 
7253.000000	61.551976 
7252.000000	62.082576 
7251.000000	62.601375 
7250.000000	63.051295 
7249.000000	63.376903 
7248.000000	63.536238 
7247.000000	63.506793 
7246.000000	63.291239 
7245.000000	62.915754 
7244.000000	62.424755 
7243.000000	61.875510 
7242.000000	61.325240 
7241.000000	60.830569 
7240.000000	60.443234 
7239.000000	60.207390 
7238.000000	60.154724 
7237.000000	60.303378 
7236.000000	60.652065 
7235.000000	61.182713 
7234.000000	61.855292 
7233.000000	62.619113 
7232.000000	63.411998 
7231.000000	64.177966 
7230.000000	64.871740 
7229.000000	65.465712 
7228.000000	65.948629 
7227.000000	66.325473 
7226.000000	66.610908 
7225.000000	66.820597 
7224.000000	66.964149 
7223.000000	67.044258 
7222.000000	67.054629 
7221.000000	66.987895 
7220.000000	66.834688 
7219.000000	66.596555 
7218.000000	66.278481 
7217.000000	65.891623 
7216.000000	65.446019 
7215.000000	64.950752 
7214.000000	64.413022 
7213.000000	63.837456 
7212.000000	63.235497 
7211.000000	62.626647 
7210.000000	62.045550 
7209.000000	61.534214 
7208.000000	61.143493 
7207.000000	60.918164 
7206.000000	60.892701 
7205.000000	61.077928 
7204.000000	61.458611 
7203.000000	61.988282 
7202.000000	62.603044 
7201.000000	63.231635 
7200.000000	63.804936 
7199.000000	64.265608 
7198.000000	64.582562 
7197.000000	64.754462 
7196.000000	64.802145 
7195.000000	64.763092 
7194.000000	64.689183 
7193.000000	64.633488 
7192.000000	64.642143 
7191.000000	64.743113 
7190.000000	64.944696 
7189.000000	65.232181 
7188.000000	65.575623 
7187.000000	65.935707 
7186.000000	66.272807 
7185.000000	66.556954 
7184.000000	66.774606 
7183.000000	66.929006 
7182.000000	67.035818 
7181.000000	67.116475 
7180.000000	67.194747 
7179.000000	67.281532 
7178.000000	67.372751 
7177.000000	67.447447 
7176.000000	67.478799 
7175.000000	67.434000 
7174.000000	67.287111 
7173.000000	67.020249 
7172.000000	66.630482 
7171.000000	66.122508 
7170.000000	65.509939 
7169.000000	64.807724 
7168.000000	64.035058 
7167.000000	63.220763 
7166.000000	62.405586 
7165.000000	61.640739 
7164.000000	60.983109 
7163.000000	60.486769 
7162.000000	60.192108 
7161.000000	60.110521 
7160.000000	60.225415 
7159.000000	60.486102 
7158.000000	60.827851 
7157.000000	61.175274 
7156.000000	61.471748 
7155.000000	61.684918 
7154.000000	61.818289 
7153.000000	61.901950 
7152.000000	61.982083 
7151.000000	62.099933 
7150.000000	62.280392 
7149.000000	62.521982 
7148.000000	62.797975 
7147.000000	63.064479 
7146.000000	63.277220 
7145.000000	63.406515 
7144.000000	63.440966 
7143.000000	63.390684 
7142.000000	63.279008 
7141.000000	63.135528 
7140.000000	62.984752 
7139.000000	62.841916 
7138.000000	62.713551 
7137.000000	62.599802 
7136.000000	62.498974 
7135.000000	62.412238 
7134.000000	62.350511 
7133.000000	62.330150 
7132.000000	62.364816 
7131.000000	62.465119 
7130.000000	62.627744 
7129.000000	62.844038 
7128.000000	63.094854 
7127.000000	63.365364 
7126.000000	63.644385 
7125.000000	63.934612 
7124.000000	64.251637 
7123.000000	64.615297 
7122.000000	65.040135 
7121.000000	65.524840 
7120.000000	66.047644 
7119.000000	66.562795 
7118.000000	67.008757 
7117.000000	67.319536 
7116.000000	67.440938 
7115.000000	67.344403 
7114.000000	67.036080 
7113.000000	66.558670 
7112.000000	65.982747 
7111.000000	65.392494 
7110.000000	64.867734 
7109.000000	64.469051 
7108.000000	64.226961 
7107.000000	64.142465 
7106.000000	64.189624 
7105.000000	64.328694 
7104.000000	64.515328 
7103.000000	64.711642 
7102.000000	64.891409 
7101.000000	65.039587 
7100.000000	65.150594 
7099.000000	65.218329 
7098.000000	65.237784 
7097.000000	65.200948 
7096.000000	65.100955 
7095.000000	64.934754 
7094.000000	64.708280 
7093.000000	64.439678 
7092.000000	64.156031 
7091.000000	63.889670 
7090.000000	63.668894 
7089.000000	63.512158 
7088.000000	63.420557 
7087.000000	63.379096 
7086.000000	63.363385 
7085.000000	63.347649 
7084.000000	63.311553 
7083.000000	63.247084 
7082.000000	63.159608 
7081.000000	63.066434 
7080.000000	62.989974 
7079.000000	62.950539 
7078.000000	62.956404 
7077.000000	63.002872 
7076.000000	63.073873 
7075.000000	63.145565 
7074.000000	63.192701 
7073.000000	63.197016 
7072.000000	63.150978 
7071.000000	63.063836 
7070.000000	62.958645 
7069.000000	62.868309 
7068.000000	62.824940 
7067.000000	62.854766 
7066.000000	62.970900 
7065.000000	63.168811 
7064.000000	63.426923 
7063.000000	63.706111 
7062.000000	63.957810 
7061.000000	64.134144 
7060.000000	64.199519 
7059.000000	64.134979 
7058.000000	63.944983 
7057.000000	63.659119 
7056.000000	63.325905 
7055.000000	63.001322 
7054.000000	62.737441 
7053.000000	62.572908 
7052.000000	62.524461 
7051.000000	62.588262 
7050.000000	62.739086 
7049.000000	62.940812 
7048.000000	63.151025 
7047.000000	63.332653 
7046.000000	63.456559 
7045.000000	63.503170 
7044.000000	63.465332 
7043.000000	63.346195 
7042.000000	63.157367 
7041.000000	62.913131 
7040.000000	62.635517 
7039.000000	62.352013 
7038.000000	62.096333 
7037.000000	61.904788 
7036.000000	61.814808 
7035.000000	61.858248 
7034.000000	62.055754 
7033.000000	62.410235 
7032.000000	62.902045 
7031.000000	63.489723 
7030.000000	64.115047 
7029.000000	64.712190 
7028.000000	65.220546 
7027.000000	65.592265 
7026.000000	65.803170 
7025.000000	65.849065 
7024.000000	65.745186 
7023.000000	65.515136 
7022.000000	65.193057 
7021.000000	64.805722 
7020.000000	64.374136 
7019.000000	63.907027 
7018.000000	63.413572 
7017.000000	62.897419 
7016.000000	62.366843 
7015.000000	61.832880 
7014.000000	61.311817 
7013.000000	60.824990 
7012.000000	60.395479 
7011.000000	60.047960 
7010.000000	59.803223 
7009.000000	59.681987 
7008.000000	59.699559 
7007.000000	59.865450 
7006.000000	60.177350 
7005.000000	60.612916 
7004.000000	61.130881 
7003.000000	61.669754 
7002.000000	62.162828 
7001.000000	62.547349 
7000.000000	62.784719 
6999.000000	62.864184 
6998.000000	62.812876 
6997.000000	62.690734 
6996.000000	62.576055 
6995.000000	62.546372 
6994.000000	62.658309 
6993.000000	62.937903 
6992.000000	63.368248 
6991.000000	63.900184 
6990.000000	64.456081 
6989.000000	64.952063 
6988.000000	65.313625 
6987.000000	65.495038 
6986.000000	65.484261 
6985.000000	65.302872 
6984.000000	65.002584 
6983.000000	64.651894 
6982.000000	64.326524 
6981.000000	64.093399 
6980.000000	64.004945 
6979.000000	64.087724 
6978.000000	64.340114 
6977.000000	64.730215 
6976.000000	65.203094 
6975.000000	65.688610 
6974.000000	66.113972 
6973.000000	66.416811 
6972.000000	66.552209 
6971.000000	66.503429 
6970.000000	66.283869 
6969.000000	65.933012 
6968.000000	65.505862 
6967.000000	65.062475 
6966.000000	64.659452 
6965.000000	64.336967 
6964.000000	64.117264 
6963.000000	63.999962 
6962.000000	63.969898 
6961.000000	63.999056 
6960.000000	64.056897 
6959.000000	64.113593 
6958.000000	64.146232 
6957.000000	64.138102 
6956.000000	64.078974 
6955.000000	63.969731 
6954.000000	63.820981 
6953.000000	63.652086 
6952.000000	63.487076 
6951.000000	63.351583 
6950.000000	63.266277 
6949.000000	63.243794 
6948.000000	63.283920 
6947.000000	63.374352 
6946.000000	63.491439 
6945.000000	63.604974 
6944.000000	63.684558 
6943.000000	63.704633 
6942.000000	63.652372 
6941.000000	63.527321 
6940.000000	63.345432 
6939.000000	63.134241 
6938.000000	62.928581 
6937.000000	62.763738 
6936.000000	62.665820 
6935.000000	62.645721 
6934.000000	62.697744 
6933.000000	62.802886 
6932.000000	62.932538 
6931.000000	63.055872 
6930.000000	63.147306 
6929.000000	63.191938 
6928.000000	63.185715 
6927.000000	63.134026 
6926.000000	63.048076 
6925.000000	62.940692 
6924.000000	62.820100 
6923.000000	62.690162 
6922.000000	62.552905 
6921.000000	62.411761 
6920.000000	62.273573 
6919.000000	62.151098 
6918.000000	62.062501 
6917.000000	62.027978 
6916.000000	62.064599 
6915.000000	62.181234 
6914.000000	62.370967 
6913.000000	62.614870 
6912.000000	62.884759 
6911.000000	63.148665 
6910.000000	63.376617 
6909.000000	63.546371 
6908.000000	63.647270 
6907.000000	63.680219 
6906.000000	63.655567 
6905.000000	63.590216 
6904.000000	63.503003 
6903.000000	63.413691 
6902.000000	63.340377 
6901.000000	63.301849 
6900.000000	63.316679 
6899.000000	63.403105 
6898.000000	63.575410 
6897.000000	63.842177 
6896.000000	64.199686 
6895.000000	64.630794 
6894.000000	65.100860 
6893.000000	65.561556 
6892.000000	65.954494 
6891.000000	66.225147 
6890.000000	66.328501 
6889.000000	66.238665 
6888.000000	65.953707 
6887.000000	65.500640 
6886.000000	64.928221 
6885.000000	64.300203 
6884.000000	63.683319 
6883.000000	63.139557 
6882.000000	62.712955 
6881.000000	62.427449 
6880.000000	62.281489 
6879.000000	62.252688 
6878.000000	62.305116 
6877.000000	62.399911 
6876.000000	62.500143 
6875.000000	62.576532 
6874.000000	62.613463 
6873.000000	62.609243 
6872.000000	62.571310 
6871.000000	62.513303 
6870.000000	62.452697 
6869.000000	62.407422 
6868.000000	62.391209 
6867.000000	62.414121 
6866.000000	62.482094 
6865.000000	62.598705 
6864.000000	62.763977 
6863.000000	62.977242 
6862.000000	63.236570 
6861.000000	63.538336 
6860.000000	63.876295 
6859.000000	64.238238 
6858.000000	64.607167 
6857.000000	64.957785 
6856.000000	65.263271 
6855.000000	65.491819 
6854.000000	65.613317 
6853.000000	65.604496 
6852.000000	65.458798 
6851.000000	65.182375 
6850.000000	64.795446 
6849.000000	64.330697 
6848.000000	63.830065 
6847.000000	63.332915 
6846.000000	62.870597 
6845.000000	62.461471 
6844.000000	62.111306 
6843.000000	61.815452 
6842.000000	61.566066 
6841.000000	61.354541 
6840.000000	61.180067 
6839.000000	61.050176 
6838.000000	60.981750 
6837.000000	60.990357 
6836.000000	61.088538 
6835.000000	61.275863 
6834.000000	61.539936 
6833.000000	61.849570 
6832.000000	62.168335 
6831.000000	62.460589 
6830.000000	62.701678 
6829.000000	62.879610 
6828.000000	63.001513 
6827.000000	63.089370 
6826.000000	63.174343 
6825.000000	63.285636 
6824.000000	63.446307 
6823.000000	63.666868 
6822.000000	63.943481 
6821.000000	64.259696 
6820.000000	64.586496 
6819.000000	64.888143 
6818.000000	65.129995 
6817.000000	65.284514 
6816.000000	65.332150 
6815.000000	65.265083 
6814.000000	65.092563 
6813.000000	64.836716 
6812.000000	64.529204 
6811.000000	64.201998 
6810.000000	63.888788 
6809.000000	63.610434 
6808.000000	63.374710 
6807.000000	63.172173 
6806.000000	62.982010 
6805.000000	62.778687 
6804.000000	62.541413 
6803.000000	62.261891 
6802.000000	61.946225 
6801.000000	61.617350 
6800.000000	61.307096 
6799.000000	61.050820 
6798.000000	60.874724 
6797.000000	60.794806 
6796.000000	60.811591 
6795.000000	60.914444 
6794.000000	61.083960 
6793.000000	61.300802 
6792.000000	61.550045 
6791.000000	61.821508 
6790.000000	62.109708 
6789.000000	62.411069 
6788.000000	62.721729 
6787.000000	63.032174 
6786.000000	63.328433 
6785.000000	63.596844 
6784.000000	63.823509 
6783.000000	64.002346 
6782.000000	64.129710 
6781.000000	64.206600 
6780.000000	64.233875 
6779.000000	64.213109 
6778.000000	64.146137 
6777.000000	64.034748 
6776.000000	63.887476 
6775.000000	63.721132 
6774.000000	63.562893 
6773.000000	63.448071 
6772.000000	63.412213 
6771.000000	63.484692 
6770.000000	63.674831 
6769.000000	63.967156 
6768.000000	64.320468 
6767.000000	64.674949 
6766.000000	64.966130 
6765.000000	65.139627 
6764.000000	65.164422 
6763.000000	65.039348 
6762.000000	64.792275 
6761.000000	64.471817 
6760.000000	64.132952 
6759.000000	63.824582 
6758.000000	63.581371 
6757.000000	63.416624 
6756.000000	63.327479 
6755.000000	63.294720 
6754.000000	63.294458 
6753.000000	63.300704 
6752.000000	63.292813 
6751.000000	63.257765 
6750.000000	63.187956 
6749.000000	63.084840 
6748.000000	62.951683 
6747.000000	62.799143 
6746.000000	62.641644 
6745.000000	62.496566 
6744.000000	62.382364 
6743.000000	62.311315 
6742.000000	62.287402 
6741.000000	62.301468 
6740.000000	62.333106 
6739.000000	62.355542 
6738.000000	62.343382 
6737.000000	62.279605 
6736.000000	62.162137 
6735.000000	62.005329 
6734.000000	61.838722 
6733.000000	61.698126 
6732.000000	61.619544 
6731.000000	61.628770 
6730.000000	61.737561 
6729.000000	61.942505 
6728.000000	62.225413 
6727.000000	62.557315 
6726.000000	62.904214 
6725.000000	63.236188 
6724.000000	63.528251 
6723.000000	63.762354 
6722.000000	63.927650 
6721.000000	64.019227 
6720.000000	64.037084 
6719.000000	63.985204 
6718.000000	63.871121 
6717.000000	63.708114 
6716.000000	63.510847 
6715.000000	63.296365 
6714.000000	63.080668 
6713.000000	62.878680 
6712.000000	62.702083 
6711.000000	62.559890 
6710.000000	62.457728 
6709.000000	62.399530 
6708.000000	62.388730 
6707.000000	62.429928 
6706.000000	62.525510 
6705.000000	62.676978 
6704.000000	62.883377 
6703.000000	63.140130 
6702.000000	63.435435 
6701.000000	63.751506 
6700.000000	64.064812 
6699.000000	64.350414 
6698.000000	64.585065 
6697.000000	64.752435 
6696.000000	64.847350 
6695.000000	64.875221 
6694.000000	64.852619 
6693.000000	64.800047 
6692.000000	64.739418 
6691.000000	64.685630 
6690.000000	64.645528 
6689.000000	64.615154 
6688.000000	64.583897 
6687.000000	64.537358 
6686.000000	64.463901 
6685.000000	64.356184 
6684.000000	64.213681 
6683.000000	64.042687 
6682.000000	63.853955 
6681.000000	63.657164 
6680.000000	63.458847 
6679.000000	63.261127 
6678.000000	63.062977 
6677.000000	62.861895 
6676.000000	62.658023 
6675.000000	62.455534 
6674.000000	62.265467 
6673.000000	62.102270 
6672.000000	61.984014 
6671.000000	61.924242 
6670.000000	61.932778 
6669.000000	62.011075 
6668.000000	62.152671 
6667.000000	62.342429 
6666.000000	62.559151 
6665.000000	62.778639 
6664.000000	62.976717 
6663.000000	63.131451 
6662.000000	63.229203 
6661.000000	63.266181 
6660.000000	63.249754 
6659.000000	63.196325 
6658.000000	63.129353 
6657.000000	63.074183 
6656.000000	63.054561 
6655.000000	63.087415 
6654.000000	63.178658 
6653.000000	63.322067 
6652.000000	63.501715 
6651.000000	63.695931 
6650.000000	63.880777 
6649.000000	64.037394 
6648.000000	64.155459 
6647.000000	64.236497 
6646.000000	64.290380 
6645.000000	64.334607 
6644.000000	64.388513 
6643.000000	64.468336 
6642.000000	64.585804 
6641.000000	64.740037 
6640.000000	64.922523 
6639.000000	65.109729 
6638.000000	65.270352 
6637.000000	65.367960 
6636.000000	65.369939 
6635.000000	65.256667 
6634.000000	65.028524 
6633.000000	64.707827 
6632.000000	64.335536 
6631.000000	63.964843 
6630.000000	63.650465 
6629.000000	63.435864 
6628.000000	63.344717 
6627.000000	63.379096 
6626.000000	63.520240 
6625.000000	63.735032 
6624.000000	63.983464 
6623.000000	64.227104 
6622.000000	64.435625 
6621.000000	64.588785 
6620.000000	64.678311 
6619.000000	64.703059 
6618.000000	64.669132 
6617.000000	64.583539 
6616.000000	64.456558 
6615.000000	64.302468 
6614.000000	64.137244 
6613.000000	63.981223 
6612.000000	63.851976 
6611.000000	63.764476 
6610.000000	63.723969 
6609.000000	63.725852 
6608.000000	63.754606 
6607.000000	63.787770 
6606.000000	63.799691 
6605.000000	63.767766 
6604.000000	63.676857 
6603.000000	63.523340 
6602.000000	63.315153 
6601.000000	63.071417 
6600.000000	62.817096 
6599.000000	62.580394 
6598.000000	62.388944 
6597.000000	62.265992 
6596.000000	62.227225 
6595.000000	62.277150 
6594.000000	62.410855 
6593.000000	62.610936 
6592.000000	62.849116 
6591.000000	63.090109 
6590.000000	63.294363 
6589.000000	63.428664 
6588.000000	63.470482 
6587.000000	63.415288 
6586.000000	63.277339 
6585.000000	63.085484 
6584.000000	62.875866 
6583.000000	62.683057 
6582.000000	62.533187 
6581.000000	62.437105 
6580.000000	62.390375 
6579.000000	62.376737 
6578.000000	62.375521 
6577.000000	62.369155 
6576.000000	62.349939 
6575.000000	62.321066 
6574.000000	62.296414 
6573.000000	62.295627 
6572.000000	62.338852 
6571.000000	62.438201 
6570.000000	62.595629 
6569.000000	62.801265 
6568.000000	63.036489 
6567.000000	63.279461 
6566.000000	63.509535 
6565.000000	63.711524 
6564.000000	63.877940 
6563.000000	64.008045 
6562.000000	64.107155 
6561.000000	64.182949 
6560.000000	64.243340 
6559.000000	64.294981 
6558.000000	64.341545 
6557.000000	64.385700 
6556.000000	64.426803 
6555.000000	64.464926 
6554.000000	64.495682 
6553.000000	64.512348 
6552.000000	64.504647 
6551.000000	64.461994 
6550.000000	64.373707 
6549.000000	64.232587 
6548.000000	64.039087 
6547.000000	63.802957 
6546.000000	63.543128 
6545.000000	63.284683 
6544.000000	63.054633 
6543.000000	62.875819 
6542.000000	62.761330 
6541.000000	62.712478 
6540.000000	62.717175 
6539.000000	62.755703 
6538.000000	62.805342 
6537.000000	62.848210 
6536.000000	62.872362 
6535.000000	62.877893 
6534.000000	62.873744 
6533.000000	62.876272 
6532.000000	62.899422 
6531.000000	62.954592 
6530.000000	63.045668 
6529.000000	63.169121 
6528.000000	63.315272 
6527.000000	63.469696 
6526.000000	63.616514 
6525.000000	63.742089 
6524.000000	63.838148 
6523.000000	63.902568 
6522.000000	63.939452 
6521.000000	63.957977 
6520.000000	63.969922 
6519.000000	63.987755 
6518.000000	64.021301 
6517.000000	64.076852 
6516.000000	64.154696 
6515.000000	64.251089 
6514.000000	64.356684 
6513.000000	64.459991 
6512.000000	64.546704 
6511.000000	64.602851 
6510.000000	64.616203 
6509.000000	64.578318 
6508.000000	64.487600 
6507.000000	64.348721 
6506.000000	64.175748 
6505.000000	63.987970 
6504.000000	63.811969 
6503.000000	63.677024 
6502.000000	63.610959 
6501.000000	63.634967 
6500.000000	63.757348 
6499.000000	63.970780 
6498.000000	64.251613 
6497.000000	64.563322 
6496.000000	64.863085 
6495.000000	65.109157 
6494.000000	65.268111 
6493.000000	65.319299 
6492.000000	65.256595 
6491.000000	65.087437 
6490.000000	64.829492 
6489.000000	64.507126 
6488.000000	64.148950 
6487.000000	63.782906 
6486.000000	63.436532 
6485.000000	63.131332 
6484.000000	62.883973 
6483.000000	62.702298 
6482.000000	62.585663 
6481.000000	62.526345 
6480.000000	62.509298 
6479.000000	62.519264 
6478.000000	62.539625 
6477.000000	62.561464 
6476.000000	62.581586 
6475.000000	62.606382 
6474.000000	62.646961 
6473.000000	62.715482 
6472.000000	62.818574 
6471.000000	62.955760 
6470.000000	63.117480 
6469.000000	63.287925 
6468.000000	63.448095 
6467.000000	63.581824 
6466.000000	63.678574 
6465.000000	63.734984 
6464.000000	63.753676 
6463.000000	63.740444 
6462.000000	63.701868 
6461.000000	63.643407 
6460.000000	63.568449 
6459.000000	63.480329 
6458.000000	63.382601 
6457.000000	63.280653 
6456.000000	63.182663 
6455.000000	63.099884 
6454.000000	63.044953 
6453.000000	63.027477 
6452.000000	63.054513 
6451.000000	63.126206 
6450.000000	63.239526 
6449.000000	63.387489 
6448.000000	63.562321 
6447.000000	63.756108 
6446.000000	63.961744 
6445.000000	64.172410 
6444.000000	64.380812 
6443.000000	64.578318 
6442.000000	64.756751 
6441.000000	64.908385 
6440.000000	65.028095 
6439.000000	65.113306 
6438.000000	65.165162 
6437.000000	65.186738 
6436.000000	65.182828 
6435.000000	65.157461 
6434.000000	65.115690 
6433.000000	65.060544 
6432.000000	64.994668 
6431.000000	64.918351 
6430.000000	64.832663 
6429.000000	64.737224 
6428.000000	64.632749 
6427.000000	64.519500 
6426.000000	64.397501 
6425.000000	64.267969 
6424.000000	64.133000 
6423.000000	63.997554 
6422.000000	63.868665 
6421.000000	63.756084 
6420.000000	63.670301 
6419.000000	63.620138 
6418.000000	63.610315 
6417.000000	63.639807 
6416.000000	63.700890 
6415.000000	63.781857 
6414.000000	63.868784 
6413.000000	63.948583 
6412.000000	64.010262 
6411.000000	64.046597 
6410.000000	64.053106 
6409.000000	64.026522 
6408.000000	63.963842 
6407.000000	63.862490 
6406.000000	63.721299 
6405.000000	63.541388 
6404.000000	63.329243 
6403.000000	63.097977 
6402.000000	62.867426 
6401.000000	62.661814 
6400.000000	62.506151 
6399.000000	62.419986 
6398.000000	62.414622 
6397.000000	62.488508 
6396.000000	62.629461 
6395.000000	62.815237 
6394.000000	63.021016 
6393.000000	63.223409 
6392.000000	63.406276 
6391.000000	63.561630 
6390.000000	63.691067 
6389.000000	63.802194 
6388.000000	63.905048 
6387.000000	64.006972 
6386.000000	64.110112 
6385.000000	64.208960 
6384.000000	64.293408 
6383.000000	64.350008 
6382.000000	64.366459 
6381.000000	64.334011 
6380.000000	64.251351 
6379.000000	64.124560 
6378.000000	63.967204 
6377.000000	63.797235 
6376.000000	63.632512 
6375.000000	63.488841 
6374.000000	63.378810 
6373.000000	63.309812 
6372.000000	63.282990 
6371.000000	63.295149 
6370.000000	63.340139 
6369.000000	63.410687 
6368.000000	63.498711 
6367.000000	63.597846 
6366.000000	63.702726 
6365.000000	63.809585 
6364.000000	63.914775 
6363.000000	64.013409 
6362.000000	64.098405 
6361.000000	64.158654 
6360.000000	64.180088 
6359.000000	64.146041 
6358.000000	64.041662 
6357.000000	63.858580 
6356.000000	63.600635 
6355.000000	63.284134 
6354.000000	62.940478 
6353.000000	62.613248 
6352.000000	62.351870 
6351.000000	62.201023 
6350.000000	62.191629 
6349.000000	62.334585 
6348.000000	62.616133 
6347.000000	62.998032 
6346.000000	63.426446 
6345.000000	63.840866 
6344.000000	64.188289 
6343.000000	64.430928 
6342.000000	64.555764 
6341.000000	64.572334 
6340.000000	64.511442 
6339.000000	64.414858 
6338.000000	64.325523 
6337.000000	64.277005 
6336.000000	64.287066 
6335.000000	64.355850 
6334.000000	64.465236 
6333.000000	64.585113 
6332.000000	64.681100 
6331.000000	64.722824 
6330.000000	64.688611 
6329.000000	64.569520 
6328.000000	64.370489 
6327.000000	64.107632 
6326.000000	63.803243 
6325.000000	63.480567 
6324.000000	63.161683 
6323.000000	62.862229 
6322.000000	62.589526 
6321.000000	62.344312 
6320.000000	62.123799 
6319.000000	61.925959 
6318.000000	61.750340 
6317.000000	61.602950 
6316.000000	61.490917 
6315.000000	61.426639 
6314.000000	61.421465 
6313.000000	61.483836 
6312.000000	61.612296 
6311.000000	61.798620 
6310.000000	62.026691 
6309.000000	62.276649 
6308.000000	62.527632 
6307.000000	62.762641 
6306.000000	62.970757 
6305.000000	63.149189 
6304.000000	63.301944 
6303.000000	63.436031 
6302.000000	63.559031 
6301.000000	63.676452 
6300.000000	63.791227 
6299.000000	63.905525 
6298.000000	64.020276 
6297.000000	64.139556 
6296.000000	64.265918 
6295.000000	64.402079 
6294.000000	64.545226 
6293.000000	64.688491 
6292.000000	64.818382 
6291.000000	64.917373 
6290.000000	64.968109 
6289.000000	64.957976 
6288.000000	64.884853 
6287.000000	64.759159 
6286.000000	64.604020 
6285.000000	64.451789 
6284.000000	64.336490 
6283.000000	64.286470 
6282.000000	64.317750 
6281.000000	64.430308 
6280.000000	64.609146 
6279.000000	64.828205 
6278.000000	65.055727 
6277.000000	65.261030 
6276.000000	65.420746 
6275.000000	65.521955 
6274.000000	65.561532 
6273.000000	65.544390 
6272.000000	65.481901 
6271.000000	65.385746 
6270.000000	65.267419 
6269.000000	65.131950 
6268.000000	64.981532 
6267.000000	64.811992 
6266.000000	64.618492 
6265.000000	64.396476 
6264.000000	64.146065 
6263.000000	63.874769 
6262.000000	63.595890 
6261.000000	63.330984 
6260.000000	63.105034 
6259.000000	62.943148 
6258.000000	62.863826 
6257.000000	62.875151 
6256.000000	62.971472 
6255.000000	63.133454 
6254.000000	63.330721 
6253.000000	63.529038 
6252.000000	63.696932 
6251.000000	63.812470 
6250.000000	63.867354 
6249.000000	63.867425 
6248.000000	63.829755 
6247.000000	63.776111 
6246.000000	63.726902 
6245.000000	63.697695 
6244.000000	63.694429 
6243.000000	63.714122 
6242.000000	63.745403 
6241.000000	63.774323 
6240.000000	63.787460 
6239.000000	63.777184 
6238.000000	63.742685 
6237.000000	63.689208 
6236.000000	63.627266 
6235.000000	63.569140 
6234.000000	63.525748 
6233.000000	63.502812 
6232.000000	63.501000 
6231.000000	63.516855 
6230.000000	63.543033 
6229.000000	63.570642 
6228.000000	63.592195 
6227.000000	63.603615 
6226.000000	63.603734 
6225.000000	63.593482 
6224.000000	63.575124 
6223.000000	63.549947 
6222.000000	63.516759 
6221.000000	63.471293 
6220.000000	63.406610 
6219.000000	63.315463 
6218.000000	63.194203 
6217.000000	63.044571 
6216.000000	62.874555 
6215.000000	62.697839 
6214.000000	62.531018 
6213.000000	62.391066 
6212.000000	62.290763 
6211.000000	62.237596 
6210.000000	62.231302 
6209.000000	62.265563 
6208.000000	62.328839 
6207.000000	62.408328 
6206.000000	62.491393 
6205.000000	62.569165 
6204.000000	62.636351 
6203.000000	62.692809 
6202.000000	62.741112 
6201.000000	62.787294 
6200.000000	62.837886 
6199.000000	62.899541 
6198.000000	62.976169 
6197.000000	63.069152 
6196.000000	63.175392 
6195.000000	63.286232 
6194.000000	63.388228 
6193.000000	63.464736 
6192.000000	63.499808 
6191.000000	63.481783 
6190.000000	63.407397 
6189.000000	63.283610 
6188.000000	63.127470 
6187.000000	62.962913 
6186.000000	62.816262 
6185.000000	62.711143 
6184.000000	62.663197 
6183.000000	62.677264 
6182.000000	62.747001 
6181.000000	62.857294 
6180.000000	62.988162 
6179.000000	63.119149 
6178.000000	63.234496 
6177.000000	63.325095 
6176.000000	63.390827 
6175.000000	63.438248 
6174.000000	63.478660 
6173.000000	63.523221 
6172.000000	63.580513 
6171.000000	63.653326 
6170.000000	63.738679 
6169.000000	63.827896 
6168.000000	63.908243 
6167.000000	63.965439 
6166.000000	63.987326 
6165.000000	63.966417 
6164.000000	63.901281 
6163.000000	63.797473 
6162.000000	63.666176 
6161.000000	63.522696 
6160.000000	63.384795 
6159.000000	63.268232 
6158.000000	63.184785 
6157.000000	63.139653 
6156.000000	63.131570 
6155.000000	63.153362 
6154.000000	63.193750 
6153.000000	63.240694 
6152.000000	63.283038 
6151.000000	63.314366 
6150.000000	63.332438 
6149.000000	63.341236 
6148.000000	63.348555 
6147.000000	63.363981 
6146.000000	63.395476 
6145.000000	63.448739 
6144.000000	63.525843 
6143.000000	63.625288 
6142.000000	63.742399 
6141.000000	63.872003 
6140.000000	64.008259 
6139.000000	64.146256 
6138.000000	64.279842 
6137.000000	64.401245 
6136.000000	64.499354 
6135.000000	64.561295 
6134.000000	64.573431 
6133.000000	64.524888 
6132.000000	64.410972 
6131.000000	64.237451 
6130.000000	64.019751 
6129.000000	63.781952 
6128.000000	63.552141 
6127.000000	63.358616 
6126.000000	63.222670 
6125.000000	63.154792 
6124.000000	63.152647 
6123.000000	63.202381 
6122.000000	63.282728 
6121.000000	63.370394 
6120.000000	63.445138 
6119.000000	63.493585 
6118.000000	63.511300 
6117.000000	63.502240 
6116.000000	63.475394 
6115.000000	63.441443 
6114.000000	63.410496 
6113.000000	63.389945 
6112.000000	63.383197 
6111.000000	63.390445 
6110.000000	63.410973 
6109.000000	63.443899 
6108.000000	63.488388 
6107.000000	63.544440 
6106.000000	63.612270 
6105.000000	63.691711 
6104.000000	63.780355 
6103.000000	63.874292 
6102.000000	63.967990 
6101.000000	64.055252 
6100.000000	64.130711 
6099.000000	64.190006 
6098.000000	64.230799 
6097.000000	64.252781 
6096.000000	64.258360 
6095.000000	64.250802 
6094.000000	64.233851 
6093.000000	64.211153 
6092.000000	64.185976 
6091.000000	64.160108 
6090.000000	64.133524 
6089.000000	64.104294 
6088.000000	64.068818 
6087.000000	64.023065 
6086.000000	63.963580 
6085.000000	63.887929 
6084.000000	63.796448 
6083.000000	63.692736 
6082.000000	63.583779 
6081.000000	63.479089 
6080.000000	63.388919 
6079.000000	63.321638 
6078.000000	63.282036 
6077.000000	63.270688 
6076.000000	63.282966 
6075.000000	63.309502 
6074.000000	63.338851 
6073.000000	63.359165 
6072.000000	63.361954 
6071.000000	63.343620 
6070.000000	63.306355 
6069.000000	63.256287 
6068.000000	63.203215 
6067.000000	63.157486 
6066.000000	63.127803 
6065.000000	63.118863 
6064.000000	63.130092 
6063.000000	63.155388 
6062.000000	63.185143 
6061.000000	63.208436 
6060.000000	63.213920 
6059.000000	63.193130 
6058.000000	63.141918 
6057.000000	63.063549 
6056.000000	62.966895 
6055.000000	62.868237 
6054.000000	62.786865 
6053.000000	62.743711 
6052.000000	62.757802 
6051.000000	62.840795 
6050.000000	62.995457 
6049.000000	63.210988 
6048.000000	63.464927 
6047.000000	63.724565 
6046.000000	63.952779 
6045.000000	64.115428 
6044.000000	64.187550 
6043.000000	64.160323 
6042.000000	64.042568 
6041.000000	63.860034 
6040.000000	63.649296 
6039.000000	63.451766 
6038.000000	63.304948 
6037.000000	63.236594 
6036.000000	63.259840 
6035.000000	63.372397 
6034.000000	63.557696 
6033.000000	63.789439 
6032.000000	64.036226 
6031.000000	64.267039 
6030.000000	64.455461 
6029.000000	64.581322 
6028.000000	64.633107 
6027.000000	64.608287 
6026.000000	64.512324 
6025.000000	64.356946 
6024.000000	64.157867 
6023.000000	63.935184 
6022.000000	63.708806 
6021.000000	63.497662 
6020.000000	63.317322 
6019.000000	63.179373 
6018.000000	63.091707 
6017.000000	63.059186 
6016.000000	63.082432 
6015.000000	63.157391 
6014.000000	63.274788 
6013.000000	63.420701 
6012.000000	63.575172 
6011.000000	63.714504 
6010.000000	63.813948 
6009.000000	63.852596 
6008.000000	63.818001 
6007.000000	63.710808 
6006.000000	63.545989 
6005.000000	63.352036 
6004.000000	63.166403 
6003.000000	63.028573 
6002.000000	62.971949 
6001.000000	63.016772 
6000.000000	63.164973 
5999.000000	63.400268 
5998.000000	63.693141 
5997.000000	64.005756 
5996.000000	64.300584 
5995.000000	64.545798 
5994.000000	64.719533 
5993.000000	64.812231 
5992.000000	64.825463 
5991.000000	64.769864 
5990.000000	64.660763 
5989.000000	64.516401 
5988.000000	64.355802 
5987.000000	64.196491 
5986.000000	64.054489 
5985.000000	63.942170 
5984.000000	63.868546 
5983.000000	63.837051 
5982.000000	63.846063 
5981.000000	63.887095 
5980.000000	63.947105 
5979.000000	64.011240 
5978.000000	64.065980 
5977.000000	64.101386 
5976.000000	64.113044 
5975.000000	64.101576 
5974.000000	64.072632 
5973.000000	64.034461 
5972.000000	63.996362 
5971.000000	63.965702 
5970.000000	63.947296 
5969.000000	63.944005 
5968.000000	63.955163 
5967.000000	63.978934 
5966.000000	64.010334 
5965.000000	64.042782 
5964.000000	64.067864 
5963.000000	64.077711 
5962.000000	64.064288 
5961.000000	64.020633 
5960.000000	63.942885 
5959.000000	63.831663 
5958.000000	63.692283 
5957.000000	63.534259 
5956.000000	63.369417 
5955.000000	63.210368 
5954.000000	63.068127 
5953.000000	62.951421 
5952.000000	62.865996 
5951.000000	62.815833 
5950.000000	62.803006 
5949.000000	62.829399 
5948.000000	62.895989 
5947.000000	63.002967 
5946.000000	63.147568 
5945.000000	63.323473 
5944.000000	63.519310 
5943.000000	63.719749 
5942.000000	63.906955 
5941.000000	64.063334 
5940.000000	64.174509 
5939.000000	64.231228 
5938.000000	64.232873 
5937.000000	64.184451 
5936.000000	64.096760 
5935.000000	63.981986 
5934.000000	63.852310 
5933.000000	63.716650 
5932.000000	63.580799 
5931.000000	63.447284 
5930.000000	63.317465 
5929.000000	63.192343 
5928.000000	63.074493 
5927.000000	62.968254 
5926.000000	62.879848 
5925.000000	62.815070 
5924.000000	62.779045 
5923.000000	62.773895 
5922.000000	62.799739 
5921.000000	62.853550 
5920.000000	62.930989 
5919.000000	63.026857 
5918.000000	63.136076 
5917.000000	63.253498 
5916.000000	63.373851 
5915.000000	63.491225 
5914.000000	63.598823 
5913.000000	63.689374 
5912.000000	63.755249 
5911.000000	63.790178 
5910.000000	63.789796 
5909.000000	63.753938 
5908.000000	63.685870 
5907.000000	63.592648 
5906.000000	63.484144 
5905.000000	63.372039 
5904.000000	63.267850 
5903.000000	63.181519 
5902.000000	63.120007 
5901.000000	63.086628 
5900.000000	63.081431 
5899.000000	63.101458 
5898.000000	63.140606 
5897.000000	63.191366 
5896.000000	63.245654 
5895.000000	63.297367 
5894.000000	63.342118 
5893.000000	63.379645 
5892.000000	63.412213 
5891.000000	63.445377 
5890.000000	63.486313 
5889.000000	63.541817 
5888.000000	63.616371 
5887.000000	63.709712 
5886.000000	63.817858 
5885.000000	63.931155 
5884.000000	64.037680 
5883.000000	64.122867 
5882.000000	64.173889 
5881.000000	64.180088 
5880.000000	64.136314 
5879.000000	64.043068 
5878.000000	63.907027 
5877.000000	63.740491 
5876.000000	63.559937 
5875.000000	63.384127 
5874.000000	63.231587 
5873.000000	63.119411 
5872.000000	63.060355 
5871.000000	63.060665 
5870.000000	63.118243 
5869.000000	63.223242 
5868.000000	63.358688 
5867.000000	63.501763 
5866.000000	63.628578 
5865.000000	63.716197 
5864.000000	63.749623 
5863.000000	63.723683 
5862.000000	63.645935 
5861.000000	63.533639 
5860.000000	63.411140 
5859.000000	63.304948 
5858.000000	63.236880 
5857.000000	63.220143 
5856.000000	63.255810 
5855.000000	63.334798 
5854.000000	63.438963 
5853.000000	63.546514 
5852.000000	63.637280 
5851.000000	63.697290 
5850.000000	63.721656 
5849.000000	63.714718 
5848.000000	63.689041 
5847.000000	63.661384 
5846.000000	63.649725 
5845.000000	63.668370 
5844.000000	63.725018 
5843.000000	63.818430 
5842.000000	63.940834 
5841.000000	64.077949 
5840.000000	64.212179 
5839.000000	64.325356 
5838.000000	64.402651 
5837.000000	64.434885 
5836.000000	64.420390 
5835.000000	64.364027 
5834.000000	64.276957 
5833.000000	64.172101 
5832.000000	64.062476 
5831.000000	63.957476 
5830.000000	63.862729 
5829.000000	63.779473 
5828.000000	63.706254 
5827.000000	63.640952 
5826.000000	63.583111 
5825.000000	63.534522 
5824.000000	63.499450 
5823.000000	63.482904 
5822.000000	63.488316 
5821.000000	63.517975 
5820.000000	63.571786 
5819.000000	63.646245 
5818.000000	63.734841 
5817.000000	63.830041 
5816.000000	63.924694 
5815.000000	64.012622 
5814.000000	64.089751 
5813.000000	64.154076 
5812.000000	64.205908 
5811.000000	64.246296 
5810.000000	64.277434 
5809.000000	64.302396 
5808.000000	64.324688 
5807.000000	64.347910 
5806.000000	64.375066 
5805.000000	64.409708 
5804.000000	64.453339 
5803.000000	64.506387 
5802.000000	64.565396 
5801.000000	64.624547 
5800.000000	64.674282 
5799.000000	64.704942 
5798.000000	64.705181 
5797.000000	64.664912 
5796.000000	64.577651 
5795.000000	64.443063 
5794.000000	64.267659 
5793.000000	64.064574 
5792.000000	63.852119 
5791.000000	63.650727 
5790.000000	63.479614 
5789.000000	63.353157 
5788.000000	63.277626 
5787.000000	63.250708 
5786.000000	63.263297 
5785.000000	63.301706 
5784.000000	63.350296 
5783.000000	63.394927 
5782.000000	63.423633 
5781.000000	63.429570 
5780.000000	63.409090 
5779.000000	63.363981 
5778.000000	63.297772 
5777.000000	63.218188 
5776.000000	63.133978 
5775.000000	63.056898 
5774.000000	62.999272 
5773.000000	62.973523 
5772.000000	62.990069 
5771.000000	63.054966 
5770.000000	63.168168 
5769.000000	63.321375 
5768.000000	63.498687 
5767.000000	63.677358 
5766.000000	63.831543 
5765.000000	63.936281 
5764.000000	63.972687 
5763.000000	63.930630 
5762.000000	63.812327 
5761.000000	63.632202 
5760.000000	63.416075 
5759.000000	63.196492 
5758.000000	63.007664 
5757.000000	62.880587 
5756.000000	62.836813 
5755.000000	62.885260 
5754.000000	63.019871 
5753.000000	63.221883 
5752.000000	63.463115 
5751.000000	63.711357 
5750.000000	63.936495 
5749.000000	64.114475 
5748.000000	64.231681 
5747.000000	64.284443 
5746.000000	64.279389 
5745.000000	64.229965 
5744.000000	64.152550 
5743.000000	64.062356 
5742.000000	63.971757 
5741.000000	63.889479 
5740.000000	63.820004 
5739.000000	63.764762 
5738.000000	63.723063 
5737.000000	63.693380 
5736.000000	63.673591 
5735.000000	63.661646 
5734.000000	63.653421 
5733.000000	63.644599 
5732.000000	63.631701 
5731.000000	63.613200 
5730.000000	63.589167 
5729.000000	63.561892 
5728.000000	63.534665 
5727.000000	63.511657 
5726.000000	63.496208 
5725.000000	63.491058 
5724.000000	63.497090 
5723.000000	63.514757 
5722.000000	63.543272 
5721.000000	63.583159 
5720.000000	63.636016 
5719.000000	63.704419 
5718.000000	63.790106 
5717.000000	63.893842 
5716.000000	64.013886 
5715.000000	64.145040 
5714.000000	64.278841 
5713.000000	64.403080 
5712.000000	64.503431 
5711.000000	64.566254 
5710.000000	64.580416 
5709.000000	64.538049 
5708.000000	64.436173 
5707.000000	64.278030 
5706.000000	64.073395 
5705.000000	63.837766 
5704.000000	63.590812 
5703.000000	63.354635 
5702.000000	63.149976 
5701.000000	62.993741 
5700.000000	62.895464 
5699.000000	62.856340 
5698.000000	62.868928 
5697.000000	62.917971 
5696.000000	62.985372 
5695.000000	63.051795 
5694.000000	63.103890 
5693.000000	63.134789 
5692.000000	63.147044 
5691.000000	63.149094 
5690.000000	63.154268 
5689.000000	63.175559 
5688.000000	63.222384 
5687.000000	63.297557 
5686.000000	63.397431 
5685.000000	63.512825 
5684.000000	63.632154 
5683.000000	63.743829 
5682.000000	63.838481 
5681.000000	63.909912 
5680.000000	63.954710 
5679.000000	63.972306 
5678.000000	63.963747 
5677.000000	63.931965 
5676.000000	63.881421 
5675.000000	63.818383 
5674.000000	63.751292 
5673.000000	63.689494 
5672.000000	63.644552 
5671.000000	63.625478 
5670.000000	63.637447 
5669.000000	63.679099 
5668.000000	63.742756 
5667.000000	63.814854 
5666.000000	63.878250 
5665.000000	63.917398 
5664.000000	63.921427 
5663.000000	63.888931 
5662.000000	63.828015 
5661.000000	63.755726 
5660.000000	63.693356 
5659.000000	63.661289 
5658.000000	63.673090 
5657.000000	63.732028 
5656.000000	63.829588 
5655.000000	63.947224 
5654.000000	64.060783 
5653.000000	64.146423 
5652.000000	64.186143 
5651.000000	64.172554 
5650.000000	64.109849 
5649.000000	64.011526 
5648.000000	63.896870 
5647.000000	63.785862 
5646.000000	63.694381 
5645.000000	63.630723 
5644.000000	63.595104 
5643.000000	63.582015 
5642.000000	63.582587 
5641.000000	63.588356 
5640.000000	63.594460 
5639.000000	63.600325 
5638.000000	63.610482 
5637.000000	63.631153 
5636.000000	63.669753 
5635.000000	63.731074 
5634.000000	63.816738 
5633.000000	63.923764 
5632.000000	64.045214 
5631.000000	64.171266 
5630.000000	64.291620 
5629.000000	64.397048 
5628.000000	64.480495 
5627.000000	64.537692 
5626.000000	64.568042 
5625.000000	64.573073 
5624.000000	64.556694 
5623.000000	64.522457 
5622.000000	64.474034 
5621.000000	64.412951 
5620.000000	64.340424 
5619.000000	64.255952 
5618.000000	64.159488 
5617.000000	64.051747 
5616.000000	63.934969 
5615.000000	63.814377 
5614.000000	63.697695 
5613.000000	63.595151 
5612.000000	63.516259 
5611.000000	63.469910 
5610.000000	63.461256 
5609.000000	63.492035 
5608.000000	63.559532 
5607.000000	63.657593 
5606.000000	63.776850 
5605.000000	63.907742 
5604.000000	64.041352 
5603.000000	64.170408 
5602.000000	64.288997 
5601.000000	64.392542 
5600.000000	64.476585 
5599.000000	64.536452 
5598.000000	64.566969 
5597.000000	64.563775 
5596.000000	64.523959 
5595.000000	64.448332 
5594.000000	64.341926 
5593.000000	64.214348 
5592.000000	64.079284 
5591.000000	63.952827 
5590.000000	63.851141 
5589.000000	63.787865 
5588.000000	63.771724 
5587.000000	63.805270 
5586.000000	63.883709 
5585.000000	63.995718 
5584.000000	64.124822 
5583.000000	64.252543 
5582.000000	64.360904 
5581.000000	64.434814 
5580.000000	64.465045 
5579.000000	64.448952 
5578.000000	64.391899 
5577.000000	64.305734 
5576.000000	64.206671 
5575.000000	64.111661 
5574.000000	64.036130 
5573.000000	63.990688 
5572.000000	63.979601 
5571.000000	64.000368 
5570.000000	64.046096 
5569.000000	64.106869 
5568.000000	64.172291 
5567.000000	64.233088 
5566.000000	64.282035 
5565.000000	64.314889 
5564.000000	64.329195 
5563.000000	64.325165 
5562.000000	64.303874 
5561.000000	64.268445 
5560.000000	64.223647 
5559.000000	64.175510 
5558.000000	64.131283 
5557.000000	64.097023 
5556.000000	64.077877 
5555.000000	64.074420 
5554.000000	64.083194 
5553.000000	64.095854 
5552.000000	64.101219 
5551.000000	64.089107 
5550.000000	64.053225 
5549.000000	63.993477 
5548.000000	63.916301 
5547.000000	63.832759 
5546.000000	63.755941 
5545.000000	63.697433 
5544.000000	63.664793 
5543.000000	63.659381 
5542.000000	63.676834 
5541.000000	63.709568 
5540.000000	63.748598 
5539.000000	63.786315 
5538.000000	63.817834 
5537.000000	63.841342 
5536.000000	63.857722 
5535.000000	63.868761 
5534.000000	63.876342 
5533.000000	63.880705 
5532.000000	63.880801 
5531.000000	63.874769 
5530.000000	63.860464 
5529.000000	63.837504 
5528.000000	63.805747 
5527.000000	63.766002 
5526.000000	63.719773 
5525.000000	63.669347 
5524.000000	63.618826 
5523.000000	63.573932 
5522.000000	63.542771 
5521.000000	63.534283 
5520.000000	63.556742 
5519.000000	63.615226 
5518.000000	63.709855 
5517.000000	63.834404 
5516.000000	63.976359 
5515.000000	64.119052 
5514.000000	64.244484 
5513.000000	64.337468 
5512.000000	64.388275 
5511.000000	64.395165 
5510.000000	64.364528 
5509.000000	64.309024 
5508.000000	64.244675 
5507.000000	64.187097 
5506.000000	64.148378 
5505.000000	64.135098 
5504.000000	64.148950 
5503.000000	64.186000 
5502.000000	64.239525 
5501.000000	64.300370 
5500.000000	64.359784 
5499.000000	64.409422 
5498.000000	64.442753 
5497.000000	64.456534 
5496.000000	64.451265 
5495.000000	64.431166 
5494.000000	64.403128 
5493.000000	64.375519 
5492.000000	64.356112 
5491.000000	64.350652 
5490.000000	64.361262 
5489.000000	64.386057 
5488.000000	64.419627 
5487.000000	64.454412 
5486.000000	64.482736 
5485.000000	64.499425 
5484.000000	64.502358 
5483.000000	64.493155 
5482.000000	64.475655 
5481.000000	64.454984 
5480.000000	64.434790 
5479.000000	64.416337 
5478.000000	64.397144 
5477.000000	64.372205 
5476.000000	64.334821 
5475.000000	64.280104 
5474.000000	64.204287 
5473.000000	64.106678 
5472.000000	63.989877 
5471.000000	63.860058 
5470.000000	63.726401 
5469.000000	63.599848 
5468.000000	63.491415 
5467.000000	63.410329 
5466.000000	63.363265 
5465.000000	63.353204 
5464.000000	63.377714 
5463.000000	63.429880 
5462.000000	63.499617 
5461.000000	63.575792 
5460.000000	63.647031 
5459.000000	63.704991 
5458.000000	63.744854 
5457.000000	63.766717 
5456.000000	63.773870 
5455.000000	63.772583 
5454.000000	63.769197 
5453.000000	63.769936 
5452.000000	63.778948 
5451.000000	63.799238 
5450.000000	63.832569 
5449.000000	63.880300 
5448.000000	63.944315 
5447.000000	64.025139 
5446.000000	64.121127 
5445.000000	64.227414 
5444.000000	64.336085 
5443.000000	64.435005 
5442.000000	64.509487 
5441.000000	64.545369 
5440.000000	64.531850 
5439.000000	64.463376 
5438.000000	64.341235 
5437.000000	64.174413 
5436.000000	63.978147 
5435.000000	63.770842 
5434.000000	63.571453 
5433.000000	63.396143 
5432.000000	63.256692 
5431.000000	63.159894 
5430.000000	63.107323 
5429.000000	63.095808 
5428.000000	63.119459 
5427.000000	63.169908 
5426.000000	63.239312 
5425.000000	63.318085 
5424.000000	63.399720 
5423.000000	63.478827 
5422.000000	63.553810 
5421.000000	63.624596 
5420.000000	63.693761 
5419.000000	63.764929 
5418.000000	63.841128 
5417.000000	63.923263 
5416.000000	64.009618 
5415.000000	64.095902 
5414.000000	64.175486 
5413.000000	64.240717 
5412.000000	64.284992 
5411.000000	64.304018 
5410.000000	64.297246 
5409.000000	64.267539 
5408.000000	64.220452 
5407.000000	64.162683 
5406.000000	64.101457 
5405.000000	64.042806 
5404.000000	63.990569 
5403.000000	63.946533 
5402.000000	63.912677 
5401.000000	63.889932 
5400.000000	63.878655 
5399.000000	63.878417 
5398.000000	63.888669 
5397.000000	63.907170 
5396.000000	63.930273 
5395.000000	63.952493 
5394.000000	63.966727 
5393.000000	63.965988 
5392.000000	63.945078 
5391.000000	63.901352 
5390.000000	63.835597 
5389.000000	63.752865 
5388.000000	63.661646 
5387.000000	63.572216 
5386.000000	63.494563 
5385.000000	63.436317 
5384.000000	63.401412 
5383.000000	63.389658 
5382.000000	63.397717 
5381.000000	63.419985 
5380.000000	63.451337 
5379.000000	63.487696 
5378.000000	63.528251 
5377.000000	63.574123 
5376.000000	63.628506 
5375.000000	63.694453 
5374.000000	63.773417 
5373.000000	63.863492 
5372.000000	63.958907 
5371.000000	64.051008 
5370.000000	64.128994 
5369.000000	64.183425 
5368.000000	64.206480 
5367.000000	64.194321 
5366.000000	64.147257 
5365.000000	64.070272 
5364.000000	63.971734 
5363.000000	63.862085 
5362.000000	63.753557 
5361.000000	63.658714 
5360.000000	63.589525 
5359.000000	63.555765 
5358.000000	63.563132 
5357.000000	63.612532 
5356.000000	63.699936 
5355.000000	63.817214 
5354.000000	63.952183 
5353.000000	64.091920 
5352.000000	64.224696 
5351.000000	64.341711 
5350.000000	64.438438 
5349.000000	64.513063 
5348.000000	64.567017 
5347.000000	64.600777 
5346.000000	64.614319 
5345.000000	64.603805 
5344.000000	64.564251 
5343.000000	64.488768 
5342.000000	64.373207 
5341.000000	64.216780 
5340.000000	64.025282 
5339.000000	63.810348 
5338.000000	63.589215 
5337.000000	63.380813 
5336.000000	63.202309 
5335.000000	63.068461 
5334.000000	62.989592 
5333.000000	62.970232 
5332.000000	63.009548 
5331.000000	63.101768 
5330.000000	63.238000 
5329.000000	63.407301 
5328.000000	63.598084 
5327.000000	63.798189 
5326.000000	63.995718 
5325.000000	64.177966 
5324.000000	64.333057 
5323.000000	64.451527 
5322.000000	64.527201 
5321.000000	64.556622 
5320.000000	64.541387 
5319.000000	64.490962 
5318.000000	64.418530 
5317.000000	64.341235 
5316.000000	64.273428 
5315.000000	64.226818 
5314.000000	64.203214 
5313.000000	64.197444 
5312.000000	64.193153 
5311.000000	64.167547 
5310.000000	64.097356 
5309.000000	63.966298 
5308.000000	63.771510 
5307.000000	63.526749 
5306.000000	63.262605 
5305.000000	63.020348 
5304.000000	62.843322 
5303.000000	62.765026 
5302.000000	62.802839 
5301.000000	62.949466 
5300.000000	63.173174 
5299.000000	63.421702 
5298.000000	63.635396 
5297.000000	63.757252 
5296.000000	63.745594 
5295.000000	63.582158 
5294.000000	63.272333 
5293.000000	62.846899 
5292.000000	62.351965 
5291.000000	61.844968 
5290.000000	61.380338 
5289.000000	61.006808 
5288.000000	60.760807 
5287.000000	60.663127 
5286.000000	60.720038 
5285.000000	60.917615 
5284.000000	61.224770 
5283.000000	61.595058 
5282.000000	61.973762 
5281.000000	62.305903 
5280.000000	62.546515 
5279.000000	62.670755 
5278.000000	62.679767 
5277.000000	62.602639 
5276.000000	62.489652 
5275.000000	62.404584 
5274.000000	62.405920 
5273.000000	62.533688 
5272.000000	62.794852 
5271.000000	63.164019 
5270.000000	63.584613 
5269.000000	63.985466 
5268.000000	64.294981 
5267.000000	64.459252 
5266.000000	64.454841 
5265.000000	64.291071 
5264.000000	64.011240 
5263.000000	63.677620 
5262.000000	63.362622 
5261.000000	63.131952 
5260.000000	63.032364 
5259.000000	63.084936 
5258.000000	63.280010 
5257.000000	63.583683 
5256.000000	63.944387 
5255.000000	64.306640 
5254.000000	64.623212 
5253.000000	64.865183 
5252.000000	65.025711 
5251.000000	65.118026 
5250.000000	65.170884 
5249.000000	65.215826 
5248.000000	65.277981 
5247.000000	65.364599 
5246.000000	65.463113 
5245.000000	65.543341 
5244.000000	65.568375 
5243.000000	65.506434 
5242.000000	65.345311 
5241.000000	65.096449 
5240.000000	64.798712 
5239.000000	64.503312 
5238.000000	64.263176 
5237.000000	64.113187 
5236.000000	64.060759 
5235.000000	64.081287 
5234.000000	64.125657 
5233.000000	64.134311 
5232.000000	64.055895 
5231.000000	63.862180 
5230.000000	63.556623 
5229.000000	63.175153 
5228.000000	62.776064 
5227.000000	62.426447 
5226.000000	62.184739 
5225.000000	62.085866 
5224.000000	62.133622 
5223.000000	62.307810 
5222.000000	62.570285 
5221.000000	62.875080 
5220.000000	63.179159 
5219.000000	63.450694 
5218.000000	63.673377 
5217.000000	63.839507 
5216.000000	63.952851 
5215.000000	64.019322 
5214.000000	64.049506 
5213.000000	64.055347 
5212.000000	64.050674 
5211.000000	64.050817 
5210.000000	64.071083 
5209.000000	64.129447 
5208.000000	64.237523 
5207.000000	64.399099 
5206.000000	64.605879 
5205.000000	64.840483 
5204.000000	65.074324 
5203.000000	65.273737 
5202.000000	65.404891 
5201.000000	65.441632 
5200.000000	65.367293 
5199.000000	65.177989 
5198.000000	64.882254 
5197.000000	64.499521 
5196.000000	64.056110 
5195.000000	63.581728 
5194.000000	63.107395 
5193.000000	62.662649 
5192.000000	62.272143 
5191.000000	61.956739 
5190.000000	61.728429 
5189.000000	61.596274 
5188.000000	61.564683 
5187.000000	61.637473 
5186.000000	61.809158 
5185.000000	62.072134 
5184.000000	62.412548 
5183.000000	62.812256 
5182.000000	63.244557 
5181.000000	63.679051 
5180.000000	64.081978 
5179.000000	64.421963 
5178.000000	64.673566 
5177.000000	64.822125 
5176.000000	64.866089 
5175.000000	64.817547 
5174.000000	64.700293 
5173.000000	64.543128 
5172.000000	64.374661 
5171.000000	64.218211 
5170.000000	64.088559 
5169.000000	63.992047 
5168.000000	63.926815 
5167.000000	63.888406 
5166.000000	63.869452 
5165.000000	63.861346 
5164.000000	63.854026 
5163.000000	63.837742 
5162.000000	63.802623 
5161.000000	63.736414 
5160.000000	63.629603 
5159.000000	63.476562 
5158.000000	63.280439 
5157.000000	63.052582 
5156.000000	62.814402 
5155.000000	62.593054 
5154.000000	62.417602 
5153.000000	62.312507 
5152.000000	62.292528 
5151.000000	62.357473 
5150.000000	62.495303 
5149.000000	62.684583 
5148.000000	62.898612 
5147.000000	63.110327 
5146.000000	63.297891 
5145.000000	63.447618 
5144.000000	63.553619 
5143.000000	63.617038 
5142.000000	63.643932 
5141.000000	63.642740 
5140.000000	63.623619 
5139.000000	63.595843 
5138.000000	63.567757 
5137.000000	63.544774 
5136.000000	63.531684 
5135.000000	63.530492 
5134.000000	63.540983 
5133.000000	63.561272 
5132.000000	63.587522 
5131.000000	63.616633 
5130.000000	63.646841 
5129.000000	63.679075 
5128.000000	63.717174 
5127.000000	63.765525 
5126.000000	63.826966 
5125.000000	63.900995 
5124.000000	63.983106 
5123.000000	64.064931 
5122.000000	64.136004 
5121.000000	64.186835 
5120.000000	64.211511 
5119.000000	64.209294 
5118.000000	64.184927 
5117.000000	64.146709 
5116.000000	64.104175 
5115.000000	64.066362 
5114.000000	64.038920 
5113.000000	64.022874 
5112.000000	64.013957 
5111.000000	64.004850 
5110.000000	63.986444 
5109.000000	63.951206 
5108.000000	63.894915 
5107.000000	63.817286 
5106.000000	63.723635 
5105.000000	63.621997 
5104.000000	63.523650 
5103.000000	63.440132 
5102.000000	63.381481 
5101.000000	63.354563 
5100.000000	63.361072 
5099.000000	63.397789 
5098.000000	63.456034 
5097.000000	63.523602 
5096.000000	63.586592 
5095.000000	63.632154 
5094.000000	63.650894 
5093.000000	63.638544 
5092.000000	63.596582 
5091.000000	63.531470 
5090.000000	63.453674 
5089.000000	63.375401 
5088.000000	63.308668 
5087.000000	63.263034 
5086.000000	63.244628 
5085.000000	63.254952 
5084.000000	63.291096 
5083.000000	63.346409 
5082.000000	63.412046 
5081.000000	63.478493 
5080.000000	63.536739 
5079.000000	63.580107 
5078.000000	63.604474 
5077.000000	63.609433 
5076.000000	63.596916 
5075.000000	63.571906 
5074.000000	63.540554 
5073.000000	63.510012 
5072.000000	63.486790 
5071.000000	63.476800 
5070.000000	63.484430 
5069.000000	63.512730 
5068.000000	63.563275 
5067.000000	63.636159 
5066.000000	63.729524 
5065.000000	63.839793 
5064.000000	63.961386 
5063.000000	64.086675 
5062.000000	64.206528 
5061.000000	64.311289 
5060.000000	64.391899 
5059.000000	64.441895 
5058.000000	64.458179 
5057.000000	64.441704 
5056.000000	64.397335 
5055.000000	64.334130 
5054.000000	64.262843 
5053.000000	64.194750 
5052.000000	64.138507 
5051.000000	64.100170 
5050.000000	64.080572 
5049.000000	64.077210 
5048.000000	64.083290 
5047.000000	64.090394 
5046.000000	64.089751 
5045.000000	64.074540 
5044.000000	64.041399 
5043.000000	63.990497 
5042.000000	63.926434 
5041.000000	63.856601 
5040.000000	63.790106 
5039.000000	63.735389 
5038.000000	63.698744 
5037.000000	63.683104 
5036.000000	63.687562 
5035.000000	63.708114 
5034.000000	63.738989 
5033.000000	63.774657 
5032.000000	63.810729 
5031.000000	63.845419 
5030.000000	63.879799 
5029.000000	63.916921 
5028.000000	63.959836 
5027.000000	64.010071 
5026.000000	64.066481 
5025.000000	64.124441 
5024.000000	64.176917 
5023.000000	64.215683 
5022.000000	64.234161 
5021.000000	64.228439 
5020.000000	64.199686 
5019.000000	64.152622 
5018.000000	64.094591 
5017.000000	64.033341 
5016.000000	63.975596 
5015.000000	63.925695 
5014.000000	63.885235 
5013.000000	63.853764 
5012.000000	63.830018 
5011.000000	63.813161 
5010.000000	63.803553 
5009.000000	63.802838 
5008.000000	63.813233 
5007.000000	63.836431 
5006.000000	63.872361 
5005.000000	63.918256 
5004.000000	63.968706 
5003.000000	64.016675 
5002.000000	64.054536 
5001.000000	64.075827 
5000.000000	64.076113 
4999.000000	64.053678 
4998.000000	64.009690 
4997.000000	63.947868 
4996.000000	63.873982 
4995.000000	63.795113 
4994.000000	63.718867 
4993.000000	63.652610 
4992.000000	63.601970 
4991.000000	63.570713 
4990.000000	63.559389 
4989.000000	63.565349 
4988.000000	63.583540 
4987.000000	63.607478 
4986.000000	63.630628 
4985.000000	63.647365 
4984.000000	63.653516 
4983.000000	63.646793 
4982.000000	63.626861 
4981.000000	63.595151 
4980.000000	63.554000 
4979.000000	63.506531 
4978.000000	63.456153 
4977.000000	63.407111 
4976.000000	63.363790 
4975.000000	63.331413 
4974.000000	63.315391 
4973.000000	63.320708 
4972.000000	63.351249 
4971.000000	63.408493 
4970.000000	63.490390 
4969.000000	63.590931 
4968.000000	63.701009 
4967.000000	63.808751 
4966.000000	63.901519 
4965.000000	63.967657 
4964.000000	63.998436 
4963.000000	63.989806 
4962.000000	63.943386 
4961.000000	63.866257 
4960.000000	63.769817 
4959.000000	63.668107 
4958.000000	63.575816 
4957.000000	63.504981 
4956.000000	63.463211 
4955.000000	63.453006 
4954.000000	63.472199 
4953.000000	63.515114 
4952.000000	63.574481 
4951.000000	63.642978 
4950.000000	63.714480 
4949.000000	63.784456 
4948.000000	63.849639 
4947.000000	63.907217 
4946.000000	63.954138 
4945.000000	63.986873 
4944.000000	64.001297 
4943.000000	63.994312 
4942.000000	63.963508 
4941.000000	63.909029 
4940.000000	63.832998 
4939.000000	63.740587 
4938.000000	63.639068 
4937.000000	63.537001 
4936.000000	63.443446 
4935.000000	63.366341 
4934.000000	63.313007 
4933.000000	63.289356 
4932.000000	63.299274 
4931.000000	63.343667 
4930.000000	63.420104 
4929.000000	63.522505 
4928.000000	63.641119 
4927.000000	63.763356 
4926.000000	63.874959 
4925.000000	63.962197 
4924.000000	64.014840 
4923.000000	64.028000 
4922.000000	64.002156 
4921.000000	63.943624 
4920.000000	63.863420 
4919.000000	63.775372 
4918.000000	63.693809 
4917.000000	63.630843 
4916.000000	63.594794 
4915.000000	63.588857 
4914.000000	63.612270 
4913.000000	63.659954 
4912.000000	63.724493 
4911.000000	63.796758 
4910.000000	63.867974 
4909.000000	63.929986 
4908.000000	63.976120 
4907.000000	64.001178 
4906.000000	64.001798 
4905.000000	63.977050 
4904.000000	63.928818 
4903.000000	63.862013 
4902.000000	63.784670 
4901.000000	63.707828 
4900.000000	63.644361 
4899.000000	63.608431 
4898.000000	63.612651 
4897.000000	63.665699 
4896.000000	63.769149 
4895.000000	63.916778 
4894.000000	64.093732 
4893.000000	64.278650 
4892.000000	64.446830 
4891.000000	64.574837 
4890.000000	64.644932 
4889.000000	64.648604 
4888.000000	64.587521 
4887.000000	64.472651 
4886.000000	64.321708 
4885.000000	64.155626 
4884.000000	63.994479 
4883.000000	63.854360 
4882.000000	63.745498 
4881.000000	63.672494 
4880.000000	63.634824 
4879.000000	63.629460 
4878.000000	63.650894 
4877.000000	63.692808 
4876.000000	63.747477 
4875.000000	63.806581 
4874.000000	63.860440 
4873.000000	63.899493 
4872.000000	63.916087 
4871.000000	63.906478 
4870.000000	63.872504 
4869.000000	63.821578 
4868.000000	63.765025 
4867.000000	63.715672 
4866.000000	63.685011 
4865.000000	63.680195 
4864.000000	63.702654 
4863.000000	63.747549 
4862.000000	63.805222 
4861.000000	63.863563 
4860.000000	63.911819 
4859.000000	63.941955 
4858.000000	63.950252 
4857.000000	63.937425 
4856.000000	63.907313 
4855.000000	63.865756 
4854.000000	63.818621 
4853.000000	63.770461 
4852.000000	63.723421 
4851.000000	63.678407 
4850.000000	63.636064 
4849.000000	63.596606 
4848.000000	63.560652 
4847.000000	63.529253 
4846.000000	63.504099 
4845.000000	63.487625 
4844.000000	63.482642 
4843.000000	63.491415 
4842.000000	63.515329 
4841.000000	63.554430 
4840.000000	63.606810 
4839.000000	63.668584 
4838.000000	63.734006 
4837.000000	63.796138 
4836.000000	63.847970 
4835.000000	63.883543 
4834.000000	63.899207 
4833.000000	63.894152 
4832.000000	63.871145 
4831.000000	63.836121 
4830.000000	63.797402 
4829.000000	63.764381 
4828.000000	63.745498 
4827.000000	63.746809 
4826.000000	63.770484 
4825.000000	63.814854 
4824.000000	63.874053 
4823.000000	63.939881 
4822.000000	64.002370 
4821.000000	64.052033 
4820.000000	64.081716 
4819.000000	64.087939 
4818.000000	64.071249 
4817.000000	64.035964 
4816.000000	63.989305 
4815.000000	63.939785 
4814.000000	63.895368 
4813.000000	63.861489 
4812.000000	63.840889 
4811.000000	63.832688 
4810.000000	63.833618 
4809.000000	63.838911 
4808.000000	63.843703 
4807.000000	63.844108 
4806.000000	63.838076 
4805.000000	63.825464 
4804.000000	63.807368 
4803.000000	63.786077 
4802.000000	63.763761 
4801.000000	63.742446 
4800.000000	63.723278 
4799.000000	63.707208 
4798.000000	63.694906 
4797.000000	63.687396 
4796.000000	63.685965 
4795.000000	63.692235 
4794.000000	63.707637 
4793.000000	63.732790 
4792.000000	63.766980 
4791.000000	63.808035 
4790.000000	63.852500 
4789.000000	63.895750 
4788.000000	63.932776 
4787.000000	63.959169 
4786.000000	63.972043 
4785.000000	63.970375 
4784.000000	63.955760 
4783.000000	63.931798 
4782.000000	63.904094 
4781.000000	63.879013 
4780.000000	63.862657 
4779.000000	63.859915 
4778.000000	63.873100 
4777.000000	63.902044 
4776.000000	63.943147 
4775.000000	63.990712 
4774.000000	64.037179 
4773.000000	64.075183 
4772.000000	64.098572 
4771.000000	64.103651 
4770.000000	64.089822 
4769.000000	64.059448 
4768.000000	64.017224 
4767.000000	63.968825 
4766.000000	63.919782 
4765.000000	63.874578 
4764.000000	63.836097 
4763.000000	63.805508 
4762.000000	63.783025 
4761.000000	63.768029 
4760.000000	63.759684 
4759.000000	63.757085 
4758.000000	63.759303 
4757.000000	63.765263 
4756.000000	63.773465 
4755.000000	63.782238 
4754.000000	63.789248 
4753.000000	63.792753 
4752.000000	63.791680 
4751.000000	63.786292 
4750.000000	63.778281 
4749.000000	63.770270 
4748.000000	63.765096 
4747.000000	63.764834 
4746.000000	63.770079 
4745.000000	63.779568 
4744.000000	63.790678 
4743.000000	63.799500 
4742.000000	63.801860 
4741.000000	63.794636 
4740.000000	63.776659 
4739.000000	63.749003 
4738.000000	63.715243 
4737.000000	63.680839 
4736.000000	63.652038 
4735.000000	63.635182 
4734.000000	63.635110 
4733.000000	63.653683 
4732.000000	63.689374 
4731.000000	63.737869 
4730.000000	63.792681 
4729.000000	63.846325 
4728.000000	63.891959 
4727.000000	63.924860 
4726.000000	63.943338 
4725.000000	63.948702 
4724.000000	63.944506 
4723.000000	63.935637 
4722.000000	63.926029 
4721.000000	63.918089 
4720.000000	63.911247 
4719.000000	63.902497 
4718.000000	63.887190 
4717.000000	63.861203 
4716.000000	63.821959 
4715.000000	63.770103 
4714.000000	63.709831 
4713.000000	63.648581 
4712.000000	63.595438 
4711.000000	63.559412 
4710.000000	63.547825 
4709.000000	63.564777 
4708.000000	63.610434 
4707.000000	63.681173 
4706.000000	63.770294 
4705.000000	63.869357 
4704.000000	63.969564 
4703.000000	64.063143 
4702.000000	64.144039 
4701.000000	64.208531 
4700.000000	64.255166 
4699.000000	64.283823 
4698.000000	64.295816 
4697.000000	64.292240 
4696.000000	64.274859 
4695.000000	64.244222 
4694.000000	64.201021 
4693.000000	64.145112 
4692.000000	64.077305 
4691.000000	63.998913 
4690.000000	63.912796 
4689.000000	63.823294 
4688.000000	63.736057 
4687.000000	63.657498 
4686.000000	63.593864 
4685.000000	63.550233 
4684.000000	63.529562 
4683.000000	63.532018 
4682.000000	63.555073 
4681.000000	63.593363 
4680.000000	63.640046 
4679.000000	63.687729 
4678.000000	63.730072 
4677.000000	63.761878 
4676.000000	63.780832 
4675.000000	63.787269 
4674.000000	63.784313 
4673.000000	63.776206 
4672.000000	63.767623 
4671.000000	63.763284 
4670.000000	63.766169 
4669.000000	63.777399 
4668.000000	63.795518 
4667.000000	63.817310 
4666.000000	63.838124 
4665.000000	63.853359 
4664.000000	63.859343 
4663.000000	63.854217 
4662.000000	63.838744 
4661.000000	63.816261 
4660.000000	63.791823 
4659.000000	63.770627 
4658.000000	63.757395 
4657.000000	63.755059 
4656.000000	63.763141 
4655.000000	63.777685 
4654.000000	63.792681 
4653.000000	63.800930 
4652.000000	63.795375 
4651.000000	63.770818 
4650.000000	63.725233 
4649.000000	63.660573 
4648.000000	63.581943 
4647.000000	63.497161 
4646.000000	63.414454 
4645.000000	63.341808 
4644.000000	63.285422 
4643.000000	63.248944 
4642.000000	63.232851 
4641.000000	63.235068 
4640.000000	63.251543 
4639.000000	63.277387 
4638.000000	63.307404 
4637.000000	63.337683 
4636.000000	63.365411 
4635.000000	63.390088 
4634.000000	63.412475 
4633.000000	63.435125 
4632.000000	63.461375 
4631.000000	63.494801 
4630.000000	63.538408 
4629.000000	63.594007 
4628.000000	63.661408 
4627.000000	63.738775 
4626.000000	63.822388 
4625.000000	63.907289 
4624.000000	63.987660 
4623.000000	64.058303 
4622.000000	64.114451 
4621.000000	64.153099 
4620.000000	64.172196 
4619.000000	64.171862 
4618.000000	64.153194 
4617.000000	64.118695 
4616.000000	64.071416 
4615.000000	64.015626 
4614.000000	63.955521 
4613.000000	63.895511 
4612.000000	63.839507 
4611.000000	63.791418 
4610.000000	63.754510 
4609.000000	63.731265 
4608.000000	63.722991 
4607.000000	63.729405 
4606.000000	63.748717 
4605.000000	63.777852 
4604.000000	63.812375 
4603.000000	63.847422 
4602.000000	63.878631 
4601.000000	63.903260 
4600.000000	63.920187 
4599.000000	63.930082 
4598.000000	63.934969 
4597.000000	63.937568 
4596.000000	63.940310 
4595.000000	63.944458 
4594.000000	63.950467 
4593.000000	63.957238 
4592.000000	63.963127 
4591.000000	63.966202 
4590.000000	63.965845 
4589.000000	63.962054 
4588.000000	63.955783 
4587.000000	63.948440 
4586.000000	63.941407 
4585.000000	63.935422 
4584.000000	63.930201 
4583.000000	63.924646 
4582.000000	63.917136 
4581.000000	63.906288 
4580.000000	63.891911 
4579.000000	63.874411 
4578.000000	63.854837 
4577.000000	63.835000 
4576.000000	63.817119 
4575.000000	63.803243 
4574.000000	63.795161 
4573.000000	63.794231 
4572.000000	63.801240 
4571.000000	63.816761 
4570.000000	63.840365 
4569.000000	63.870525 
4568.000000	63.904213 
4567.000000	63.937497 
4566.000000	63.965177 
4565.000000	63.981604 
4564.000000	63.981533 
4563.000000	63.961100 
4562.000000	63.918900 
4561.000000	63.856387 
4560.000000	63.778328 
4559.000000	63.691997 
4558.000000	63.606739 
4557.000000	63.532114 
4556.000000	63.476920 
4555.000000	63.447833 
4554.000000	63.448643 
4553.000000	63.479757 
4552.000000	63.538455 
4551.000000	63.619422 
4550.000000	63.715100 
4549.000000	63.816618 
4548.000000	63.914585 
4547.000000	63.999962 
4546.000000	64.064836 
4545.000000	64.103174 
4544.000000	64.111685 
4543.000000	64.089846 
4542.000000	64.040851 
4541.000000	63.970470 
4540.000000	63.886404 
4539.000000	63.796830 
4538.000000	63.710021 
4537.000000	63.632607 
4536.000000	63.569331 
4535.000000	63.522434 
4534.000000	63.492345 
4533.000000	63.477706 
4532.000000	63.476109 
4531.000000	63.484549 
4530.000000	63.499927 
4529.000000	63.519310 
4528.000000	63.539695 
4527.000000	63.558340 
4526.000000	63.572549 
4525.000000	63.579845 
4524.000000	63.578081 
4523.000000	63.565945 
4522.000000	63.543391 
4521.000000	63.511800 
4520.000000	63.474345 
4519.000000	63.435125 
4518.000000	63.399171 
4517.000000	63.371515 
4516.000000	63.356566 
4515.000000	63.357305 
4514.000000	63.374686 
4513.000000	63.407278 
4512.000000	63.451623 
4511.000000	63.502931 
4510.000000	63.556003 
4509.000000	63.606119 
4508.000000	63.649964 
4507.000000	63.686060 
4506.000000	63.714170 
4505.000000	63.734769 
4504.000000	63.748455 
4503.000000	63.755750 
4502.000000	63.756799 
4501.000000	63.751482 
4500.000000	63.739705 
4499.000000	63.722062 
4498.000000	63.699245 
4497.000000	63.672447 
4496.000000	63.642930 
4495.000000	63.612270 
4494.000000	63.582634 
4493.000000	63.557076 
4492.000000	63.539266 
4491.000000	63.533282 
4490.000000	63.543081 
4489.000000	63.571381 
4488.000000	63.618993 
4487.000000	63.683629 
4486.000000	63.759493 
4485.000000	63.838028 
4484.000000	63.909006 
4483.000000	63.962864 
4482.000000	63.992428 
4481.000000	63.994598 
4480.000000	63.971090 
4479.000000	63.927984 
4478.000000	63.874602 
4477.000000	63.820958 
4476.000000	63.775610 
4475.000000	63.744497 
4474.000000	63.730454 
4473.000000	63.732671 
4472.000000	63.748025 
4471.000000	63.771200 
4470.000000	63.796234 
4469.000000	63.817524 
4468.000000	63.831210 
4467.000000	63.835120 
4466.000000	63.829541 
4465.000000	63.816952 
4464.000000	63.801789 
4463.000000	63.789033 
4462.000000	63.783717 
4461.000000	63.789582 
4460.000000	63.808560 
4459.000000	63.840627 
4458.000000	63.883328 
4457.000000	63.932991 
4456.000000	63.984203 
4455.000000	64.031076 
4454.000000	64.067268 
4453.000000	64.087510 
4452.000000	64.087677 
4451.000000	64.065361 
4450.000000	64.020776 
4449.000000	63.957071 
4448.000000	63.880133 
4447.000000	63.797211 
4446.000000	63.717770 
4445.000000	63.652181 
4444.000000	63.610577 
4443.000000	63.600850 
4442.000000	63.628554 
4441.000000	63.695287 
4440.000000	63.795995 
4439.000000	63.919663 
4438.000000	64.051485 
4437.000000	64.175653 
4436.000000	64.277338 
4435.000000	64.346528 
4434.000000	64.378190 
4433.000000	64.374446 
4432.000000	64.345765 
4431.000000	64.307141 
4430.000000	64.269852 
4429.000000	64.243650 
4428.000000	64.239192 
4427.000000	64.263224 
4426.000000	64.312720 
4425.000000	64.384031 
4424.000000	64.478707 
4423.000000	64.597964 
4422.000000	64.740991 
4421.000000	64.904832 
4420.000000	65.082216 
4419.000000	65.264129 
4418.000000	65.440893 
4417.000000	65.605545 
4416.000000	65.755033 
4415.000000	65.899157 
4414.000000	66.057300 
4413.000000	66.251540 
4412.000000	66.496419 
4411.000000	66.799473 
4410.000000	67.147207 
4409.000000	67.506718 
4408.000000	67.818903 
4407.000000	68.020820 
4406.000000	68.038892 
4405.000000	67.816615 
4404.000000	67.305135 
4403.000000	66.489863 
4402.000000	65.372896 
4401.000000	63.978958 
4400.000000	62.351965 
4399.000000	60.551786 
4398.000000	58.662843 
4397.000000	56.787204 
4396.000000	55.049872 
4395.000000	53.580784 
4394.000000	52.508282 
4393.000000	51.932358 
4392.000000	51.911783 
4391.000000	52.442383 
4390.000000	53.468585 
4389.000000	54.886245 
4388.000000	56.559014 
4387.000000	58.336853 
4386.000000	60.078382 
4385.000000	61.667442 
4384.000000	63.018441 
4383.000000	64.081764 
4382.000000	64.840388 
4381.000000	65.303564 
4380.000000	65.505123 
4379.000000	65.489268 
4378.000000	65.314197 
4377.000000	65.034222 
4376.000000	64.715313 
4375.000000	64.408969 
4374.000000	64.159917 
4373.000000	63.991641 
4372.000000	63.916683 
4371.000000	63.929057 
4370.000000	64.011073 
4369.000000	64.138603 
4368.000000	64.292359 
4367.000000	64.450740 
4366.000000	64.589691 
4365.000000	64.687919 
4364.000000	64.728236 
4363.000000	64.698314 
4362.000000	64.592266 
4361.000000	64.416289 
4360.000000	64.188194 
4359.000000	63.936376 
4358.000000	63.694643 
4357.000000	63.491177 
4356.000000	63.344860 
4355.000000	63.268232 
4354.000000	63.263893 
4353.000000	63.319683 
4352.000000	63.415670 
4351.000000	63.533043 
4350.000000	63.655567 
4349.000000	63.769459 
4348.000000	63.866710 
4347.000000	63.942909 
4346.000000	63.997554 
4345.000000	64.030289 
4344.000000	64.042401 
4343.000000	64.035058 
4342.000000	64.011120 
4341.000000	63.977026 
4340.000000	63.939285 
4339.000000	63.904571 
4338.000000	63.876700 
4337.000000	63.856339 
4336.000000	63.840675 
4335.000000	63.824486 
4334.000000	63.801503 
4333.000000	63.766312 
4332.000000	63.715600 
4331.000000	63.649439 
4330.000000	63.571047 
4329.000000	63.486981 
4328.000000	63.405251 
4327.000000	63.334822 
4326.000000	63.284087 
4325.000000	63.259530 
4324.000000	63.263750 
4323.000000	63.295340 
4322.000000	63.349199 
4321.000000	63.417339 
4320.000000	63.490390 
4319.000000	63.559126 
4318.000000	63.615179 
4317.000000	63.653254 
4316.000000	63.671755 
4315.000000	63.672471 
4314.000000	63.659501 
4313.000000	63.637924 
4312.000000	63.612461 
4311.000000	63.586521 
4310.000000	63.561964 
4309.000000	63.539433 
4308.000000	63.519072 
4307.000000	63.501572 
4306.000000	63.488602 
4305.000000	63.482069 
4304.000000	63.483762 
4303.000000	63.494348 
4302.000000	63.513064 
4301.000000	63.537025 
4300.000000	63.561916 
4299.000000	63.583159 
4298.000000	63.596773 
4297.000000	63.600325 
4296.000000	63.593506 
4295.000000	63.578414 
4294.000000	63.558316 
4293.000000	63.536500 
4292.000000	63.515734 
4291.000000	63.497352 
4290.000000	63.481950 
4289.000000	63.469862 
4288.000000	63.461446 
4287.000000	63.457727 
4286.000000	63.459706 
4285.000000	63.468265 
4284.000000	63.483095 
4283.000000	63.502359 
4282.000000	63.523340 
4281.000000	63.542866 
4280.000000	63.558411 
4279.000000	63.568711 
4278.000000	63.574171 
4277.000000	63.576674 
4276.000000	63.578987 
4275.000000	63.583731 
4274.000000	63.592457 
4273.000000	63.605356 
4272.000000	63.621354 
4271.000000	63.638639 
4270.000000	63.655281 
4269.000000	63.669872 
4268.000000	63.682126 
4267.000000	63.692355 
4266.000000	63.701200 
4265.000000	63.709068 
4264.000000	63.715481 
4263.000000	63.719725 
4262.000000	63.721275 
4261.000000	63.720345 
4260.000000	63.718414 
4259.000000	63.717627 
4258.000000	63.720417 
4257.000000	63.728165 
4256.000000	63.740611 
4255.000000	63.755321 
4254.000000	63.768291 
4253.000000	63.774561 
4252.000000	63.769888 
4251.000000	63.752198 
4250.000000	63.722729 
4249.000000	63.686180 
4248.000000	63.650035 
4247.000000	63.622832 
4246.000000	63.612532 
4245.000000	63.624048 
4244.000000	63.658165 
4243.000000	63.711357 
4242.000000	63.775944 
4241.000000	63.842296 
4240.000000	63.900351 
4239.000000	63.941764 
4238.000000	63.961386 
4237.000000	63.957762 
4236.000000	63.933300 
4235.000000	63.893699 
4234.000000	63.846087 
4233.000000	63.797426 
4232.000000	63.752961 
4231.000000	63.715600 
4230.000000	63.685464 
4229.000000	63.660788 
4228.000000	63.639020 
4227.000000	63.618159 
4226.000000	63.597655 
4225.000000	63.578844 
4224.000000	63.564610 
4223.000000	63.558554 
4222.000000	63.563680 
4221.000000	63.581228 
4220.000000	63.610172 
4219.000000	63.647198 
4218.000000	63.687467 
4217.000000	63.725781 
4216.000000	63.757896 
4215.000000	63.781046 
4214.000000	63.794589 
4213.000000	63.799047 
4212.000000	63.795542 
4211.000000	63.784718 
4210.000000	63.766217 
4209.000000	63.739085 
4208.000000	63.702440 
4207.000000	63.656568 
4206.000000	63.603734 
4205.000000	63.548231 
4204.000000	63.495826 
4203.000000	63.452649 
4202.000000	63.423848 
4201.000000	63.412094 
4200.000000	63.416886 
4199.000000	63.434886 
4198.000000	63.460755 
4197.000000	63.488698 
4196.000000	63.514065 
4195.000000	63.534307 
4194.000000	63.549423 
4193.000000	63.561248 
4192.000000	63.572406 
4191.000000	63.584733 
4190.000000	63.598299 
4189.000000	63.611412 
4188.000000	63.620829 
4187.000000	63.622903 
4186.000000	63.615155 
4185.000000	63.597607 
4184.000000	63.573265 
4183.000000	63.547372 
4182.000000	63.526630 
4181.000000	63.517332 
4180.000000	63.523650 
4179.000000	63.546562 
4178.000000	63.583087 
4177.000000	63.627099 
4176.000000	63.670635 
4175.000000	63.706159 
4174.000000	63.728117 
4173.000000	63.734269 
4172.000000	63.726210 
4171.000000	63.708615 
4170.000000	63.687515 
4169.000000	63.668513 
4168.000000	63.655447 
4167.000000	63.649511 
4166.000000	63.649487 
4165.000000	63.651633 
4164.000000	63.651680 
4163.000000	63.645362 
4162.000000	63.629722 
4161.000000	63.603639 
4160.000000	63.567614 
4159.000000	63.523960 
4158.000000	63.475751 
4157.000000	63.427042 
4156.000000	63.381648 
4155.000000	63.343095 
4154.000000	63.314342 
4153.000000	63.297176 
4152.000000	63.291978 
4151.000000	63.297677 
4150.000000	63.311839 
4149.000000	63.331389 
4148.000000	63.352918 
4147.000000	63.374066 
4146.000000	63.393926 
4145.000000	63.413381 
4144.000000	63.434600 
4143.000000	63.460230 
4142.000000	63.492012 
4141.000000	63.529729 
4140.000000	63.570594 
4139.000000	63.609480 
4138.000000	63.639903 
4137.000000	63.656020 
4136.000000	63.653969 
4135.000000	63.633465 
4134.000000	63.597631 
4133.000000	63.553166 
4132.000000	63.507747 
4131.000000	63.468766 
4130.000000	63.440608 
4129.000000	63.424491 
4128.000000	63.417625 
4127.000000	63.414335 
4126.000000	63.408231 
4125.000000	63.394331 
4124.000000	63.370680 
4123.000000	63.338851 
4122.000000	63.303804 
4121.000000	63.272166 
4120.000000	63.250684 
4119.000000	63.244080 
4118.000000	63.253855 
4117.000000	63.277745 
4116.000000	63.311004 
4115.000000	63.347506 
4114.000000	63.381266 
4113.000000	63.407993 
4112.000000	63.425683 
4111.000000	63.434720 
4110.000000	63.436865 
4109.000000	63.434910 
4108.000000	63.431191 
4107.000000	63.427639 
4106.000000	63.425397 
4105.000000	63.425397 
4104.000000	63.428711 
4103.000000	63.436651 
4102.000000	63.451123 
4101.000000	63.473701 
4100.000000	63.504862 
4099.000000	63.543367 
4098.000000	63.586091 
4097.000000	63.628149 
4096.000000	63.663935 
4095.000000	63.688039 
4094.000000	63.696455 
4093.000000	63.687300 
4092.000000	63.661146 
4091.000000	63.620948 
4090.000000	63.571357 
4089.000000	63.517856 
4088.000000	63.465857 
4087.000000	63.420295 
4086.000000	63.385057 
4085.000000	63.362717 
4084.000000	63.354659 
4083.000000	63.360714 
4082.000000	63.379812 
4081.000000	63.409900 
4080.000000	63.448548 
4079.000000	63.492488 
4078.000000	63.538455 
4077.000000	63.583135 
4076.000000	63.623309 
4075.000000	63.656258 
4074.000000	63.679480 
4073.000000	63.691043 
4072.000000	63.689255 
4071.000000	63.673186 
4070.000000	63.642787 
4069.000000	63.599467 
4068.000000	63.546299 
4067.000000	63.488030 
4066.000000	63.430833 
4065.000000	63.381695 
4064.000000	63.347077 
4063.000000	63.331794 
4062.000000	63.337802 
4061.000000	63.363671 
4060.000000	63.404464 
4059.000000	63.452649 
4058.000000	63.499236 
4057.000000	63.535881 
4056.000000	63.556385 
4055.000000	63.558173 
4054.000000	63.542199 
4053.000000	63.512635 
4052.000000	63.475847 
4051.000000	63.438224 
4050.000000	63.405179 
4049.000000	63.379454 
4048.000000	63.361263 
4047.000000	63.348388 
4046.000000	63.337635 
4045.000000	63.326048 
4044.000000	63.311862 
4043.000000	63.295197 
4042.000000	63.278031 
4041.000000	63.263225 
4040.000000	63.253664 
4039.000000	63.251209 
4038.000000	63.256025 
4037.000000	63.266801 
4036.000000	63.280844 
4035.000000	63.294982 
4034.000000	63.306307 
4033.000000	63.313198 
4032.000000	63.315868 
4031.000000	63.315963 
4030.000000	63.316369 
4029.000000	63.319921 
4028.000000	63.328790 
4027.000000	63.343858 
4026.000000	63.364243 
4025.000000	63.387703 
4024.000000	63.410735 
4023.000000	63.430070 
4022.000000	63.442897 
4021.000000	63.447809 
4020.000000	63.444566 
4019.000000	63.434171 
4018.000000	63.418316 
4017.000000	63.398861 
4016.000000	63.377475 
4015.000000	63.355112 
4014.000000	63.332605 
4013.000000	63.310647 
4012.000000	63.290500 
4011.000000	63.274049 
4010.000000	63.263797 
4009.000000	63.262176 
4008.000000	63.270759 
4007.000000	63.289380 
4006.000000	63.315773 
4005.000000	63.345837 
4004.000000	63.374304 
4003.000000	63.396096 
4002.000000	63.407492 
4001.000000	63.406872 
4000.000000	63.395261 
3999.000000	63.375568 
3998.000000	63.352227 
3997.000000	63.329410 
3996.000000	63.310313 
3995.000000	63.296222 
3994.000000	63.286566 
3993.000000	63.279271 
3992.000000	63.271808 
3991.000000	63.262104 
3990.000000	63.249444 
3989.000000	63.234615 
3988.000000	63.219761 
3987.000000	63.207769 
3986.000000	63.201308 
3985.000000	63.202285 
3984.000000	63.211226 
3983.000000	63.227248 
3982.000000	63.248085 
3981.000000	63.270926 
3980.000000	63.292860 
3979.000000	63.311386 
3978.000000	63.325023 
3977.000000	63.333702 
3976.000000	63.338661 
3975.000000	63.341927 
3974.000000	63.345766 
3973.000000	63.352060 
3972.000000	63.361597 
3971.000000	63.374185 
3970.000000	63.388323 
3969.000000	63.401818 
3968.000000	63.412237 
3967.000000	63.417935 
3966.000000	63.418197 
3965.000000	63.413548 
3964.000000	63.405680 
3963.000000	63.397002 
3962.000000	63.389778 
3961.000000	63.385629 
3960.000000	63.384747 
3959.000000	63.386034 
3958.000000	63.387179 
3957.000000	63.385462 
3956.000000	63.378000 
3955.000000	63.362765 
3954.000000	63.338732 
3953.000000	63.306379 
3952.000000	63.267135 
3951.000000	63.223743 
3950.000000	63.179469 
3949.000000	63.138437 
3948.000000	63.104557 
3947.000000	63.081574 
3946.000000	63.072323 
3945.000000	63.078713 
3944.000000	63.101029 
3943.000000	63.137888 
3942.000000	63.186049 
3941.000000	63.240885 
3940.000000	63.296842 
3939.000000	63.348174 
3938.000000	63.389849 
3937.000000	63.418388 
3936.000000	63.432240 
3935.000000	63.431715 
3934.000000	63.418865 
3933.000000	63.396596 
3932.000000	63.368225 
3931.000000	63.336563 
3930.000000	63.303613 
3929.000000	63.270473 
3928.000000	63.237571 
3927.000000	63.204813 
3926.000000	63.172149 
3925.000000	63.139939 
3924.000000	63.109374 
3923.000000	63.082599 
3922.000000	63.062477 
3921.000000	63.052058 
3920.000000	63.053894 
3919.000000	63.069057 
3918.000000	63.096857 
3917.000000	63.134622 
3916.000000	63.178300 
3915.000000	63.222908 
3914.000000	63.263726 
3913.000000	63.296961 
3912.000000	63.320398 
3911.000000	63.333749 
3910.000000	63.338088 
3909.000000	63.335371 
3908.000000	63.327836 
3907.000000	63.317370 
3906.000000	63.305115 
3905.000000	63.291501 
3904.000000	63.276529 
3903.000000	63.260102 
3902.000000	63.242435 
3901.000000	63.224244 
3900.000000	63.206624 
3899.000000	63.190960 
3898.000000	63.178515 
3897.000000	63.170289 
3896.000000	63.166689 
3895.000000	63.167643 
3894.000000	63.172650 
3893.000000	63.180804 
3892.000000	63.190817 
3891.000000	63.201332 
3890.000000	63.210606 
3889.000000	63.217067 
3888.000000	63.218951 
3887.000000	63.215017 
3886.000000	63.204789 
3885.000000	63.189053 
3884.000000	63.170099 
3883.000000	63.151359 
3882.000000	63.136816 
3881.000000	63.129949 
3880.000000	63.133239 
3879.000000	63.146948 
3878.000000	63.168978 
3877.000000	63.195061 
3876.000000	63.219714 
3875.000000	63.237524 
3874.000000	63.244318 
3873.000000	63.237929 
3872.000000	63.218593 
3871.000000	63.188719 
3870.000000	63.152384 
3869.000000	63.113927 
3868.000000	63.077354 
3867.000000	63.045644 
3866.000000	63.020586 
3865.000000	63.003349 
3864.000000	62.994360 
3863.000000	62.994098 
3862.000000	63.002777 
3861.000000	63.020443 
3860.000000	63.046360 
3859.000000	63.078331 
3858.000000	63.113069 
3857.000000	63.146090 
3856.000000	63.172745 
3855.000000	63.188838 
3854.000000	63.191890 
3853.000000	63.181900 
3852.000000	63.161492 
3851.000000	63.135290 
3850.000000	63.109254 
3849.000000	63.089084 
3848.000000	63.079047 
3847.000000	63.081216 
3846.000000	63.095283 
3845.000000	63.118791 
3844.000000	63.147926 
3843.000000	63.178348 
3842.000000	63.206005 
3841.000000	63.228178 
3840.000000	63.243150 
3839.000000	63.250613 
3838.000000	63.251137 
3837.000000	63.245797 
3836.000000	63.236403 
3835.000000	63.224601 
3834.000000	63.211512 
3833.000000	63.197636 
3832.000000	63.183379 
3831.000000	63.168478 
3830.000000	63.152503 
3829.000000	63.134670 
3828.000000	63.114237 
3827.000000	63.090658 
3826.000000	63.063883 
3825.000000	63.034272 
3824.000000	63.002419 
3823.000000	62.969112 
3822.000000	62.935185 
3821.000000	62.901210 
3820.000000	62.867689 
3819.000000	62.834620 
3818.000000	62.802052 
3817.000000	62.770223 
3816.000000	62.740278 
3815.000000	62.713789 
3814.000000	62.693500 
3813.000000	62.682223 
3812.000000	62.683129 
3811.000000	62.698769 
3810.000000	62.730789 
3809.000000	62.778663 
3808.000000	62.839818 
3807.000000	62.910079 
3806.000000	62.983369 
3805.000000	63.052868 
3804.000000	63.111639 
3803.000000	63.153791 
3802.000000	63.175129 
3801.000000	63.174033 
3800.000000	63.151502 
3799.000000	63.110899 
3798.000000	63.057899 
3797.000000	62.999653 
3796.000000	62.943744 
3795.000000	62.897181 
3794.000000	62.865877 
3793.000000	62.853693 
3792.000000	62.862086 
3791.000000	62.890005 
3790.000000	62.934112 
3789.000000	62.989568 
3788.000000	63.050198 
3787.000000	63.109469 
3786.000000	63.161396 
3785.000000	63.200974 
3784.000000	63.224840 
3783.000000	63.231372 
3782.000000	63.220787 
3781.000000	63.194751 
3780.000000	63.156294 
3779.000000	63.109183 
3778.000000	63.057708 
3777.000000	63.005948 
3776.000000	62.958359 
3775.000000	62.918710 
3774.000000	62.889862 
3773.000000	62.873554 
3772.000000	62.870240 
3771.000000	62.878966 
3770.000000	62.897205 
3769.000000	62.921619 
3768.000000	62.948894 
3767.000000	62.976098 
3766.000000	63.001346 
3765.000000	63.023638 
3764.000000	63.042926 
3763.000000	63.059782 
3762.000000	63.074851 
3761.000000	63.088512 
3760.000000	63.100290 
3759.000000	63.109111 
3758.000000	63.113427 
3757.000000	63.111829 
3756.000000	63.103294 
3755.000000	63.087606 
3754.000000	63.065409 
3753.000000	63.038301 
3752.000000	63.008403 
3751.000000	62.977886 
3750.000000	62.948727 
3749.000000	62.922453 
3748.000000	62.899732 
3747.000000	62.880897 
3746.000000	62.865638 
3745.000000	62.853193 
3744.000000	62.842965 
3743.000000	62.834477 
3742.000000	62.827920 
3741.000000	62.823724 
3740.000000	62.822747 
3739.000000	62.825703 
3738.000000	62.833118 
3737.000000	62.844920 
3736.000000	62.860107 
3735.000000	62.877011 
3734.000000	62.893581 
3733.000000	62.907958 
3732.000000	62.918663 
3731.000000	62.925124 
3730.000000	62.927842 
3729.000000	62.928199 
3728.000000	62.927937 
3727.000000	62.928700 
3726.000000	62.931513 
3725.000000	62.936520 
3724.000000	62.942934 
3723.000000	62.949228 
3722.000000	62.953782 
3721.000000	62.955188 
3720.000000	62.953066 
3719.000000	62.947702 
3718.000000	62.940049 
3717.000000	62.931227 
3716.000000	62.922453 
3715.000000	62.914347 
3714.000000	62.907052 
3713.000000	62.900209 
3712.000000	62.893342 
3711.000000	62.886166 
3710.000000	62.878751 
3709.000000	62.871718 
3708.000000	62.866163 
3707.000000	62.863159 
3706.000000	62.863373 
3705.000000	62.866830 
3704.000000	62.872672 
3703.000000	62.879419 
3702.000000	62.885093 
3701.000000	62.887787 
3700.000000	62.886095 
3699.000000	62.879323 
3698.000000	62.867927 
3697.000000	62.853145 
3696.000000	62.836933 
3695.000000	62.821555 
3694.000000	62.808871 
3693.000000	62.800383 
3692.000000	62.796401 
3691.000000	62.796282 
3690.000000	62.798452 
3689.000000	62.800860 
3688.000000	62.801527 
3687.000000	62.799048 
3686.000000	62.793016 
3685.000000	62.784147 
3684.000000	62.774229 
3683.000000	62.765717 
3682.000000	62.761068 
3681.000000	62.762022 
3680.000000	62.769174 
3679.000000	62.781763 
3678.000000	62.797856 
3677.000000	62.814688 
3676.000000	62.829518 
3675.000000	62.839961 
3674.000000	62.844872 
3673.000000	62.844085 
3672.000000	62.838363 
3671.000000	62.829279 
3670.000000	62.818360 
3669.000000	62.807226 
3668.000000	62.797093 
3667.000000	62.788701 
3666.000000	62.782835 
3665.000000	62.779879 
3664.000000	62.780046 
3663.000000	62.783288 
3662.000000	62.789225 
3661.000000	62.796688 
3660.000000	62.803864 
3659.000000	62.808346 
3658.000000	62.807726 
3657.000000	62.800025 
3656.000000	62.784385 
3655.000000	62.761282 
3654.000000	62.732577 
3653.000000	62.700963 
3652.000000	62.669777 
3651.000000	62.641906 
3650.000000	62.619733 
3649.000000	62.604546 
3648.000000	62.596797 
3647.000000	62.596082 
3646.000000	62.601637 
3645.000000	62.612676 
3644.000000	62.628412 
3643.000000	62.647724 
3642.000000	62.669658 
3641.000000	62.692999 
3640.000000	62.716603 
3639.000000	62.738990 
3638.000000	62.758922 
3637.000000	62.775611 
3636.000000	62.788677 
3635.000000	62.798166 
3634.000000	62.804317 
3633.000000	62.807226 
3632.000000	62.806653 
3631.000000	62.802219 
3630.000000	62.793183 
3629.000000	62.778997 
3628.000000	62.759757 
3627.000000	62.736320 
3626.000000	62.710404 
3625.000000	62.684226 
3624.000000	62.660098 
3623.000000	62.639808 
3622.000000	62.624168 
3621.000000	62.612771 
3620.000000	62.604236 
3619.000000	62.596297 
3618.000000	62.586641 
3617.000000	62.573146 
3616.000000	62.554788 
3615.000000	62.531542 
3614.000000	62.504649 
3613.000000	62.476158 
3612.000000	62.448334 
3611.000000	62.423467 
3610.000000	62.403631 
3609.000000	62.390327 
3608.000000	62.384438 
3607.000000	62.386393 
3606.000000	62.396216 
3605.000000	62.413501 
3604.000000	62.437295 
3603.000000	62.466216 
3602.000000	62.498307 
3601.000000	62.531018 
3600.000000	62.561583 
3599.000000	62.586998 
3598.000000	62.604665 
3597.000000	62.612867 
3596.000000	62.611150 
3595.000000	62.600421 
3594.000000	62.582802 
3593.000000	62.561488 
3592.000000	62.539911 
3591.000000	62.521076 
3590.000000	62.506890 
3589.000000	62.498116 
3588.000000	62.494111 
3587.000000	62.493038 
3586.000000	62.492609 
3585.000000	62.490844 
3584.000000	62.486457 
3583.000000	62.479186 
3582.000000	62.469935 
3581.000000	62.460303 
3580.000000	62.452054 
3579.000000	62.446641 
3578.000000	62.444758 
3577.000000	62.446308 
3576.000000	62.450528 
3575.000000	62.456464 
3574.000000	62.463402 
3573.000000	62.470984 
3572.000000	62.479162 
3571.000000	62.488126 
3570.000000	62.497735 
3569.000000	62.507462 
3568.000000	62.516403 
3567.000000	62.523126 
3566.000000	62.526321 
3565.000000	62.524867 
3564.000000	62.518668 
3563.000000	62.508559 
3562.000000	62.496352 
3561.000000	62.484192 
3560.000000	62.474179 
3559.000000	62.467288 
3558.000000	62.463569 
3557.000000	62.461566 
3556.000000	62.458896 
3555.000000	62.452840 
3554.000000	62.441205 
3553.000000	62.422871 
3552.000000	62.398505 
3551.000000	62.370395 
3550.000000	62.342190 
3549.000000	62.318325 
3548.000000	62.302970 
3547.000000	62.299299 
3546.000000	62.308406 
3545.000000	62.329268 
3544.000000	62.358474 
3543.000000	62.391090 
3542.000000	62.421417 
3541.000000	62.444305 
3540.000000	62.456226 
3539.000000	62.455677 
3538.000000	62.443351 
3537.000000	62.422204 
3536.000000	62.396192 
3535.000000	62.369561 
3534.000000	62.345719 
3533.000000	62.326931 
3532.000000	62.313795 
3531.000000	62.305665 
3530.000000	62.301230 
3529.000000	62.299275 
3528.000000	62.299084 
3527.000000	62.300825 
3526.000000	62.304997 
3525.000000	62.312078 
3524.000000	62.322020 
3523.000000	62.334012 
3522.000000	62.346291 
3521.000000	62.356686 
3520.000000	62.363004 
3519.000000	62.363457 
3518.000000	62.357306 
3517.000000	62.344813 
3516.000000	62.327170 
3515.000000	62.306022 
3514.000000	62.283277 
3513.000000	62.260389 
3512.000000	62.238478 
3511.000000	62.217831 
3510.000000	62.198376 
3509.000000	62.179422 
3508.000000	62.160396 
3507.000000	62.140822 
3506.000000	62.120437 
3505.000000	62.099647 
3504.000000	62.079238 
3503.000000	62.060713 
3502.000000	62.046003 
3501.000000	62.037539 
3500.000000	62.037324 
3499.000000	62.046861 
3498.000000	62.066316 
3497.000000	62.094259 
3496.000000	62.127470 
3495.000000	62.161231 
3494.000000	62.190175 
3493.000000	62.209010 
3492.000000	62.213897 
3491.000000	62.203121 
3490.000000	62.177753 
3489.000000	62.141489 
3488.000000	62.100195 
3487.000000	62.060809 
3486.000000	62.030029 
3485.000000	62.013173 
3484.000000	62.013125 
3483.000000	62.029981 
3482.000000	62.060928 
3481.000000	62.101411 
3480.000000	62.145447 
3479.000000	62.187147 
3478.000000	62.221431 
3477.000000	62.244820 
3476.000000	62.256026 
3475.000000	62.255787 
3474.000000	62.246489 
3473.000000	62.231564 
3472.000000	62.214756 
3471.000000	62.199234 
3470.000000	62.187433 
3469.000000	62.180614 
3468.000000	62.178969 
3467.000000	62.181782 
3466.000000	62.187886 
3465.000000	62.196063 
3464.000000	62.205195 
3463.000000	62.214708 
3462.000000	62.224125 
3461.000000	62.233424 
3460.000000	62.242674 
3459.000000	62.252092 
3458.000000	62.261652 
3457.000000	62.270832 
3456.000000	62.278604 
3455.000000	62.283277 
3454.000000	62.283182 
3453.000000	62.276601 
3452.000000	62.262463 
3451.000000	62.240409 
3450.000000	62.211322 
3449.000000	62.177324 
3448.000000	62.141656 
3447.000000	62.108039 
3446.000000	62.079906 
3445.000000	62.060141 
3444.000000	62.050580 
3443.000000	62.051510 
3442.000000	62.061691 
3441.000000	62.078857 
3440.000000	62.100076 
3439.000000	62.122178 
3438.000000	62.142395 
3437.000000	62.158370 
3436.000000	62.168574 
3435.000000	62.172245 
3434.000000	62.169671 
3433.000000	62.161874 
3432.000000	62.150597 
3431.000000	62.138032 
3430.000000	62.126016 
3429.000000	62.116146 
3428.000000	62.108993 
3427.000000	62.104296 
3426.000000	62.100696 
3425.000000	62.096452 
3424.000000	62.089705 
3423.000000	62.079262 
3422.000000	62.064504 
3421.000000	62.045598 
3420.000000	62.023377 
3419.000000	61.998939 
3418.000000	61.973166 
3417.000000	61.946606 
3416.000000	61.919283 
3415.000000	61.891245 
3414.000000	61.862969 
3413.000000	61.835837 
3412.000000	61.812305 
3411.000000	61.795568 
3410.000000	61.788964 
3409.000000	61.795234 
3408.000000	61.815309 
3407.000000	61.847829 
3406.000000	61.889171 
3405.000000	61.934018 
3404.000000	61.976099 
3403.000000	62.009930 
3402.000000	62.031650 
3401.000000	62.040042 
3400.000000	62.036490 
3399.000000	62.024784 
3398.000000	62.009811 
3397.000000	61.996340 
3396.000000	61.988329 
3395.000000	61.987423 
3394.000000	61.992979 
3393.000000	62.002372 
3392.000000	62.011957 
3391.000000	62.017655 
3390.000000	62.016129 
3389.000000	62.005209 
3388.000000	61.984491 
3387.000000	61.955094 
3386.000000	61.919522 
3385.000000	61.880850 
3384.000000	61.842632 
3383.000000	61.807990 
3382.000000	61.779570 
3381.000000	61.759233 
3380.000000	61.747837 
3379.000000	61.745190 
3378.000000	61.750102 
3377.000000	61.760306 
3376.000000	61.773157 
3375.000000	61.785745 
3374.000000	61.795806 
3373.000000	61.801600 
3372.000000	61.803030 
3371.000000	61.801218 
3370.000000	61.798763 
3369.000000	61.798763 
3368.000000	61.804151 
3367.000000	61.816596 
3366.000000	61.836147 
3365.000000	61.860942 
3364.000000	61.887216 
3363.000000	61.910033 
3362.000000	61.924433 
3361.000000	61.926722 
3360.000000	61.915326 
3359.000000	61.891460 
3358.000000	61.858654 
3357.000000	61.822056 
3356.000000	61.787343 
3355.000000	61.759352 
3354.000000	61.740946 
3353.000000	61.732411 
3352.000000	61.731886 
3351.000000	61.735725 
3350.000000	61.739778 
3349.000000	61.740636 
3348.000000	61.736154 
3347.000000	61.726331 
3346.000000	61.712598 
3345.000000	61.698007 
3344.000000	61.685967 
3343.000000	61.679744 
3342.000000	61.681509 
3341.000000	61.692357 
3340.000000	61.712098 
3339.000000	61.739420 
3338.000000	61.772251 
3337.000000	61.807608 
3336.000000	61.842036 
3335.000000	61.871600 
3334.000000	61.892437 
3333.000000	61.900973 
3332.000000	61.894559 
3331.000000	61.872029 
3330.000000	61.833930 
3329.000000	61.782884 
3328.000000	61.723375 
3327.000000	61.661005 
3326.000000	61.601829 
3325.000000	61.551237 
3324.000000	61.513185 
3323.000000	61.489701 
3322.000000	61.480617 
3321.000000	61.483883 
3320.000000	61.496162 
3319.000000	61.513328 
3318.000000	61.531639 
3317.000000	61.547899 
3316.000000	61.560463 
3315.000000	61.568379 
3314.000000	61.572170 
3313.000000	61.573076 
3312.000000	61.573028 
3311.000000	61.573839 
3310.000000	61.576819 
3309.000000	61.582756 
3308.000000	61.591315 
3307.000000	61.601376 
3306.000000	61.611175 
3305.000000	61.618757 
3304.000000	61.622262 
3303.000000	61.620426 
3302.000000	61.612796 
3301.000000	61.600041 
3300.000000	61.583781 
3299.000000	61.566305 
3298.000000	61.550140 
3297.000000	61.537504 
3296.000000	61.530327 
3295.000000	61.529254 
3294.000000	61.533737 
3293.000000	61.542034 
3292.000000	61.551737 
3291.000000	61.559987 
3290.000000	61.563920 
3289.000000	61.561441 
3288.000000	61.551403 
3287.000000	61.533951 
3286.000000	61.510539 
3285.000000	61.483478 
3284.000000	61.455583 
3283.000000	61.429619 
3282.000000	61.407756 
3281.000000	61.391234 
3280.000000	61.380100 
3279.000000	61.373543 
3278.000000	61.370205 
3277.000000	61.368441 
3276.000000	61.367034 
3275.000000	61.365222 
3274.000000	61.363124 
3273.000000	61.361312 
3272.000000	61.360764 
3271.000000	61.362433 
3270.000000	61.367058 
3269.000000	61.374735 
3268.000000	61.385178 
3267.000000	61.397361 
3266.000000	61.409950 
3265.000000	61.421632 
3264.000000	61.431503 
3263.000000	61.439275 
3262.000000	61.445164 
3261.000000	61.449837 
3260.000000	61.453890 
3259.000000	61.457991 
3258.000000	61.462140 
3257.000000	61.465787 
3256.000000	61.467981 
3255.000000	61.467528 
3254.000000	61.463451 
3253.000000	61.455297 
3252.000000	61.443233 
3251.000000	61.428046 
3250.000000	61.411023 
3249.000000	61.393690 
3248.000000	61.377453 
3247.000000	61.363482 
3246.000000	61.352491 
3245.000000	61.345052 
3244.000000	61.341452 
3243.000000	61.341667 
3242.000000	61.345601 
3241.000000	61.352467 
3240.000000	61.360979 
3239.000000	61.369037 
3238.000000	61.374020 
3237.000000	61.373019 
3236.000000	61.363482 
3235.000000	61.343860 
3234.000000	61.314177 
3233.000000	61.276102 
3232.000000	61.232948 
3231.000000	61.188983 
3230.000000	61.148715 
3229.000000	61.115908 
3228.000000	61.093115 
3227.000000	61.081147 
3226.000000	61.079263 
3225.000000	61.085724 
3224.000000	61.098313 
3223.000000	61.114764 
3222.000000	61.133265 
3221.000000	61.152434 
3220.000000	61.171364 
3219.000000	61.188817 
3218.000000	61.203718 
3217.000000	61.214661 
3216.000000	61.220455 
3215.000000	61.220407 
3214.000000	61.214613 
3213.000000	61.204290 
3212.000000	61.191511 
3211.000000	61.179089 
3210.000000	61.169767 
3209.000000	61.165738 
3208.000000	61.168003 
3207.000000	61.176300 
3206.000000	61.189126 
3205.000000	61.204051 
3204.000000	61.218595 
3203.000000	61.230778 
3202.000000	61.239314 
3201.000000	61.243629 
3200.000000	61.244130 
3199.000000	61.241865 
3198.000000	61.238169 
3197.000000	61.234116 
3196.000000	61.230659 
3195.000000	61.228203 
3194.000000	61.226701 
3193.000000	61.225485 
3192.000000	61.223602 
3191.000000	61.219906 
3190.000000	61.213469 
3189.000000	61.203837 
3188.000000	61.190915 
3187.000000	61.175441 
3186.000000	61.158680 
3185.000000	61.142516 
3184.000000	61.128687 
3183.000000	61.118984 
3182.000000	61.114907 
3181.000000	61.117315 
3180.000000	61.126422 
3179.000000	61.141896 
3178.000000	61.163067 
3177.000000	61.188840 
3176.000000	61.217999 
3175.000000	61.248922 
3174.000000	61.279726 
3173.000000	61.308121 
3172.000000	61.331677 
3171.000000	61.348056 
3170.000000	61.355280 
3169.000000	61.352348 
3168.000000	61.339426 
3167.000000	61.317896 
3166.000000	61.290311 
3165.000000	61.260032 
3164.000000	61.230587 
3163.000000	61.205387 
3162.000000	61.186528 
3161.000000	61.175036 
3160.000000	61.170125 
3159.000000	61.169695 
3158.000000	61.170530 
3157.000000	61.169314 
3156.000000	61.162972 
3155.000000	61.149263 
3154.000000	61.127400 
3153.000000	61.098170 
3152.000000	61.064100 
3151.000000	61.028528 
3150.000000	60.995483 
3149.000000	60.968661 
3148.000000	60.950899 
3147.000000	60.943722 
3146.000000	60.947036 
3145.000000	60.959172 
3144.000000	60.977554 
3143.000000	60.998988 
3142.000000	61.020255 
3141.000000	61.038351 
3140.000000	61.050772 
3139.000000	61.055612 
3138.000000	61.051440 
3137.000000	61.037540 
3136.000000	61.014008 
3135.000000	60.982251 
3134.000000	60.944843 
3133.000000	60.905814 
3132.000000	60.870170 
3131.000000	60.843610 
3130.000000	60.831379 
3129.000000	60.837435 
3128.000000	60.863566 
3127.000000	60.908722 
3126.000000	60.969042 
3125.000000	61.038303 
3124.000000	61.108851 
3123.000000	61.173009 
3122.000000	61.224222 
3121.000000	61.258077 
3120.000000	61.272621 
3119.000000	61.268806 
3118.000000	61.249732 
3117.000000	61.219859 
3116.000000	61.183929 
3115.000000	61.146593 
3114.000000	61.111235 
3113.000000	61.080050 
3112.000000	61.053490 
3111.000000	61.031222 
3110.000000	61.012053 
3109.000000	60.994696 
3108.000000	60.977935 
3107.000000	60.960984 
3106.000000	60.943555 
3105.000000	60.925889 
3104.000000	60.908555 
3103.000000	60.892224 
3102.000000	60.877752 
3101.000000	60.865497 
3100.000000	60.855960 
3099.000000	60.849261 
3098.000000	60.845541 
3097.000000	60.844755 
3096.000000	60.846710 
3095.000000	60.851073 
3094.000000	60.857272 
3093.000000	60.864782 
3092.000000	60.872673 
3091.000000	60.879778 
3090.000000	60.885357 
3089.000000	60.889029 
3088.000000	60.890936 
3087.000000	60.891532 
3086.000000	60.891819 
3085.000000	60.892820 
3084.000000	60.895442 
3083.000000	60.899996 
3082.000000	60.906052 
3081.000000	60.912275 
3080.000000	60.917282 
3079.000000	60.919475 
3078.000000	60.917806 
3077.000000	60.911917 
3076.000000	60.902523 
3075.000000	60.891103 
3074.000000	60.879755 
3073.000000	60.870432 
3072.000000	60.864686 
3071.000000	60.862994 
3070.000000	60.864734 
3069.000000	60.868310 
3068.000000	60.871815 
3067.000000	60.873246 
3066.000000	60.871171 
3065.000000	60.864925 
3064.000000	60.854697 
3063.000000	60.841321 
3062.000000	60.826134 
3061.000000	60.810232 
3060.000000	60.794568 
3059.000000	60.779786 
3058.000000	60.766434 
3057.000000	60.754990 
3056.000000	60.746312 
3055.000000	60.741448 
3054.000000	60.741734 
3053.000000	60.748052 
3052.000000	60.760807 
3051.000000	60.779333 
3050.000000	60.802054 
3049.000000	60.826230 
3048.000000	60.849046 
3047.000000	60.867953 
3046.000000	60.881471 
3045.000000	60.889387 
3044.000000	60.892796 
3043.000000	60.893583 
3042.000000	60.893583 
3041.000000	60.894060 
3040.000000	60.894942 
3039.000000	60.894703 
3038.000000	60.890793 
3037.000000	60.880351 
3036.000000	60.861372 
3035.000000	60.833525 
3034.000000	60.798335 
3033.000000	60.759139 
3032.000000	60.720443 
3031.000000	60.686850 
3030.000000	60.661840 
3029.000000	60.647201 
3028.000000	60.642552 
3027.000000	60.645723 
3026.000000	60.653376 
3025.000000	60.662031 
3024.000000	60.668873 
3023.000000	60.672283 
3022.000000	60.671997 
3021.000000	60.668897 
3020.000000	60.664296 
3019.000000	60.659456 
3018.000000	60.655021 
3017.000000	60.650706 
3016.000000	60.645532 
3015.000000	60.637903 
3014.000000	60.626411 
3013.000000	60.609912 
3012.000000	60.588216 
3011.000000	60.561871 
3010.000000	60.532307 
3009.000000	60.501575 
3008.000000	60.471987 
3007.000000	60.445666 
3006.000000	60.424280 
3005.000000	60.408735 
3004.000000	60.399079 
3003.000000	60.394382 
3002.000000	60.393214 
3001.000000	60.393595 
3000.000000	60.393929 
2999.000000	60.392880 
2998.000000	60.390138 
2997.000000	60.385942 
2996.000000	60.381555 
2995.000000	60.378551 
2994.000000	60.378479 
2993.000000	60.382556 
2992.000000	60.391092 
2991.000000	60.403513 
2990.000000	60.418248 
2989.000000	60.433197 
2988.000000	60.446119 
2987.000000	60.454988 
2986.000000	60.458397 
2985.000000	60.455584 
2984.000000	60.446643 
2983.000000	60.432338 
2982.000000	60.413742 
2981.000000	60.391783 
2980.000000	60.367536 
2979.000000	60.341572 
2978.000000	60.314226 
2977.000000	60.285663 
2976.000000	60.255956 
2975.000000	60.225510 
2974.000000	60.194945 
2973.000000	60.165309 
2972.000000	60.137939 
2971.000000	60.114574 
2970.000000	60.096740 
2969.000000	60.085892 
2968.000000	60.082578 
2967.000000	60.086631 
2966.000000	60.096693 
2965.000000	60.110640 
2964.000000	60.125708 
2963.000000	60.139417 
2962.000000	60.149669 
2961.000000	60.155653 
2960.000000	60.157728 
2959.000000	60.157346 
2958.000000	60.156607 
2957.000000	60.157585 
2956.000000	60.161471 
2955.000000	60.168409 
2954.000000	60.177063 
2953.000000	60.185170 
2952.000000	60.189747 
2951.000000	60.188269 
2950.000000	60.179185 
2949.000000	60.162639 
2948.000000	60.140061 
2947.000000	60.113453 
2946.000000	60.085225 
2945.000000	60.057520 
2944.000000	60.032081 
2943.000000	60.009956 
2942.000000	59.992003 
2941.000000	59.979033 
2940.000000	59.971761 
2939.000000	59.970355 
2938.000000	59.974646 
2937.000000	59.983468 
2936.000000	59.995341 
2935.000000	60.008430 
2934.000000	60.020923 
2933.000000	60.031175 
2932.000000	60.037755 
2931.000000	60.039472 
2930.000000	60.035228 
2929.000000	60.024046 
2928.000000	60.005402 
2927.000000	59.979391 
2926.000000	59.947013 
2925.000000	59.910511 
2924.000000	59.873318 
2923.000000	59.839653 
2922.000000	59.814047 
2921.000000	59.800410 
2920.000000	59.801077 
2919.000000	59.816431 
2918.000000	59.844470 
2917.000000	59.881472 
2916.000000	59.922242 
2915.000000	59.961509 
2914.000000	59.994673 
2913.000000	60.018730 
2912.000000	60.032200 
2911.000000	60.035467 
2910.000000	60.030245 
2909.000000	60.019087 
2908.000000	60.004973 
2907.000000	59.990501 
2906.000000	59.977912 
2905.000000	59.968519 
2904.000000	59.962630 
2903.000000	59.959697 
2902.000000	59.958410 
2901.000000	59.956979 
2900.000000	59.953594 
2899.000000	59.946727 
2898.000000	59.935617 
2897.000000	59.920406 
2896.000000	59.902691 
2895.000000	59.884738 
2894.000000	59.869575 
2893.000000	59.860038 
2892.000000	59.858202 
2891.000000	59.864854 
2890.000000	59.879326 
2889.000000	59.899497 
2888.000000	59.922051 
2887.000000	59.943199 
2886.000000	59.959316 
2885.000000	59.967660 
2884.000000	59.966850 
2883.000000	59.956765 
2882.000000	59.938979 
2881.000000	59.916281 
2880.000000	59.892296 
2879.000000	59.870624 
2878.000000	59.854316 
2877.000000	59.845447 
2876.000000	59.844684 
2875.000000	59.851217 
2874.000000	59.862947 
2873.000000	59.877014 
2872.000000	59.890341 
2871.000000	59.900259 
2870.000000	59.905076 
2869.000000	59.904479 
2868.000000	59.899401 
2867.000000	59.891629 
2866.000000	59.883403 
2865.000000	59.876513 
2864.000000	59.872031 
2863.000000	59.869718 
2862.000000	59.868478 
2861.000000	59.866285 
2860.000000	59.861159 
2859.000000	59.851384 
2858.000000	59.836339 
2857.000000	59.816431 
2856.000000	59.793186 
2855.000000	59.768867 
2854.000000	59.746098 
2853.000000	59.727239 
2852.000000	59.713697 
2851.000000	59.705829 
2850.000000	59.702825 
2849.000000	59.702968 
2848.000000	59.704184 
2847.000000	59.704566 
2846.000000	59.702944 
2845.000000	59.699034 
2844.000000	59.693455 
2843.000000	59.687662 
2842.000000	59.683322 
2841.000000	59.681916 
2840.000000	59.684109 
2839.000000	59.689807 
2838.000000	59.697914 
2837.000000	59.706783 
2836.000000	59.714460 
2835.000000	59.719443 
2834.000000	59.720778 
2833.000000	59.718394 
2832.000000	59.712982 
2831.000000	59.705495 
2830.000000	59.697198 
2829.000000	59.689188 
2828.000000	59.682226 
2827.000000	59.676671 
2826.000000	59.672570 
2825.000000	59.669852 
2824.000000	59.668111 
2823.000000	59.666752 
2822.000000	59.664916 
2821.000000	59.661793 
2820.000000	59.656453 
2819.000000	59.648156 
2818.000000	59.636521 
2817.000000	59.621787 
2816.000000	59.604787 
2815.000000	59.586763 
2814.000000	59.569263 
2813.000000	59.553790 
2812.000000	59.541344 
2811.000000	59.532380 
2810.000000	59.526491 
2809.000000	59.522914 
2808.000000	59.520506 
2807.000000	59.518289 
2806.000000	59.515690 
2805.000000	59.512853 
2804.000000	59.510421 
2803.000000	59.509539 
2802.000000	59.511160 
2801.000000	59.515929 
2800.000000	59.523987 
2799.000000	59.534716 
2798.000000	59.546947 
2797.000000	59.559297 
2796.000000	59.570479 
2795.000000	59.579586 
2794.000000	59.586381 
2793.000000	59.591412 
2792.000000	59.595727 
2791.000000	59.600639 
2790.000000	59.607315 
2789.000000	59.616374 
2788.000000	59.627676 
2787.000000	59.640359 
2786.000000	59.652805 
2785.000000	59.663128 
2784.000000	59.669589 
2783.000000	59.670877 
2782.000000	59.666371 
2781.000000	59.656500 
2780.000000	59.642386 
2779.000000	59.625768 
2778.000000	59.608387 
2777.000000	59.591841 
2776.000000	59.577035 
2775.000000	59.564208 
2774.000000	59.552741 
2773.000000	59.541463 
2772.000000	59.528756 
2771.000000	59.513211 
2770.000000	59.493780 
2769.000000	59.470272 
2768.000000	59.443163 
2767.000000	59.413790 
2766.000000	59.383964 
2765.000000	59.355854 
2764.000000	59.331297 
2763.000000	59.311866 
2762.000000	59.298491 
2761.000000	59.291291 
2760.000000	59.289693 
2759.000000	59.292221 
2758.000000	59.296870 
2757.000000	59.301185 
2756.000000	59.302639 
2755.000000	59.299516 
2754.000000	59.290671 
2753.000000	59.276604 
2752.000000	59.258770 
2751.000000	59.239816 
2750.000000	59.222674 
2749.000000	59.210157 
2748.000000	59.204149 
2747.000000	59.205198 
2746.000000	59.212350 
2745.000000	59.223437 
2744.000000	59.235548 
2743.000000	59.245705 
2742.000000	59.251594 
2741.000000	59.251976 
2740.000000	59.247016 
2739.000000	59.238195 
2738.000000	59.227848 
2737.000000	59.218621 
2736.000000	59.212803 
2735.000000	59.211897 
2734.000000	59.216165 
2733.000000	59.225010 
2732.000000	59.236788 
2731.000000	59.249353 
2730.000000	59.260439 
2729.000000	59.268188 
2728.000000	59.271526 
2727.000000	59.270215 
2726.000000	59.264922 
2725.000000	59.256792 
2724.000000	59.247183 
2723.000000	59.237360 
2722.000000	59.228086 
2721.000000	59.219384 
2720.000000	59.210610 
2719.000000	59.201025 
2718.000000	59.189677 
2717.000000	59.176039 
2716.000000	59.159946 
2715.000000	59.141850 
2714.000000	59.122657 
2713.000000	59.103608 
2712.000000	59.085917 
2711.000000	59.070682 
2710.000000	59.058547 
2709.000000	59.049916 
2708.000000	59.044837 
2707.000000	59.043216 
2706.000000	59.044671 
2705.000000	59.048914 
2704.000000	59.055352 
2703.000000	59.063243 
2702.000000	59.071469 
2701.000000	59.078645 
2700.000000	59.083437 
2699.000000	59.084272 
2698.000000	59.079909 
2697.000000	59.069323 
2696.000000	59.051918 
2695.000000	59.027671 
2694.000000	58.997201 
2693.000000	58.961915 
2692.000000	58.923983 
2691.000000	58.886265 
2690.000000	58.852052 
2689.000000	58.824658 
2688.000000	58.806824 
2687.000000	58.800196 
2686.000000	58.805012 
2685.000000	58.819842 
2684.000000	58.842039 
2683.000000	58.867812 
2682.000000	58.893084 
2681.000000	58.913969 
2680.000000	58.927750 
2679.000000	58.932995 
2678.000000	58.929920 
2677.000000	58.919978 
2676.000000	58.905720 
2675.000000	58.890104 
2674.000000	58.875942 
2673.000000	58.865451 
2672.000000	58.859968 
2671.000000	58.859992 
2670.000000	58.864808 
2669.000000	58.873319 
2668.000000	58.883690 
2667.000000	58.894109 
2666.000000	58.902788 
2665.000000	58.908390 
2664.000000	58.910083 
2663.000000	58.907437 
2662.000000	58.900451 
2661.000000	58.889341 
2660.000000	58.874487 
2659.000000	58.856415 
2658.000000	58.835625 
2657.000000	58.812618 
2656.000000	58.788132 
2655.000000	58.762979 
2654.000000	58.738183 
2653.000000	58.714842 
2652.000000	58.694100 
2651.000000	58.676838 
2650.000000	58.663749 
2649.000000	58.655118 
2648.000000	58.650565 
2647.000000	58.649373 
2646.000000	58.650374 
2645.000000	58.652186 
2644.000000	58.653426 
2643.000000	58.652806 
2642.000000	58.649373 
2641.000000	58.642530 
2640.000000	58.632087 
2639.000000	58.618426 
2638.000000	58.602190 
2637.000000	58.584451 
2636.000000	58.566451 
2635.000000	58.549380 
2634.000000	58.534193 
2633.000000	58.521628 
2632.000000	58.511853 
2631.000000	58.504486 
2630.000000	58.498954 
2629.000000	58.494472 
2628.000000	58.490395 
2627.000000	58.486580 
2626.000000	58.483362 
2625.000000	58.481502 
2624.000000	58.482122 
2623.000000	58.486270 
2622.000000	58.494424 
2621.000000	58.506512 
2620.000000	58.521461 
2619.000000	58.537173 
2618.000000	58.551263 
2617.000000	58.561277 
2616.000000	58.565449 
2615.000000	58.562994 
2614.000000	58.554458 
2613.000000	58.541584 
2612.000000	58.526921 
2611.000000	58.513331 
2610.000000	58.503150 
2609.000000	58.497834 
2608.000000	58.497786 
2607.000000	58.502173 
2606.000000	58.509349 
2605.000000	58.517265 
2604.000000	58.523535 
2603.000000	58.525967 
2602.000000	58.522939 
2601.000000	58.513498 
2600.000000	58.497285 
2599.000000	58.474802 
2598.000000	58.447265 
2597.000000	58.416581 
2596.000000	58.385062 
2595.000000	58.355283 
2594.000000	58.329772 
2593.000000	58.310604 
2592.000000	58.299207 
2591.000000	58.296203 
2590.000000	58.301091 
2589.000000	58.312416 
2588.000000	58.327984 
2587.000000	58.345103 
2586.000000	58.360743 
2585.000000	58.372354 
2584.000000	58.378076 
2583.000000	58.377003 
2582.000000	58.369088 
2581.000000	58.355474 
2580.000000	58.338212 
2579.000000	58.319854 
2578.000000	58.302974 
2577.000000	58.289813 
2576.000000	58.281660 
2575.000000	58.278894 
2574.000000	58.280730 
2573.000000	58.285641 
2572.000000	58.291792 
2571.000000	58.297371 
2570.000000	58.300948 
2569.000000	58.301973 
2568.000000	58.300542 
2567.000000	58.297586 
2566.000000	58.294367 
2565.000000	58.292222 
2564.000000	58.292007 
2563.000000	58.294177 
2562.000000	58.298397 
2561.000000	58.303713 
2560.000000	58.308458 
2559.000000	58.310937 
2558.000000	58.309173 
2557.000000	58.301544 
2556.000000	58.286881 
2555.000000	58.264780 
2554.000000	58.235812 
2553.000000	58.201336 
2552.000000	58.163571 
2551.000000	58.125352 
2550.000000	58.089280 
2549.000000	58.057546 
2548.000000	58.031535 
2547.000000	58.011817 
2546.000000	57.998251 
2545.000000	57.990336 
2544.000000	57.987165 
2543.000000	57.988166 
2542.000000	57.992649 
2541.000000	58.000087 
2540.000000	58.009719 
2539.000000	58.020710 
2538.000000	58.032035 
2537.000000	58.042788 
2536.000000	58.051991 
2535.000000	58.058857 
2534.000000	58.062720 
2533.000000	58.063364 
2532.000000	58.060884 
2531.000000	58.055973 
2530.000000	58.049702 
2529.000000	58.043670 
2528.000000	58.039522 
2527.000000	58.038783 
2526.000000	58.042597 
2525.000000	58.051443 
2524.000000	58.064889 
2523.000000	58.081746 
2522.000000	58.100032 
2521.000000	58.117628 
2520.000000	58.132553 
2519.000000	58.143138 
2518.000000	58.148336 
2517.000000	58.148002 
2516.000000	58.142614 
2515.000000	58.133125 
2514.000000	58.120584 
2513.000000	58.106112 
2512.000000	58.090639 
2511.000000	58.075046 
2510.000000	58.059906 
2509.000000	58.045768 
2508.000000	58.032989 
2507.000000	58.021903 
2506.000000	58.012580 
2505.000000	58.004713 
2504.000000	57.997512 
2503.000000	57.989978 
2502.000000	57.980823 
2501.000000	57.968807 
2500.000000	57.953190 
2499.000000	57.933926 
2498.000000	57.911682 
2497.000000	57.887816 
2496.000000	57.864046 
2495.000000	57.842111 
2494.000000	57.823348 
2493.000000	57.808494 
2492.000000	57.797574 
2491.000000	57.790136 
2490.000000	57.785367 
2489.000000	57.782316 
2488.000000	57.780098 
2487.000000	57.778096 
2486.000000	57.775616 
2485.000000	57.772326 
2484.000000	57.767868 
2483.000000	57.762145 
2482.000000	57.755064 
2481.000000	57.746911 
2480.000000	57.738137 
2479.000000	57.729578 
2478.000000	57.722258 
2477.000000	57.717275 
2476.000000	57.715392 
2475.000000	57.717037 
2474.000000	57.722067 
2473.000000	57.729911 
2472.000000	57.739591 
2471.000000	57.749986 
2470.000000	57.759928 
2469.000000	57.768249 
2468.000000	57.773947 
2467.000000	57.776331 
2466.000000	57.774925 
2465.000000	57.769656 
2464.000000	57.760691 
2463.000000	57.748675 
2462.000000	57.734441 
2461.000000	57.718825 
2460.000000	57.702493 
2459.000000	57.685947 
2458.000000	57.669281 
2457.000000	57.652401 
2456.000000	57.635426 
2455.000000	57.618403 
2454.000000	57.601976 
2453.000000	57.587194 
2452.000000	57.575392 
2451.000000	57.567715 
2450.000000	57.564687 
2449.000000	57.566070 
2448.000000	57.570528 
2447.000000	57.575702 
2446.000000	57.579088 
2445.000000	57.578420 
2444.000000	57.572507 
2443.000000	57.561397 
2442.000000	57.546567 
2441.000000	57.530403 
2440.000000	57.515358 
2439.000000	57.503390 
2438.000000	57.495260 
2437.000000	57.490444 
2436.000000	57.487368 
2435.000000	57.483983 
2434.000000	57.478618 
2433.000000	57.470512 
2432.000000	57.460308 
2431.000000	57.449555 
2430.000000	57.440423 
2429.000000	57.434701 
2428.000000	57.433056 
2427.000000	57.434773 
2426.000000	57.437705 
2425.000000	57.438802 
2424.000000	57.435131 
2423.000000	57.424592 
2422.000000	57.406544 
2421.000000	57.382130 
2420.000000	57.353997 
2419.000000	57.325673 
2418.000000	57.300591 
2417.000000	57.281422 
2416.000000	57.269406 
2415.000000	57.264471 
2414.000000	57.265329 
2413.000000	57.270145 
2412.000000	57.276916 
2411.000000	57.284235 
2410.000000	57.291460 
2409.000000	57.298421 
2408.000000	57.305455 
2407.000000	57.312703 
2406.000000	57.319903 
2405.000000	57.326269 
2404.000000	57.330679 
2403.000000	57.331871 
2402.000000	57.328867 
2401.000000	57.321429 
2400.000000	57.309937 
2399.000000	57.295680 
2398.000000	57.280254 
2397.000000	57.265496 
2396.000000	57.252979 
2395.000000	57.243776 
2394.000000	57.238197 
2393.000000	57.236003 
2392.000000	57.236289 
2391.000000	57.237744 
2390.000000	57.238674 
2389.000000	57.237577 
2388.000000	57.233095 
2387.000000	57.224440 
2386.000000	57.211351 
2385.000000	57.194423 
2384.000000	57.174897 
2383.000000	57.154798 
2382.000000	57.136297 
2381.000000	57.121515 
2380.000000	57.112026 
2379.000000	57.108545 
2378.000000	57.110571 
2377.000000	57.116723 
2376.000000	57.124876 
2375.000000	57.132768 
2374.000000	57.138371 
2373.000000	57.140517 
2372.000000	57.138919 
2371.000000	57.134222 
2370.000000	57.127618 
2369.000000	57.120537 
2368.000000	57.114171 
2367.000000	57.109069 
2366.000000	57.105112 
2365.000000	57.101559 
2364.000000	57.097339 
2363.000000	57.091474 
2362.000000	57.083344 
2361.000000	57.072782 
2360.000000	57.060003 
2359.000000	57.045626 
2358.000000	57.030177 
2357.000000	57.014083 
2356.000000	56.997609 
2355.000000	56.980919 
2354.000000	56.964159 
2353.000000	56.947731 
2352.000000	56.932377 
2351.000000	56.919336 
2350.000000	56.910014 
2349.000000	56.905841 
2348.000000	56.907677 
2347.000000	56.915593 
2346.000000	56.928539 
2345.000000	56.944322 
2344.000000	56.960058 
2343.000000	56.972575 
2342.000000	56.979060 
2341.000000	56.977534 
2340.000000	56.967496 
2339.000000	56.949782 
2338.000000	56.926560 
2337.000000	56.900811 
2336.000000	56.875681 
2335.000000	56.853938 
2334.000000	56.837463 
2333.000000	56.826901 
2332.000000	56.821823 
2331.000000	56.820869 
2330.000000	56.822323 
2329.000000	56.824398 
2328.000000	56.825685 
2327.000000	56.825304 
2326.000000	56.822919 
2325.000000	56.818819 
2324.000000	56.813311 
2323.000000	56.807088 
2322.000000	56.800794 
2321.000000	56.795144 
2320.000000	56.790804 
2319.000000	56.788420 
2318.000000	56.788563 
2317.000000	56.791520 
2316.000000	56.797146 
2315.000000	56.804871 
2314.000000	56.813549 
2313.000000	56.821608 
2312.000000	56.827259 
2311.000000	56.829071 
2310.000000	56.826186 
2309.000000	56.818485 
2308.000000	56.806731 
2307.000000	56.792402 
2306.000000	56.777048 
2305.000000	56.762290 
2304.000000	56.749105 
2303.000000	56.737518 
2302.000000	56.726765 
2301.000000	56.715512 
2300.000000	56.702089 
2299.000000	56.685018 
2298.000000	56.663489 
2297.000000	56.637406 
2296.000000	56.607890 
2295.000000	56.576585 
2294.000000	56.545948 
2293.000000	56.518244 
2292.000000	56.495690 
2291.000000	56.479716 
2290.000000	56.470942 
2289.000000	56.468987 
2288.000000	56.472659 
2287.000000	56.480240 
2286.000000	56.489682 
2285.000000	56.498980 
2284.000000	56.506443 
2283.000000	56.511044 
2282.000000	56.512331 
2281.000000	56.510400 
2280.000000	56.505870 
2279.000000	56.499528 
2278.000000	56.492280 
2277.000000	56.484842 
2276.000000	56.477594 
2275.000000	56.470704 
2274.000000	56.464195 
2273.000000	56.458044 
2272.000000	56.452417 
2271.000000	56.447410 
2270.000000	56.443500 
2269.000000	56.440973 
2268.000000	56.439948 
2267.000000	56.440281 
2266.000000	56.441378 
2265.000000	56.442213 
2264.000000	56.441783 
2263.000000	56.439018 
2262.000000	56.433343 
2261.000000	56.424665 
2260.000000	56.413459 
2259.000000	56.400632 
2258.000000	56.387209 
2257.000000	56.374025 
2256.000000	56.361675 
2255.000000	56.350183 
2254.000000	56.339263 
2253.000000	56.328654 
2252.000000	56.318235 
2251.000000	56.308317 
2250.000000	56.299424 
2249.000000	56.292390 
2248.000000	56.287860 
2247.000000	56.285905 
2246.000000	56.286120 
2245.000000	56.287288 
2244.000000	56.287980 
2243.000000	56.286716 
2242.000000	56.282329 
2241.000000	56.274342 
2240.000000	56.263065 
2239.000000	56.249380 
2238.000000	56.234455 
2237.000000	56.219387 
2236.000000	56.204819 
2235.000000	56.190776 
2234.000000	56.176781 
2233.000000	56.162071 
2232.000000	56.146001 
2231.000000	56.128311 
2230.000000	56.109237 
2229.000000	56.089162 
2228.000000	56.068873 
2227.000000	56.049132 
2226.000000	56.030392 
2225.000000	56.012749 
2224.000000	55.996084 
2223.000000	55.980300 
2222.000000	55.965399 
2221.000000	55.951762 
2220.000000	55.939960 
2219.000000	55.930852 
2218.000000	55.924987 
2217.000000	55.922508 
2216.000000	55.922889 
2215.000000	55.924892 
2214.000000	55.926680 
2213.000000	55.926299 
2212.000000	55.922007 
2211.000000	55.912733 
2210.000000	55.898284 
2209.000000	55.879688 
2208.000000	55.858826 
2207.000000	55.838370 
2206.000000	55.821084 
2205.000000	55.809593 
2204.000000	55.805873 
2203.000000	55.810880 
2202.000000	55.824327 
2201.000000	55.844855 
2200.000000	55.870246 
2199.000000	55.897498 
2198.000000	55.923438 
2197.000000	55.945110 
2196.000000	55.960202 
2195.000000	55.967307 
2194.000000	55.966019 
2193.000000	55.957007 
2192.000000	55.941772 
2191.000000	55.922245 
2190.000000	55.900669 
2189.000000	55.879020 
2188.000000	55.859065 
2187.000000	55.842185 
2186.000000	55.829334 
2185.000000	55.821156 
2184.000000	55.818009 
2183.000000	55.819725 
2182.000000	55.825734 
2181.000000	55.835151 
2180.000000	55.846500 
2179.000000	55.857896 
2178.000000	55.867481 
2177.000000	55.873417 
2176.000000	55.874419 
2175.000000	55.870032 
2174.000000	55.860757 
2173.000000	55.847692 
2172.000000	55.832505 
2171.000000	55.816841 
2170.000000	55.801916 
2169.000000	55.788111 
2168.000000	55.775165 
2167.000000	55.762243 
2166.000000	55.748081 
2165.000000	55.731344 
2164.000000	55.711293 
2163.000000	55.687880 
2162.000000	55.661797 
2161.000000	55.634713 
2160.000000	55.608844 
2159.000000	55.586862 
2158.000000	55.571198 
2157.000000	55.563879 
2156.000000	55.565977 
2155.000000	55.577373 
2154.000000	55.596566 
2153.000000	55.620932 
2152.000000	55.646896 
2151.000000	55.670642 
2150.000000	55.688619 
2149.000000	55.698060 
2148.000000	55.697536 
2147.000000	55.687117 
2146.000000	55.668234 
2145.000000	55.643153 
2144.000000	55.614352 
2143.000000	55.584287 
2142.000000	55.554771 
2141.000000	55.526995 
2140.000000	55.501365 
2139.000000	55.478000 
2138.000000	55.456924 
2137.000000	55.438232 
2136.000000	55.422210 
2135.000000	55.409240 
2134.000000	55.399560 
2133.000000	55.393218 
2132.000000	55.389618 
2131.000000	55.387759 
2130.000000	55.386424 
2129.000000	55.384135 
2128.000000	55.379843 
2127.000000	55.372905 
2126.000000	55.363583 
2125.000000	55.352711 
2124.000000	55.341720 
2123.000000	55.332159 
2122.000000	55.325746 
2121.000000	55.323719 
2120.000000	55.326771 
2119.000000	55.334639 
2118.000000	55.346202 
2117.000000	55.359792 
2116.000000	55.373001 
2115.000000	55.383396 
2114.000000	55.388808 
2113.000000	55.387997 
2112.000000	55.380702 
2111.000000	55.367898 
2110.000000	55.351257 
2109.000000	55.333089 
2108.000000	55.315923 
2107.000000	55.302023 
2106.000000	55.292797 
2105.000000	55.288720 
2104.000000	55.289673 
2103.000000	55.294632 
2102.000000	55.302238 
2101.000000	55.310916 
2100.000000	55.319309 
2099.000000	55.326151 
2098.000000	55.330562 
2097.000000	55.331850 
2096.000000	55.329513 
2095.000000	55.323362 
2094.000000	55.313491 
2093.000000	55.300188 
2092.000000	55.283856 
2091.000000	55.264782 
2090.000000	55.243206 
2089.000000	55.219197 
2088.000000	55.192828 
2087.000000	55.164623 
2086.000000	55.135822 
2085.000000	55.108284 
2084.000000	55.084633 
2083.000000	55.067849 
2082.000000	55.060696 
2081.000000	55.064964 
2080.000000	55.080914 
2079.000000	55.107092 
2078.000000	55.140399 
2077.000000	55.176210 
2076.000000	55.209493 
2075.000000	55.235338 
2074.000000	55.250024 
2073.000000	55.251598 
2072.000000	55.240106 
2071.000000	55.217385 
2070.000000	55.186653 
2069.000000	55.151700 
2068.000000	55.115890 
2067.000000	55.081796 
2066.000000	55.050659 
2065.000000	55.022478 
2064.000000	54.996275 
2063.000000	54.970717 
2062.000000	54.944539 
2061.000000	54.917407 
2060.000000	54.889678 
2059.000000	54.862856 
2058.000000	54.838800 
2057.000000	54.819583 
2056.000000	54.806447 
2055.000000	54.799818 
2054.000000	54.798889 
2053.000000	54.802203 
2052.000000	54.807758 
2051.000000	54.813933 
2050.000000	54.819607 
2049.000000	54.824328 
2048.000000	54.828262 
2047.000000	54.831933 
2046.000000	54.835605 
2045.000000	54.839229 
2044.000000	54.842257 
2043.000000	54.843711 
2042.000000	54.842543 
2041.000000	54.837894 
2040.000000	54.829359 
2039.000000	54.817318 
2038.000000	54.802823 
2037.000000	54.787325 
2036.000000	54.772186 
2035.000000	54.758596 
2034.000000	54.747200 
2033.000000	54.737997 
2032.000000	54.730343 
2031.000000	54.723215 
2030.000000	54.715776 
2029.000000	54.707193 
2028.000000	54.697251 
2027.000000	54.686236 
2026.000000	54.674959 
2025.000000	54.664516 
2024.000000	54.656076 
2023.000000	54.650616 
2022.000000	54.648852 
2021.000000	54.650712 
2020.000000	54.655671 
2019.000000	54.662585 
2018.000000	54.670095 
2017.000000	54.676961 
2016.000000	54.682087 
2015.000000	54.684805 
2014.000000	54.684805 
2013.000000	54.682207 
2012.000000	54.677391 
2011.000000	54.670786 
2010.000000	54.662966 
2009.000000	54.654526 
2008.000000	54.646015 
2007.000000	54.637956 
2006.000000	54.630708 
2005.000000	54.624605 
2004.000000	54.619908 
2003.000000	54.616808 
2002.000000	54.615473 
2001.000000	54.616189 
2000.000000	54.619288 
1999.000000	54.624843 
1998.000000	54.632878 
1997.000000	54.642820 
1996.000000	54.653787 
1995.000000	54.664230 
1994.000000	54.672122 
1993.000000	54.675054 
1992.000000	54.670906 
1991.000000	54.657983 
1990.000000	54.635477 
1989.000000	54.603695 
1988.000000	54.564189 
1987.000000	54.519701 
1986.000000	54.473686 
1985.000000	54.429864 
1984.000000	54.391646 
1983.000000	54.361510 
1982.000000	54.340767 
1981.000000	54.329204 
1980.000000	54.325437 
1979.000000	54.327154 
1978.000000	54.331779 
1977.000000	54.336738 
1976.000000	54.340195 
1975.000000	54.341077 
1974.000000	54.339361 
1973.000000	54.335689 
1972.000000	54.331421 
1971.000000	54.327726 
1970.000000	54.325962 
1969.000000	54.326891 
1968.000000	54.330635 
1967.000000	54.336810 
1966.000000	54.344296 
1965.000000	54.351615 
1964.000000	54.357028 
1963.000000	54.358911 
1962.000000	54.355955 
1961.000000	54.347372 
1960.000000	54.333090 
1959.000000	54.313778 
1958.000000	54.290723 
1957.000000	54.265809 
1956.000000	54.240965 
1955.000000	54.217863 
1954.000000	54.197692 
1953.000000	54.180932 
1952.000000	54.167222 
1951.000000	54.155659 
1950.000000	54.145050 
1949.000000	54.134297 
1948.000000	54.122805 
1947.000000	54.110622 
1946.000000	54.098320 
1945.000000	54.087018 
1944.000000	54.077720 
1943.000000	54.071211 
1942.000000	54.067587 
1941.000000	54.066205 
1940.000000	54.065752 
1939.000000	54.064655 
1938.000000	54.061412 
1937.000000	54.055023 
1936.000000	54.045176 
1935.000000	54.032349 
1934.000000	54.017710 
1933.000000	54.002737 
1932.000000	53.988862 
1931.000000	53.977131 
1930.000000	53.967857 
1929.000000	53.960895 
1928.000000	53.955459 
1927.000000	53.950524 
1926.000000	53.945040 
1925.000000	53.938293 
1924.000000	53.929901 
1923.000000	53.919959 
1922.000000	53.908991 
1921.000000	53.897738 
1920.000000	53.887081 
1919.000000	53.877854 
1918.000000	53.870916 
1917.000000	53.866600 
1916.000000	53.865218 
1915.000000	53.866791 
1914.000000	53.871083 
1913.000000	53.877782 
1912.000000	53.886556 
1911.000000	53.896880 
1910.000000	53.908252 
1909.000000	53.920078 
1908.000000	53.931570 
1907.000000	53.941845 
1906.000000	53.949689 
1905.000000	53.953742 
1904.000000	53.952622 
1903.000000	53.945207 
1902.000000	53.930830 
1901.000000	53.909397 
1900.000000	53.881835 
1899.000000	53.849935 
1898.000000	53.816151 
1897.000000	53.783226 
1896.000000	53.753805 
1895.000000	53.730058 
1894.000000	53.713417 
1893.000000	53.704190 
1892.000000	53.701877 
1891.000000	53.704881 
1890.000000	53.711223 
1889.000000	53.718566 
1888.000000	53.724622 
1887.000000	53.727555 
1886.000000	53.726005 
1885.000000	53.719496 
1884.000000	53.708148 
1883.000000	53.692841 
1882.000000	53.675007 
1881.000000	53.656435 
1880.000000	53.638935 
1879.000000	53.624033 
1878.000000	53.613042 
1877.000000	53.606534 
1876.000000	53.604316 
1875.000000	53.605556 
1874.000000	53.608894 
1873.000000	53.612565 
1872.000000	53.614807 
1871.000000	53.614258 
1870.000000	53.610301 
1869.000000	53.602933 
1868.000000	53.593325 
1867.000000	53.583002 
1866.000000	53.573727 
1865.000000	53.567266 
1864.000000	53.564667 
1863.000000	53.566026 
1862.000000	53.570318 
1861.000000	53.575730 
1860.000000	53.579878 
1859.000000	53.580498 
1858.000000	53.575849 
1857.000000	53.565216 
1856.000000	53.548884 
1855.000000	53.528261 
1854.000000	53.505206 
1853.000000	53.481817 
1852.000000	53.459787 
1851.000000	53.440022 
1850.000000	53.422617 
1849.000000	53.407049 
1848.000000	53.392314 
1847.000000	53.377485 
1846.000000	53.361892 
1845.000000	53.345608 
1844.000000	53.329181 
1843.000000	53.313827 
1842.000000	53.300738 
1841.000000	53.290987 
1840.000000	53.285312 
1839.000000	53.283882 
1838.000000	53.286194 
1837.000000	53.291177 
1836.000000	53.297448 
1835.000000	53.303408 
1834.000000	53.307652 
1833.000000	53.309154 
1832.000000	53.307366 
1831.000000	53.302240 
1830.000000	53.294348 
1829.000000	53.284645 
1828.000000	53.274250 
1827.000000	53.264355 
1826.000000	53.255963 
1825.000000	53.249549 
1824.000000	53.245306 
1823.000000	53.242969 
1822.000000	53.241896 
1821.000000	53.241252 
1820.000000	53.239989 
1819.000000	53.237080 
1818.000000	53.231763 
1817.000000	53.223586 
1816.000000	53.212499 
1815.000000	53.198909 
1814.000000	53.183650 
1813.000000	53.167939 
1812.000000	53.153014 
1811.000000	53.140091 
1810.000000	53.129982 
1809.000000	53.122782 
1808.000000	53.118014 
1807.000000	53.114509 
1806.000000	53.110766 
1805.000000	53.105139 
1804.000000	53.096413 
1803.000000	53.083896 
1802.000000	53.067755 
1801.000000	53.049254 
1800.000000	53.030180 
1799.000000	53.012728 
1798.000000	52.999019 
1797.000000	52.990508 
1796.000000	52.987885 
1795.000000	52.990698 
1794.000000	52.997374 
1793.000000	53.005576 
1792.000000	53.012728 
1791.000000	53.016304 
1790.000000	53.014373 
1789.000000	53.006076 
1788.000000	52.991580 
1787.000000	52.972149 
1786.000000	52.949953 
1785.000000	52.927637 
1784.000000	52.907800 
1783.000000	52.892541 
1782.000000	52.883219 
1781.000000	52.880191 
1780.000000	52.882814 
1779.000000	52.889680 
1778.000000	52.898931 
1777.000000	52.908635 
1776.000000	52.917051 
1775.000000	52.922964 
1774.000000	52.925634 
1773.000000	52.924919 
1772.000000	52.920937 
1771.000000	52.914166 
1770.000000	52.905201 
1769.000000	52.894663 
1768.000000	52.883100 
1767.000000	52.870965 
1766.000000	52.858424 
1765.000000	52.845430 
1764.000000	52.831673 
1763.000000	52.816581 
1762.000000	52.799367 
1761.000000	52.779293 
1760.000000	52.755880 
1759.000000	52.729082 
1758.000000	52.699542 
1757.000000	52.668595 
1756.000000	52.638101 
1755.000000	52.610063 
1754.000000	52.586460 
1753.000000	52.568626 
1752.000000	52.557086 
1751.000000	52.551317 
1750.000000	52.549886 
1749.000000	52.550768 
1748.000000	52.551627 
1747.000000	52.550244 
1746.000000	52.544951 
1745.000000	52.534914 
1744.000000	52.520179 
1743.000000	52.501606 
1742.000000	52.480697 
1741.000000	52.459168 
1740.000000	52.438688 
1739.000000	52.420568 
1738.000000	52.405524 
1737.000000	52.393794 
1736.000000	52.385210 
1735.000000	52.379250 
1734.000000	52.375268 
1733.000000	52.372694 
1732.000000	52.370762 
1731.000000	52.369093 
1730.000000	52.367186 
1729.000000	52.364540 
1728.000000	52.360939 
1727.000000	52.356386 
1726.000000	52.351069 
1725.000000	52.345871 
1724.000000	52.342009 
1723.000000	52.341032 
1722.000000	52.344584 
1721.000000	52.353882 
1720.000000	52.369308 
1719.000000	52.390241 
1718.000000	52.414727 
1717.000000	52.439904 
1716.000000	52.462363 
1715.000000	52.478694 
1714.000000	52.486228 
1713.000000	52.483439 
1712.000000	52.470207 
1711.000000	52.448058 
1710.000000	52.419543 
1709.000000	52.387881 
1708.000000	52.356219 
1707.000000	52.327251 
1706.000000	52.302575 
1705.000000	52.282714 
1704.000000	52.266979 
1703.000000	52.253890 
1702.000000	52.241921 
1701.000000	52.229666 
1700.000000	52.216649 
1699.000000	52.203011 
1698.000000	52.189779 
1697.000000	52.178430 
1696.000000	52.170372 
1695.000000	52.166414 
1694.000000	52.166390 
1693.000000	52.169275 
1692.000000	52.173113 
1691.000000	52.175545 
1690.000000	52.174520 
1689.000000	52.168726 
1688.000000	52.158021 
1687.000000	52.143335 
1686.000000	52.126479 
1685.000000	52.109789 
1684.000000	52.095246 
1683.000000	52.084040 
1682.000000	52.076315 
1681.000000	52.071213 
1680.000000	52.067208 
1679.000000	52.062630 
1678.000000	52.056074 
1677.000000	52.046847 
1676.000000	52.035474 
1675.000000	52.023291 
1674.000000	52.012085 
1673.000000	52.003622 
1672.000000	51.999163 
1671.000000	51.998972 
1670.000000	52.002215 
1669.000000	52.007126 
1668.000000	52.011466 
1667.000000	52.012991 
1666.000000	52.010130 
1665.000000	52.002143 
1664.000000	51.989531 
1663.000000	51.973390 
1662.000000	51.955437 
1661.000000	51.937127 
1660.000000	51.919603 
1659.000000	51.903319 
1658.000000	51.888132 
1657.000000	51.873660 
1656.000000	51.859450 
1655.000000	51.845479 
1654.000000	51.832556 
1653.000000	51.821804 
1652.000000	51.814913 
1651.000000	51.813149 
1650.000000	51.817178 
1649.000000	51.826548 
1648.000000	51.839661 
1647.000000	51.854228 
1646.000000	51.867628 
1645.000000	51.877450 
1644.000000	51.882004 
1643.000000	51.880764 
1642.000000	51.874232 
1641.000000	51.863837 
1640.000000	51.851439 
1639.000000	51.838707 
1638.000000	51.826906 
1637.000000	51.816534 
1636.000000	51.807427 
1635.000000	51.798892 
1634.000000	51.790070 
1633.000000	51.780295 
1632.000000	51.769185 
1631.000000	51.756763 
1630.000000	51.743316 
1629.000000	51.729345 
1628.000000	51.715326 
1627.000000	51.701641 
1626.000000	51.688432 
1625.000000	51.675677 
1624.000000	51.663088 
1623.000000	51.650309 
1622.000000	51.636934 
1621.000000	51.622581 
1620.000000	51.607012 
1619.000000	51.590323 
1618.000000	51.572632 
1617.000000	51.554274 
1616.000000	51.535725 
1615.000000	51.517462 
1614.000000	51.499795 
1613.000000	51.482892 
1612.000000	51.466917 
1611.000000	51.451921 
1610.000000	51.437759 
1609.000000	51.424503 
1608.000000	51.412200 
1607.000000	51.400923 
1606.000000	51.390910 
1605.000000	51.382279 
1604.000000	51.375174 
1603.000000	51.369524 
1602.000000	51.365041 
1601.000000	51.361489 
1600.000000	51.358437 
1599.000000	51.355719 
1598.000000	51.353216 
1597.000000	51.350736 
1596.000000	51.348185 
1595.000000	51.345372 
1594.000000	51.341891 
1593.000000	51.337003 
1592.000000	51.329851 
1591.000000	51.319479 
1590.000000	51.305437 
1589.000000	51.287794 
1588.000000	51.267313 
1587.000000	51.245665 
1586.000000	51.225018 
1585.000000	51.207447 
1584.000000	51.194715 
1583.000000	51.187705 
1582.000000	51.186156 
1581.000000	51.188778 
1580.000000	51.193451 
1579.000000	51.197695 
1578.000000	51.199078 
1577.000000	51.195907 
1576.000000	51.187276 
1575.000000	51.173543 
1574.000000	51.156044 
1573.000000	51.136827 
1572.000000	51.118493 
1571.000000	51.103329 
1570.000000	51.093149 
1569.000000	51.088762 
1568.000000	51.090025 
1567.000000	51.095819 
1566.000000	51.104426 
1565.000000	51.113891 
1564.000000	51.122450 
1563.000000	51.128816 
1562.000000	51.132225 
1561.000000	51.132535 
1560.000000	51.129984 
1559.000000	51.125144 
1558.000000	51.118636 
1557.000000	51.110935 
1556.000000	51.102113 
1555.000000	51.091933 
1554.000000	51.079821 
1553.000000	51.065301 
1552.000000	51.048040 
1551.000000	51.028513 
1550.000000	51.007914 
1549.000000	50.988030 
1548.000000	50.970935 
1547.000000	50.958418 
1546.000000	50.951433 
1545.000000	50.949859 
1544.000000	50.952410 
1543.000000	50.957131 
1542.000000	50.961971 
1541.000000	50.965499 
1540.000000	50.967025 
1539.000000	50.966811 
1538.000000	50.965690 
1537.000000	50.964808 
1536.000000	50.964736 
1535.000000	50.965332 
1534.000000	50.965523 
1533.000000	50.963449 
1532.000000	50.957226 
1531.000000	50.945425 
1530.000000	50.927495 
1529.000000	50.904345 
1528.000000	50.877976 
1527.000000	50.851297 
1526.000000	50.827121 
1525.000000	50.807642 
1524.000000	50.793957 
1523.000000	50.785827 
1522.000000	50.781917 
1521.000000	50.780129 
1520.000000	50.778150 
1519.000000	50.774264 
1518.000000	50.767469 
1517.000000	50.758004 
1516.000000	50.747227 
1515.000000	50.737261 
1514.000000	50.730323 
1513.000000	50.728321 
1512.000000	50.732040 
1511.000000	50.741267 
1510.000000	50.754570 
1509.000000	50.769662 
1508.000000	50.784111 
1507.000000	50.795435 
1506.000000	50.801873 
1505.000000	50.801992 
1504.000000	50.795149 
1503.000000	50.780940 
1502.000000	50.759363 
1501.000000	50.730609 
1500.000000	50.695395 
1499.000000	50.655198 
1498.000000	50.612401 
1497.000000	50.570368 
1496.000000	50.533032 
1495.000000	50.504469 
1494.000000	50.487732 
1493.000000	50.483870 
1492.000000	50.491690 
1491.000000	50.507450 
1490.000000	50.525951 
1489.000000	50.541615 
1488.000000	50.550055 
1487.000000	50.548958 
1486.000000	50.538539 
1485.000000	50.521183 
1484.000000	50.500750 
1483.000000	50.481104 
1482.000000	50.465202 
1481.000000	50.454616 
1480.000000	50.449037 
1479.000000	50.446939 
1478.000000	50.445795 
1477.000000	50.443100 
1476.000000	50.436902 
1475.000000	50.426292 
1474.000000	50.411558 
1473.000000	50.394105 
1472.000000	50.375986 
1471.000000	50.359344 
1470.000000	50.345897 
1469.000000	50.336527 
1468.000000	50.331354 
1467.000000	50.329780 
1466.000000	50.330805 
1465.000000	50.333261 
1464.000000	50.336241 
1463.000000	50.339126 
1462.000000	50.341486 
1461.000000	50.342774 
1460.000000	50.342321 
1459.000000	50.339317 
1458.000000	50.332665 
1457.000000	50.321483 
1456.000000	50.305151 
1455.000000	50.283479 
1454.000000	50.257086 
1453.000000	50.227069 
1452.000000	50.195336 
1451.000000	50.163745 
1450.000000	50.133943 
1449.000000	50.107026 
1448.000000	50.083565 
1447.000000	50.063657 
1446.000000	50.047111 
1445.000000	50.033736 
1444.000000	50.023341 
1443.000000	50.015902 
1442.000000	50.011539 
1441.000000	50.010037 
1440.000000	50.010991 
1439.000000	50.013566 
1438.000000	50.016593 
1437.000000	50.018787 
1436.000000	50.018715 
1435.000000	50.015377 
1434.000000	50.008225 
1433.000000	49.997282 
1432.000000	49.983406 
1431.000000	49.968075 
1430.000000	49.953317 
1429.000000	49.941420 
1428.000000	49.934482 
1427.000000	49.933958 
1426.000000	49.940466 
1425.000000	49.953746 
1424.000000	49.972343 
1423.000000	49.993991 
1422.000000	50.015950 
1421.000000	50.035405 
1420.000000	50.049901 
1419.000000	50.057506 
1418.000000	50.057244 
1417.000000	50.049138 
1416.000000	50.033783 
1415.000000	50.012302 
1414.000000	49.986219 
1413.000000	49.957180 
1412.000000	49.926829 
1411.000000	49.896740 
1410.000000	49.868369 
1409.000000	49.842929 
1408.000000	49.821090 
1407.000000	49.803304 
1406.000000	49.789047 
1405.000000	49.777674 
1404.000000	49.768495 
1403.000000	49.760937 
1402.000000	49.754691 
1401.000000	49.749875 
1400.000000	49.746847 
1399.000000	49.746108 
1398.000000	49.747920 
1397.000000	49.752116 
1396.000000	49.758148 
1395.000000	49.765110 
1394.000000	49.771738 
1393.000000	49.776721 
1392.000000	49.778914 
1391.000000	49.777579 
1390.000000	49.772334 
1389.000000	49.763250 
1388.000000	49.750781 
1387.000000	49.735522 
1386.000000	49.718189 
1385.000000	49.699640 
1384.000000	49.680614 
1383.000000	49.661946 
1382.000000	49.644351 
1381.000000	49.628305 
1380.000000	49.614024 
1379.000000	49.601459 
1378.000000	49.590516 
1377.000000	49.581003 
1376.000000	49.572992 
1375.000000	49.566841 
1374.000000	49.562883 
1373.000000	49.561381 
1372.000000	49.562287 
1371.000000	49.565172 
1370.000000	49.569082 
1369.000000	49.572968 
1368.000000	49.575805 
1367.000000	49.576544 
1366.000000	49.574851 
1365.000000	49.570918 
1364.000000	49.565315 
1363.000000	49.558925 
1362.000000	49.552536 
1361.000000	49.546861 
1360.000000	49.542164 
1359.000000	49.538230 
1358.000000	49.534702 
1357.000000	49.531149 
1356.000000	49.527335 
1355.000000	49.523091 
1354.000000	49.518299 
1353.000000	49.513173 
1352.000000	49.507689 
1351.000000	49.502182 
1350.000000	49.497127 
1349.000000	49.493193 
1348.000000	49.491381 
1347.000000	49.492454 
1346.000000	49.496889 
1345.000000	49.504399 
1344.000000	49.513792 
1343.000000	49.523091 
1342.000000	49.529647 
1341.000000	49.530982 
1340.000000	49.524950 
1339.000000	49.510550 
1338.000000	49.488067 
1337.000000	49.459052 
1336.000000	49.425983 
1335.000000	49.391388 
1334.000000	49.357509 
1333.000000	49.325633 
1332.000000	49.296188 
1331.000000	49.268937 
1330.000000	49.243521 
1329.000000	49.219846 
1328.000000	49.198508 
1327.000000	49.180531 
1326.000000	49.167442 
1325.000000	49.160337 
1324.000000	49.159812 
1323.000000	49.165534 
1322.000000	49.176192 
1321.000000	49.189424 
1320.000000	49.202370 
1319.000000	49.212121 
1318.000000	49.216079 
1317.000000	49.212503 
1316.000000	49.200797 
1315.000000	49.181556 
1314.000000	49.156665 
1313.000000	49.128627 
1312.000000	49.100589 
1311.000000	49.075579 
1310.000000	49.056124 
1309.000000	49.043750 
1308.000000	49.038720 
1307.000000	49.039983 
1306.000000	49.045443 
1305.000000	49.052453 
1304.000000	49.058318 
1303.000000	49.061059 
1302.000000	49.059796 
1301.000000	49.054813 
1300.000000	49.047160 
1299.000000	49.038219 
1298.000000	49.029278 
1297.000000	49.021148 
1296.000000	49.013853 
1295.000000	49.006581 
1294.000000	48.998284 
1293.000000	48.987674 
1292.000000	48.973798 
1291.000000	48.956084 
1290.000000	48.934507 
1289.000000	48.909473 
1288.000000	48.882007 
1287.000000	48.853230 
1286.000000	48.824214 
1285.000000	48.796033 
1284.000000	48.769736 
1283.000000	48.746109 
1282.000000	48.726010 
1281.000000	48.709869 
1280.000000	48.698091 
1279.000000	48.690652 
1278.000000	48.687386 
1277.000000	48.687815 
1276.000000	48.691272 
1275.000000	48.697090 
1274.000000	48.704648 
1273.000000	48.713374 
1272.000000	48.722767 
1271.000000	48.732280 
1270.000000	48.741078 
1269.000000	48.748254 
1268.000000	48.752427 
1267.000000	48.752307 
1266.000000	48.746681 
1265.000000	48.734903 
1264.000000	48.716855 
1263.000000	48.693466 
1262.000000	48.666238 
1261.000000	48.637223 
1260.000000	48.608589 
1259.000000	48.582410 
1258.000000	48.560094 
1257.000000	48.542380 
1256.000000	48.529434 
1255.000000	48.520779 
1254.000000	48.515558 
1253.000000	48.512744 
1252.000000	48.511338 
1251.000000	48.510527 
1250.000000	48.509836 
1249.000000	48.509144 
1248.000000	48.508572 
1247.000000	48.508429 
1246.000000	48.509073 
1245.000000	48.510670 
1244.000000	48.513269 
1243.000000	48.516535 
1242.000000	48.519825 
1241.000000	48.522281 
1240.000000	48.522949 
1239.000000	48.520851 
1238.000000	48.515295 
1237.000000	48.505806 
1236.000000	48.492527 
1235.000000	48.476123 
1234.000000	48.457694 
1233.000000	48.438596 
1232.000000	48.420190 
1231.000000	48.403549 
1230.000000	48.389267 
1229.000000	48.377323 
1228.000000	48.367166 
1227.000000	48.357939 
1226.000000	48.348760 
1225.000000	48.338961 
1224.000000	48.328471 
1223.000000	48.317766 
1222.000000	48.307943 
1221.000000	48.300242 
1220.000000	48.295903 
1219.000000	48.295807 
1218.000000	48.300409 
1217.000000	48.309373 
1216.000000	48.321747 
1215.000000	48.336148 
1214.000000	48.350858 
1213.000000	48.364114 
1212.000000	48.374104 
1211.000000	48.379254 
1210.000000	48.378181 
1209.000000	48.370003 
1208.000000	48.354196 
1207.000000	48.331022 
1206.000000	48.301410 
1205.000000	48.267102 
1204.000000	48.230266 
1203.000000	48.193430 
1202.000000	48.158955 
1201.000000	48.128867 
1200.000000	48.104453 
1199.000000	48.086142 
1198.000000	48.073458 
1197.000000	48.065114 
1196.000000	48.059296 
1195.000000	48.053979 
1194.000000	48.047280 
1193.000000	48.037672 
1192.000000	48.024296 
1191.000000	48.007225 
1190.000000	47.987079 
1189.000000	47.965192 
1188.000000	47.943329 
1187.000000	47.923302 
1186.000000	47.906517 
1185.000000	47.893953 
1184.000000	47.885942 
1183.000000	47.882151 
1182.000000	47.881627 
1181.000000	47.883319 
1180.000000	47.886347 
1179.000000	47.889971 
1178.000000	47.893881 
1177.000000	47.897911 
1176.000000	47.901964 
1175.000000	47.905731 
1174.000000	47.908592 
1173.000000	47.909688 
1172.000000	47.908186 
1171.000000	47.903466 
1170.000000	47.895574 
1169.000000	47.885417 
1168.000000	47.874426 
1167.000000	47.864460 
1166.000000	47.857022 
1165.000000	47.852969 
1164.000000	47.851872 
1163.000000	47.852110 
1162.000000	47.851109 
1161.000000	47.846102 
1160.000000	47.834873 
1159.000000	47.816538 
1158.000000	47.791647 
1157.000000	47.762393 
1156.000000	47.731781 
1155.000000	47.703313 
1154.000000	47.679758 
1153.000000	47.662782 
1152.000000	47.652435 
1151.000000	47.647356 
1150.000000	47.645211 
1149.000000	47.643470 
1148.000000	47.639870 
1147.000000	47.632980 
1146.000000	47.622323 
1145.000000	47.608375 
1144.000000	47.592186 
1143.000000	47.574949 
1142.000000	47.557783 
1141.000000	47.541427 
1140.000000	47.526288 
1139.000000	47.512149 
1138.000000	47.498559 
1137.000000	47.484850 
1136.000000	47.470426 
1135.000000	47.454953 
1134.000000	47.438478 
1133.000000	47.421622 
1132.000000	47.405481 
1131.000000	47.391366 
1130.000000	47.380518 
1129.000000	47.373771 
1128.000000	47.371172 
1127.000000	47.371840 
1126.000000	47.373890 
1125.000000	47.374892 
1124.000000	47.372531 
1123.000000	47.365236 
1122.000000	47.352623 
1121.000000	47.335934 
1120.000000	47.317671 
1119.000000	47.300982 
1118.000000	47.288823 
1117.000000	47.282862 
1116.000000	47.282910 
1115.000000	47.287106 
1114.000000	47.291994 
1113.000000	47.293639 
1112.000000	47.288656 
1111.000000	47.275137 
1110.000000	47.253274 
1109.000000	47.225332 
1108.000000	47.195291 
1107.000000	47.167468 
1106.000000	47.145676 
1105.000000	47.132110 
1104.000000	47.127103 
1103.000000	47.129011 
1102.000000	47.134971 
1101.000000	47.141695 
1100.000000	47.146368 
1099.000000	47.147178 
1098.000000	47.143650 
1097.000000	47.136497 
1096.000000	47.126936 
1095.000000	47.115969 
1094.000000	47.104072 
1093.000000	47.090816 
1092.000000	47.074937 
1091.000000	47.054767 
1090.000000	47.029089 
1089.000000	46.997761 
1088.000000	46.961712 
1087.000000	46.923398 
1086.000000	46.886110 
1085.000000	46.853446 
1084.000000	46.828389 
1083.000000	46.812629 
1082.000000	46.806168 
1081.000000	46.807336 
1080.000000	46.813154 
1079.000000	46.820187 
1078.000000	46.825075 
1077.000000	46.825575 
1076.000000	46.820616 
1075.000000	46.810793 
1074.000000	46.797728 
1073.000000	46.783876 
1072.000000	46.771693 
1071.000000	46.763205 
1070.000000	46.759510 
1069.000000	46.760988 
1068.000000	46.767044 
1067.000000	46.776819 
1066.000000	46.789193 
1065.000000	46.803069 
1064.000000	46.817636 
1063.000000	46.832203 
1062.000000	46.846222 
1061.000000	46.858906 
1060.000000	46.869349 
1059.000000	46.876645 
1058.000000	46.879959 
1057.000000	46.878886 
1056.000000	46.873235 
1055.000000	46.863770 
1054.000000	46.851539 
1053.000000	46.838045 
1052.000000	46.824622 
1051.000000	46.812415 
1050.000000	46.801829 
1049.000000	46.792793 
1048.000000	46.784663 
1047.000000	46.776485 
1046.000000	46.767520 
1045.000000	46.757674 
1044.000000	46.747350 
1043.000000	46.737289 
1042.000000	46.728348 
1041.000000	46.721339 
1040.000000	46.716356 
1039.000000	46.712779 
1038.000000	46.709632 
1037.000000	46.705961 
1036.000000	46.701288 
1035.000000	46.695804 
1034.000000	46.690583 
1033.000000	46.687197 
1032.000000	46.687197 
1031.000000	46.691441 
1030.000000	46.699547 
1029.000000	46.709728 
1028.000000	46.719050 
1027.000000	46.723937 
1026.000000	46.721172 
1025.000000	46.708536 
1024.000000	46.685791 
1023.000000	46.654367 
1022.000000	46.617269 
1021.000000	46.578216 
1020.000000	46.540784 
1019.000000	46.507287 
1018.000000	46.478652 
1017.000000	46.453905 
1016.000000	46.430826 
1015.000000	46.406817 
1014.000000	46.379804 
1013.000000	46.348762 
1012.000000	46.314191 
1011.000000	46.278047 
1010.000000	46.243381 
1009.000000	46.213340 
1008.000000	46.190714 
1007.000000	46.177244 
1006.000000	46.173596 
1005.000000	46.178817 
1004.000000	46.191263 
1003.000000	46.208691 
1002.000000	46.228909 
1001.000000	46.250009 
1000.000000	46.270370 
999.000000	 46.288967 
998.000000	 46.304941 
997.000000	 46.317601 
996.000000	 46.326041 
995.000000	 46.329522 
994.000000	 46.326828 
993.000000	 46.317052 
992.000000	 46.299076 
991.000000	 46.272206 
990.000000	 46.236085 
989.000000	 46.191596 
988.000000	 46.140575 
987.000000	 46.085977 
986.000000	 46.031737 
985.000000	 45.982170 
984.000000	 45.941019 
983.000000	 45.910811 
982.000000	 45.892000 
981.000000	 45.882940 
980.000000	 45.880103 
979.000000	 45.878934 
978.000000	 45.874786 
977.000000	 45.864224 
976.000000	 45.845532 
975.000000	 45.819354 
974.000000	 45.788168 
973.000000	 45.755577 
972.000000	 45.725226 
971.000000	 45.700073 
970.000000	 45.681428 
969.000000	 45.669269 
968.000000	 45.662379 
967.000000	 45.659041 
966.000000	 45.657896 
965.000000	 45.658230 
964.000000	 45.660018 
963.000000	 45.663571 
962.000000	 45.669054 
961.000000	 45.676040 
960.000000	 45.683073 
959.000000	 45.687937 
958.000000	 45.687937 
957.000000	 45.680499 
956.000000	 45.663905 
955.000000	 45.637845 
954.000000	 45.603680 
953.000000	 45.563817 
952.000000	 45.521497 
951.000000	 45.480036 
950.000000	 45.442628 
949.000000	 45.411705 
948.000000	 45.389175 
947.000000	 45.376157 
946.000000	 45.373535 
945.000000	 45.381569 
944.000000	 45.400261 
943.000000	 45.428943 
942.000000	 45.466637 
941.000000	 45.511412 
940.000000	 45.560884 
939.000000	 45.612287 
938.000000	 45.662117 
937.000000	 45.706439 
936.000000	 45.741128 
935.000000	 45.762753 
934.000000	 45.768547 
933.000000	 45.757150 
932.000000	 45.728588 
931.000000	 45.684719 
930.000000	 45.629048 
929.000000	 45.566415 
928.000000	 45.502352 
927.000000	 45.442438 
926.000000	 45.391488 
925.000000	 45.353126 
924.000000	 45.329165 
923.000000	 45.319533 
922.000000	 45.322704 
921.000000	 45.335936 
920.000000	 45.355415 
919.000000	 45.377349 
918.000000	 45.397591 
917.000000	 45.413613 
916.000000	 45.423293 
915.000000	 45.427060 
914.000000	 45.426964 
913.000000	 45.426797 
912.000000	 45.431160 
911.000000	 45.443940 
910.000000	 45.467615 
909.000000	 45.501303 
908.000000	 45.541000 
907.000000	 45.579767 
906.000000	 45.609426 
905.000000	 45.622134 
904.000000	 45.612382 
903.000000	 45.579290 
902.000000	 45.526671 
901.000000	 45.462465 
900.000000	 45.396304 
899.000000	 45.337224 
898.000000	 45.291066 
897.000000	 45.258975 
896.000000	 45.237445 
895.000000	 45.220017 
894.000000	 45.199537 
893.000000	 45.170760 
892.000000	 45.132088 
891.000000	 45.086050 
890.000000	 45.039129 
889.000000	 44.998764 
888.000000	 44.972372 
887.000000	 44.964694 
886.000000	 44.976830 
885.000000	 45.005846 
884.000000	 45.045447 
883.000000	 45.087790 
882.000000	 45.124697 
881.000000	 45.149683 
880.000000	 45.158028 
879.000000	 45.147538 
878.000000	 45.117878 
877.000000	 45.070171 
876.000000	 45.007061 
875.000000	 44.931983 
874.000000	 44.849061 
873.000000	 44.762420 
872.000000	 44.675803 
871.000000	 44.592022 
870.000000	 44.513106 
869.000000	 44.440269 
868.000000	 44.373583 
867.000000	 44.312930 
866.000000	 44.258236 
865.000000	 44.210243 
864.000000	 44.169449 
863.000000	 44.137310 
862.000000	 44.114375 
861.000000	 44.101762 
860.000000	 44.099736 
859.000000	 44.108510 
858.000000	 44.127655 
857.000000	 44.156455 
856.000000	 44.193530 
855.000000	 44.236588 
854.000000	 44.282412 
853.000000	 44.325637 
852.000000	 44.359421 
851.000000	 44.375777 
850.000000	 44.367480 
849.000000	 44.329786 
848.000000	 44.262433 
847.000000	 44.170713 
846.000000	 44.065332 
845.000000	 43.960618 
844.000000	 43.872046 
843.000000	 43.813300 
842.000000	 43.793082 
841.000000	 43.813300 
840.000000	 43.868589 
839.000000	 43.947887 
838.000000	 44.036817 
837.000000	 44.120550 
836.000000	 44.186949 
835.000000	 44.228219 
834.000000	 44.242358 
833.000000	 44.231486 
832.000000	 44.201803 
831.000000	 44.160652 
830.000000	 44.115996 
829.000000	 44.074892 
828.000000	 44.042634 
827.000000	 44.022774 
826.000000	 44.016456 
825.000000	 44.023108 
824.000000	 44.039750 
823.000000	 44.061923 
822.000000	 44.084620 
821.000000	 44.103336 
820.000000	 44.114637 
819.000000	 44.116687 
818.000000	 44.109416 
817.000000	 44.094443 
816.000000	 44.074392 
815.000000	 44.052362 
814.000000	 44.030618 
813.000000	 44.010543 
812.000000	 43.992996 
811.000000	 43.977689 
810.000000	 43.964147 
809.000000	 43.951511 
808.000000	 43.939495 
807.000000	 43.928050 
806.000000	 43.917679 
805.000000	 43.908286 
804.000000	 43.898987 
803.000000	 43.887782 
802.000000	 43.872261 
801.000000	 43.849349 
800.000000	 43.816375 
799.000000	 43.771290 
798.000000	 43.713474 
797.000000	 43.644165 
796.000000	 43.566632 
795.000000	 43.485999 
794.000000	 43.408608 
793.000000	 43.341016 
792.000000	 43.288969 
791.000000	 43.256258 
790.000000	 43.244433 
789.000000	 43.251752 
788.000000	 43.274545 
787.000000	 43.307900 
786.000000	 43.346834 
785.000000	 43.386793 
784.000000	 43.424391 
783.000000	 43.457317 
782.000000	 43.484020 
781.000000	 43.503189 
780.000000	 43.513560 
779.000000	 43.513703 
778.000000	 43.502283 
777.000000	 43.478894 
776.000000	 43.444442 
775.000000	 43.401765 
774.000000	 43.355274 
773.000000	 43.310856 
772.000000	 43.274140 
771.000000	 43.249607 
770.000000	 43.239617 
769.000000	 43.243837 
768.000000	 43.259668 
767.000000	 43.282508 
766.000000	 43.307137 
765.000000	 43.328285 
764.000000	 43.341112 
763.000000	 43.341779 
762.000000	 43.327760 
761.000000	 43.298339 
760.000000	 43.254446 
759.000000	 43.199086 
758.000000	 43.137240 
757.000000	 43.074774 
756.000000	 43.018221 
755.000000	 42.972922 
754.000000	 42.942523 
753.000000	 42.927765 
752.000000	 42.926716 
751.000000	 42.935061 
750.000000	 42.946934 
749.000000	 42.956733 
748.000000	 42.960357 
747.000000	 42.956089 
746.000000	 42.944478 
745.000000	 42.927932 
744.000000	 42.909383 
743.000000	 42.891144 
742.000000	 42.874240 
741.000000	 42.858529 
740.000000	 42.842817 
739.000000	 42.825770 
738.000000	 42.806291 
737.000000	 42.784190 
736.000000	 42.759919 
735.000000	 42.734098 
734.000000	 42.707347 
733.000000	 42.680239 
732.000000	 42.653155 
731.000000	 42.626452 
730.000000	 42.600655 
729.000000	 42.576813 
728.000000	 42.556285 
727.000000	 42.540740 
726.000000	 42.531633 
725.000000	 42.529439 
724.000000	 42.533564 
723.000000	 42.542004 
722.000000	 42.551946 
721.000000	 42.560315 
720.000000	 42.564344 
719.000000	 42.562294 
718.000000	 42.553305 
717.000000	 42.537474 
716.000000	 42.515039 
715.000000	 42.486095 
714.000000	 42.450213 
713.000000	 42.406511 
712.000000	 42.354154 
711.000000	 42.292785 
710.000000	 42.223143 
709.000000	 42.147564 
708.000000	 42.069864 
707.000000	 41.995215 
706.000000	 41.929101 
705.000000	 41.876435 
704.000000	 41.840362 
703.000000	 41.821646 
702.000000	 41.818118 
701.000000	 41.825103 
700.000000	 41.836142 
699.000000	 41.844367 
698.000000	 41.843748 
697.000000	 41.830348 
696.000000	 41.802573 
695.000000	 41.761684 
694.000000	 41.711211 
693.000000	 41.655874 
692.000000	 41.600584 
691.000000	 41.549515 
690.000000	 41.505622 
689.000000	 41.470098 
688.000000	 41.442561 
687.000000	 41.421484 
686.000000	 41.405010 
685.000000	 41.391277 
684.000000	 41.379094 
683.000000	 41.367816 
682.000000	 41.357731 
681.000000	 41.349411 
680.000000	 41.343784 
679.000000	 41.341757 
678.000000	 41.343641 
677.000000	 41.349506 
676.000000	 41.358256 
675.000000	 41.367673 
674.000000	 41.374635 
673.000000	 41.375851 
672.000000	 41.368293 
671.000000	 41.349911 
670.000000	 41.319870 
669.000000	 41.279458 
668.000000	 41.230773 
667.000000	 41.176533 
666.000000	 41.119289 
665.000000	 41.061258 
664.000000	 41.003990 
663.000000	 40.948438 
662.000000	 40.895581 
661.000000	 40.846753 
660.000000	 40.803813 
659.000000	 40.769147 
658.000000	 40.744900 
657.000000	 40.732407 
656.000000	 40.731382 
655.000000	 40.739870 
654.000000	 40.753841 
653.000000	 40.768527 
652.000000	 40.779542 
651.000000	 40.784072 
650.000000	 40.780973 
649.000000	 40.771245 
648.000000	 40.757203 
647.000000	 40.742087 
646.000000	 40.728211 
645.000000	 40.717864 
644.000000	 40.712594 
643.000000	 40.713667 
642.000000	 40.722441 
641.000000	 40.739727 
640.000000	 40.765738 
639.000000	 40.799355 
638.000000	 40.838193 
637.000000	 40.877652 
636.000000	 40.911722 
635.000000	 40.933895 
634.000000	 40.938615 
633.000000	 40.922546 
632.000000	 40.885114 
631.000000	 40.829277 
630.000000	 40.760231 
629.000000	 40.684676 
628.000000	 40.608716 
627.000000	 40.537047 
626.000000	 40.471744 
625.000000	 40.412902 
624.000000	 40.358877 
623.000000	 40.307712 
622.000000	 40.258193 
621.000000	 40.210318 
620.000000	 40.165781 
619.000000	 40.126419 
618.000000	 40.094780 
617.000000	 40.072393 
616.000000	 40.060520 
615.000000	 40.058326 
614.000000	 40.065002 
613.000000	 40.079522 
612.000000	 40.100932 
611.000000	 40.128183 
610.000000	 40.159487 
609.000000	 40.192174 
608.000000	 40.221834 
607.000000	 40.242743 
606.000000	 40.248918 
605.000000	 40.235233 
604.000000	 40.199351 
603.000000	 40.142488 
602.000000	 40.069985 
601.000000	 39.990162 
600.000000	 39.912748 
599.000000	 39.846563 
598.000000	 39.797735 
597.000000	 39.768171 
596.000000	 39.755940 
595.000000	 39.755129 
594.000000	 39.757943 
593.000000	 39.756202 
592.000000	 39.743804 
591.000000	 39.717221 
590.000000	 39.675831 
589.000000	 39.621329 
588.000000	 39.556574 
587.000000	 39.484834 
586.000000	 39.408636 
585.000000	 39.330387 
584.000000	 39.252161 
583.000000	 39.177107 
582.000000	 39.109587 
581.000000	 39.055037 
580.000000	 39.018869 
579.000000	 39.004993 
578.000000	 39.014291 
577.000000	 39.042854 
576.000000	 39.082241 
575.000000	 39.120721 
574.000000	 39.145946 
573.000000	 39.146947 
572.000000	 39.117693 
571.000000	 39.058470 
570.000000	 38.976430 
569.000000	 38.883638 
568.000000	 38.794708 
567.000000	 38.723182 
566.000000	 38.678431 
565.000000	 38.664126 
564.000000	 38.677120 
563.000000	 38.708949 
562.000000	 38.747954 
561.000000	 38.782644 
560.000000	 38.803815 
559.000000	 38.806247 
558.000000	 38.789486 
557.000000	 38.756966 
556.000000	 38.714504 
555.000000	 38.668131 
554.000000	 38.622784 
553.000000	 38.581013 
552.000000	 38.542652 
551.000000	 38.505196 
550.000000	 38.464951 
549.000000	 38.417935 
548.000000	 38.361477 
547.000000	 38.294696 
546.000000	 38.218331 
545.000000	 38.134622 
544.000000	 38.046765 
543.000000	 37.958455 
542.000000	 37.872529 
541.000000	 37.792015 
540.000000	 37.719297 
539.000000	 37.657332 
538.000000	 37.608242 
537.000000	 37.574768 
536.000000	 37.559247 
535.000000	 37.563610 
534.000000	 37.587928 
533.000000	 37.630391 
532.000000	 37.686777 
531.000000	 37.750649 
530.000000	 37.813949 
529.000000	 37.867760 
528.000000	 37.903904 
527.000000	 37.915611 
526.000000	 37.898707 
525.000000	 37.851548 
524.000000	 37.775397 
523.000000	 37.674283 
522.000000	 37.554669 
521.000000	 37.424850 
520.000000	 37.294101 
519.000000	 37.172055 
518.000000	 37.066864 
517.000000	 36.985111 
516.000000	 36.929321 
515.000000	 36.898231 
514.000000	 36.885595 
513.000000	 36.881399 
512.000000	 36.873698 
511.000000	 36.850070 
510.000000	 36.801838 
509.000000	 36.725258 
508.000000	 36.623525 
507.000000	 36.505508 
506.000000	 36.384558 
505.000000	 36.274814 
504.000000	 36.188459 
503.000000	 36.132431 
502.000000	 36.108088 
501.000000	 36.110973 
500.000000	 36.132264 
499.000000	 36.161112 
498.000000	 36.186742 
497.000000	 36.200404 
496.000000	 36.196303 
495.000000	 36.171722 
494.000000	 36.125469 
493.000000	 36.057734 
492.000000	 35.970067 
491.000000	 35.865020 
490.000000	 35.746788 
489.000000	 35.620403 
488.000000	 35.492658 
487.000000	 35.370039 
486.000000	 35.258650 
485.000000	 35.162448 
484.000000	 35.082125 
483.000000	 35.016322 
482.000000	 34.961795 
481.000000	 34.915542 
480.000000	 34.875917 
479.000000	 34.842777 
478.000000	 34.816575 
477.000000	 34.797978 
476.000000	 34.786295 
475.000000	 34.779095 
474.000000	 34.772109 
473.000000	 34.760928 
472.000000	 34.742474 
471.000000	 34.718203 
470.000000	 34.694409 
469.000000	 34.681940 
468.000000	 34.692668 
467.000000	 34.737324 
466.000000	 34.819173 
465.000000	 34.931802 
464.000000	 35.056757 
463.000000	 35.167098 
462.000000	 35.231709 
461.000000	 35.221815 
460.000000	 35.119986 
459.000000	 34.925270 
458.000000	 34.656357 
457.000000	 34.347963 
456.000000	 34.045386 
455.000000	 33.794379 
454.000000	 33.631944 
453.000000	 33.578729 
452.000000	 33.634352 
451.000000	 33.779358 
450.000000	 33.978199 
449.000000	 34.188246 
448.000000	 34.367632 
447.000000	 34.484028 
446.000000	 34.517788 
445.000000	 34.463715 
444.000000	 34.331297 
443.000000	 34.140300 
442.000000	 33.916163 
441.000000	 33.683061 
440.000000	 33.461594 
439.000000	 33.262968 
438.000000	 33.090090 
437.000000	 32.936048 
436.000000	 32.789373 
435.000000	 32.636427 
434.000000	 32.465195 
433.000000	 32.270336 
432.000000	 32.052946 
431.000000	 31.824374 
430.000000	 31.601619 
429.000000	 31.406021 
428.000000	 31.258654 
427.000000	 31.172513 
426.000000	 31.147718 
425.000000	 31.170368 
424.000000	 31.215572 
423.000000	 31.251001 
422.000000	 31.245446 
421.000000	 31.172037 
420.000000	 31.012749 
419.000000	 30.769681 
418.000000	 30.464625 
417.000000	 30.132937 
416.000000	 29.814147 
415.000000	 29.542756 
414.000000	 29.338836 
413.000000	 29.201745 
412.000000	 29.112625 
411.000000	 29.039931 
410.000000	 28.954029 
409.000000	 28.830623 
408.000000	 28.666067 
407.000000	 28.491592 
406.000000	 28.353691 
405.000000	 28.294706 
404.000000	 28.334331 
403.000000	 28.475642 
402.000000	 28.676319 
401.000000	 28.837418 
400.000000	 28.851199 
399.000000	 28.632497 
398.000000	 28.153824 
397.000000	 27.434182 
396.000000	 26.606655 
395.000000	 25.915694 
394.000000	 25.595498 
393.000000	 25.793147 
392.000000	 26.563787 
391.000000	 27.842450 
390.000000	 29.461526 
389.000000	 31.192493 
388.000000	 32.730269 
387.000000	 33.788824 
386.000000	 34.216070 
385.000000	 34.037113 
384.000000	 33.426737 
383.000000	 32.688856 
382.000000	 32.161903 
381.000000	 32.172942 
380.000000	 32.890820 
379.000000	 34.380722 
378.000000	 36.656808 
377.000000	 39.648985 
376.000000	 43.267440 
375.000000	 47.367763 
374.000000	 51.570415 
373.000000	 55.642986 
372.000000	 59.340810 
371.000000	 62.930297 
370.000000	 67.141127 

