PE IR       SPECTRUM    SPECTRUM    ASCII       PEDS        1.60        
  -1
C-9965~1.ASC
17/05/02
11:28:10.00
17/05/02
11:28:10.00
tln
$C-4040-8_t0008$<tbV0>[7.5,-8.0,8.0,0.0,22,1,0]
370.000000
64









2002,4.07    
MIRTGS : RIGHTBACK : INTERNAL 2
MIR : ON : INTERNAL 2
OPTKBR

0.200000
8
8.000000
FILLER
RATIO
SPECTRUM
UNLOCKED 256

DOUBLE
64
COMBINED
1
0
0


1.000000
RATIO


1
0
TRUE
51149
0
LEFT NOT FITTED RIGHT NOT FITTED 0
NONE
NONE
15600
12.000000
4.427000
51148
TRUE
1 0 8 72 0 0 0 0 

15798.010000






#HDR
-1
-1
#GR
CM-1
%T
0.00002384185791015625
0.0
7800.000000
-1.000000
7431
8
81.166410
9.982895
#DATA
7800.000000	61.800718 
7799.000000	61.322426 
7798.000000	61.170387 
7797.000000	61.236929 
7796.000000	61.404180 
7795.000000	61.545133 
7794.000000	61.555624 
7793.000000	61.360645 
7792.000000	60.936880 
7791.000000	60.307908 
7790.000000	59.535646 
7789.000000	58.700180 
7788.000000	57.872223 
7787.000000	57.102370 
7786.000000	56.407117 
7785.000000	55.786705 
7784.000000	55.234503 
7783.000000	54.766440 
7782.000000	54.417443 
7781.000000	54.259872 
7780.000000	54.380559 
7779.000000	54.871869 
7778.000000	55.778002 
7777.000000	57.103109 
7776.000000	58.786129 
7775.000000	60.718178 
7774.000000	62.767171 
7773.000000	64.775037 
7772.000000	66.578841 
7771.000000	68.030381 
7770.000000	69.023942 
7769.000000	69.491577 
7768.000000	69.412326 
7767.000000	68.823003 
7766.000000	67.818689 
7765.000000	66.542983 
7764.000000	65.174460 
7763.000000	63.910222 
7762.000000	62.937879 
7761.000000	62.422823 
7760.000000	62.470340 
7759.000000	63.111019 
7758.000000	64.279174 
7757.000000	65.818357 
7756.000000	67.503833 
7755.000000	69.072771 
7754.000000	70.285272 
7753.000000	70.964264 
7752.000000	71.038866 
7751.000000	70.549392 
7750.000000	69.637417 
7749.000000	68.502378 
7748.000000	67.362046 
7747.000000	66.402649 
7746.000000	65.751481 
7745.000000	65.466070 
7744.000000	65.535807 
7743.000000	65.909314 
7742.000000	66.503262 
7741.000000	67.231249 
7740.000000	68.000245 
7739.000000	68.720078 
7738.000000	69.300365 
7737.000000	69.654893 
7736.000000	69.702577 
7735.000000	69.380092 
7734.000000	68.660092 
7733.000000	67.561626 
7732.000000	66.162061 
7731.000000	64.584755 
7730.000000	62.985420 
7729.000000	61.522603 
7728.000000	60.323524 
7727.000000	59.471964 
7726.000000	58.995556 
7725.000000	58.879327 
7724.000000	59.059309 
7723.000000	59.470057 
7722.000000	60.052585 
7721.000000	60.780763 
7720.000000	61.640167 
7719.000000	62.641429 
7718.000000	63.787651 
7717.000000	65.071892 
7716.000000	66.456818 
7715.000000	67.872953 
7714.000000	69.220829 
7713.000000	70.392632 
7712.000000	71.292543 
7711.000000	71.850848 
7710.000000	72.034239 
7709.000000	71.853351 
7708.000000	71.351838 
7707.000000	70.590472 
7706.000000	69.628381 
7705.000000	68.528461 
7704.000000	67.339301 
7703.000000	66.099095 
7702.000000	64.833760 
7701.000000	63.576912 
7700.000000	62.365627 
7699.000000	61.238646 
7698.000000	60.241484 
7697.000000	59.409499 
7696.000000	58.780574 
7695.000000	58.375525 
7694.000000	58.211541 
7693.000000	58.282780 
7692.000000	58.576655 
7691.000000	59.067511 
7690.000000	59.714913 
7689.000000	60.456132 
7688.000000	61.218380 
7687.000000	61.923265 
7686.000000	62.501859 
7685.000000	62.905335 
7684.000000	63.128662 
7683.000000	63.215351 
7682.000000	63.256263 
7681.000000	63.370513 
7680.000000	63.689708 
7679.000000	64.315724 
7678.000000	65.299272 
7677.000000	66.606879 
7676.000000	68.122172 
7675.000000	69.655871 
7674.000000	70.997953 
7673.000000	71.948456 
7672.000000	72.367715 
7671.000000	72.196602 
7670.000000	71.482920 
7669.000000	70.347881 
7668.000000	68.956589 
7667.000000	67.480158 
7666.000000	66.063523 
7665.000000	64.809274 
7664.000000	63.775157 
7663.000000	62.987828 
7662.000000	62.460851 
7661.000000	62.209343 
7660.000000	62.258052 
7659.000000	62.622499 
7658.000000	63.294529 
7657.000000	64.221143 
7656.000000	65.301585 
7655.000000	66.388034 
7654.000000	67.316985 
7653.000000	67.956089 
7652.000000	68.235754 
7651.000000	68.172025 
7650.000000	67.856264 
7649.000000	67.431235 
7648.000000	67.046666 
7647.000000	66.813635 
7646.000000	66.779756 
7645.000000	66.932272 
7644.000000	67.198538 
7643.000000	67.490458 
7642.000000	67.712616 
7641.000000	67.803955 
7640.000000	67.732071 
7639.000000	67.498588 
7638.000000	67.126822 
7637.000000	66.643428 
7636.000000	66.080236 
7635.000000	65.464615 
7634.000000	64.829039 
7633.000000	64.210605 
7632.000000	63.660931 
7631.000000	63.242244 
7630.000000	63.008761 
7629.000000	62.993383 
7628.000000	63.187766 
7627.000000	63.540196 
7626.000000	63.965773 
7625.000000	64.363932 
7624.000000	64.636206 
7623.000000	64.711093 
7622.000000	64.562273 
7621.000000	64.212322 
7620.000000	63.715863 
7619.000000	63.153219 
7618.000000	62.605738 
7617.000000	62.145423 
7616.000000	61.825466 
7615.000000	61.670541 
7614.000000	61.678457 
7613.000000	61.822152 
7612.000000	62.067389 
7611.000000	62.367653 
7610.000000	62.671470 
7609.000000	62.929534 
7608.000000	63.096094 
7607.000000	63.145709 
7606.000000	63.073515 
7605.000000	62.902760 
7604.000000	62.677025 
7603.000000	62.444257 
7602.000000	62.240552 
7601.000000	62.078189 
7600.000000	61.939048 
7599.000000	61.776018 
7598.000000	61.527490 
7597.000000	61.138939 
7596.000000	60.584783 
7595.000000	59.871888 
7594.000000	59.057617 
7593.000000	58.231019 
7592.000000	57.514405 
7591.000000	57.030820 
7590.000000	56.888961 
7589.000000	57.155084 
7588.000000	57.839345 
7587.000000	58.886671 
7586.000000	60.185503 
7585.000000	61.587333 
7584.000000	62.931060 
7583.000000	64.070868 
7582.000000	64.898610 
7581.000000	65.355944 
7580.000000	65.442872 
7579.000000	65.210676 
7578.000000	64.742422 
7577.000000	64.132881 
7576.000000	63.475990 
7575.000000	62.852382 
7574.000000	62.325811 
7573.000000	61.942195 
7572.000000	61.733984 
7571.000000	61.721420 
7570.000000	61.918282 
7569.000000	62.326669 
7568.000000	62.925052 
7567.000000	63.672137 
7566.000000	64.500045 
7565.000000	65.332531 
7564.000000	66.088938 
7563.000000	66.707015 
7562.000000	67.155194 
7561.000000	67.432332 
7560.000000	67.571902 
7559.000000	67.613887 
7558.000000	67.603969 
7557.000000	67.553901 
7556.000000	67.447209 
7555.000000	67.224860 
7554.000000	66.809582 
7553.000000	66.127943 
7552.000000	65.145230 
7551.000000	63.881754 
7550.000000	62.423563 
7549.000000	60.912442 
7548.000000	59.523558 
7547.000000	58.428812 
7546.000000	57.764863 
7545.000000	57.606482 
7544.000000	57.954931 
7543.000000	58.741283 
7542.000000	59.842848 
7541.000000	61.103940 
7540.000000	62.368917 
7539.000000	63.495326 
7538.000000	64.385056 
7537.000000	64.989185 
7536.000000	65.308928 
7535.000000	65.379929 
7534.000000	65.255665 
7533.000000	64.994359 
7532.000000	64.639568 
7531.000000	64.221477 
7530.000000	63.753414 
7529.000000	63.248491 
7528.000000	62.723445 
7527.000000	62.212443 
7526.000000	61.761760 
7525.000000	61.425161 
7524.000000	61.254596 
7523.000000	61.287236 
7522.000000	61.536884 
7521.000000	61.986875 
7520.000000	62.593173 
7519.000000	63.288688 
7518.000000	63.993000 
7517.000000	64.622926 
7516.000000	65.108060 
7515.000000	65.396881 
7514.000000	65.458869 
7513.000000	65.288615 
7512.000000	64.904665 
7511.000000	64.347434 
7510.000000	63.678383 
7509.000000	62.968277 
7508.000000	62.290287 
7507.000000	61.708831 
7506.000000	61.277556 
7505.000000	61.026859 
7504.000000	60.961079 
7503.000000	61.061954 
7502.000000	61.293482 
7501.000000	61.611080 
7500.000000	61.968326 
7499.000000	62.323474 
7498.000000	62.641429 
7497.000000	62.895727 
7496.000000	63.067054 
7495.000000	63.138866 
7494.000000	63.097000 
7493.000000	62.934827 
7492.000000	62.656140 
7491.000000	62.278580 
7490.000000	61.833381 
7489.000000	61.368727 
7488.000000	60.938239 
7487.000000	60.591554 
7486.000000	60.363197 
7485.000000	60.262441 
7484.000000	60.275483 
7483.000000	60.369729 
7482.000000	60.504651 
7481.000000	60.642194 
7480.000000	60.755562 
7479.000000	60.830473 
7478.000000	60.868287 
7477.000000	60.880374 
7476.000000	60.881590 
7475.000000	60.879302 
7474.000000	60.875797 
7473.000000	60.866737 
7472.000000	60.846757 
7471.000000	60.814189 
7470.000000	60.774946 
7469.000000	60.743594 
7468.000000	60.748839 
7467.000000	60.828447 
7466.000000	61.015415 
7465.000000	61.329889 
7464.000000	61.775684 
7463.000000	62.335395 
7462.000000	62.972235 
7461.000000	63.634037 
7460.000000	64.260983 
7459.000000	64.796137 
7458.000000	65.197658 
7457.000000	65.444588 
7456.000000	65.535306 
7455.000000	65.491461 
7454.000000	65.353178 
7453.000000	65.172529 
7452.000000	65.005493 
7451.000000	64.900279 
7450.000000	64.897370 
7449.000000	65.011048 
7448.000000	65.234923 
7447.000000	65.530633 
7446.000000	65.842914 
7445.000000	66.093778 
7444.000000	66.200661 
7443.000000	66.085958 
7442.000000	65.695929 
7441.000000	65.010666 
7440.000000	64.054179 
7439.000000	62.895226 
7438.000000	61.641621 
7437.000000	60.424041 
7436.000000	59.377694 
7435.000000	58.617544 
7434.000000	58.221626 
7433.000000	58.222198 
7432.000000	58.599829 
7431.000000	59.283590 
7430.000000	60.168552 
7429.000000	61.127829 
7428.000000	62.043642 
7427.000000	62.810087 
7426.000000	63.368010 
7425.000000	63.700556 
7424.000000	63.841962 
7423.000000	63.859724 
7422.000000	63.835859 
7421.000000	63.843917 
7420.000000	63.930726 
7419.000000	64.109563 
7418.000000	64.360451 
7417.000000	64.644312 
7416.000000	64.916968 
7415.000000	65.146565 
7414.000000	65.321922 
7413.000000	65.454530 
7412.000000	65.567898 
7411.000000	65.685796 
7410.000000	65.820097 
7409.000000	65.962457 
7408.000000	66.084313 
7407.000000	66.145062 
7406.000000	66.103386 
7405.000000	65.935277 
7404.000000	65.647816 
7403.000000	65.282821 
7402.000000	64.907217 
7401.000000	64.602112 
7400.000000	64.443445 
7399.000000	64.482855 
7398.000000	64.734458 
7397.000000	65.168380 
7396.000000	65.719270 
7395.000000	66.296648 
7394.000000	66.808724 
7393.000000	67.174959 
7392.000000	67.342853 
7391.000000	67.293024 
7390.000000	67.039203 
7389.000000	66.619539 
7388.000000	66.084718 
7387.000000	65.484786 
7386.000000	64.859151 
7385.000000	64.233660 
7384.000000	63.620281 
7383.000000	63.024640 
7382.000000	62.452077 
7381.000000	61.908125 
7380.000000	61.407756 
7379.000000	60.969257 
7378.000000	60.623288 
7377.000000	60.394382 
7376.000000	60.313963 
7375.000000	60.403609 
7374.000000	60.682964 
7373.000000	61.156511 
7372.000000	61.815619 
7371.000000	62.632989 
7370.000000	63.560175 
7369.000000	64.528679 
7368.000000	65.455746 
7367.000000	66.254138 
7366.000000	66.847681 
7365.000000	67.182159 
7364.000000	67.245388 
7363.000000	67.071151 
7362.000000	66.732192 
7361.000000	66.324687 
7360.000000	65.939188 
7359.000000	65.639233 
7358.000000	65.445566 
7357.000000	65.335583 
7356.000000	65.253424 
7355.000000	65.132641 
7354.000000	64.926433 
7353.000000	64.624190 
7352.000000	64.250707 
7351.000000	63.866090 
7350.000000	63.544535 
7349.000000	63.357996 
7348.000000	63.352608 
7347.000000	63.535594 
7346.000000	63.877654 
7345.000000	64.309096 
7344.000000	64.739108 
7343.000000	65.068817 
7342.000000	65.216541 
7341.000000	65.129995 
7340.000000	64.796185 
7339.000000	64.243173 
7338.000000	63.529276 
7337.000000	62.738227 
7336.000000	61.962819 
7335.000000	61.287784 
7334.000000	60.775947 
7333.000000	60.464143 
7332.000000	60.362577 
7331.000000	60.454058 
7330.000000	60.704350 
7329.000000	61.072206 
7328.000000	61.519837 
7327.000000	62.014818 
7326.000000	62.534713 
7325.000000	63.057231 
7324.000000	63.564443 
7323.000000	64.032125 
7322.000000	64.440107 
7321.000000	64.769840 
7320.000000	65.016031 
7319.000000	65.190839 
7318.000000	65.321969 
7317.000000	65.451550 
7316.000000	65.620303 
7315.000000	65.864324 
7314.000000	66.192507 
7313.000000	66.587376 
7312.000000	66.998434 
7311.000000	67.356872 
7310.000000	67.587137 
7309.000000	67.628645 
7308.000000	67.449498 
7307.000000	67.057895 
7306.000000	66.491460 
7305.000000	65.810084 
7304.000000	65.082955 
7303.000000	64.376473 
7302.000000	63.745355 
7301.000000	63.227581 
7300.000000	62.844443 
7299.000000	62.602519 
7298.000000	62.498903 
7297.000000	62.524652 
7296.000000	62.658786 
7295.000000	62.878012 
7294.000000	63.155031 
7293.000000	63.463568 
7292.000000	63.773345 
7291.000000	64.056324 
7290.000000	64.286422 
7289.000000	64.442372 
7288.000000	64.507222 
7287.000000	64.474463 
7286.000000	64.347553 
7285.000000	64.146327 
7284.000000	63.903617 
7283.000000	63.668179 
7282.000000	63.496971 
7281.000000	63.444995 
7280.000000	63.552594 
7279.000000	63.829421 
7278.000000	64.247488 
7277.000000	64.738225 
7276.000000	65.204715 
7275.000000	65.539789 
7274.000000	65.652370 
7273.000000	65.489721 
7272.000000	65.053606 
7271.000000	64.399147 
7270.000000	63.626432 
7269.000000	62.857174 
7268.000000	62.209749 
7267.000000	61.774158 
7266.000000	61.595511 
7265.000000	61.669826 
7264.000000	61.949825 
7263.000000	62.362313 
7262.000000	62.826538 
7261.000000	63.273048 
7260.000000	63.655591 
7259.000000	63.952374 
7258.000000	64.164876 
7257.000000	64.304256 
7256.000000	64.386034 
7255.000000	64.418888 
7254.000000	64.406204 
7253.000000	64.346551 
7252.000000	64.236426 
7251.000000	64.074158 
7250.000000	63.866734 
7249.000000	63.628315 
7248.000000	63.375020 
7247.000000	63.119983 
7246.000000	62.868833 
7245.000000	62.618613 
7244.000000	62.359738 
7243.000000	62.082004 
7242.000000	61.775374 
7241.000000	61.442136 
7240.000000	61.097669 
7239.000000	60.774302 
7238.000000	60.511708 
7237.000000	60.353899 
7236.000000	60.331988 
7235.000000	60.463452 
7234.000000	60.742926 
7233.000000	61.146235 
7232.000000	61.631679 
7231.000000	62.150287 
7230.000000	62.651443 
7229.000000	63.097262 
7228.000000	63.466811 
7227.000000	63.759565 
7226.000000	63.990521 
7225.000000	64.188957 
7224.000000	64.386892 
7223.000000	64.612984 
7222.000000	64.879441 
7221.000000	65.178632 
7220.000000	65.477728 
7219.000000	65.727496 
7218.000000	65.869498 
7217.000000	65.849804 
7216.000000	65.634346 
7215.000000	65.221810 
7214.000000	64.648890 
7213.000000	63.983345 
7212.000000	63.314867 
7211.000000	62.740612 
7210.000000	62.341308 
7209.000000	62.165880 
7208.000000	62.219142 
7207.000000	62.463712 
7206.000000	62.828302 
7205.000000	63.225889 
7204.000000	63.573718 
7203.000000	63.808894 
7202.000000	63.904404 
7201.000000	63.869714 
7200.000000	63.742327 
7199.000000	63.571333 
7198.000000	63.404226 
7197.000000	63.271999 
7196.000000	63.179516 
7195.000000	63.107180 
7194.000000	63.023233 
7193.000000	62.897706 
7192.000000	62.714147 
7191.000000	62.481379 
7190.000000	62.231802 
7189.000000	62.019681 
7188.000000	61.902403 
7187.000000	61.931228 
7186.000000	62.136697 
7185.000000	62.518382 
7184.000000	63.046073 
7183.000000	63.657927 
7182.000000	64.272761 
7181.000000	64.803647 
7180.000000	65.177464 
7179.000000	65.346050 
7178.000000	65.293169 
7177.000000	65.039634 
7176.000000	64.638304 
7175.000000	64.158821 
7174.000000	63.672780 
7173.000000	63.237333 
7172.000000	62.886381 
7171.000000	62.625002 
7170.000000	62.435102 
7169.000000	62.283110 
7168.000000	62.134814 
7167.000000	61.967635 
7166.000000	61.779117 
7165.000000	61.585211 
7164.000000	61.416149 
7163.000000	61.302328 
7162.000000	61.267161 
7161.000000	61.311841 
7160.000000	61.421155 
7159.000000	61.565279 
7158.000000	61.712765 
7157.000000	61.837911 
7156.000000	61.931252 
7155.000000	61.999821 
7154.000000	62.066507 
7153.000000	62.158870 
7152.000000	62.302875 
7151.000000	62.511539 
7150.000000	62.782359 
7149.000000	63.096666 
7148.000000	63.423705 
7147.000000	63.728380 
7146.000000	63.979029 
7145.000000	64.155125 
7144.000000	64.243125 
7143.000000	64.237475 
7142.000000	64.139890 
7141.000000	63.957905 
7140.000000	63.704037 
7139.000000	63.393831 
7138.000000	63.049483 
7137.000000	62.694025 
7136.000000	62.351465 
7135.000000	62.040758 
7134.000000	61.772441 
7133.000000	61.549830 
7132.000000	61.367893 
7131.000000	61.220765 
7130.000000	61.101961 
7129.000000	61.012959 
7128.000000	60.958051 
7127.000000	60.951423 
7126.000000	61.006164 
7125.000000	61.139702 
7124.000000	61.363554 
7123.000000	61.684489 
7122.000000	62.096238 
7121.000000	62.585926 
7120.000000	63.133239 
7119.000000	63.711333 
7118.000000	64.288187 
7117.000000	64.827060 
7116.000000	65.288615 
7115.000000	65.633249 
7114.000000	65.825462 
7113.000000	65.839862 
7112.000000	65.665602 
7111.000000	65.314769 
7110.000000	64.820361 
7109.000000	64.231038 
7108.000000	63.606929 
7107.000000	63.013577 
7106.000000	62.513947 
7105.000000	62.160515 
7104.000000	61.988973 
7103.000000	62.015914 
7102.000000	62.233853 
7101.000000	62.614440 
7100.000000	63.107347 
7099.000000	63.644671 
7098.000000	64.152169 
7097.000000	64.559197 
7096.000000	64.810514 
7095.000000	64.871740 
7094.000000	64.739441 
7093.000000	64.439392 
7092.000000	64.023041 
7091.000000	63.556909 
7090.000000	63.111782 
7089.000000	62.751102 
7088.000000	62.518978 
7087.000000	62.436795 
7086.000000	62.507820 
7085.000000	62.720608 
7084.000000	63.054251 
7083.000000	63.482236 
7082.000000	63.975977 
7081.000000	64.503049 
7080.000000	65.029573 
7079.000000	65.514850 
7078.000000	65.912270 
7077.000000	66.171216 
7076.000000	66.249895 
7075.000000	66.117238 
7074.000000	65.762829 
7073.000000	65.201711 
7072.000000	64.478063 
7071.000000	63.660669 
7070.000000	62.835741 
7069.000000	62.092566 
7068.000000	61.510014 
7067.000000	61.142492 
7066.000000	61.012625 
7065.000000	61.103892 
7064.000000	61.365962 
7063.000000	61.720681 
7062.000000	62.079834 
7061.000000	62.359166 
7060.000000	62.499642 
7059.000000	62.475967 
7058.000000	62.306404 
7057.000000	62.047886 
7056.000000	61.784219 
7055.000000	61.604404 
7054.000000	61.580586 
7053.000000	61.754965 
7052.000000	62.122821 
7051.000000	62.640023 
7050.000000	63.224244 
7049.000000	63.778781 
7048.000000	64.208459 
7047.000000	64.442634 
7046.000000	64.448165 
7045.000000	64.230155 
7044.000000	63.836121 
7043.000000	63.341593 
7042.000000	62.836527 
7041.000000	62.405419 
7040.000000	62.112808 
7039.000000	61.993503 
7038.000000	62.049937 
7037.000000	62.258768 
7036.000000	62.575697 
7035.000000	62.949728 
7034.000000	63.334512 
7033.000000	63.699817 
7032.000000	64.032173 
7031.000000	64.336967 
7030.000000	64.630746 
7029.000000	64.934182 
7028.000000	65.264463 
7027.000000	65.624642 
7026.000000	66.006803 
7025.000000	66.382861 
7024.000000	66.715788 
7023.000000	66.958332 
7022.000000	67.073774 
7021.000000	67.031860 
7020.000000	66.822147 
7019.000000	66.449236 
7018.000000	65.936756 
7017.000000	65.320014 
7016.000000	64.644837 
7015.000000	63.957405 
7014.000000	63.299989 
7013.000000	62.707757 
7012.000000	62.207770 
7011.000000	61.820840 
7010.000000	61.562490 
7009.000000	61.445856 
7008.000000	61.480975 
7007.000000	61.672782 
7006.000000	62.018275 
7005.000000	62.498617 
7004.000000	63.081645 
7003.000000	63.715958 
7002.000000	64.344859 
7001.000000	64.917993 
7000.000000	65.401530 
6999.000000	65.781068 
6998.000000	66.061973 
6997.000000	66.268873 
6996.000000	66.429615 
6995.000000	66.568565 
6994.000000	66.693568 
6993.000000	66.799306 
6992.000000	66.863536 
6991.000000	66.862154 
6990.000000	66.772341 
6989.000000	66.587138 
6988.000000	66.316199 
6987.000000	65.989041 
6986.000000	65.646910 
6985.000000	65.333867 
6984.000000	65.091896 
6983.000000	64.952039 
6982.000000	64.934682 
6981.000000	65.044903 
6980.000000	65.278291 
6979.000000	65.616321 
6978.000000	66.022348 
6977.000000	66.441822 
6976.000000	66.804289 
6975.000000	67.035579 
6974.000000	67.071676 
6973.000000	66.874289 
6972.000000	66.440415 
6971.000000	65.806865 
6970.000000	65.047669 
6969.000000	64.257884 
6968.000000	63.533830 
6967.000000	62.955045 
6966.000000	62.574505 
6965.000000	62.404727 
6964.000000	62.421488 
6963.000000	62.569737 
6962.000000	62.779617 
6961.000000	62.981891 
6960.000000	63.120675 
6959.000000	63.166284 
6958.000000	63.114809 
6957.000000	62.990283 
6956.000000	62.832641 
6955.000000	62.690973 
6954.000000	62.608647 
6953.000000	62.618923 
6952.000000	62.735223 
6951.000000	62.947034 
6950.000000	63.221597 
6949.000000	63.512325 
6948.000000	63.768506 
6947.000000	63.947868 
6946.000000	64.023828 
6945.000000	63.992094 
6944.000000	63.866209 
6943.000000	63.671898 
6942.000000	63.437318 
6941.000000	63.186192 
6940.000000	62.932538 
6939.000000	62.679672 
6938.000000	62.425565 
6937.000000	62.170767 
6936.000000	61.922144 
6935.000000	61.694574 
6934.000000	61.512494 
6933.000000	61.403894 
6932.000000	61.395192 
6931.000000	61.501789 
6930.000000	61.724615 
6929.000000	62.046241 
6928.000000	62.438058 
6927.000000	62.864804 
6926.000000	63.291096 
6925.000000	63.686704 
6924.000000	64.030241 
6923.000000	64.310622 
6922.000000	64.524555 
6921.000000	64.675378 
6920.000000	64.771103 
6919.000000	64.821672 
6918.000000	64.840769 
6917.000000	64.839935 
6916.000000	64.833450 
6915.000000	64.829087 
6914.000000	64.832377 
6913.000000	64.839744 
6912.000000	64.842176 
6911.000000	64.825677 
6910.000000	64.777135 
6909.000000	64.687800 
6908.000000	64.556503 
6907.000000	64.392614 
6906.000000	64.216232 
6905.000000	64.050722 
6904.000000	63.917040 
6903.000000	63.827085 
6902.000000	63.780689 
6901.000000	63.763737 
6900.000000	63.752746 
6899.000000	63.722062 
6898.000000	63.652205 
6897.000000	63.536882 
6896.000000	63.385176 
6895.000000	63.218212 
6894.000000	63.062763 
6893.000000	62.943530 
6892.000000	62.875223 
6891.000000	62.855744 
6890.000000	62.868952 
6889.000000	62.889337 
6888.000000	62.891554 
6887.000000	62.858605 
6886.000000	62.788105 
6885.000000	62.691712 
6884.000000	62.594175 
6883.000000	62.523651 
6882.000000	62.506294 
6881.000000	62.556624 
6880.000000	62.676167 
6879.000000	62.851285 
6878.000000	63.060593 
6877.000000	63.281130 
6876.000000	63.493967 
6875.000000	63.688254 
6874.000000	63.862395 
6873.000000	64.021968 
6872.000000	64.174580 
6871.000000	64.324903 
6870.000000	64.472484 
6869.000000	64.610147 
6868.000000	64.726710 
6867.000000	64.809823 
6866.000000	64.851140 
6865.000000	64.849615 
6864.000000	64.813971 
6863.000000	64.761734 
6862.000000	64.715147 
6861.000000	64.696955 
6860.000000	64.727401 
6859.000000	64.816284 
6858.000000	64.962625 
6857.000000	65.149760 
6856.000000	65.351986 
6855.000000	65.533733 
6854.000000	65.659093 
6853.000000	65.695428 
6852.000000	65.621662 
6851.000000	65.430617 
6850.000000	65.131044 
6849.000000	64.746546 
6848.000000	64.311385 
6847.000000	63.864398 
6846.000000	63.442349 
6845.000000	63.072085 
6844.000000	62.767887 
6843.000000	62.530708 
6842.000000	62.352943 
6841.000000	62.219357 
6840.000000	62.117743 
6839.000000	62.043070 
6838.000000	62.002635 
6837.000000	62.008857 
6836.000000	62.078452 
6835.000000	62.223339 
6834.000000	62.445378 
6833.000000	62.728476 
6832.000000	63.042736 
6831.000000	63.347315 
6830.000000	63.601803 
6829.000000	63.775110 
6828.000000	63.853311 
6827.000000	63.842034 
6826.000000	63.765621 
6825.000000	63.661408 
6824.000000	63.567018 
6823.000000	63.510537 
6822.000000	63.503932 
6821.000000	63.541507 
6820.000000	63.603019 
6819.000000	63.660717 
6818.000000	63.689064 
6817.000000	63.671183 
6816.000000	63.601374 
6815.000000	63.484573 
6814.000000	63.333511 
6813.000000	63.163113 
6812.000000	62.983846 
6811.000000	62.800121 
6810.000000	62.611246 
6809.000000	62.414169 
6808.000000	62.206435 
6807.000000	61.992359 
6806.000000	61.781716 
6805.000000	61.595177 
6804.000000	61.458063 
6803.000000	61.399984 
6802.000000	61.442923 
6801.000000	61.602020 
6800.000000	61.879110 
6799.000000	62.261605 
6798.000000	62.722253 
6797.000000	63.220787 
6796.000000	63.709187 
6795.000000	64.137101 
6794.000000	64.459800 
6793.000000	64.642834 
6792.000000	64.667582 
6791.000000	64.536404 
6790.000000	64.272379 
6789.000000	63.915729 
6788.000000	63.516902 
6787.000000	63.130879 
6786.000000	62.805938 
6785.000000	62.579488 
6784.000000	62.468671 
6783.000000	62.472248 
6782.000000	62.568712 
6781.000000	62.722969 
6780.000000	62.893271 
6779.000000	63.037538 
6778.000000	63.124656 
6777.000000	63.135528 
6776.000000	63.071441 
6775.000000	62.946605 
6774.000000	62.791299 
6773.000000	62.641620 
6772.000000	62.535405 
6771.000000	62.502503 
6770.000000	62.562131 
6769.000000	62.719917 
6768.000000	62.966346 
6767.000000	63.279032 
6766.000000	63.627958 
6765.000000	63.980650 
6764.000000	64.305734 
6763.000000	64.577102 
6762.000000	64.776444 
6761.000000	64.893770 
6760.000000	64.928460 
6759.000000	64.885878 
6758.000000	64.775896 
6757.000000	64.609241 
6756.000000	64.401698 
6755.000000	64.167785 
6754.000000	63.922357 
6753.000000	63.677072 
6752.000000	63.445162 
6751.000000	63.235425 
6750.000000	63.054132 
6749.000000	62.902116 
6748.000000	62.775754 
6747.000000	62.667632 
6746.000000	62.568235 
6745.000000	62.467908 
6744.000000	62.357044 
6743.000000	62.231922 
6742.000000	62.094974 
6741.000000	61.955595 
6740.000000	61.827516 
6739.000000	61.728453 
6738.000000	61.676263 
6737.000000	61.685705 
6736.000000	61.765360 
6735.000000	61.916995 
6734.000000	62.134480 
6733.000000	62.403917 
6732.000000	62.705516 
6731.000000	63.014888 
6730.000000	63.307857 
6729.000000	63.562560 
6728.000000	63.764286 
6727.000000	63.905835 
6726.000000	63.989233 
6725.000000	64.027333 
6724.000000	64.035916 
6723.000000	64.031720 
6722.000000	64.024090 
6721.000000	64.018344 
6720.000000	64.006900 
6719.000000	63.974285 
6718.000000	63.899445 
6717.000000	63.765096 
6716.000000	63.562202 
6715.000000	63.295865 
6714.000000	62.985873 
6713.000000	62.664294 
6712.000000	62.370014 
6711.000000	62.141251 
6710.000000	62.006735 
6709.000000	61.981272 
6708.000000	62.064981 
6707.000000	62.245321 
6706.000000	62.499499 
6705.000000	62.801265 
6704.000000	63.125514 
6703.000000	63.453006 
6702.000000	63.766551 
6701.000000	64.055490 
6700.000000	64.313006 
6699.000000	64.536523 
6698.000000	64.724183 
6697.000000	64.875650 
6696.000000	64.994621 
6695.000000	65.084242 
6694.000000	65.151548 
6693.000000	65.199160 
6692.000000	65.228724 
6691.000000	65.234947 
6690.000000	65.209698 
6689.000000	65.142059 
6688.000000	65.023899 
6687.000000	64.852547 
6686.000000	64.634156 
6685.000000	64.382529 
6684.000000	64.116978 
6683.000000	63.859701 
6682.000000	63.630843 
6681.000000	63.442182 
6680.000000	63.294982 
6679.000000	63.182139 
6678.000000	63.089656 
6677.000000	62.998461 
6676.000000	62.891817 
6675.000000	62.757682 
6674.000000	62.595224 
6673.000000	62.413334 
6672.000000	62.231612 
6671.000000	62.072587 
6670.000000	61.958169 
6669.000000	61.904168 
6668.000000	61.913871 
6667.000000	61.977314 
6666.000000	62.070536 
6665.000000	62.161350 
6664.000000	62.215280 
6663.000000	62.202692 
6662.000000	62.108469 
6661.000000	61.935329 
6660.000000	61.705517 
6659.000000	61.455821 
6658.000000	61.232948 
6657.000000	61.083555 
6656.000000	61.045312 
6655.000000	61.139392 
6654.000000	61.366415 
6653.000000	61.707210 
6652.000000	62.128186 
6651.000000	62.588524 
6650.000000	63.045930 
6649.000000	63.465428 
6648.000000	63.823151 
6647.000000	64.109182 
6646.000000	64.323520 
6645.000000	64.475083 
6644.000000	64.577531 
6643.000000	64.644622 
6642.000000	64.689779 
6641.000000	64.720654 
6640.000000	64.745569 
6639.000000	64.764523 
6638.000000	64.775156 
6637.000000	64.767789 
6636.000000	64.731669 
6635.000000	64.653587 
6634.000000	64.523553 
6633.000000	64.336276 
6632.000000	64.094710 
6631.000000	63.812255 
6630.000000	63.512372 
6629.000000	63.225221 
6628.000000	62.983012 
6627.000000	62.814760 
6626.000000	62.740564 
6625.000000	62.767338 
6624.000000	62.887358 
6623.000000	63.078212 
6622.000000	63.308668 
6621.000000	63.542103 
6620.000000	63.746809 
6619.000000	63.901114 
6618.000000	63.997697 
6617.000000	64.040613 
6616.000000	64.043831 
6615.000000	64.026355 
6614.000000	64.004993 
6613.000000	63.990879 
6612.000000	63.984680 
6611.000000	63.978791 
6610.000000	63.958883 
6609.000000	63.911676 
6608.000000	63.826417 
6607.000000	63.700199 
6606.000000	63.537693 
6605.000000	63.351273 
6604.000000	63.156509 
6603.000000	62.969326 
6602.000000	62.802577 
6601.000000	62.665653 
6600.000000	62.566375 
6599.000000	62.511706 
6598.000000	62.508535 
6597.000000	62.562322 
6596.000000	62.673330 
6595.000000	62.836074 
6594.000000	63.036108 
6593.000000	63.254141 
6592.000000	63.466024 
6591.000000	63.651156 
6590.000000	63.794326 
6589.000000	63.891649 
6588.000000	63.951206 
6587.000000	63.990068 
6586.000000	64.028525 
6585.000000	64.084982 
6584.000000	64.171385 
6583.000000	64.289450 
6582.000000	64.431786 
6581.000000	64.582610 
6580.000000	64.723205 
6579.000000	64.834713 
6578.000000	64.903354 
6577.000000	64.917397 
6576.000000	64.869284 
6575.000000	64.753794 
6574.000000	64.570665 
6573.000000	64.325761 
6572.000000	64.034223 
6571.000000	63.722252 
6570.000000	63.424968 
6569.000000	63.182711 
6568.000000	63.032436 
6567.000000	63.000416 
6566.000000	63.093852 
6565.000000	63.299036 
6564.000000	63.580727 
6563.000000	63.887500 
6562.000000	64.163208 
6561.000000	64.357328 
6560.000000	64.437341 
6559.000000	64.392089 
6558.000000	64.237213 
6557.000000	64.008879 
6556.000000	63.756299 
6555.000000	63.529109 
6554.000000	63.367724 
6553.000000	63.295650 
6552.000000	63.315796 
6551.000000	63.413238 
6550.000000	63.558173 
6549.000000	63.715052 
6548.000000	63.849949 
6547.000000	63.938546 
6546.000000	63.969612 
6545.000000	63.946175 
6544.000000	63.882184 
6543.000000	63.797259 
6542.000000	63.709115 
6541.000000	63.629531 
6540.000000	63.562870 
6539.000000	63.505887 
6538.000000	63.451600 
6537.000000	63.392233 
6536.000000	63.325548 
6535.000000	63.253903 
6534.000000	63.184928 
6533.000000	63.128685 
6532.000000	63.092017 
6531.000000	63.079285 
6530.000000	63.089537 
6529.000000	63.118553 
6528.000000	63.158416 
6527.000000	63.203406 
6526.000000	63.251447 
6525.000000	63.305568 
6524.000000	63.372468 
6523.000000	63.459348 
6522.000000	63.570380 
6521.000000	63.704347 
6520.000000	63.853478 
6519.000000	64.004540 
6518.000000	64.141511 
6517.000000	64.250969 
6516.000000	64.324331 
6515.000000	64.360046 
6514.000000	64.362692 
6513.000000	64.342665 
6512.000000	64.310932 
6511.000000	64.276599 
6510.000000	64.242887 
6509.000000	64.208674 
6508.000000	64.167451 
6507.000000	64.111971 
6506.000000	64.035630 
6505.000000	63.936185 
6504.000000	63.816785 
6503.000000	63.686966 
6502.000000	63.559222 
6501.000000	63.446235 
6500.000000	63.357234 
6499.000000	63.295555 
6498.000000	63.258290 
6497.000000	63.237476 
6496.000000	63.223814 
6495.000000	63.210487 
6494.000000	63.195824 
6493.000000	63.185667 
6492.000000	63.192582 
6491.000000	63.233542 
6490.000000	63.324570 
6489.000000	63.475847 
6488.000000	63.688755 
6487.000000	63.951921 
6486.000000	64.243626 
6485.000000	64.531850 
6484.000000	64.782381 
6483.000000	64.961433 
6482.000000	65.044283 
6481.000000	65.017223 
6480.000000	64.880585 
6479.000000	64.648318 
6478.000000	64.346766 
6477.000000	64.009118 
6476.000000	63.670349 
6475.000000	63.362646 
6474.000000	63.112902 
6473.000000	62.938094 
6472.000000	62.845325 
6471.000000	62.831950 
6470.000000	62.887716 
6469.000000	62.997007 
6468.000000	63.141751 
6467.000000	63.303089 
6466.000000	63.464093 
6465.000000	63.611721 
6464.000000	63.738131 
6463.000000	63.838505 
6462.000000	63.911485 
6461.000000	63.959097 
6460.000000	63.984727 
6459.000000	63.991928 
6458.000000	63.983583 
6457.000000	63.962531 
6456.000000	63.931727 
6455.000000	63.894462 
6454.000000	63.855814 
6453.000000	63.822889 
6452.000000	63.804626 
6451.000000	63.810014 
6450.000000	63.846945 
6449.000000	63.920140 
6448.000000	64.029264 
6447.000000	64.168643 
6446.000000	64.326214 
6445.000000	64.484834 
6444.000000	64.625859 
6443.000000	64.732336 
6442.000000	64.790010 
6441.000000	64.789009 
6440.000000	64.726138 
6439.000000	64.604330 
6438.000000	64.430713 
6437.000000	64.215278 
6436.000000	63.969445 
6435.000000	63.705396 
6434.000000	63.436317 
6433.000000	63.176703 
6432.000000	62.940883 
6431.000000	62.744045 
6430.000000	62.600541 
6429.000000	62.522792 
6428.000000	62.517213 
6427.000000	62.583661 
6426.000000	62.712454 
6425.000000	62.886643 
6424.000000	63.082170 
6423.000000	63.273811 
6422.000000	63.437533 
6421.000000	63.556814 
6420.000000	63.623738 
6419.000000	63.641643 
6418.000000	63.622736 
6417.000000	63.585996 
6416.000000	63.551759 
6415.000000	63.538551 
6414.000000	63.558793 
6413.000000	63.616967 
6412.000000	63.708615 
6411.000000	63.821744 
6410.000000	63.938975 
6409.000000	64.041662 
6408.000000	64.113283 
6407.000000	64.141368 
6406.000000	64.121055 
6405.000000	64.055347 
6404.000000	63.956141 
6403.000000	63.841319 
6402.000000	63.732242 
6401.000000	63.650560 
6400.000000	63.613200 
6399.000000	63.629794 
6398.000000	63.699889 
6397.000000	63.813972 
6396.000000	63.954591 
6395.000000	64.100766 
6394.000000	64.231705 
6393.000000	64.330935 
6392.000000	64.388775 
6391.000000	64.403247 
6390.000000	64.379096 
6389.000000	64.325499 
6388.000000	64.254522 
6387.000000	64.178419 
6386.000000	64.108324 
6385.000000	64.052796 
6384.000000	64.018654 
6383.000000	64.009761 
6382.000000	64.027786 
6381.000000	64.070248 
6380.000000	64.131522 
6379.000000	64.201450 
6378.000000	64.265441 
6377.000000	64.306664 
6376.000000	64.309215 
6375.000000	64.261794 
6374.000000	64.159011 
6373.000000	64.005422 
6372.000000	63.814711 
6371.000000	63.609242 
6370.000000	63.415575 
6369.000000	63.260626 
6368.000000	63.165378 
6367.000000	63.142514 
6366.000000	63.194727 
6365.000000	63.313579 
6364.000000	63.481330 
6363.000000	63.674259 
6362.000000	63.867044 
6361.000000	64.035940 
6360.000000	64.162135 
6359.000000	64.233303 
6358.000000	64.244222 
6357.000000	64.196991 
6356.000000	64.098882 
6355.000000	63.961815 
6354.000000	63.798618 
6353.000000	63.623976 
6352.000000	63.449311 
6351.000000	63.283944 
6350.000000	63.131523 
6349.000000	62.991499 
6348.000000	62.860655 
6347.000000	62.732744 
6346.000000	62.606573 
6345.000000	62.485241 
6344.000000	62.381577 
6343.000000	62.313222 
6342.000000	62.302494 
6341.000000	62.367510 
6340.000000	62.519812 
6339.000000	62.758135 
6338.000000	63.068127 
6337.000000	63.422632 
6336.000000	63.787269 
6335.000000	64.125943 
6334.000000	64.406800 
6333.000000	64.606642 
6332.000000	64.713358 
6331.000000	64.725518 
6330.000000	64.650702 
6329.000000	64.501571 
6328.000000	64.294624 
6327.000000	64.045977 
6326.000000	63.771963 
6325.000000	63.486456 
6324.000000	63.205146 
6323.000000	62.942123 
6322.000000	62.708616 
6321.000000	62.513971 
6320.000000	62.364435 
6319.000000	62.265443 
6318.000000	62.217926 
6317.000000	62.223005 
6316.000000	62.279486 
6315.000000	62.385535 
6314.000000	62.536478 
6313.000000	62.723684 
6312.000000	62.932348 
6311.000000	63.143539 
6310.000000	63.335609 
6309.000000	63.487195 
6308.000000	63.580322 
6307.000000	63.606691 
6306.000000	63.569831 
6305.000000	63.484144 
6304.000000	63.372135 
6303.000000	63.260769 
6302.000000	63.176250 
6301.000000	63.136792 
6300.000000	63.151597 
6299.000000	63.220572 
6298.000000	63.337612 
6297.000000	63.493967 
6296.000000	63.681817 
6295.000000	63.895654 
6294.000000	64.131808 
6293.000000	64.388561 
6292.000000	64.659762 
6291.000000	64.932513 
6290.000000	65.185236 
6289.000000	65.392732 
6288.000000	65.526604 
6287.000000	65.563106 
6286.000000	65.487575 
6285.000000	65.301895 
6284.000000	65.022110 
6283.000000	64.678025 
6282.000000	64.306044 
6281.000000	63.943290 
6280.000000	63.620758 
6279.000000	63.359236 
6278.000000	63.166165 
6277.000000	63.036751 
6276.000000	62.957763 
6275.000000	62.912964 
6274.000000	62.885046 
6273.000000	62.862133 
6272.000000	62.837243 
6271.000000	62.812352 
6270.000000	62.791681 
6269.000000	62.784719 
6268.000000	62.798953 
6267.000000	62.841868 
6266.000000	62.916398 
6265.000000	63.023185 
6264.000000	63.160085 
6263.000000	63.322377 
6262.000000	63.503289 
6261.000000	63.693833 
6260.000000	63.884043 
6259.000000	64.062428 
6258.000000	64.216947 
6257.000000	64.336729 
6256.000000	64.414024 
6255.000000	64.444589 
6254.000000	64.428853 
6253.000000	64.371037 
6252.000000	64.278697 
6251.000000	64.161419 
6250.000000	64.029765 
6249.000000	63.892006 
6248.000000	63.754415 
6247.000000	63.622975 
6246.000000	63.504314 
6245.000000	63.405299 
6244.000000	63.333988 
6243.000000	63.298439 
6242.000000	63.305926 
6241.000000	63.360309 
6240.000000	63.461422 
6239.000000	63.601207 
6238.000000	63.767337 
6237.000000	63.944578 
6236.000000	64.117097 
6235.000000	64.271092 
6234.000000	64.395332 
6233.000000	64.483094 
6232.000000	64.529466 
6231.000000	64.532113 
6230.000000	64.488577 
6229.000000	64.397239 
6228.000000	64.257502 
6227.000000	64.072179 
6226.000000	63.849425 
6225.000000	63.604283 
6224.000000	63.358473 
6223.000000	63.138222 
6222.000000	62.969589 
6221.000000	62.873196 
6220.000000	62.860059 
6219.000000	62.927579 
6218.000000	63.059473 
6217.000000	63.227367 
6216.000000	63.396382 
6215.000000	63.531208 
6214.000000	63.600945 
6213.000000	63.587284 
6212.000000	63.484883 
6211.000000	63.305640 
6210.000000	63.073849 
6209.000000	62.823867 
6208.000000	62.592124 
6207.000000	62.411308 
6206.000000	62.304830 
6205.000000	62.282299 
6204.000000	62.339472 
6203.000000	62.459921 
6202.000000	62.620019 
6201.000000	62.794208 
6200.000000	62.960171 
6199.000000	63.103866 
6198.000000	63.220286 
6197.000000	63.312840 
6196.000000	63.389515 
6195.000000	63.457155 
6194.000000	63.518142 
6193.000000	63.569903 
6192.000000	63.605427 
6191.000000	63.616895 
6190.000000	63.598442 
6189.000000	63.552784 
6188.000000	63.488602 
6187.000000	63.419318 
6186.000000	63.359022 
6185.000000	63.318252 
6184.000000	63.302206 
6183.000000	63.308954 
6182.000000	63.331723 
6181.000000	63.361287 
6180.000000	63.389754 
6179.000000	63.413786 
6178.000000	63.434481 
6177.000000	63.456630 
6176.000000	63.485765 
6175.000000	63.525414 
6174.000000	63.574862 
6173.000000	63.628172 
6172.000000	63.677287 
6171.000000	63.714361 
6170.000000	63.734960 
6169.000000	63.739442 
6168.000000	63.733506 
6167.000000	63.726830 
6166.000000	63.728547 
6165.000000	63.746094 
6164.000000	63.783407 
6163.000000	63.840913 
6162.000000	63.915967 
6161.000000	64.003920 
6160.000000	64.100408 
6159.000000	64.200496 
6158.000000	64.300465 
6157.000000	64.395046 
6156.000000	64.478874 
6155.000000	64.543342 
6154.000000	64.579248 
6153.000000	64.575004 
6152.000000	64.520215 
6151.000000	64.407467 
6150.000000	64.236187 
6149.000000	64.013385 
6148.000000	63.754296 
6147.000000	63.480806 
6146.000000	63.218498 
6145.000000	62.992501 
6144.000000	62.823343 
6143.000000	62.723040 
6142.000000	62.693238 
6141.000000	62.724709 
6140.000000	62.800288 
6139.000000	62.897372 
6138.000000	62.993979 
6137.000000	63.072276 
6136.000000	63.122344 
6135.000000	63.142347 
6134.000000	63.137531 
6133.000000	63.115715 
6132.000000	63.085389 
6131.000000	63.051223 
6130.000000	63.015079 
6129.000000	62.976670 
6128.000000	62.935113 
6127.000000	62.891483 
6126.000000	62.849521 
6125.000000	62.816405 
6124.000000	62.800693 
6123.000000	62.810015 
6122.000000	62.848567 
6121.000000	62.915015 
6120.000000	63.002252 
6119.000000	63.098573 
6118.000000	63.189744 
6117.000000	63.262271 
6116.000000	63.307094 
6115.000000	63.322162 
6114.000000	63.311624 
6113.000000	63.285565 
6112.000000	63.258647 
6111.000000	63.246369 
6110.000000	63.262033 
6109.000000	63.312220 
6108.000000	63.397550 
6107.000000	63.509106 
6106.000000	63.631296 
6105.000000	63.743305 
6104.000000	63.823246 
6103.000000	63.853716 
6102.000000	63.825511 
6101.000000	63.740777 
6100.000000	63.612914 
6099.000000	63.463640 
6098.000000	63.318395 
6097.000000	63.200020 
6096.000000	63.124155 
6095.000000	63.095593 
6094.000000	63.108587 
6093.000000	63.148760 
6092.000000	63.198041 
6091.000000	63.240361 
6090.000000	63.266539 
6089.000000	63.275957 
6088.000000	63.276553 
6087.000000	63.281774 
6086.000000	63.306474 
6085.000000	63.361597 
6084.000000	63.450646 
6083.000000	63.568544 
6082.000000	63.701939 
6081.000000	63.834333 
6080.000000	63.948082 
6079.000000	64.028882 
6078.000000	64.067912 
6077.000000	64.064359 
6076.000000	64.024162 
6075.000000	63.958072 
6074.000000	63.879036 
6073.000000	63.798952 
6072.000000	63.726496 
6071.000000	63.667511 
6070.000000	63.622736 
6069.000000	63.589668 
6068.000000	63.562583 
6067.000000	63.535332 
6066.000000	63.502073 
6065.000000	63.459157 
6064.000000	63.406491 
6063.000000	63.348007 
6062.000000	63.290500 
6061.000000	63.242888 
6060.000000	63.214802 
6059.000000	63.215446 
6058.000000	63.250732 
6057.000000	63.323569 
6056.000000	63.433051 
6055.000000	63.575172 
6054.000000	63.744044 
6053.000000	63.931417 
6052.000000	64.127945 
6051.000000	64.321279 
6050.000000	64.498805 
6049.000000	64.645171 
6048.000000	64.744949 
6047.000000	64.783287 
6046.000000	64.749884 
6045.000000	64.641380 
6044.000000	64.464902 
6043.000000	64.236617 
6042.000000	63.981556 
6041.000000	63.726520 
6040.000000	63.496279 
6039.000000	63.306808 
6038.000000	63.163685 
6037.000000	63.061428 
6036.000000	62.987494 
6035.000000	62.926530 
6034.000000	62.866568 
6033.000000	62.803006 
6032.000000	62.741589 
6031.000000	62.695121 
6030.000000	62.681555 
6029.000000	62.716245 
6028.000000	62.809205 
6027.000000	62.960267 
6026.000000	63.159275 
6025.000000	63.388061 
6024.000000	63.623166 
6023.000000	63.842082 
6022.000000	64.024543 
6021.000000	64.156627 
6020.000000	64.230132 
6019.000000	64.242720 
6018.000000	64.197015 
6017.000000	64.100456 
6016.000000	63.963580 
6015.000000	63.800239 
6014.000000	63.624548 
6013.000000	63.450717 
6012.000000	63.290166 
6011.000000	63.151478 
6010.000000	63.038659 
6009.000000	62.951922 
6008.000000	62.888598 
6007.000000	62.845730 
6006.000000	62.820696 
6005.000000	62.814211 
6004.000000	62.829828 
6003.000000	62.874436 
6002.000000	62.954878 
6001.000000	63.076496 
6000.000000	63.238954 
5999.000000	63.435649 
5998.000000	63.652729 
5997.000000	63.871026 
5996.000000	64.069175 
5995.000000	64.227914 
5994.000000	64.334440 
5993.000000	64.383888 
5992.000000	64.380717 
5991.000000	64.335894 
5990.000000	64.265966 
5989.000000	64.185738 
5988.000000	64.106512 
5987.000000	64.031457 
5986.000000	63.957095 
5985.000000	63.874197 
5984.000000	63.772869 
5983.000000	63.646101 
5982.000000	63.494181 
5981.000000	63.326454 
5980.000000	63.161182 
5979.000000	63.021039 
5978.000000	62.928676 
5977.000000	62.901163 
5976.000000	62.945866 
5975.000000	63.057613 
5974.000000	63.219952 
5973.000000	63.408374 
5972.000000	63.595676 
5971.000000	63.757395 
5970.000000	63.876175 
5969.000000	63.943624 
5968.000000	63.960838 
5967.000000	63.936614 
5966.000000	63.883328 
5965.000000	63.813281 
5964.000000	63.735079 
5963.000000	63.653516 
5962.000000	63.568449 
5961.000000	63.478088 
5960.000000	63.379859 
5959.000000	63.274002 
5958.000000	63.163638 
5957.000000	63.055753 
5956.000000	62.959313 
5955.000000	62.883901 
5954.000000	62.837505 
5953.000000	62.825322 
5952.000000	62.849593 
5951.000000	62.909603 
5950.000000	63.002514 
5949.000000	63.123703 
5948.000000	63.266539 
5947.000000	63.422369 
5946.000000	63.580679 
5945.000000	63.729429 
5944.000000	63.855361 
5943.000000	63.946819 
5942.000000	63.995265 
5941.000000	63.998579 
5940.000000	63.962411 
5939.000000	63.899326 
5938.000000	63.827681 
5937.000000	63.766217 
5936.000000	63.731622 
5935.000000	63.732123 
5934.000000	63.767051 
5933.000000	63.824987 
5932.000000	63.887786 
5931.000000	63.934302 
5930.000000	63.946461 
5929.000000	63.913655 
5928.000000	63.835692 
5927.000000	63.722467 
5926.000000	63.591670 
5925.000000	63.464617 
5924.000000	63.361287 
5923.000000	63.295674 
5922.000000	63.273644 
5921.000000	63.292694 
5920.000000	63.344216 
5919.000000	63.415765 
5918.000000	63.495516 
5917.000000	63.575053 
5916.000000	63.650512 
5915.000000	63.721370 
5914.000000	63.788986 
5913.000000	63.854050 
5912.000000	63.914513 
5911.000000	63.965082 
5910.000000	63.997507 
5909.000000	64.003252 
5908.000000	63.974928 
5907.000000	63.910341 
5906.000000	63.811516 
5905.000000	63.685488 
5904.000000	63.542270 
5903.000000	63.393759 
5902.000000	63.250422 
5901.000000	63.119554 
5900.000000	63.005137 
5899.000000	62.907981 
5898.000000	62.826013 
5897.000000	62.755799 
5896.000000	62.693858 
5895.000000	62.638020 
5894.000000	62.586188 
5893.000000	62.538719 
5892.000000	62.495732 
5891.000000	62.459969 
5890.000000	62.434840 
5889.000000	62.425637 
5888.000000	62.437272 
5887.000000	62.473869 
5886.000000	62.537002 
5885.000000	62.624764 
5884.000000	62.731027 
5883.000000	62.846446 
5882.000000	62.959313 
5881.000000	63.058733 
5880.000000	63.136124 
5879.000000	63.187789 
5878.000000	63.215184 
5877.000000	63.224935 
5876.000000	63.227033 
5875.000000	63.233137 
5874.000000	63.253808 
5873.000000	63.297128 
5872.000000	63.366627 
5871.000000	63.461112 
5870.000000	63.573813 
5869.000000	63.695073 
5868.000000	63.812279 
5867.000000	63.911128 
5866.000000	63.978004 
5865.000000	64.002108 
5864.000000	63.978815 
5863.000000	63.910484 
5862.000000	63.808202 
5861.000000	63.690447 
5860.000000	63.580131 
5859.000000	63.500738 
5858.000000	63.470458 
5857.000000	63.498830 
5856.000000	63.583493 
5855.000000	63.712048 
5854.000000	63.862705 
5853.000000	64.009547 
5852.000000	64.127755 
5851.000000	64.199185 
5850.000000	64.214849 
5849.000000	64.175963 
5848.000000	64.092874 
5847.000000	63.981699 
5846.000000	63.860702 
5845.000000	63.746166 
5844.000000	63.650393 
5843.000000	63.580179 
5842.000000	63.538050 
5841.000000	63.522815 
5840.000000	63.531470 
5839.000000	63.560342 
5838.000000	63.605737 
5837.000000	63.664293 
5836.000000	63.732266 
5835.000000	63.804841 
5834.000000	63.875722 
5833.000000	63.936638 
5832.000000	63.978552 
5831.000000	63.992094 
5830.000000	63.969516 
5829.000000	63.906693 
5828.000000	63.804864 
5827.000000	63.671231 
5826.000000	63.518381 
5825.000000	63.363432 
5824.000000	63.225364 
5823.000000	63.121604 
5822.000000	63.064765 
5821.000000	63.061046 
5820.000000	63.109254 
5819.000000	63.200354 
5818.000000	63.320016 
5817.000000	63.450694 
5816.000000	63.576412 
5815.000000	63.685107 
5814.000000	63.771986 
5813.000000	63.838744 
5812.000000	63.892817 
5811.000000	63.945198 
5810.000000	64.005470 
5809.000000	64.079380 
5808.000000	64.164566 
5807.000000	64.252638 
5806.000000	64.328193 
5805.000000	64.374947 
5804.000000	64.377403 
5803.000000	64.327168 
5802.000000	64.223384 
5801.000000	64.074778 
5800.000000	63.896536 
5799.000000	63.707828 
5798.000000	63.526988 
5797.000000	63.368034 
5796.000000	63.239121 
5795.000000	63.142538 
5794.000000	63.076877 
5793.000000	63.039422 
5792.000000	63.028860 
5791.000000	63.046288 
5790.000000	63.094329 
5789.000000	63.175892 
5788.000000	63.290047 
5787.000000	63.431167 
5786.000000	63.588738 
5785.000000	63.748049 
5784.000000	63.892197 
5783.000000	64.004898 
5782.000000	64.074754 
5781.000000	64.095878 
5780.000000	64.069509 
5779.000000	64.002966 
5778.000000	63.908386 
5777.000000	63.799977 
5776.000000	63.691973 
5775.000000	63.595914 
5774.000000	63.519930 
5773.000000	63.468027 
5772.000000	63.441467 
5771.000000	63.438034 
5770.000000	63.453245 
5769.000000	63.481521 
5768.000000	63.517236 
5767.000000	63.554358 
5766.000000	63.586950 
5765.000000	63.609766 
5764.000000	63.618588 
5763.000000	63.610148 
5762.000000	63.582444 
5761.000000	63.534736 
5760.000000	63.468194 
5759.000000	63.387227 
5758.000000	63.298201 
5757.000000	63.209033 
5756.000000	63.127183 
5755.000000	63.058710 
5754.000000	63.006806 
5753.000000	62.970519 
5752.000000	62.946844 
5751.000000	62.931203 
5750.000000	62.921094 
5749.000000	62.915635 
5748.000000	62.918138 
5747.000000	62.933945 
5746.000000	62.970495 
5745.000000	63.034009 
5744.000000	63.127636 
5743.000000	63.248896 
5742.000000	63.389921 
5741.000000	63.537859 
5740.000000	63.676714 
5739.000000	63.790035 
5738.000000	63.863492 
5737.000000	63.887453 
5736.000000	63.858127 
5735.000000	63.777780 
5734.000000	63.654017 
5733.000000	63.498115 
5732.000000	63.324403 
5731.000000	63.147926 
5730.000000	62.983036 
5729.000000	62.841796 
5728.000000	62.732982 
5727.000000	62.662029 
5726.000000	62.630319 
5725.000000	62.636971 
5724.000000	62.677907 
5723.000000	62.748527 
5722.000000	62.842917 
5721.000000	62.955355 
5720.000000	63.078808 
5719.000000	63.206005 
5718.000000	63.328576 
5717.000000	63.438034 
5716.000000	63.526129 
5715.000000	63.586282 
5714.000000	63.614559 
5713.000000	63.609790 
5712.000000	63.573455 
5711.000000	63.510012 
5710.000000	63.425254 
5709.000000	63.324785 
5708.000000	63.212728 
5707.000000	63.091897 
5706.000000	62.964200 
5705.000000	62.830710 
5704.000000	62.693929 
5703.000000	62.558317 
5702.000000	62.431979 
5701.000000	62.324810 
5700.000000	62.248277 
5699.000000	62.211799 
5698.000000	62.221693 
5697.000000	62.277626 
5696.000000	62.373661 
5695.000000	62.497401 
5694.000000	62.633752 
5693.000000	62.766337 
5692.000000	62.882256 
5691.000000	62.973070 
5690.000000	63.037467 
5689.000000	63.080000 
5688.000000	63.109803 
5687.000000	63.137054 
5686.000000	63.172173 
5685.000000	63.223314 
5684.000000	63.295316 
5683.000000	63.389015 
5682.000000	63.503074 
5681.000000	63.633346 
5680.000000	63.775038 
5679.000000	63.921213 
5678.000000	64.063405 
5677.000000	64.190697 
5676.000000	64.291310 
5675.000000	64.353704 
5674.000000	64.368104 
5673.000000	64.329838 
5672.000000	64.241242 
5671.000000	64.112997 
5670.000000	63.963317 
5669.000000	63.815116 
5668.000000	63.692998 
5667.000000	63.616847 
5666.000000	63.598918 
5665.000000	63.639259 
5664.000000	63.726639 
5663.000000	63.840126 
5662.000000	63.954424 
5661.000000	64.044237 
5660.000000	64.089608 
5659.000000	64.080214 
5658.000000	64.017224 
5657.000000	63.911485 
5656.000000	63.780474 
5655.000000	63.645029 
5654.000000	63.524436 
5653.000000	63.433074 
5652.000000	63.377571 
5651.000000	63.357377 
5650.000000	63.365149 
5649.000000	63.389253 
5648.000000	63.417243 
5647.000000	63.438940 
5646.000000	63.448905 
5645.000000	63.445305 
5644.000000	63.431048 
5643.000000	63.411355 
5642.000000	63.392329 
5641.000000	63.378906 
5640.000000	63.373279 
5639.000000	63.374590 
5638.000000	63.379335 
5637.000000	63.383579 
5636.000000	63.382411 
5635.000000	63.371491 
5634.000000	63.348126 
5633.000000	63.311982 
5632.000000	63.264608 
5631.000000	63.209152 
5630.000000	63.149762 
5629.000000	63.090848 
5628.000000	63.037109 
5627.000000	62.992334 
5626.000000	62.959194 
5625.000000	62.938046 
5624.000000	62.926363 
5623.000000	62.918949 
5622.000000	62.909340 
5621.000000	62.891507 
5620.000000	62.859916 
5619.000000	62.813186 
5618.000000	62.753963 
5617.000000	62.690019 
5616.000000	62.631392 
5615.000000	62.590026 
5614.000000	62.576007 
5613.000000	62.596464 
5612.000000	62.653017 
5611.000000	62.742328 
5610.000000	62.856388 
5609.000000	62.984657 
5608.000000	63.115930 
5607.000000	63.240265 
5606.000000	63.350152 
5605.000000	63.440465 
5604.000000	63.508439 
5603.000000	63.552856 
5602.000000	63.573598 
5601.000000	63.571619 
5600.000000	63.549113 
5599.000000	63.510227 
5598.000000	63.461446 
5597.000000	63.411378 
5596.000000	63.370299 
5595.000000	63.348603 
5594.000000	63.355517 
5593.000000	63.397312 
5592.000000	63.476514 
5591.000000	63.590407 
5590.000000	63.731908 
5589.000000	63.891363 
5588.000000	64.056658 
5587.000000	64.215540 
5586.000000	64.355897 
5585.000000	64.467167 
5584.000000	64.541435 
5583.000000	64.574313 
5582.000000	64.565706 
5581.000000	64.520001 
5580.000000	64.445614 
5579.000000	64.354276 
5578.000000	64.258456 
5577.000000	64.169764 
5576.000000	64.096260 
5575.000000	64.041447 
5574.000000	64.004135 
5573.000000	63.979029 
5572.000000	63.959312 
5571.000000	63.938117 
5570.000000	63.910508 
5569.000000	63.873577 
5568.000000	63.827228 
5567.000000	63.772511 
5566.000000	63.709855 
5565.000000	63.639283 
5564.000000	63.558530 
5563.000000	63.466882 
5562.000000	63.366127 
5561.000000	63.262414 
5560.000000	63.165259 
5559.000000	63.087034 
5558.000000	63.040637 
5557.000000	63.034987 
5556.000000	63.071537 
5555.000000	63.144397 
5554.000000	63.240861 
5553.000000	63.344287 
5552.000000	63.437700 
5551.000000	63.508963 
5550.000000	63.553667 
5549.000000	63.576126 
5548.000000	63.587951 
5547.000000	63.604784 
5546.000000	63.641881 
5545.000000	63.710331 
5544.000000	63.813281 
5543.000000	63.946199 
5542.000000	64.095568 
5541.000000	64.244699 
5540.000000	64.373803 
5539.000000	64.465355 
5538.000000	64.505100 
5537.000000	64.485859 
5536.000000	64.407014 
5535.000000	64.274072 
5534.000000	64.098429 
5533.000000	63.896822 
5532.000000	63.688158 
5531.000000	63.491320 
5530.000000	63.322639 
5529.000000	63.194918 
5528.000000	63.114476 
5527.000000	63.081049 
5526.000000	63.087797 
5525.000000	63.123059 
5524.000000	63.172769 
5523.000000	63.223338 
5522.000000	63.263273 
5521.000000	63.284826 
5520.000000	63.285255 
5519.000000	63.266134 
5518.000000	63.231015 
5517.000000	63.184618 
5516.000000	63.130736 
5515.000000	63.073396 
5514.000000	63.015317 
5513.000000	62.960815 
5512.000000	62.916517 
5511.000000	62.891721 
5510.000000	62.896609 
5509.000000	62.940549 
5508.000000	63.029313 
5507.000000	63.162779 
5506.000000	63.332581 
5505.000000	63.523840 
5504.000000	63.716793 
5503.000000	63.891196 
5502.000000	64.030671 
5501.000000	64.124011 
5500.000000	64.166736 
5499.000000	64.161157 
5498.000000	64.115476 
5497.000000	64.039945 
5496.000000	63.945055 
5495.000000	63.840556 
5494.000000	63.734674 
5493.000000	63.635039 
5492.000000	63.548278 
5491.000000	63.480925 
5490.000000	63.437533 
5489.000000	63.420248 
5488.000000	63.427233 
5487.000000	63.451147 
5486.000000	63.481092 
5485.000000	63.503766 
5484.000000	63.507676 
5483.000000	63.484954 
5482.000000	63.434553 
5481.000000	63.361883 
5480.000000	63.278722 
5479.000000	63.199400 
5478.000000	63.138699 
5477.000000	63.108062 
5476.000000	63.113594 
5475.000000	63.154840 
5474.000000	63.225531 
5473.000000	63.315534 
5472.000000	63.412284 
5471.000000	63.503313 
5470.000000	63.578486 
5469.000000	63.631200 
5468.000000	63.657808 
5467.000000	63.657331 
5466.000000	63.630938 
5465.000000	63.581085 
5464.000000	63.511896 
5463.000000	63.428401 
5462.000000	63.336968 
5461.000000	63.244199 
5460.000000	63.157606 
5459.000000	63.083744 
5458.000000	63.027238 
5457.000000	62.990665 
5456.000000	62.973093 
5455.000000	62.972235 
5454.000000	62.984204 
5453.000000	63.006067 
5452.000000	63.035655 
5451.000000	63.072633 
5450.000000	63.117694 
5449.000000	63.171672 
5448.000000	63.233971 
5447.000000	63.301491 
5446.000000	63.367986 
5445.000000	63.424944 
5444.000000	63.463377 
5443.000000	63.475394 
5442.000000	63.456273 
5441.000000	63.405632 
5440.000000	63.327884 
5439.000000	63.231635 
5438.000000	63.127732 
5437.000000	63.026762 
5436.000000	62.937045 
5435.000000	62.863230 
5434.000000	62.805986 
5433.000000	62.762928 
5432.000000	62.730169 
5431.000000	62.703609 
5430.000000	62.681055 
5429.000000	62.662148 
5428.000000	62.649226 
5427.000000	62.644672 
5426.000000	62.651395 
5425.000000	62.670302 
5424.000000	62.700676 
5423.000000	62.739109 
5422.000000	62.781095 
5421.000000	62.821817 
5420.000000	62.858152 
5419.000000	62.889719 
5418.000000	62.918066 
5417.000000	62.945818 
5416.000000	62.975144 
5415.000000	63.006401 
5414.000000	63.036942 
5413.000000	63.061404 
5412.000000	63.073730 
5411.000000	63.068723 
5410.000000	63.044261 
5409.000000	63.001751 
5408.000000	62.945342 
5407.000000	62.881231 
5406.000000	62.816262 
5405.000000	62.756943 
5404.000000	62.707662 
5403.000000	62.671446 
5402.000000	62.650513 
5401.000000	62.646579 
5400.000000	62.661218 
5399.000000	62.694978 
5398.000000	62.747478 
5397.000000	62.814974 
5396.000000	62.890243 
5395.000000	62.962317 
5394.000000	63.018250 
5393.000000	63.045239 
5392.000000	63.033580 
5391.000000	62.979125 
5390.000000	62.884926 
5389.000000	62.759828 
5388.000000	62.617230 
5387.000000	62.472081 
5386.000000	62.338709 
5385.000000	62.229204 
5384.000000	62.152171 
5383.000000	62.112903 
5382.000000	62.113213 
5381.000000	62.151837 
5380.000000	62.224745 
5379.000000	62.324976 
5378.000000	62.443828 
5377.000000	62.570381 
5376.000000	62.693905 
5375.000000	62.804269 
5374.000000	62.893939 
5373.000000	62.957620 
5372.000000	62.994146 
5371.000000	63.006114 
5370.000000	62.999510 
5369.000000	62.982964 
5368.000000	62.965583 
5367.000000	62.955427 
5366.000000	62.958192 
5365.000000	62.976956 
5364.000000	63.011336 
5363.000000	63.058137 
5362.000000	63.112211 
5361.000000	63.167905 
5360.000000	63.219308 
5359.000000	63.261365 
5358.000000	63.290381 
5357.000000	63.304781 
5356.000000	63.305139 
5355.000000	63.294696 
5354.000000	63.277792 
5353.000000	63.260722 
5352.000000	63.251018 
5351.000000	63.256645 
5350.000000	63.285565 
5349.000000	63.342404 
5348.000000	63.428783 
5347.000000	63.539600 
5346.000000	63.664317 
5345.000000	63.786482 
5344.000000	63.886070 
5343.000000	63.944244 
5342.000000	63.949084 
5341.000000	63.896608 
5340.000000	63.791918 
5339.000000	63.648104 
5338.000000	63.484311 
5337.000000	63.319158 
5336.000000	63.167357 
5335.000000	63.036775 
5334.000000	62.928581 
5333.000000	62.838816 
5332.000000	62.761902 
5331.000000	62.694334 
5330.000000	62.636995 
5329.000000	62.595176 
5328.000000	62.577533 
5327.000000	62.591195 
5326.000000	62.640237 
5325.000000	62.722110 
5324.000000	62.828373 
5323.000000	62.945699 
5322.000000	63.057994 
5321.000000	63.153266 
5320.000000	63.220071 
5319.000000	63.250374 
5318.000000	63.236093 
5317.000000	63.172936 
5316.000000	63.055276 
5315.000000	62.876820 
5314.000000	62.634229 
5313.000000	62.331104 
5312.000000	61.980009 
5311.000000	61.603879 
5310.000000	61.233520 
5309.000000	60.903120 
5308.000000	60.645031 
5307.000000	60.484027 
5306.000000	60.429811 
5305.000000	60.476255 
5304.000000	60.603761 
5303.000000	60.785770 
5302.000000	60.993599 
5301.000000	61.205005 
5300.000000	61.404776 
5299.000000	61.589884 
5298.000000	61.763882 
5297.000000	61.937832 
5296.000000	62.119221 
5295.000000	62.316393 
5294.000000	62.533044 
5293.000000	62.773156 
5292.000000	63.041114 
5291.000000	63.342070 
5290.000000	63.683676 
5289.000000	64.067935 
5288.000000	64.492845 
5287.000000	64.939904 
5286.000000	65.377902 
5285.000000	65.758562 
5284.000000	66.027426 
5283.000000	66.130948 
5282.000000	66.031503 
5281.000000	65.714859 
5280.000000	65.197896 
5279.000000	64.528632 
5278.000000	63.781142 
5277.000000	63.041758 
5276.000000	62.396550 
5275.000000	61.915922 
5274.000000	61.646580 
5273.000000	61.608052 
5272.000000	61.793351 
5271.000000	62.170529 
5270.000000	62.691760 
5269.000000	63.302469 
5268.000000	63.946533 
5267.000000	64.568567 
5266.000000	65.118503 
5265.000000	65.550827 
5264.000000	65.829610 
5263.000000	65.930366 
5262.000000	65.844178 
5261.000000	65.582108 
5260.000000	65.172362 
5259.000000	64.660835 
5258.000000	64.101648 
5257.000000	63.553094 
5256.000000	63.065433 
5255.000000	62.675619 
5254.000000	62.404179 
5253.000000	62.254786 
5252.000000	62.215852 
5251.000000	62.263226 
5250.000000	62.362837 
5249.000000	62.475728 
5248.000000	62.559604 
5247.000000	62.578439 
5246.000000	62.500190 
5245.000000	62.312078 
5244.000000	62.019920 
5243.000000	61.657285 
5242.000000	61.277127 
5241.000000	60.947442 
5240.000000	60.739588 
5239.000000	60.708880 
5238.000000	60.884356 
5237.000000	61.253929 
5236.000000	61.765789 
5235.000000	62.335753 
5234.000000	62.865948 
5233.000000	63.265371 
5232.000000	63.468909 
5231.000000	63.453125 
5230.000000	63.238930 
5229.000000	62.885379 
5228.000000	62.473058 
5227.000000	62.083315 
5226.000000	61.778903 
5225.000000	61.593437 
5224.000000	61.527872 
5223.000000	61.557149 
5222.000000	61.642169 
5221.000000	61.745047 
5220.000000	61.841607 
5219.000000	61.924791 
5218.000000	62.007188 
5217.000000	62.107300 
5216.000000	62.247157 
5215.000000	62.438225 
5214.000000	62.681150 
5213.000000	62.963342 
5212.000000	63.262987 
5211.000000	63.554692 
5210.000000	63.814663 
5209.000000	64.030575 
5208.000000	64.196801 
5207.000000	64.314913 
5206.000000	64.388823 
5205.000000	64.423108 
5204.000000	64.418768 
5203.000000	64.374518 
5202.000000	64.285492 
5201.000000	64.147543 
5200.000000	63.958454 
5199.000000	63.721489 
5198.000000	63.443875 
5197.000000	63.137626 
5196.000000	62.816405 
5195.000000	62.495541 
5194.000000	62.190341 
5193.000000	61.916851 
5192.000000	61.688804 
5191.000000	61.520051 
5190.000000	61.419582 
5189.000000	61.395502 
5188.000000	61.451292 
5187.000000	61.588525 
5186.000000	61.799526 
5185.000000	62.073898 
5184.000000	62.395691 
5183.000000	62.747406 
5182.000000	63.108396 
5181.000000	63.458418 
5180.000000	63.779163 
5179.000000	64.053750 
5178.000000	64.268159 
5177.000000	64.411640 
5176.000000	64.478874 
5175.000000	64.469385 
5174.000000	64.389061 
5173.000000	64.248585 
5172.000000	64.063382 
5171.000000	63.852715 
5170.000000	63.637828 
5169.000000	63.439178 
5168.000000	63.273406 
5167.000000	63.152670 
5166.000000	63.082122 
5165.000000	63.058876 
5164.000000	63.073110 
5163.000000	63.110065 
5162.000000	63.153767 
5161.000000	63.188385 
5160.000000	63.203454 
5159.000000	63.193678 
5158.000000	63.161587 
5157.000000	63.115262 
5156.000000	63.066601 
5155.000000	63.027024 
5154.000000	63.004970 
5153.000000	63.004279 
5152.000000	63.022446 
5151.000000	63.051342 
5150.000000	63.080930 
5149.000000	63.102698 
5148.000000	63.111233 
5147.000000	63.105535 
5146.000000	63.089442 
5145.000000	63.070034 
5144.000000	63.054490 
5143.000000	63.047480 
5142.000000	63.049173 
5141.000000	63.054871 
5140.000000	63.057351 
5139.000000	63.048601 
5138.000000	63.022565 
5137.000000	62.976765 
5136.000000	62.914443 
5135.000000	62.842679 
5134.000000	62.769460 
5133.000000	62.702488 
5132.000000	62.646389 
5131.000000	62.603282 
5130.000000	62.572288 
5129.000000	62.551546 
5128.000000	62.540102 
5127.000000	62.537574 
5126.000000	62.544512 
5125.000000	62.561154 
5124.000000	62.586569 
5123.000000	62.617683 
5122.000000	62.648701 
5121.000000	62.672853 
5120.000000	62.683534 
5119.000000	62.677216 
5118.000000	62.654638 
5117.000000	62.620973 
5116.000000	62.584352 
5115.000000	62.553787 
5114.000000	62.536549 
5113.000000	62.535834 
5112.000000	62.550330 
5111.000000	62.574529 
5110.000000	62.601304 
5109.000000	62.624311 
5108.000000	62.640643 
5107.000000	62.650585 
5106.000000	62.658977 
5105.000000	62.672114 
5104.000000	62.697815 
5103.000000	62.741899 
5102.000000	62.807846 
5101.000000	62.895631 
5100.000000	63.001513 
5099.000000	63.119196 
5098.000000	63.239765 
5097.000000	63.354182 
5096.000000	63.452935 
5095.000000	63.527774 
5094.000000	63.571691 
5093.000000	63.580107 
5092.000000	63.551354 
5091.000000	63.487434 
5090.000000	63.394260 
5089.000000	63.281250 
5088.000000	63.160896 
5087.000000	63.047075 
5086.000000	62.953186 
5085.000000	62.890076 
5084.000000	62.864899 
5083.000000	62.879753 
5082.000000	62.931847 
5081.000000	63.013720 
5080.000000	63.114190 
5079.000000	63.220238 
5078.000000	63.318371 
5077.000000	63.397145 
5076.000000	63.448214 
5075.000000	63.467454 
5074.000000	63.455057 
5073.000000	63.414716 
5072.000000	63.352680 
5071.000000	63.276505 
5070.000000	63.194060 
5069.000000	63.112354 
5068.000000	63.037800 
5067.000000	62.974500 
5066.000000	62.924647 
5065.000000	62.887978 
5064.000000	62.862563 
5063.000000	62.844228 
5062.000000	62.828087 
5061.000000	62.809777 
5060.000000	62.787270 
5059.000000	62.760853 
5058.000000	62.734007 
5057.000000	62.711954 
5056.000000	62.701058 
5055.000000	62.706565 
5054.000000	62.731790 
5053.000000	62.776517 
5052.000000	62.837386 
5051.000000	62.908267 
5050.000000	62.982201 
5049.000000	63.052988 
5048.000000	63.116097 
5047.000000	63.169407 
5046.000000	63.212370 
5045.000000	63.245916 
5044.000000	63.270401 
5043.000000	63.285541 
5042.000000	63.289737 
5041.000000	63.280773 
5040.000000	63.256812 
5039.000000	63.217926 
5038.000000	63.165426 
5037.000000	63.102483 
5036.000000	63.033509 
5035.000000	62.963557 
5034.000000	62.897109 
5033.000000	62.837290 
5032.000000	62.785863 
5031.000000	62.743234 
5030.000000	62.708401 
5029.000000	62.679672 
5028.000000	62.655162 
5027.000000	62.633442 
5026.000000	62.613558 
5025.000000	62.595796 
5024.000000	62.579941 
5023.000000	62.566661 
5022.000000	62.557029 
5021.000000	62.552666 
5020.000000	62.554550 
5019.000000	62.563824 
5018.000000	62.581372 
5017.000000	62.607622 
5016.000000	62.641906 
5015.000000	62.682366 
5014.000000	62.726068 
5013.000000	62.769389 
5012.000000	62.808561 
5011.000000	62.839627 
5010.000000	62.859296 
5009.000000	62.865877 
5008.000000	62.859892 
5007.000000	62.844395 
5006.000000	62.824296 
5005.000000	62.806510 
5004.000000	62.797451 
5003.000000	62.801289 
5002.000000	62.817931 
5001.000000	62.843942 
5000.000000	62.871336 
4999.000000	62.889647 
4998.000000	62.887525 
4997.000000	62.856030 
4996.000000	62.790727 
4995.000000	62.692403 
4994.000000	62.568330 
4993.000000	62.430143 
4992.000000	62.293624 
4991.000000	62.175130 
4990.000000	62.089824 
4989.000000	62.048363 
4988.000000	62.056159 
4987.000000	62.112808 
4986.000000	62.211871 
4985.000000	62.341952 
4984.000000	62.488555 
4983.000000	62.636661 
4982.000000	62.772321 
4981.000000	62.885022 
4980.000000	62.969541 
4979.000000	63.026571 
4978.000000	63.062310 
4977.000000	63.086295 
4976.000000	63.109040 
4975.000000	63.138890 
4974.000000	63.181304 
4973.000000	63.236212 
4972.000000	63.299846 
4971.000000	63.364052 
4970.000000	63.420462 
4969.000000	63.460493 
4968.000000	63.478636 
4967.000000	63.471794 
4966.000000	63.440346 
4965.000000	63.386988 
4964.000000	63.316416 
4963.000000	63.234114 
4962.000000	63.145661 
4961.000000	63.056445 
4960.000000	62.971448 
4959.000000	62.895202 
4958.000000	62.831974 
4957.000000	62.784981 
4956.000000	62.756371 
4955.000000	62.746667 
4954.000000	62.755036 
4953.000000	62.779951 
4952.000000	62.819814 
4951.000000	62.872505 
4950.000000	62.935757 
4949.000000	63.007497 
4948.000000	63.084602 
4947.000000	63.162612 
4946.000000	63.234829 
4945.000000	63.293862 
4944.000000	63.331270 
4943.000000	63.340258 
4942.000000	63.315916 
4941.000000	63.257217 
4940.000000	63.166952 
4939.000000	63.052296 
4938.000000	62.922811 
4937.000000	62.789106 
4936.000000	62.661123 
4935.000000	62.547016 
4934.000000	62.452197 
4933.000000	62.379026 
4932.000000	62.328171 
4931.000000	62.299299 
4930.000000	62.291622 
4929.000000	62.303972 
4928.000000	62.334990 
4927.000000	62.382698 
4926.000000	62.443590 
4925.000000	62.512445 
4924.000000	62.582468 
4923.000000	62.646245 
4922.000000	62.696433 
4921.000000	62.727189 
4920.000000	62.735486 
4919.000000	62.721872 
4918.000000	62.690114 
4917.000000	62.647080 
4916.000000	62.600803 
4915.000000	62.559747 
4914.000000	62.531185 
4913.000000	62.520456 
4912.000000	62.530040 
4911.000000	62.559890 
4910.000000	62.608194 
4909.000000	62.671422 
4908.000000	62.744998 
4907.000000	62.823891 
4906.000000	62.902998 
4905.000000	62.977504 
4904.000000	63.042807 
4903.000000	63.095498 
4902.000000	63.133740 
4901.000000	63.157677 
4900.000000	63.169574 
4899.000000	63.173961 
4898.000000	63.176655 
4897.000000	63.184070 
4896.000000	63.201832 
4895.000000	63.233971 
4894.000000	63.281583 
4893.000000	63.343071 
4892.000000	63.413357 
4891.000000	63.485813 
4890.000000	63.552069 
4889.000000	63.604712 
4888.000000	63.637232 
4887.000000	63.646006 
4886.000000	63.629174 
4885.000000	63.588118 
4884.000000	63.525056 
4883.000000	63.443446 
4882.000000	63.346052 
4881.000000	63.235688 
4880.000000	63.114476 
4879.000000	62.984991 
4878.000000	62.850403 
4877.000000	62.715172 
4876.000000	62.585616 
4875.000000	62.469720 
4874.000000	62.375283 
4873.000000	62.308979 
4872.000000	62.274980 
4871.000000	62.274432 
4870.000000	62.303924 
4869.000000	62.356901 
4868.000000	62.424159 
4867.000000	62.496447 
4866.000000	62.565088 
4865.000000	62.624287 
4864.000000	62.670826 
4863.000000	62.704491 
4862.000000	62.726950 
4861.000000	62.740802 
4860.000000	62.748217 
4859.000000	62.750220 
4858.000000	62.746930 
4857.000000	62.737512 
4856.000000	62.721467 
4855.000000	62.698578 
4854.000000	62.670373 
4853.000000	62.639117 
4852.000000	62.607359 
4851.000000	62.577486 
4850.000000	62.551164 
4849.000000	62.528347 
4848.000000	62.507653 
4847.000000	62.487339 
4846.000000	62.466335 
4845.000000	62.444615 
4844.000000	62.424039 
4843.000000	62.408304 
4842.000000	62.402391 
4841.000000	62.410545 
4840.000000	62.435793 
4839.000000	62.478399 
4838.000000	62.536263 
4837.000000	62.605190 
4836.000000	62.680101 
4835.000000	62.755441 
4834.000000	62.826323 
4833.000000	62.889480 
4832.000000	62.942695 
4831.000000	62.984848 
4830.000000	63.015508 
4829.000000	63.034772 
4828.000000	63.042902 
4827.000000	63.040852 
4826.000000	63.029646 
4825.000000	63.010907 
4824.000000	62.986469 
4823.000000	62.958765 
4822.000000	62.930083 
4821.000000	62.902522 
4820.000000	62.878108 
4819.000000	62.858676 
4818.000000	62.846231 
4817.000000	62.842702 
4816.000000	62.849807 
4815.000000	62.868261 
4814.000000	62.897443 
4813.000000	62.934875 
4812.000000	62.975597 
4811.000000	63.013648 
4810.000000	63.042807 
4809.000000	63.058567 
4808.000000	63.058662 
4807.000000	63.043999 
4806.000000	63.018345 
4805.000000	62.987375 
4804.000000	62.956953 
4803.000000	62.932014 
4802.000000	62.915515 
4801.000000	62.908172 
4800.000000	62.908411 
4799.000000	62.913560 
4798.000000	62.920999 
4797.000000	62.929129 
4796.000000	62.937808 
4795.000000	62.947893 
4794.000000	62.960672 
4793.000000	62.976765 
4792.000000	62.995409 
4791.000000	63.013744 
4790.000000	63.026928 
4789.000000	63.029575 
4788.000000	63.016796 
4787.000000	62.985610 
4786.000000	62.935948 
4785.000000	62.871026 
4784.000000	62.797164 
4783.000000	62.722253 
4782.000000	62.654685 
4781.000000	62.601447 
4780.000000	62.567090 
4779.000000	62.552857 
4778.000000	62.556982 
4777.000000	62.575078 
4776.000000	62.601733 
4775.000000	62.631416 
4774.000000	62.659955 
4773.000000	62.684655 
4772.000000	62.705159 
4771.000000	62.722516 
4770.000000	62.738966 
4769.000000	62.756872 
4768.000000	62.778329 
4767.000000	62.804603 
4766.000000	62.835884 
4765.000000	62.871122 
4764.000000	62.908387 
4763.000000	62.945199 
4762.000000	62.978792 
4761.000000	63.006806 
4760.000000	63.027620 
4759.000000	63.040900 
4758.000000	63.047432 
4757.000000	63.049125 
4756.000000	63.048744 
4755.000000	63.049292 
4754.000000	63.053631 
4753.000000	63.063573 
4752.000000	63.079452 
4751.000000	63.100218 
4750.000000	63.123989 
4749.000000	63.148069 
4748.000000	63.169693 
4747.000000	63.186383 
4746.000000	63.196468 
4745.000000	63.199090 
4744.000000	63.194179 
4743.000000	63.181972 
4742.000000	63.162922 
4741.000000	63.137960 
4740.000000	63.108515 
4739.000000	63.076496 
4738.000000	63.044095 
4737.000000	63.013744 
4736.000000	62.987542 
4735.000000	62.966609 
4734.000000	62.950873 
4733.000000	62.939000 
4732.000000	62.929034 
4731.000000	62.918424 
4730.000000	62.905621 
4729.000000	62.889909 
4728.000000	62.872672 
4727.000000	62.856793 
4726.000000	62.846541 
4725.000000	62.846207 
4724.000000	62.859129 
4723.000000	62.886404 
4722.000000	62.926340 
4721.000000	62.974262 
4720.000000	63.023567 
4719.000000	63.066792 
4718.000000	63.097596 
4717.000000	63.112139 
4716.000000	63.109922 
4715.000000	63.093590 
4714.000000	63.068056 
4713.000000	63.039016 
4712.000000	63.011384 
4711.000000	62.988233 
4710.000000	62.970185 
4709.000000	62.956118 
4708.000000	62.944173 
4707.000000	62.933444 
4706.000000	62.924575 
4705.000000	62.920498 
4704.000000	62.925815 
4703.000000	62.945675 
4702.000000	62.983751 
4701.000000	63.040876 
4700.000000	63.113856 
4699.000000	63.195490 
4698.000000	63.276147 
4697.000000	63.344931 
4696.000000	63.392376 
4695.000000	63.411998 
4694.000000	63.401842 
4693.000000	63.364648 
4692.000000	63.306927 
4691.000000	63.237547 
4690.000000	63.165926 
4689.000000	63.100123 
4688.000000	63.045740 
4687.000000	63.005399 
4686.000000	62.979125 
4685.000000	62.964773 
4684.000000	62.959408 
4683.000000	62.960362 
4682.000000	62.965989 
4681.000000	62.975621 
4680.000000	62.989234 
4679.000000	63.006949 
4678.000000	63.028097 
4677.000000	63.050818 
4676.000000	63.071751 
4675.000000	63.086724 
4674.000000	63.091135 
4673.000000	63.081121 
4672.000000	63.054275 
4671.000000	63.010311 
4670.000000	62.951374 
4669.000000	62.881898 
4668.000000	62.807869 
4667.000000	62.736129 
4666.000000	62.673187 
4665.000000	62.624001 
4664.000000	62.591409 
4663.000000	62.575769 
4662.000000	62.575149 
4661.000000	62.585687 
4660.000000	62.602186 
4659.000000	62.619018 
4658.000000	62.631511 
4657.000000	62.636470 
4656.000000	62.632465 
4655.000000	62.619566 
4654.000000	62.599396 
4653.000000	62.573933 
4652.000000	62.544894 
4651.000000	62.513303 
4650.000000	62.479019 
4649.000000	62.441539 
4648.000000	62.400817 
4647.000000	62.358140 
4646.000000	62.315988 
4645.000000	62.278532 
4644.000000	62.250208 
4643.000000	62.235283 
4642.000000	62.236094 
4641.000000	62.253093 
4640.000000	62.283730 
4639.000000	62.324023 
4638.000000	62.368822 
4637.000000	62.413263 
4636.000000	62.453460 
4635.000000	62.487697 
4634.000000	62.516355 
4633.000000	62.541246 
4632.000000	62.564325 
4631.000000	62.587237 
4630.000000	62.610244 
4629.000000	62.631916 
4628.000000	62.648773 
4627.000000	62.656760 
4626.000000	62.651824 
4625.000000	62.631058 
4624.000000	62.593531 
4623.000000	62.540841 
4622.000000	62.476944 
4621.000000	62.407636 
4620.000000	62.339568 
4619.000000	62.279248 
4618.000000	62.231993 
4617.000000	62.200736 
4616.000000	62.186312 
4615.000000	62.186932 
4614.000000	62.199807 
4613.000000	62.221169 
4612.000000	62.248015 
4611.000000	62.278056 
4610.000000	62.310528 
4609.000000	62.345623 
4608.000000	62.384200 
4607.000000	62.426757 
4606.000000	62.473273 
4605.000000	62.522745 
4604.000000	62.572860 
4603.000000	62.620329 
4602.000000	62.661409 
4601.000000	62.692499 
4600.000000	62.710738 
4599.000000	62.714481 
4598.000000	62.704038 
4597.000000	62.681269 
4596.000000	62.649631 
4595.000000	62.613177 
4594.000000	62.576603 
4593.000000	62.543749 
4592.000000	62.517499 
4591.000000	62.499022 
4590.000000	62.487983 
4589.000000	62.482643 
4588.000000	62.480592 
4587.000000	62.479448 
4586.000000	62.477397 
4585.000000	62.473773 
4584.000000	62.468743 
4583.000000	62.463378 
4582.000000	62.459087 
4581.000000	62.457036 
4580.000000	62.457466 
4579.000000	62.459897 
4578.000000	62.463283 
4577.000000	62.466025 
4576.000000	62.466335 
4575.000000	62.462687 
4574.000000	62.453842 
4573.000000	62.438941 
4572.000000	62.417173 
4571.000000	62.388181 
4570.000000	62.351775 
4569.000000	62.308073 
4568.000000	62.257790 
4567.000000	62.202429 
4566.000000	62.144207 
4565.000000	62.085986 
4564.000000	62.030744 
4563.000000	61.981201 
4562.000000	61.939287 
4561.000000	61.905503 
4560.000000	61.879301 
4559.000000	61.859107 
4558.000000	61.843061 
4557.000000	61.829185 
4556.000000	61.816453 
4555.000000	61.804580 
4554.000000	61.794281 
4553.000000	61.786699 
4552.000000	61.782956 
4551.000000	61.783552 
4550.000000	61.788225 
4549.000000	61.795926 
4548.000000	61.805057 
4547.000000	61.813950 
4546.000000	61.821365 
4545.000000	61.826729 
4544.000000	61.830186 
4543.000000	61.832165 
4542.000000	61.833333 
4541.000000	61.833667 
4540.000000	61.832499 
4539.000000	61.828231 
4538.000000	61.819243 
4537.000000	61.803889 
4536.000000	61.780905 
4535.000000	61.749887 
4534.000000	61.712241 
4533.000000	61.670565 
4532.000000	61.627817 
4531.000000	61.587452 
4530.000000	61.552762 
4529.000000	61.526584 
4528.000000	61.510777 
4527.000000	61.506295 
4526.000000	61.512875 
4525.000000	61.529564 
4524.000000	61.554765 
4523.000000	61.585998 
4522.000000	61.620211 
4521.000000	61.654043 
4520.000000	61.684060 
4519.000000	61.707258 
4518.000000	61.721372 
4517.000000	61.724901 
4516.000000	61.717748 
4515.000000	61.701011 
4514.000000	61.677694 
4513.000000	61.651968 
4512.000000	61.629295 
4511.000000	61.615109 
4510.000000	61.614680 
4509.000000	61.632585 
4508.000000	61.671400 
4507.000000	61.731147 
4506.000000	61.808466 
4505.000000	61.897397 
4504.000000	61.988878 
4503.000000	62.072587 
4502.000000	62.137579 
4501.000000	62.174391 
4500.000000	62.176632 
4499.000000	62.142610 
4498.000000	62.075233 
4497.000000	61.981773 
4496.000000	61.873483 
4495.000000	61.764001 
4494.000000	61.667680 
4493.000000	61.597037 
4492.000000	61.561655 
4491.000000	61.565661 
4490.000000	61.607694 
4489.000000	61.680245 
4488.000000	61.771035 
4487.000000	61.864399 
4486.000000	61.944580 
4485.000000	61.997532 
4484.000000	62.013316 
4483.000000	61.987400 
4482.000000	61.920881 
4481.000000	61.820363 
4480.000000	61.696171 
4479.000000	61.561250 
4478.000000	61.428666 
4477.000000	61.310935 
4476.000000	61.218428 
4475.000000	61.159300 
4474.000000	61.139059 
4473.000000	61.159801 
4472.000000	61.220026 
4471.000000	61.314153 
4470.000000	61.432933 
4469.000000	61.563444 
4468.000000	61.690831 
4467.000000	61.801505 
4466.000000	61.885261 
4465.000000	61.936831 
4464.000000	61.956048 
4463.000000	61.947202 
4462.000000	61.917161 
4461.000000	61.873960 
4460.000000	61.824512 
4459.000000	61.773848 
4458.000000	61.724662 
4457.000000	61.679720 
4456.000000	61.640739 
4455.000000	61.609530 
4454.000000	61.588239 
4453.000000	61.579561 
4452.000000	61.585807 
4451.000000	61.607527 
4450.000000	61.643695 
4449.000000	61.691021 
4448.000000	61.744594 
4447.000000	61.798453 
4446.000000	61.846303 
4445.000000	61.882925 
4444.000000	61.902284 
4443.000000	61.898136 
4442.000000	61.865329 
4441.000000	61.800980 
4440.000000	61.702990 
4439.000000	61.571979 
4438.000000	61.416673 
4437.000000	61.252427 
4436.000000	61.093258 
4435.000000	60.953664 
4434.000000	60.847091 
4433.000000	60.786008 
4432.000000	60.780549 
4431.000000	60.837626 
4430.000000	60.956621 
4429.000000	61.131453 
4428.000000	61.351609 
4427.000000	61.600971 
4426.000000	61.857795 
4425.000000	62.098455 
4424.000000	62.300515 
4423.000000	62.445974 
4422.000000	62.523555 
4421.000000	62.531471 
4420.000000	62.476015 
4419.000000	62.375712 
4418.000000	62.261152 
4417.000000	62.161064 
4416.000000	62.100720 
4415.000000	62.106323 
4414.000000	62.207102 
4413.000000	62.453269 
4412.000000	62.903833 
4411.000000	63.617992 
4410.000000	64.623737 
4409.000000	65.900182 
4408.000000	67.358541 
4407.000000	68.840026 
4406.000000	70.144867 
4405.000000	71.083331 
4404.000000	71.509313 
4403.000000	71.370553 
4402.000000	70.702242 
4401.000000	69.623446 
4400.000000	68.303060 
4399.000000	66.915130 
4398.000000	65.620779 
4397.000000	64.536881 
4396.000000	63.749861 
4395.000000	63.313961 
4394.000000	63.276576 
4393.000000	63.685274 
4392.000000	64.572644 
4391.000000	65.941262 
4390.000000	67.723298 
4389.000000	69.767475 
4388.000000	71.831059 
4387.000000	73.612952 
4386.000000	74.814295 
4385.000000	75.200676 
4384.000000	74.669075 
4383.000000	73.267960 
4382.000000	71.194219 
4381.000000	68.743348 
4380.000000	66.246676 
4379.000000	63.998770 
4378.000000	62.211132 
4377.000000	60.976433 
4376.000000	60.280895 
4375.000000	60.023880 
4374.000000	60.072994 
4373.000000	60.296297 
4372.000000	60.589003 
4371.000000	60.896086 
4370.000000	61.192727 
4369.000000	61.486220 
4368.000000	61.773371 
4367.000000	62.050557 
4366.000000	62.292194 
4365.000000	62.471699 
4364.000000	62.567090 
4363.000000	62.566447 
4362.000000	62.473583 
4361.000000	62.303614 
4360.000000	62.080454 
4359.000000	61.832785 
4358.000000	61.589217 
4357.000000	61.372089 
4356.000000	61.195778 
4355.000000	61.070895 
4354.000000	61.001825 
4353.000000	60.987091 
4352.000000	61.020493 
4351.000000	61.089420 
4350.000000	61.179232 
4349.000000	61.277651 
4348.000000	61.374402 
4347.000000	61.453080 
4346.000000	61.502742 
4345.000000	61.522769 
4344.000000	61.517882 
4343.000000	61.495089 
4342.000000	61.462187 
4341.000000	61.424803 
4340.000000	61.386513 
4339.000000	61.349678 
4338.000000	61.314630 
4337.000000	61.281204 
4336.000000	61.249160 
4335.000000	61.219310 
4334.000000	61.192297 
4333.000000	61.169028 
4332.000000	61.151146 
4331.000000	61.140894 
4330.000000	61.140847 
4329.000000	61.153364 
4328.000000	61.179041 
4327.000000	61.216497 
4326.000000	61.262798 
4325.000000	61.312985 
4324.000000	61.360359 
4323.000000	61.397409 
4322.000000	61.418080 
4321.000000	61.417961 
4320.000000	61.395192 
4319.000000	61.350846 
4318.000000	61.288642 
4317.000000	61.214685 
4316.000000	61.136817 
4315.000000	61.062812 
4314.000000	60.999560 
4313.000000	60.951685 
4312.000000	60.921406 
4311.000000	60.908436 
4310.000000	60.910582 
4309.000000	60.924506 
4308.000000	60.946583 
4307.000000	60.973548 
4306.000000	61.002850 
4305.000000	61.032295 
4304.000000	61.060118 
4303.000000	61.084198 
4302.000000	61.102890 
4301.000000	61.114811 
4300.000000	61.119747 
4299.000000	61.119127 
4298.000000	61.115741 
4297.000000	61.113715 
4296.000000	61.117005 
4295.000000	61.128878 
4294.000000	61.150646 
4293.000000	61.180830 
4292.000000	61.215734 
4291.000000	61.249804 
4290.000000	61.277747 
4289.000000	61.295795 
4288.000000	61.303114 
4287.000000	61.302161 
4286.000000	61.297965 
4285.000000	61.296558 
4284.000000	61.303257 
4283.000000	61.321258 
4282.000000	61.350107 
4281.000000	61.386013 
4280.000000	61.422586 
4279.000000	61.452913 
4278.000000	61.470603 
4277.000000	61.471772 
4276.000000	61.455774 
4275.000000	61.425495 
4274.000000	61.386799 
4273.000000	61.347174 
4272.000000	61.314201 
4271.000000	61.293864 
4270.000000	61.289715 
4269.000000	61.301970 
4268.000000	61.327767 
4267.000000	61.361885 
4266.000000	61.398172 
4265.000000	61.430573 
4264.000000	61.454176 
4263.000000	61.466193 
4262.000000	61.466217 
4261.000000	61.456084 
4260.000000	61.438918 
4259.000000	61.418724 
4258.000000	61.399412 
4257.000000	61.384201 
4256.000000	61.375164 
4255.000000	61.373114 
4254.000000	61.377906 
4253.000000	61.388850 
4252.000000	61.405181 
4251.000000	61.426305 
4250.000000	61.451816 
4249.000000	61.481380 
4248.000000	61.514282 
4247.000000	61.549210 
4246.000000	61.583447 
4245.000000	61.613678 
4244.000000	61.635732 
4243.000000	61.645793 
4242.000000	61.640691 
4241.000000	61.619353 
4240.000000	61.582303 
4239.000000	61.532258 
4238.000000	61.473274 
4237.000000	61.410331 
4236.000000	61.348485 
4235.000000	61.292672 
4234.000000	61.246681 
4233.000000	61.212968 
4232.000000	61.192703 
4231.000000	61.185884 
4230.000000	61.191248 
4229.000000	61.206793 
4228.000000	61.229705 
4227.000000	61.256790 
4226.000000	61.285018 
4225.000000	61.312079 
4224.000000	61.336493 
4223.000000	61.357975 
4222.000000	61.377525 
4221.000000	61.396908 
4220.000000	61.418366 
4219.000000	61.443662 
4218.000000	61.473655 
4217.000000	61.507201 
4216.000000	61.542224 
4215.000000	61.575150 
4214.000000	61.601805 
4213.000000	61.617755 
4212.000000	61.620116 
4211.000000	61.607146 
4210.000000	61.579227 
4209.000000	61.538481 
4208.000000	61.488318 
4207.000000	61.433672 
4206.000000	61.380195 
4205.000000	61.334109 
4204.000000	61.301398 
4203.000000	61.287641 
4202.000000	61.297154 
4201.000000	61.332321 
4200.000000	61.392784 
4199.000000	61.475157 
4198.000000	61.573052 
4197.000000	61.678075 
4196.000000	61.780762 
4195.000000	61.872053 
4194.000000	61.943936 
4193.000000	61.990976 
4192.000000	62.009954 
4191.000000	62.000322 
4190.000000	61.963510 
4189.000000	61.903047 
4188.000000	61.823678 
4187.000000	61.731195 
4186.000000	61.632537 
4185.000000	61.535644 
4184.000000	61.448907 
4183.000000	61.380577 
4182.000000	61.337447 
4181.000000	61.324143 
4180.000000	61.341691 
4179.000000	61.387205 
4178.000000	61.453604 
4177.000000	61.530447 
4176.000000	61.605787 
4175.000000	61.668181 
4174.000000	61.709117 
4173.000000	61.724019 
4172.000000	61.713504 
4171.000000	61.682605 
4170.000000	61.639380 
4169.000000	61.592793 
4168.000000	61.550855 
4167.000000	61.518931 
4166.000000	61.499619 
4165.000000	61.492037 
4164.000000	61.493325 
4163.000000	61.498689 
4162.000000	61.502718 
4161.000000	61.500573 
4160.000000	61.488080 
4159.000000	61.463880 
4158.000000	61.428976 
4157.000000	61.387825 
4156.000000	61.347031 
4155.000000	61.314415 
4154.000000	61.296987 
4153.000000	61.299681 
4152.000000	61.324024 
4151.000000	61.367869 
4150.000000	61.425590 
4149.000000	61.489534 
4148.000000	61.551308 
4147.000000	61.603736 
4146.000000	61.642098 
4145.000000	61.664462 
4144.000000	61.671638 
4143.000000	61.666822 
4142.000000	61.654615 
4141.000000	61.639928 
4140.000000	61.627054 
4139.000000	61.619496 
4138.000000	61.619067 
4137.000000	61.627101 
4136.000000	61.643028 
4135.000000	61.665081 
4134.000000	61.689758 
4133.000000	61.712646 
4132.000000	61.729288 
4131.000000	61.735820 
4130.000000	61.730170 
4129.000000	61.712527 
4128.000000	61.685228 
4127.000000	61.652398 
4126.000000	61.618876 
4125.000000	61.589169 
4124.000000	61.566400 
4123.000000	61.551666 
4122.000000	61.544084 
4121.000000	61.541271 
4120.000000	61.540126 
4119.000000	61.538028 
4118.000000	61.533308 
4117.000000	61.525869 
4116.000000	61.517167 
4115.000000	61.509990 
4114.000000	61.507177 
4113.000000	61.510992 
4112.000000	61.522555 
4111.000000	61.541056 
4110.000000	61.564493 
4109.000000	61.589026 
4108.000000	61.609983 
4107.000000	61.622381 
4106.000000	61.622309 
4105.000000	61.607885 
4104.000000	61.579680 
4103.000000	61.540913 
4102.000000	61.496925 
4101.000000	61.453819 
4100.000000	61.417484 
4099.000000	61.391758 
4098.000000	61.377835 
4097.000000	61.374163 
4096.000000	61.377191 
4095.000000	61.382412 
4094.000000	61.385679 
4093.000000	61.384272 
4092.000000	61.377716 
4091.000000	61.367535 
4090.000000	61.356830 
4089.000000	61.349105 
4088.000000	61.347603 
4087.000000	61.354255 
4086.000000	61.369752 
4085.000000	61.393880 
4084.000000	61.425709 
4083.000000	61.464309 
4082.000000	61.508584 
4081.000000	61.557054 
4080.000000	61.607575 
4079.000000	61.657238 
4078.000000	61.702370 
4077.000000	61.738824 
4076.000000	61.762356 
4075.000000	61.770200 
4074.000000	61.760497 
4073.000000	61.733722 
4072.000000	61.691761 
4071.000000	61.637949 
4070.000000	61.576414 
4069.000000	61.511635 
4068.000000	61.448049 
4067.000000	61.389756 
4066.000000	61.340475 
4065.000000	61.303472 
4064.000000	61.281442 
4063.000000	61.275911 
4062.000000	61.286759 
4061.000000	61.312031 
4060.000000	61.347365 
4059.000000	61.387014 
4058.000000	61.424636 
4057.000000	61.454796 
4056.000000	61.473941 
4055.000000	61.481237 
4054.000000	61.478781 
4053.000000	61.470580 
4052.000000	61.461925 
4051.000000	61.456656 
4050.000000	61.457014 
4049.000000	61.461830 
4048.000000	61.467337 
4047.000000	61.467337 
4046.000000	61.455440 
4045.000000	61.426305 
4044.000000	61.377549 
4043.000000	61.310625 
4042.000000	61.230778 
4041.000000	61.146402 
4040.000000	61.067295 
4039.000000	61.002993 
4038.000000	60.960650 
4037.000000	60.944008 
4036.000000	60.952854 
4035.000000	60.982918 
4034.000000	61.027050 
4033.000000	61.076593 
4032.000000	61.123275 
4031.000000	61.160469 
4030.000000	61.184597 
4029.000000	61.194920 
4028.000000	61.193799 
4027.000000	61.185359 
4026.000000	61.174488 
4025.000000	61.165356 
4024.000000	61.160588 
4023.000000	61.161065 
4022.000000	61.165380 
4021.000000	61.171364 
4020.000000	61.176085 
4019.000000	61.177206 
4018.000000	61.173510 
4017.000000	61.165475 
4016.000000	61.154723 
4015.000000	61.143445 
4014.000000	61.133790 
4013.000000	61.127114 
4012.000000	61.123299 
4011.000000	61.120843 
4010.000000	61.117434 
4009.000000	61.110591 
4008.000000	61.098313 
4007.000000	61.079955 
4006.000000	61.056756 
4005.000000	61.031532 
4004.000000	61.008358 
4003.000000	60.991501 
4002.000000	60.984420 
4001.000000	60.988974 
4000.000000	61.004877 
3999.000000	61.029720 
3998.000000	61.059212 
3997.000000	61.088466 
3996.000000	61.113023 
3995.000000	61.129832 
3994.000000	61.137652 
3993.000000	61.137437 
3992.000000	61.131787 
3991.000000	61.124277 
3990.000000	61.118197 
3989.000000	61.115813 
3988.000000	61.117744 
3987.000000	61.122870 
3986.000000	61.128902 
3985.000000	61.132788 
3984.000000	61.131811 
3983.000000	61.124205 
3982.000000	61.109709 
3981.000000	61.089372 
3980.000000	61.065649 
3979.000000	61.041235 
3978.000000	61.018967 
3977.000000	61.001634 
3976.000000	60.991215 
3975.000000	60.988950 
3974.000000	60.994768 
3973.000000	61.007952 
3972.000000	61.026358 
3971.000000	61.047220 
3970.000000	61.066842 
3969.000000	61.081004 
3968.000000	61.085987 
3967.000000	61.078548 
3966.000000	61.057615 
3965.000000	61.024379 
3964.000000	60.982513 
3963.000000	60.937523 
3962.000000	60.896134 
3961.000000	60.864806 
3960.000000	60.848522 
3959.000000	60.849738 
3958.000000	60.867834 
3957.000000	60.899281 
3956.000000	60.938239 
3955.000000	60.977673 
3954.000000	61.010313 
3953.000000	61.029720 
3952.000000	61.031246 
3951.000000	61.012578 
3950.000000	60.973978 
3949.000000	60.918211 
3948.000000	60.850167 
3947.000000	60.776352 
3946.000000	60.703873 
3945.000000	60.639405 
3944.000000	60.588598 
3943.000000	60.554909 
3942.000000	60.539317 
3941.000000	60.540008 
3940.000000	60.552692 
3939.000000	60.571837 
3938.000000	60.591459 
3937.000000	60.606694 
3936.000000	60.614156 
3935.000000	60.612916 
3934.000000	60.603904 
3933.000000	60.589551 
3932.000000	60.573005 
3931.000000	60.557270 
3930.000000	60.544419 
3929.000000	60.535454 
3928.000000	60.530519 
3927.000000	60.528874 
3926.000000	60.529708 
3925.000000	60.532355 
3924.000000	60.536885 
3923.000000	60.544109 
3922.000000	60.555601 
3921.000000	60.572719 
3920.000000	60.596156 
3919.000000	60.625529 
3918.000000	60.658907 
3917.000000	60.693287 
3916.000000	60.724830 
3915.000000	60.749363 
3914.000000	60.763692 
3913.000000	60.766458 
3912.000000	60.758185 
3911.000000	60.741162 
3910.000000	60.719013 
3909.000000	60.696244 
3908.000000	60.677051 
3907.000000	60.664272 
3906.000000	60.659217 
3905.000000	60.661482 
3904.000000	60.669302 
3903.000000	60.680270 
3902.000000	60.691738 
3901.000000	60.701251 
3900.000000	60.706949 
3899.000000	60.707473 
3898.000000	60.701751 
3897.000000	60.688900 
3896.000000	60.668277 
3895.000000	60.639667 
3894.000000	60.603475 
3893.000000	60.561060 
3892.000000	60.515022 
3891.000000	60.469245 
3890.000000	60.428071 
3889.000000	60.396313 
3888.000000	60.378217 
3887.000000	60.376882 
3886.000000	60.393476 
3885.000000	60.427188 
3884.000000	60.475444 
3883.000000	60.534000 
3882.000000	60.597395 
3881.000000	60.659575 
3880.000000	60.714554 
3879.000000	60.756945 
3878.000000	60.782694 
3877.000000	60.789155 
3876.000000	60.775494 
3875.000000	60.743165 
3874.000000	60.695815 
3873.000000	60.638737 
3872.000000	60.577869 
3871.000000	60.519504 
3870.000000	60.468840 
3869.000000	60.429453 
3868.000000	60.402464 
3867.000000	60.386800 
3866.000000	60.379743 
3865.000000	60.378003 
3864.000000	60.378360 
3863.000000	60.378575 
3862.000000	60.377502 
3861.000000	60.374855 
3860.000000	60.370922 
3859.000000	60.365486 
3858.000000	60.358095 
3857.000000	60.347557 
3856.000000	60.332798 
3855.000000	60.312891 
3854.000000	60.288500 
3853.000000	60.261964 
3852.000000	60.237455 
3851.000000	60.220074 
3850.000000	60.215258 
3849.000000	60.227489 
3848.000000	60.258913 
3847.000000	60.308432 
3846.000000	60.371899 
3845.000000	60.442566 
3844.000000	60.512208 
3843.000000	60.572457 
3842.000000	60.616636 
3841.000000	60.640597 
3840.000000	60.643601 
3839.000000	60.627794 
3838.000000	60.597515 
3837.000000	60.558128 
3836.000000	60.515522 
3835.000000	60.474252 
3834.000000	60.437321 
3833.000000	60.405445 
3832.000000	60.378432 
3831.000000	60.354757 
3830.000000	60.332870 
3829.000000	60.311317 
3828.000000	60.289382 
3827.000000	60.267472 
3826.000000	60.246777 
3825.000000	60.229063 
3824.000000	60.215806 
3823.000000	60.208249 
3822.000000	60.206675 
3821.000000	60.210299 
3820.000000	60.216999 
3819.000000	60.223293 
3818.000000	60.225105 
3817.000000	60.218048 
3816.000000	60.198736 
3815.000000	60.165405 
3814.000000	60.119032 
3813.000000	60.062813 
3812.000000	60.002899 
3811.000000	59.946894 
3810.000000	59.903192 
3809.000000	59.878945 
3808.000000	59.878730 
3807.000000	59.903812 
3806.000000	59.951257 
3805.000000	60.014748 
3804.000000	60.085153 
3803.000000	60.152149 
3802.000000	60.206055 
3801.000000	60.239458 
3800.000000	60.248351 
3799.000000	60.232305 
3798.000000	60.194849 
3797.000000	60.142230 
3796.000000	60.082626 
3795.000000	60.024356 
3794.000000	59.974837 
3793.000000	59.939408 
3792.000000	59.920454 
3791.000000	59.917306 
3790.000000	59.926819 
3789.000000	59.944295 
3788.000000	59.964752 
3787.000000	59.983825 
3786.000000	59.998583 
3785.000000	60.007953 
3784.000000	60.012197 
3783.000000	60.012388 
3782.000000	60.009932 
3781.000000	60.005831 
3780.000000	60.000109 
3779.000000	59.992289 
3778.000000	59.981894 
3777.000000	59.968805 
3776.000000	59.953832 
3775.000000	59.938669 
3774.000000	59.925842 
3773.000000	59.917950 
3772.000000	59.916996 
3771.000000	59.923839 
3770.000000	59.937524 
3769.000000	59.956049 
3768.000000	59.976935 
3767.000000	59.997892 
3766.000000	60.017395 
3765.000000	60.035014 
3764.000000	60.051131 
3763.000000	60.066747 
3762.000000	60.082697 
3761.000000	60.099267 
3760.000000	60.116052 
3759.000000	60.131835 
3758.000000	60.145258 
3757.000000	60.155296 
3756.000000	60.161495 
3755.000000	60.164403 
3754.000000	60.164999 
3753.000000	60.164928 
3752.000000	60.165476 
3751.000000	60.167336 
3750.000000	60.170269 
3749.000000	60.173153 
3748.000000	60.174202 
3747.000000	60.171484 
3746.000000	60.163569 
3745.000000	60.149741 
3744.000000	60.130238 
3743.000000	60.106062 
3742.000000	60.078930 
3741.000000	60.050725 
3740.000000	60.023236 
3739.000000	59.997677 
3738.000000	59.974884 
3737.000000	59.955096 
3736.000000	59.937953 
3735.000000	59.922885 
3734.000000	59.909296 
3733.000000	59.896683 
3732.000000	59.884548 
3731.000000	59.872508 
3730.000000	59.860515 
3729.000000	59.848785 
3728.000000	59.837412 
3727.000000	59.826803 
3726.000000	59.817361 
3725.000000	59.809327 
3724.000000	59.802818 
3723.000000	59.797310 
3722.000000	59.792089 
3721.000000	59.786081 
3720.000000	59.777998 
3719.000000	59.766888 
3718.000000	59.752345 
3717.000000	59.734749 
3716.000000	59.715294 
3715.000000	59.695863 
3714.000000	59.678530 
3713.000000	59.665298 
3712.000000	59.657621 
3711.000000	59.656023 
3710.000000	59.660053 
3709.000000	59.668588 
3708.000000	59.680056 
3707.000000	59.692645 
3706.000000	59.704566 
3705.000000	59.714365 
3704.000000	59.720993 
3703.000000	59.723806 
3702.000000	59.722518 
3701.000000	59.717059 
3700.000000	59.707546 
3699.000000	59.694743 
3698.000000	59.679460 
3697.000000	59.662866 
3696.000000	59.646105 
3695.000000	59.630084 
3694.000000	59.615302 
3693.000000	59.601902 
3692.000000	59.589552 
3691.000000	59.577655 
3690.000000	59.565687 
3689.000000	59.553527 
3688.000000	59.541654 
3687.000000	59.530973 
3686.000000	59.523034 
3685.000000	59.519505 
3684.000000	59.521770 
3683.000000	59.530544 
3682.000000	59.545612 
3681.000000	59.565591 
3680.000000	59.587979 
3679.000000	59.609150 
3678.000000	59.625220 
3677.000000	59.632301 
3676.000000	59.627461 
3675.000000	59.608983 
3674.000000	59.576869 
3673.000000	59.533119 
3672.000000	59.481406 
3671.000000	59.426760 
3670.000000	59.374761 
3669.000000	59.330773 
3668.000000	59.299159 
3667.000000	59.282374 
3666.000000	59.280943 
3665.000000	59.293389 
3664.000000	59.316611 
3663.000000	59.346580 
3662.000000	59.378933 
3661.000000	59.409928 
3660.000000	59.437012 
3659.000000	59.458780 
3658.000000	59.474849 
3657.000000	59.485840 
3656.000000	59.492707 
3655.000000	59.496521 
3654.000000	59.497952 
3653.000000	59.497261 
3652.000000	59.494328 
3651.000000	59.489202 
3650.000000	59.482097 
3649.000000	59.473729 
3648.000000	59.465384 
3647.000000	59.458589 
3646.000000	59.455132 
3645.000000	59.456562 
3644.000000	59.463763 
3643.000000	59.476661 
3642.000000	59.493994 
3641.000000	59.513473 
3640.000000	59.531831 
3639.000000	59.545779 
3638.000000	59.552049 
3637.000000	59.548187 
3636.000000	59.532785 
3635.000000	59.506034 
3634.000000	59.469127 
3633.000000	59.424448 
3632.000000	59.375119 
3631.000000	59.324550 
3630.000000	59.276270 
3629.000000	59.233689 
3628.000000	59.199571 
3627.000000	59.176278 
3626.000000	59.165453 
3625.000000	59.167981 
3624.000000	59.183359 
3623.000000	59.209609 
3622.000000	59.243154 
3621.000000	59.279060 
3620.000000	59.311389 
3619.000000	59.334325 
3618.000000	59.343314 
3617.000000	59.335875 
3616.000000	59.312033 
3615.000000	59.274458 
3614.000000	59.228014 
3613.000000	59.178686 
3612.000000	59.132385 
3611.000000	59.093952 
3610.000000	59.066367 
3609.000000	59.050726 
3608.000000	59.046530 
3607.000000	59.052300 
3606.000000	59.065985 
3605.000000	59.085702 
3604.000000	59.109735 
3603.000000	59.136223 
3602.000000	59.163045 
3601.000000	59.187507 
3600.000000	59.206724 
3599.000000	59.217858 
3598.000000	59.218597 
3597.000000	59.208321 
3596.000000	59.187769 
3595.000000	59.159326 
3594.000000	59.125947 
3593.000000	59.090781 
3592.000000	59.056091 
3591.000000	59.023022 
3590.000000	58.991265 
3589.000000	58.959507 
3588.000000	58.926415 
3587.000000	58.891749 
3586.000000	58.856892 
3585.000000	58.824706 
3584.000000	58.799576 
3583.000000	58.785915 
3582.000000	58.787202 
3581.000000	58.804655 
3580.000000	58.836770 
3579.000000	58.879160 
3578.000000	58.925652 
3577.000000	58.969259 
3576.000000	59.003877 
3575.000000	59.025669 
3574.000000	59.033370 
3573.000000	59.028553 
3572.000000	59.015178 
3571.000000	58.998322 
3570.000000	58.982753 
3569.000000	58.971643 
3568.000000	58.966255 
3567.000000	58.965325 
3566.000000	58.966159 
3565.000000	58.964943 
3564.000000	58.958387 
3563.000000	58.944129 
3562.000000	58.921813 
3561.000000	58.893036 
3560.000000	58.860754 
3559.000000	58.828806 
3558.000000	58.800888 
3557.000000	58.780026 
3556.000000	58.767676 
3555.000000	58.763861 
3554.000000	58.767342 
3553.000000	58.776092 
3552.000000	58.787631 
3551.000000	58.799672 
3550.000000	58.810305 
3549.000000	58.818221 
3548.000000	58.822560 
3547.000000	58.822488 
3546.000000	58.817386 
3545.000000	58.806943 
3544.000000	58.791446 
3543.000000	58.771300 
3542.000000	58.747863 
3541.000000	58.723282 
3540.000000	58.700132 
3539.000000	58.681321 
3538.000000	58.669161 
3537.000000	58.664941 
3536.000000	58.668541 
3535.000000	58.678388 
3534.000000	58.691859 
3533.000000	58.705663 
3532.000000	58.716869 
3531.000000	58.723282 
3530.000000	58.724236 
3529.000000	58.720302 
3528.000000	58.713150 
3527.000000	58.705019 
3526.000000	58.697891 
3525.000000	58.692908 
3524.000000	58.690166 
3523.000000	58.688473 
3522.000000	58.685946 
3521.000000	58.680319 
3520.000000	58.669710 
3519.000000	58.653092 
3518.000000	58.630633 
3517.000000	58.603787 
3516.000000	58.574628 
3515.000000	58.545875 
3514.000000	58.520245 
3513.000000	58.500027 
3512.000000	58.486580 
3511.000000	58.480358 
3510.000000	58.480739 
3509.000000	58.486247 
3508.000000	58.494997 
3507.000000	58.504939 
3506.000000	58.514499 
3505.000000	58.522367 
3504.000000	58.527708 
3503.000000	58.529853 
3502.000000	58.528280 
3501.000000	58.522319 
3500.000000	58.511042 
3499.000000	58.493852 
3498.000000	58.470773 
3497.000000	58.442616 
3496.000000	58.411145 
3495.000000	58.378696 
3494.000000	58.347988 
3493.000000	58.321404 
3492.000000	58.300542 
3491.000000	58.285665 
3490.000000	58.275794 
3489.000000	58.269095 
3488.000000	58.263421 
3487.000000	58.256912 
3486.000000	58.248639 
3485.000000	58.238458 
3484.000000	58.227396 
3483.000000	58.216619 
3482.000000	58.207440 
3481.000000	58.200383 
3480.000000	58.195257 
3479.000000	58.191347 
3478.000000	58.187389 
3477.000000	58.182287 
3476.000000	58.175253 
3475.000000	58.165907 
3474.000000	58.154368 
3473.000000	58.141136 
3472.000000	58.126807 
3471.000000	58.111882 
3470.000000	58.096957 
3469.000000	58.082890 
3468.000000	58.070826 
3467.000000	58.062267 
3466.000000	58.059144 
3465.000000	58.063244 
3464.000000	58.076000 
3463.000000	58.097839 
3462.000000	58.127689 
3461.000000	58.162546 
3460.000000	58.198046 
3459.000000	58.228731 
3458.000000	58.249330 
3457.000000	58.255577 
3456.000000	58.245205 
3455.000000	58.218431 
3454.000000	58.178114 
3453.000000	58.129382 
3452.000000	58.078694 
3451.000000	58.032751 
3450.000000	57.997179 
3449.000000	57.976126 
3448.000000	57.971668 
3447.000000	57.983922 
3446.000000	58.010983 
3445.000000	58.049798 
3444.000000	58.096575 
3443.000000	58.147263 
3442.000000	58.197522 
3441.000000	58.242869 
3440.000000	58.278942 
3439.000000	58.301687 
3438.000000	58.307719 
3437.000000	58.294892 
3436.000000	58.263087 
3435.000000	58.214735 
3434.000000	58.154582 
3433.000000	58.089590 
3432.000000	58.027434 
3431.000000	57.975888 
3430.000000	57.940387 
3429.000000	57.923746 
3428.000000	57.924556 
3427.000000	57.938218 
3426.000000	57.957291 
3425.000000	57.973265 
3424.000000	57.978343 
3423.000000	57.967042 
3422.000000	57.937717 
3421.000000	57.892370 
3420.000000	57.836556 
3419.000000	57.777547 
3418.000000	57.722997 
3417.000000	57.679224 
3416.000000	57.649850 
3415.000000	57.635450 
3414.000000	57.634043 
3413.000000	57.642030 
3412.000000	57.655048 
3411.000000	57.669425 
3410.000000	57.682681 
3409.000000	57.694244 
3408.000000	57.704401 
3407.000000	57.714533 
3406.000000	57.725882 
3405.000000	57.739639 
3404.000000	57.756090 
3403.000000	57.775092 
3402.000000	57.795858 
3401.000000	57.817459 
3400.000000	57.839179 
3399.000000	57.860040 
3398.000000	57.878899 
3397.000000	57.894062 
3396.000000	57.903790 
3395.000000	57.905936 
3394.000000	57.898712 
3393.000000	57.880735 
3392.000000	57.851624 
3391.000000	57.812261 
3390.000000	57.764887 
3389.000000	57.712697 
3388.000000	57.659554 
3387.000000	57.609415 
3386.000000	57.565784 
3385.000000	57.531595 
3384.000000	57.508778 
3383.000000	57.497906 
3382.000000	57.498383 
3381.000000	57.508420 
3380.000000	57.525420 
3379.000000	57.545971 
3378.000000	57.566738 
3377.000000	57.584214 
3376.000000	57.595896 
3375.000000	57.600188 
3374.000000	57.597017 
3373.000000	57.587623 
3372.000000	57.574224 
3371.000000	57.559704 
3370.000000	57.546401 
3369.000000	57.536101 
3368.000000	57.528924 
3367.000000	57.523632 
3366.000000	57.517600 
3365.000000	57.507681 
3364.000000	57.491016 
3363.000000	57.465982 
3362.000000	57.432770 
3361.000000	57.393383 
3360.000000	57.351732 
3359.000000	57.312822 
3358.000000	57.281661 
3357.000000	57.262206 
3356.000000	57.256674 
3355.000000	57.264971 
3354.000000	57.284760 
3353.000000	57.312059 
3352.000000	57.341909 
3351.000000	57.369589 
3350.000000	57.390975 
3349.000000	57.403945 
3348.000000	57.407951 
3347.000000	57.404470 
3346.000000	57.396078 
3345.000000	57.386136 
3344.000000	57.377815 
3343.000000	57.373523 
3342.000000	57.374620 
3341.000000	57.380771 
3340.000000	57.390356 
3339.000000	57.400417 
3338.000000	57.407784 
3337.000000	57.408976 
3336.000000	57.401227 
3335.000000	57.382535 
3334.000000	57.352209 
3333.000000	57.310724 
3332.000000	57.259607 
3331.000000	57.201242 
3330.000000	57.138872 
3329.000000	57.075881 
3328.000000	57.015919 
3327.000000	56.962490 
3326.000000	56.918668 
3325.000000	56.886577 
3324.000000	56.867599 
3323.000000	56.861519 
3322.000000	56.867456 
3321.000000	56.883335 
3320.000000	56.906938 
3319.000000	56.935334 
3318.000000	56.966161 
3317.000000	56.997346 
3316.000000	57.027435 
3315.000000	57.055330 
3314.000000	57.080101 
3313.000000	57.100701 
3312.000000	57.115888 
3311.000000	57.124233 
3310.000000	57.124352 
3309.000000	57.115340 
3308.000000	57.097101 
3307.000000	57.070612 
3306.000000	57.037973 
3305.000000	57.002139 
3304.000000	56.966495 
3303.000000	56.934165 
3302.000000	56.907677 
3301.000000	56.888580 
3300.000000	56.877326 
3299.000000	56.873273 
3298.000000	56.874799 
3297.000000	56.880068 
3296.000000	56.887054 
3295.000000	56.894373 
3294.000000	56.900954 
3293.000000	56.906461 
3292.000000	56.910777 
3291.000000	56.914114 
3290.000000	56.916570 
3289.000000	56.917858 
3288.000000	56.917381 
3287.000000	56.914424 
3286.000000	56.908178 
3285.000000	56.898117 
3284.000000	56.884193 
3283.000000	56.866741 
3282.000000	56.846642 
3281.000000	56.824898 
3280.000000	56.802487 
3279.000000	56.780028 
3278.000000	56.757616 
3277.000000	56.734943 
3276.000000	56.711530 
3275.000000	56.686973 
3274.000000	56.661391 
3273.000000	56.635332 
3272.000000	56.610107 
3271.000000	56.587123 
3270.000000	56.568002 
3269.000000	56.553626 
3268.000000	56.544542 
3267.000000	56.540441 
3266.000000	56.540656 
3265.000000	56.544113 
3264.000000	56.550073 
3263.000000	56.558322 
3262.000000	56.569266 
3261.000000	56.583476 
3260.000000	56.601881 
3259.000000	56.624984 
3258.000000	56.652665 
3257.000000	56.683683 
3256.000000	56.715869 
3255.000000	56.746339 
3254.000000	56.771945 
3253.000000	56.789827 
3252.000000	56.797504 
3251.000000	56.793618 
3250.000000	56.777858 
3249.000000	56.751179 
3248.000000	56.715416 
3247.000000	56.673145 
3246.000000	56.627583 
3245.000000	56.582021 
3244.000000	56.539535 
3243.000000	56.502604 
3242.000000	56.473207 
3241.000000	56.452226 
3240.000000	56.439375 
3239.000000	56.433224 
3238.000000	56.431603 
3237.000000	56.431555 
3236.000000	56.429743 
3235.000000	56.423115 
3234.000000	56.409239 
3233.000000	56.386804 
3232.000000	56.355953 
3231.000000	56.318140 
3230.000000	56.275939 
3229.000000	56.232786 
3228.000000	56.192278 
3227.000000	56.157588 
3226.000000	56.130790 
3225.000000	56.112670 
3224.000000	56.102776 
3223.000000	56.099390 
3222.000000	56.100225 
3221.000000	56.102991 
3220.000000	56.105947 
3219.000000	56.108188 
3218.000000	56.109976 
3217.000000	56.112217 
3216.000000	56.116557 
3215.000000	56.124353 
3214.000000	56.136608 
3213.000000	56.153392 
3212.000000	56.173849 
3211.000000	56.196498 
3210.000000	56.219291 
3209.000000	56.240272 
3208.000000	56.257510 
3207.000000	56.269812 
3206.000000	56.276297 
3205.000000	56.276512 
3204.000000	56.270313 
3203.000000	56.257891 
3202.000000	56.239533 
3201.000000	56.215715 
3200.000000	56.187462 
3199.000000	56.156563 
3198.000000	56.125330 
3197.000000	56.096673 
3196.000000	56.073546 
3195.000000	56.058645 
3194.000000	56.053638 
3193.000000	56.058645 
3192.000000	56.072163 
3191.000000	56.090974 
3190.000000	56.111025 
3189.000000	56.127762 
3188.000000	56.137037 
3187.000000	56.135964 
3186.000000	56.123304 
3185.000000	56.099772 
3184.000000	56.067419 
3183.000000	56.029701 
3182.000000	55.990624 
3181.000000	55.954408 
3180.000000	55.924534 
3179.000000	55.903720 
3178.000000	55.893635 
3177.000000	55.894732 
3176.000000	55.906295 
3175.000000	55.926418 
3174.000000	55.952405 
3173.000000	55.980849 
3172.000000	56.008052 
3171.000000	56.030607 
3170.000000	56.045937 
3169.000000	56.052565 
3168.000000	56.050348 
3167.000000	56.040644 
3166.000000	56.025791 
3165.000000	56.008744 
3164.000000	55.992317 
3163.000000	55.978631 
3162.000000	55.968761 
3161.000000	55.962634 
3160.000000	55.959129 
3159.000000	55.956411 
3158.000000	55.952453 
3157.000000	55.945491 
3156.000000	55.934524 
3155.000000	55.919337 
3154.000000	55.900454 
3153.000000	55.879116 
3152.000000	55.856585 
3151.000000	55.833959 
3150.000000	55.812144 
3149.000000	55.791664 
3148.000000	55.772662 
3147.000000	55.755019 
3146.000000	55.738401 
3145.000000	55.722332 
3144.000000	55.706071 
3143.000000	55.688834 
3142.000000	55.669283 
3141.000000	55.646347 
3140.000000	55.619311 
3139.000000	55.588531 
3138.000000	55.554962 
3137.000000	55.520844 
3136.000000	55.488967 
3135.000000	55.462527 
3134.000000	55.444049 
3133.000000	55.435252 
3132.000000	55.436158 
3131.000000	55.445408 
3130.000000	55.460572 
3129.000000	55.478668 
3128.000000	55.496716 
3127.000000	55.512619 
3126.000000	55.525207 
3125.000000	55.534672 
3124.000000	55.541992 
3123.000000	55.548429 
3122.000000	55.555009 
3121.000000	55.561661 
3120.000000	55.567073 
3119.000000	55.569028 
3118.000000	55.564904 
3117.000000	55.552220 
3116.000000	55.529522 
3115.000000	55.496883 
3114.000000	55.456161 
3113.000000	55.410480 
3112.000000	55.363821 
3111.000000	55.319976 
3110.000000	55.282497 
3109.000000	55.253696 
3108.000000	55.234885 
3107.000000	55.226230 
3106.000000	55.226874 
3105.000000	55.235147 
3104.000000	55.248999 
3103.000000	55.265903 
3102.000000	55.283474 
3101.000000	55.299425 
3100.000000	55.312132 
3099.000000	55.320239 
3098.000000	55.323219 
3097.000000	55.321145 
3096.000000	55.314588 
3095.000000	55.304431 
3094.000000	55.291891 
3093.000000	55.278229 
3092.000000	55.264711 
3091.000000	55.252218 
3090.000000	55.241322 
3089.000000	55.232381 
3088.000000	55.225229 
3087.000000	55.219531 
3086.000000	55.214905 
3085.000000	55.210876 
3084.000000	55.206990 
3083.000000	55.202889 
3082.000000	55.198311 
3081.000000	55.192828 
3080.000000	55.186295 
3079.000000	55.178189 
3078.000000	55.167889 
3077.000000	55.154633 
3076.000000	55.137920 
3075.000000	55.117583 
3074.000000	55.094122 
3073.000000	55.068540 
3072.000000	55.042552 
3071.000000	55.017828 
3070.000000	54.996085 
3069.000000	54.978251 
3068.000000	54.964566 
3067.000000	54.954457 
3066.000000	54.946994 
3065.000000	54.940867 
3064.000000	54.934692 
3063.000000	54.927349 
3062.000000	54.917955 
3061.000000	54.905819 
3060.000000	54.890465 
3059.000000	54.871654 
3058.000000	54.849410 
3057.000000	54.824209 
3056.000000	54.797172 
3055.000000	54.770064 
3054.000000	54.745459 
3053.000000	54.726004 
3052.000000	54.714179 
3051.000000	54.711675 
3050.000000	54.718899 
3049.000000	54.734730 
3048.000000	54.756665 
3047.000000	54.781365 
3046.000000	54.805183 
3045.000000	54.824876 
3044.000000	54.837870 
3043.000000	54.842615 
3042.000000	54.838633 
3041.000000	54.826307 
3040.000000	54.806804 
3039.000000	54.781556 
3038.000000	54.752302 
3037.000000	54.720973 
3036.000000	54.689550 
3035.000000	54.659914 
3034.000000	54.633831 
3033.000000	54.612755 
3032.000000	54.597687 
3031.000000	54.588794 
3030.000000	54.585647 
3029.000000	54.586911 
3028.000000	54.590630 
3027.000000	54.594683 
3026.000000	54.596781 
3025.000000	54.594898 
3024.000000	54.587364 
3023.000000	54.573225 
3022.000000	54.552340 
3021.000000	54.525589 
3020.000000	54.494738 
3019.000000	54.462313 
3018.000000	54.431295 
3017.000000	54.404377 
3016.000000	54.383730 
3015.000000	54.370212 
3014.000000	54.363465 
3013.000000	54.361915 
3012.000000	54.363465 
3011.000000	54.365825 
3010.000000	54.367089 
3009.000000	54.366159 
3008.000000	54.362821 
3007.000000	54.357600 
3006.000000	54.351282 
3005.000000	54.344391 
3004.000000	54.336905 
3003.000000	54.328155 
3002.000000	54.317092 
3001.000000	54.302811 
3000.000000	54.284739 
2999.000000	54.263377 
2998.000000	54.239940 
2997.000000	54.216337 
2996.000000	54.194712 
2995.000000	54.176568 
2994.000000	54.162859 
2993.000000	54.153490 
2992.000000	54.147791 
2991.000000	54.144549 
2990.000000	54.142546 
2989.000000	54.140853 
2988.000000	54.138970 
2987.000000	54.136896 
2986.000000	54.134678 
2985.000000	54.132223 
2984.000000	54.129147 
2983.000000	54.124450 
2982.000000	54.117035 
2981.000000	54.105663 
2980.000000	54.089522 
2979.000000	54.068183 
2978.000000	54.042029 
2977.000000	54.011869 
2976.000000	53.979039 
2975.000000	53.944897 
2974.000000	53.910756 
2973.000000	53.877496 
2972.000000	53.845834 
2971.000000	53.816151 
2970.000000	53.788471 
2969.000000	53.762769 
2968.000000	53.738808 
2967.000000	53.716707 
2966.000000	53.696870 
2965.000000	53.679966 
2964.000000	53.666853 
2963.000000	53.658342 
2962.000000	53.654956 
2961.000000	53.656625 
2960.000000	53.662538 
2959.000000	53.671050 
2958.000000	53.680038 
2957.000000	53.687000 
2956.000000	53.689599 
2955.000000	53.685998 
2954.000000	53.675460 
2953.000000	53.658342 
2952.000000	53.636384 
2951.000000	53.612494 
2950.000000	53.590202 
2949.000000	53.573179 
2948.000000	53.564238 
2947.000000	53.564858 
2946.000000	53.574752 
2945.000000	53.591823 
2944.000000	53.612637 
2943.000000	53.632855 
2942.000000	53.648328 
2941.000000	53.656077 
2940.000000	53.654456 
2939.000000	53.643250 
2938.000000	53.623747 
2937.000000	53.598284 
2936.000000	53.569912 
2935.000000	53.541731 
2934.000000	53.516554 
2933.000000	53.496432 
2932.000000	53.482317 
2931.000000	53.473949 
2930.000000	53.469872 
2929.000000	53.467726 
2928.000000	53.464841 
2927.000000	53.458738 
2926.000000	53.447270 
2925.000000	53.429269 
2924.000000	53.404116 
2923.000000	53.372383 
2922.000000	53.335142 
2921.000000	53.294277 
2920.000000	53.252172 
2919.000000	53.211712 
2918.000000	53.176069 
2917.000000	53.148412 
2916.000000	53.131318 
2915.000000	53.126573 
2914.000000	53.134393 
2913.000000	53.153514 
2912.000000	53.180980 
2911.000000	53.212785 
2910.000000	53.244161 
2909.000000	53.270792 
2908.000000	53.289318 
2907.000000	53.298068 
2906.000000	53.297090 
2905.000000	53.287863 
2904.000000	53.272724 
2903.000000	53.254342 
2902.000000	53.235006 
2901.000000	53.216123 
2900.000000	53.198194 
2899.000000	53.181147 
2898.000000	53.164672 
2897.000000	53.148651 
2896.000000	53.133201 
2895.000000	53.118920 
2894.000000	53.106522 
2893.000000	53.096508 
2892.000000	53.088927 
2891.000000	53.083062 
2890.000000	53.077745 
2889.000000	53.071570 
2888.000000	53.063273 
2887.000000	53.052306 
2886.000000	53.038740 
2885.000000	53.023338 
2884.000000	53.007364 
2883.000000	52.991962 
2882.000000	52.978205 
2881.000000	52.966880 
2880.000000	52.958250 
2879.000000	52.952098 
2878.000000	52.948045 
2877.000000	52.945852 
2876.000000	52.945303 
2875.000000	52.946257 
2874.000000	52.948594 
2873.000000	52.952122 
2872.000000	52.956533 
2871.000000	52.961087 
2870.000000	52.964782 
2869.000000	52.966403 
2868.000000	52.964901 
2867.000000	52.959227 
2866.000000	52.948880 
2865.000000	52.933526 
2864.000000	52.913737 
2863.000000	52.890372 
2862.000000	52.864861 
2861.000000	52.838873 
2860.000000	52.814054 
2859.000000	52.791619 
2858.000000	52.772140 
2857.000000	52.755379 
2856.000000	52.740383 
2855.000000	52.725863 
2854.000000	52.710270 
2853.000000	52.692723 
2852.000000	52.672958 
2851.000000	52.651691 
2850.000000	52.630209 
2849.000000	52.610206 
2848.000000	52.593278 
2847.000000	52.580237 
2846.000000	52.571082 
2845.000000	52.564644 
2844.000000	52.559065 
2843.000000	52.552366 
2842.000000	52.542877 
2841.000000	52.529644 
2840.000000	52.512860 
2839.000000	52.493548 
2838.000000	52.473616 
2837.000000	52.454829 
2836.000000	52.438592 
2835.000000	52.425646 
2834.000000	52.415895 
2833.000000	52.408623 
2832.000000	52.402853 
2831.000000	52.397847 
2830.000000	52.393555 
2829.000000	52.390599 
2828.000000	52.390050 
2827.000000	52.392983 
2826.000000	52.400135 
2825.000000	52.411413 
2824.000000	52.425980 
2823.000000	52.441978 
2822.000000	52.457118 
2821.000000	52.469205 
2820.000000	52.476429 
2819.000000	52.477717 
2818.000000	52.472925 
2817.000000	52.462625 
2816.000000	52.447867 
2815.000000	52.429914 
2814.000000	52.409934 
2813.000000	52.389001 
2812.000000	52.367997 
2811.000000	52.347517 
2810.000000	52.328276 
2809.000000	52.310705 
2808.000000	52.294850 
2807.000000	52.280592 
2806.000000	52.267360 
2805.000000	52.254724 
2804.000000	52.242183 
2803.000000	52.229905 
2802.000000	52.218317 
2801.000000	52.208662 
2800.000000	52.202415 
2799.000000	52.200961 
2798.000000	52.204799 
2797.000000	52.213478 
2796.000000	52.225327 
2795.000000	52.237510 
2794.000000	52.246642 
2793.000000	52.249574 
2792.000000	52.243828 
2791.000000	52.228569 
2790.000000	52.204608 
2789.000000	52.174401 
2788.000000	52.141451 
2787.000000	52.109599 
2786.000000	52.082300 
2785.000000	52.062106 
2784.000000	52.050161 
2783.000000	52.046298 
2782.000000	52.048921 
2781.000000	52.055740 
2780.000000	52.063798 
2779.000000	52.070212 
2778.000000	52.072358 
2777.000000	52.068209 
2776.000000	52.056455 
2775.000000	52.036547 
2774.000000	52.008676 
2773.000000	51.973772 
2772.000000	51.933550 
2771.000000	51.890301 
2770.000000	51.846861 
2769.000000	51.806497 
2768.000000	51.772475 
2767.000000	51.747584 
2766.000000	51.733946 
2765.000000	51.732230 
2764.000000	51.741695 
2763.000000	51.759934 
2762.000000	51.783275 
2761.000000	51.807260 
2760.000000	51.827192 
2759.000000	51.839065 
2758.000000	51.840043 
2757.000000	51.829290 
2756.000000	51.807737 
2755.000000	51.778221 
2754.000000	51.744484 
2753.000000	51.710724 
2752.000000	51.680731 
2751.000000	51.657056 
2750.000000	51.640701 
2749.000000	51.630759 
2748.000000	51.625084 
2747.000000	51.620745 
2746.000000	51.614952 
2745.000000	51.605677 
2744.000000	51.592111 
2743.000000	51.574730 
2742.000000	51.555228 
2741.000000	51.535868 
2740.000000	51.518869 
2739.000000	51.505851 
2738.000000	51.497387 
2737.000000	51.493024 
2736.000000	51.491332 
2735.000000	51.490187 
2734.000000	51.487421 
2733.000000	51.481199 
2732.000000	51.470446 
2731.000000	51.455116 
2730.000000	51.436185 
2729.000000	51.415300 
2728.000000	51.394462 
2727.000000	51.375842 
2726.000000	51.361131 
2725.000000	51.351428 
2724.000000	51.346850 
2723.000000	51.346755 
2722.000000	51.349735 
2721.000000	51.354002 
2720.000000	51.357460 
2719.000000	51.358246 
2718.000000	51.354813 
2717.000000	51.346254 
2716.000000	51.332116 
2715.000000	51.312565 
2714.000000	51.288342 
2713.000000	51.260590 
2712.000000	51.230692 
2711.000000	51.200032 
2710.000000	51.170086 
2709.000000	51.142120 
2708.000000	51.117229 
2707.000000	51.096105 
2706.000000	51.079177 
2705.000000	51.066446 
2704.000000	51.057672 
2703.000000	51.052379 
2702.000000	51.049876 
2701.000000	51.049256 
2700.000000	51.049518 
2699.000000	51.049542 
2698.000000	51.047992 
2697.000000	51.043605 
2696.000000	51.035094 
2695.000000	51.021361 
2694.000000	51.001811 
2693.000000	50.976705 
2692.000000	50.947141 
2691.000000	50.915265 
2690.000000	50.883746 
2689.000000	50.855755 
2688.000000	50.834250 
2687.000000	50.821423 
2686.000000	50.818133 
2685.000000	50.823712 
2684.000000	50.836133 
2683.000000	50.852251 
2682.000000	50.868535 
2681.000000	50.881505 
2680.000000	50.888681 
2679.000000	50.888800 
2678.000000	50.882220 
2677.000000	50.870633 
2676.000000	50.856614 
2675.000000	50.843143 
2674.000000	50.832438 
2673.000000	50.825881 
2672.000000	50.823330 
2671.000000	50.823688 
2670.000000	50.824427 
2669.000000	50.822877 
2668.000000	50.816464 
2667.000000	50.803494 
2666.000000	50.783371 
2665.000000	50.756597 
2664.000000	50.724625 
2663.000000	50.689506 
2662.000000	50.653433 
2661.000000	50.618267 
2660.000000	50.585508 
2659.000000	50.556087 
2658.000000	50.530481 
2657.000000	50.508761 
2656.000000	50.490736 
2655.000000	50.476121 
2654.000000	50.464391 
2653.000000	50.454735 
2652.000000	50.445961 
2651.000000	50.436615 
2650.000000	50.425291 
2649.000000	50.410819 
2648.000000	50.392460 
2647.000000	50.370383 
2646.000000	50.345587 
2645.000000	50.320148 
2644.000000	50.296425 
2643.000000	50.277185 
2642.000000	50.264787 
2641.000000	50.260710 
2640.000000	50.265312 
2639.000000	50.277566 
2638.000000	50.295066 
2637.000000	50.314521 
2636.000000	50.332379 
2635.000000	50.345349 
2634.000000	50.350975 
2633.000000	50.348067 
2632.000000	50.336885 
2631.000000	50.318884 
2630.000000	50.296235 
2629.000000	50.271534 
2628.000000	50.247168 
2627.000000	50.224947 
2626.000000	50.205445 
2625.000000	50.188779 
2624.000000	50.174045 
2623.000000	50.160288 
2622.000000	50.146317 
2621.000000	50.131058 
2620.000000	50.114035 
2619.000000	50.094723 
2618.000000	50.073385 
2617.000000	50.050234 
2616.000000	50.026416 
2615.000000	50.003194 
2614.000000	49.982595 
2613.000000	49.966764 
2612.000000	49.957609 
2611.000000	49.956226 
2610.000000	49.962401 
2609.000000	49.974298 
2608.000000	49.988913 
2607.000000	50.002288 
2606.000000	50.010347 
2605.000000	50.009679 
2604.000000	49.998474 
2603.000000	49.976873 
2602.000000	49.946880 
2601.000000	49.911665 
2600.000000	49.874711 
2599.000000	49.839234 
2598.000000	49.807024 
2597.000000	49.778628 
2596.000000	49.753475 
2595.000000	49.730443 
2594.000000	49.708724 
2593.000000	49.688291 
2592.000000	49.669957 
2591.000000	49.655747 
2590.000000	49.647712 
2589.000000	49.647593 
2588.000000	49.655985 
2587.000000	49.672031 
2586.000000	49.693250 
2585.000000	49.715900 
2584.000000	49.735760 
2583.000000	49.748873 
2582.000000	49.752473 
2581.000000	49.745416 
2580.000000	49.728465 
2579.000000	49.703788 
2578.000000	49.674558 
2577.000000	49.644255 
2576.000000	49.615788 
2575.000000	49.591207 
2574.000000	49.571084 
2573.000000	49.554824 
2572.000000	49.540972 
2571.000000	49.527549 
2570.000000	49.512863 
2569.000000	49.495553 
2568.000000	49.475312 
2567.000000	49.452590 
2566.000000	49.428701 
2565.000000	49.405217 
2564.000000	49.383807 
2563.000000	49.365782 
2562.000000	49.351882 
2561.000000	49.342393 
2560.000000	49.336838 
2559.000000	49.334263 
2558.000000	49.333167 
2557.000000	49.331808 
2556.000000	49.328064 
2555.000000	49.319934 
2554.000000	49.305772 
2553.000000	49.284625 
2552.000000	49.256467 
2551.000000	49.222016 
2550.000000	49.183058 
2549.000000	49.141883 
2548.000000	49.101018 
2547.000000	49.062967 
2546.000000	49.029731 
2545.000000	49.002695 
2544.000000	48.982572 
2543.000000	48.969054 
2542.000000	48.961257 
2541.000000	48.957538 
2540.000000	48.955893 
2539.000000	48.954606 
2538.000000	48.952078 
2537.000000	48.947453 
2536.000000	48.940539 
2535.000000	48.931646 
2534.000000	48.921442 
2533.000000	48.910832 
2532.000000	48.900604 
2531.000000	48.891353 
2530.000000	48.883366 
2529.000000	48.876905 
2528.000000	48.872065 
2527.000000	48.868989 
2526.000000	48.867774 
2525.000000	48.868417 
2524.000000	48.870468 
2523.000000	48.873090 
2522.000000	48.874902 
2521.000000	48.874211 
2520.000000	48.869371 
2519.000000	48.859024 
2518.000000	48.842692 
2517.000000	48.821115 
2516.000000	48.795962 
2515.000000	48.769640 
2514.000000	48.744416 
2513.000000	48.722434 
2512.000000	48.704910 
2511.000000	48.691844 
2510.000000	48.682308 
2509.000000	48.674702 
2508.000000	48.667311 
2507.000000	48.658919 
2506.000000	48.648929 
2505.000000	48.637485 
2504.000000	48.624992 
2503.000000	48.611950 
2502.000000	48.598456 
2501.000000	48.583984 
2500.000000	48.567700 
2499.000000	48.548793 
2498.000000	48.526930 
2497.000000	48.502683 
2496.000000	48.477625 
2495.000000	48.454332 
2494.000000	48.435544 
2493.000000	48.423528 
2492.000000	48.419570 
2491.000000	48.423600 
2490.000000	48.433923 
2489.000000	48.447775 
2488.000000	48.462009 
2487.000000	48.473477 
2486.000000	48.479890 
2485.000000	48.480057 
2484.000000	48.473763 
2483.000000	48.461651 
2482.000000	48.444771 
2481.000000	48.424530 
2480.000000	48.402166 
2479.000000	48.378992 
2478.000000	48.356270 
2477.000000	48.335218 
2476.000000	48.316693 
2475.000000	48.301243 
2474.000000	48.288989 
2473.000000	48.279166 
2472.000000	48.270344 
2471.000000	48.260593 
2470.000000	48.247861 
2469.000000	48.230671 
2468.000000	48.208379 
2467.000000	48.181676 
2466.000000	48.152375 
2465.000000	48.123288 
2464.000000	48.097586 
2463.000000	48.077917 
2462.000000	48.065781 
2461.000000	48.061156 
2460.000000	48.062229 
2459.000000	48.066043 
2458.000000	48.069071 
2457.000000	48.067998 
2456.000000	48.060536 
2455.000000	48.045754 
2454.000000	48.024535 
2453.000000	47.999095 
2452.000000	47.972655 
2451.000000	47.948384 
2450.000000	47.929191 
2449.000000	47.916698 
2448.000000	47.911167 
2447.000000	47.911691 
2446.000000	47.916245 
2445.000000	47.922301 
2444.000000	47.927093 
2443.000000	47.928237 
2442.000000	47.923827 
2441.000000	47.912621 
2440.000000	47.894024 
2439.000000	47.868323 
2438.000000	47.836613 
2437.000000	47.800779 
2436.000000	47.763276 
2435.000000	47.726845 
2434.000000	47.694230 
2433.000000	47.667503 
2432.000000	47.648167 
2431.000000	47.636675 
2430.000000	47.632479 
2429.000000	47.634291 
2428.000000	47.640299 
2427.000000	47.648572 
2426.000000	47.657203 
2425.000000	47.664666 
2424.000000	47.669601 
2423.000000	47.671031 
2422.000000	47.668337 
2421.000000	47.661185 
2420.000000	47.649621 
2419.000000	47.634077 
2418.000000	47.615551 
2417.000000	47.595357 
2416.000000	47.575139 
2415.000000	47.556281 
2414.000000	47.539782 
2413.000000	47.525906 
2412.000000	47.514176 
2411.000000	47.503542 
2410.000000	47.492694 
2409.000000	47.480559 
2408.000000	47.466635 
2407.000000	47.451210 
2406.000000	47.435379 
2405.000000	47.420740 
2404.000000	47.408843 
2403.000000	47.400951 
2402.000000	47.397470 
2401.000000	47.397780 
2400.000000	47.400283 
2399.000000	47.402906 
2398.000000	47.403120 
2397.000000	47.398781 
2396.000000	47.388291 
2395.000000	47.371196 
2394.000000	47.347807 
2393.000000	47.319340 
2392.000000	47.287559 
2391.000000	47.254657 
2390.000000	47.222781 
2389.000000	47.193813 
2388.000000	47.169232 
2387.000000	47.149801 
2386.000000	47.135758 
2385.000000	47.126626 
2384.000000	47.121429 
2383.000000	47.118735 
2382.000000	47.116875 
2381.000000	47.114181 
2380.000000	47.108983 
2379.000000	47.099828 
2378.000000	47.085714 
2377.000000	47.066354 
2376.000000	47.041869 
2375.000000	47.012948 
2374.000000	46.980929 
2373.000000	46.947503 
2372.000000	46.914458 
2371.000000	46.883511 
2370.000000	46.856117 
2369.000000	46.833324 
2368.000000	46.815514 
2367.000000	46.802401 
2366.000000	46.793198 
2365.000000	46.786522 
2364.000000	46.780967 
2363.000000	46.775007 
2362.000000	46.767282 
2361.000000	46.756982 
2360.000000	46.743893 
2359.000000	46.728348 
2358.000000	46.711206 
2357.000000	46.693682 
2356.000000	46.677064 
2355.000000	46.662521 
2354.000000	46.650981 
2353.000000	46.643018 
2352.000000	46.638655 
2351.000000	46.637463 
2350.000000	46.638703 
2349.000000	46.641397 
2348.000000	46.644353 
2347.000000	46.646523 
2346.000000	46.646881 
2345.000000	46.644639 
2344.000000	46.639370 
2343.000000	46.631050 
2342.000000	46.619915 
2341.000000	46.606373 
2340.000000	46.590757 
2339.000000	46.573543 
2338.000000	46.554923 
2337.000000	46.534991 
2336.000000	46.513652 
2335.000000	46.490979 
2334.000000	46.467256 
2333.000000	46.443247 
2332.000000	46.420097 
2331.000000	46.399092 
2330.000000	46.381473 
2329.000000	46.368026 
2328.000000	46.358799 
2327.000000	46.353101 
2326.000000	46.349453 
2325.000000	46.346020 
2324.000000	46.340966 
2323.000000	46.333003 
2322.000000	46.321773 
2321.000000	46.307849 
2320.000000	46.292614 
2319.000000	46.277880 
2318.000000	46.265530 
2317.000000	46.256685 
2316.000000	46.251773 
2315.000000	46.249938 
2314.000000	46.249508 
2313.000000	46.248030 
2312.000000	46.243166 
2311.000000	46.232962 
2310.000000	46.216320 
2309.000000	46.193242 
2308.000000	46.164917 
2307.000000	46.133375 
2306.000000	46.101427 
2305.000000	46.071839 
2304.000000	46.046900 
2303.000000	46.028208 
2302.000000	46.016144 
2301.000000	46.009993 
2300.000000	46.007895 
2299.000000	46.007323 
2298.000000	46.005511 
2297.000000	45.999884 
2296.000000	45.988655 
2295.000000	45.971155 
2294.000000	45.947980 
2293.000000	45.920729 
2292.000000	45.891976 
2291.000000	45.864582 
2290.000000	45.841026 
2289.000000	45.823025 
2288.000000	45.811271 
2287.000000	45.805191 
2286.000000	45.803213 
2285.000000	45.803117 
2284.000000	45.802497 
2283.000000	45.799279 
2282.000000	45.792007 
2281.000000	45.779991 
2280.000000	45.763301 
2279.000000	45.742702 
2278.000000	45.719289 
2277.000000	45.694351 
2276.000000	45.669221 
2275.000000	45.645093 
2274.000000	45.623207 
2273.000000	45.604586 
2272.000000	45.589804 
2271.000000	45.579195 
2270.000000	45.572566 
2269.000000	45.569324 
2268.000000	45.568346 
2267.000000	45.568418 
2266.000000	45.568084 
2265.000000	45.566225 
2264.000000	45.562028 
2263.000000	45.555233 
2262.000000	45.545864 
2261.000000	45.534253 
2260.000000	45.520925 
2259.000000	45.506143 
2258.000000	45.490169 
2257.000000	45.473122 
2256.000000	45.455121 
2255.000000	45.436358 
2254.000000	45.417213 
2253.000000	45.398283 
2252.000000	45.380401 
2251.000000	45.364236 
2250.000000	45.350241 
2249.000000	45.338630 
2248.000000	45.329189 
2247.000000	45.321512 
2246.000000	45.314955 
2245.000000	45.309019 
2244.000000	45.303392 
2243.000000	45.297813 
2242.000000	45.292448 
2241.000000	45.287346 
2240.000000	45.282530 
2239.000000	45.277714 
2238.000000	45.272231 
2237.000000	45.265364 
2236.000000	45.256328 
2235.000000	45.244455 
2234.000000	45.229244 
2233.000000	45.210933 
2232.000000	45.189952 
2231.000000	45.167112 
2230.000000	45.143175 
2229.000000	45.118570 
2228.000000	45.093512 
2227.000000	45.067834 
2226.000000	45.041251 
2225.000000	45.013570 
2224.000000	44.984889 
2223.000000	44.955873 
2222.000000	44.927644 
2221.000000	44.901561 
2220.000000	44.878959 
2219.000000	44.860720 
2218.000000	44.847083 
2217.000000	44.837284 
2216.000000	44.829869 
2215.000000	44.822716 
2214.000000	44.813609 
2213.000000	44.800710 
2212.000000	44.782614 
2211.000000	44.758963 
2210.000000	44.730281 
2209.000000	44.697999 
2208.000000	44.664096 
2207.000000	44.631004 
2206.000000	44.601202 
2205.000000	44.576907 
2204.000000	44.559693 
2203.000000	44.550371 
2202.000000	44.548702 
2201.000000	44.553565 
2200.000000	44.562935 
2199.000000	44.574379 
2198.000000	44.585204 
2197.000000	44.593167 
2196.000000	44.596600 
2195.000000	44.594645 
2194.000000	44.587063 
2193.000000	44.574451 
2192.000000	44.557857 
2191.000000	44.538283 
2190.000000	44.516491 
2189.000000	44.493246 
2188.000000	44.469070 
2187.000000	44.444656 
2186.000000	44.420599 
2185.000000	44.397854 
2184.000000	44.377207 
2183.000000	44.359350 
2182.000000	44.344544 
2181.000000	44.332289 
2180.000000	44.321584 
2179.000000	44.310951 
2178.000000	44.298839 
2177.000000	44.283986 
2176.000000	44.265770 
2175.000000	44.244337 
2174.000000	44.220495 
2173.000000	44.195747 
2172.000000	44.171833 
2171.000000	44.150471 
2170.000000	44.133162 
2169.000000	44.120764 
2168.000000	44.113922 
2167.000000	44.112730 
2166.000000	44.116806 
2165.000000	44.125247 
2164.000000	44.136714 
2163.000000	44.149136 
2162.000000	44.160056 
2161.000000	44.166636 
2160.000000	44.166350 
2159.000000	44.157147 
2158.000000	44.138097 
2157.000000	44.109463 
2156.000000	44.072937 
2155.000000	44.031310 
2154.000000	43.988060 
2153.000000	43.946623 
2152.000000	43.909788 
2151.000000	43.879294 
2150.000000	43.855762 
2149.000000	43.838500 
2148.000000	43.825960 
2147.000000	43.816232 
2146.000000	43.807411 
2145.000000	43.797922 
2144.000000	43.786835 
2143.000000	43.773770 
2142.000000	43.758797 
2141.000000	43.742394 
2140.000000	43.725156 
2139.000000	43.707704 
2138.000000	43.690538 
2137.000000	43.674063 
2136.000000	43.658447 
2135.000000	43.643689 
2134.000000	43.629693 
2133.000000	43.616175 
2132.000000	43.602800 
2131.000000	43.589043 
2130.000000	43.574666 
2129.000000	43.559598 
2128.000000	43.544101 
2127.000000	43.528723 
2126.000000	43.514347 
2125.000000	43.501806 
2124.000000	43.492078 
2123.000000	43.485713 
2122.000000	43.482875 
2121.000000	43.483138 
2120.000000	43.485617 
2119.000000	43.489074 
2118.000000	43.491983 
2117.000000	43.492746 
2116.000000	43.490004 
2115.000000	43.482923 
2114.000000	43.471121 
2113.000000	43.454957 
2112.000000	43.435454 
2111.000000	43.414044 
2110.000000	43.392372 
2109.000000	43.372035 
2108.000000	43.354320 
2107.000000	43.339896 
2106.000000	43.328809 
2105.000000	43.320441 
2104.000000	43.313694 
2103.000000	43.307209 
2102.000000	43.299698 
2101.000000	43.290114 
2100.000000	43.277764 
2099.000000	43.262362 
2098.000000	43.244028 
2097.000000	43.223118 
2096.000000	43.200159 
2095.000000	43.175768 
2094.000000	43.150734 
2093.000000	43.125915 
2092.000000	43.102073 
2091.000000	43.079876 
2090.000000	43.059706 
2089.000000	43.041491 
2088.000000	43.024730 
2087.000000	43.008685 
2086.000000	42.992544 
2085.000000	42.975640 
2084.000000	42.957806 
2083.000000	42.939257 
2082.000000	42.920970 
2081.000000	42.904233 
2080.000000	42.890453 
2079.000000	42.880630 
2078.000000	42.875266 
2077.000000	42.874002 
2076.000000	42.875695 
2075.000000	42.878556 
2074.000000	42.880582 
2073.000000	42.879986 
2072.000000	42.875528 
2071.000000	42.866659 
2070.000000	42.853736 
2069.000000	42.837548 
2068.000000	42.819166 
2067.000000	42.799544 
2066.000000	42.779254 
2065.000000	42.758560 
2064.000000	42.737126 
2063.000000	42.714476 
2062.000000	42.690253 
2061.000000	42.664766 
2060.000000	42.639136 
2059.000000	42.614960 
2058.000000	42.594385 
2057.000000	42.579340 
2056.000000	42.571115 
2055.000000	42.569828 
2054.000000	42.574310 
2053.000000	42.582225 
2052.000000	42.590641 
2051.000000	42.596602 
2050.000000	42.597699 
2049.000000	42.592763 
2048.000000	42.581844 
2047.000000	42.566013 
2046.000000	42.546987 
2045.000000	42.526459 
2044.000000	42.505764 
2043.000000	42.485475 
2042.000000	42.465424 
2041.000000	42.445015 
2040.000000	42.423725 
2039.000000	42.401289 
2038.000000	42.378115 
2037.000000	42.355108 
2036.000000	42.333436 
2035.000000	42.314147 
2034.000000	42.298007 
2033.000000	42.284893 
2032.000000	42.274141 
2031.000000	42.264723 
2030.000000	42.255568 
2029.000000	42.245745 
2028.000000	42.234945 
2027.000000	42.223310 
2026.000000	42.211461 
2025.000000	42.200160 
2024.000000	42.189931 
2023.000000	42.180848 
2022.000000	42.172551 
2021.000000	42.164301 
2020.000000	42.155265 
2019.000000	42.144441 
2018.000000	42.131304 
2017.000000	42.115879 
2016.000000	42.098617 
2015.000000	42.080235 
2014.000000	42.061638 
2013.000000	42.043662 
2012.000000	42.026972 
2011.000000	42.011976 
2010.000000	41.998910 
2009.000000	41.987752 
2008.000000	41.978406 
2007.000000	41.970849 
2006.000000	41.965007 
2005.000000	41.960740 
2004.000000	41.957807 
2003.000000	41.955924 
2002.000000	41.954469 
2001.000000	41.952967 
2000.000000	41.950821 
1999.000000	41.947484 
1998.000000	41.942596 
1997.000000	41.935729 
1996.000000	41.926693 
1995.000000	41.915130 
1994.000000	41.900801 
1993.000000	41.883158 
1992.000000	41.861844 
1991.000000	41.836571 
1990.000000	41.807579 
1989.000000	41.775465 
1988.000000	41.741514 
1987.000000	41.707658 
1986.000000	41.676115 
1985.000000	41.649198 
1984.000000	41.628742 
1983.000000	41.615676 
1982.000000	41.609740 
1981.000000	41.609549 
1980.000000	41.612744 
1979.000000	41.616296 
1978.000000	41.617465 
1977.000000	41.613960 
1976.000000	41.604495 
1975.000000	41.588997 
1974.000000	41.568660 
1973.000000	41.545200 
1972.000000	41.520690 
1971.000000	41.497206 
1970.000000	41.476297 
1969.000000	41.458845 
1968.000000	41.444897 
1967.000000	41.434049 
1966.000000	41.425442 
1965.000000	41.418147 
1964.000000	41.411161 
1963.000000	41.403579 
1962.000000	41.394734 
1961.000000	41.384220 
1960.000000	41.372036 
1959.000000	41.358447 
1958.000000	41.344213 
1957.000000	41.330409 
1956.000000	41.318011 
1955.000000	41.307687 
1954.000000	41.299653 
1953.000000	41.293525 
1952.000000	41.288208 
1951.000000	41.282010 
1950.000000	41.273021 
1949.000000	41.259551 
1948.000000	41.240596 
1947.000000	41.216087 
1946.000000	41.186881 
1945.000000	41.154456 
1944.000000	41.121053 
1943.000000	41.088795 
1942.000000	41.059470 
1941.000000	41.034173 
1940.000000	41.013216 
1939.000000	40.996432 
1938.000000	40.983152 
1937.000000	40.972495 
1936.000000	40.963530 
1935.000000	40.955710 
1934.000000	40.948605 
1933.000000	40.942215 
1932.000000	40.936684 
1931.000000	40.932416 
1930.000000	40.929651 
1929.000000	40.928602 
1928.000000	40.929317 
1927.000000	40.931272 
1926.000000	40.933704 
1925.000000	40.935325 
1924.000000	40.934514 
1923.000000	40.929627 
1922.000000	40.918993 
1921.000000	40.901446 
1920.000000	40.876340 
1919.000000	40.843915 
1918.000000	40.805244 
1917.000000	40.762090 
1916.000000	40.716695 
1915.000000	40.671515 
1914.000000	40.628910 
1913.000000	40.590667 
1912.000000	40.558123 
1911.000000	40.531945 
1910.000000	40.512275 
1909.000000	40.498781 
1908.000000	40.490746 
1907.000000	40.487146 
1906.000000	40.486812 
1905.000000	40.488338 
1904.000000	40.490150 
1903.000000	40.490508 
1902.000000	40.487813 
1901.000000	40.480732 
1900.000000	40.468382 
1899.000000	40.450477 
1898.000000	40.427541 
1897.000000	40.400791 
1896.000000	40.371990 
1895.000000	40.342974 
1894.000000	40.315842 
1893.000000	40.292191 
1892.000000	40.273213 
1891.000000	40.259361 
1890.000000	40.250372 
1889.000000	40.245366 
1888.000000	40.242981 
1887.000000	40.241551 
1886.000000	40.239238 
1885.000000	40.234303 
1884.000000	40.225577 
1883.000000	40.212535 
1882.000000	40.195202 
1881.000000	40.174508 
1880.000000	40.151977 
1879.000000	40.129613 
1878.000000	40.109300 
1877.000000	40.092492 
1876.000000	40.079808 
1875.000000	40.071010 
1874.000000	40.064811 
1873.000000	40.059041 
1872.000000	40.051412 
1871.000000	40.039634 
1870.000000	40.022325 
1869.000000	39.999055 
1868.000000	39.970564 
1867.000000	39.938592 
1866.000000	39.905452 
1865.000000	39.873552 
1864.000000	39.845061 
1863.000000	39.821219 
1862.000000	39.802527 
1861.000000	39.788651 
1860.000000	39.778709 
1859.000000	39.771556 
1858.000000	39.766240 
1857.000000	39.761972 
1856.000000	39.758324 
1855.000000	39.755225 
1854.000000	39.752745 
1853.000000	39.750719 
1852.000000	39.748787 
1851.000000	39.746427 
1850.000000	39.742803 
1849.000000	39.737176 
1848.000000	39.728903 
1847.000000	39.717769 
1846.000000	39.703869 
1845.000000	39.687991 
1844.000000	39.671206 
1843.000000	39.654898 
1842.000000	39.640378 
1841.000000	39.628601 
1840.000000	39.620137 
1839.000000	39.614915 
1838.000000	39.612340 
1837.000000	39.611291 
1836.000000	39.610314 
1835.000000	39.607787 
1834.000000	39.602422 
1833.000000	39.593172 
1832.000000	39.579629 
1831.000000	39.562058 
1830.000000	39.541268 
1829.000000	39.518666 
1828.000000	39.495682 
1827.000000	39.473938 
1826.000000	39.454722 
1825.000000	39.438939 
1824.000000	39.426946 
1823.000000	39.418530 
1822.000000	39.412879 
1821.000000	39.408755 
1820.000000	39.404654 
1819.000000	39.398980 
1818.000000	39.390277 
1817.000000	39.377760 
1816.000000	39.361286 
1815.000000	39.341402 
1814.000000	39.319252 
1813.000000	39.296150 
1812.000000	39.273190 
1811.000000	39.251351 
1810.000000	39.230895 
1809.000000	39.211845 
1808.000000	39.193797 
1807.000000	39.176392 
1806.000000	39.159178 
1805.000000	39.142084 
1804.000000	39.125132 
1803.000000	39.108371 
1802.000000	39.091968 
1801.000000	39.076089 
1800.000000	39.060854 
1799.000000	39.046216 
1798.000000	39.032006 
1797.000000	39.017844 
1796.000000	39.003276 
1795.000000	38.987755 
1794.000000	38.970828 
1793.000000	38.952231 
1792.000000	38.931941 
1791.000000	38.910508 
1790.000000	38.888835 
1789.000000	38.868474 
1788.000000	38.850998 
1787.000000	38.838028 
1786.000000	38.830780 
1785.000000	38.829612 
1784.000000	38.834142 
1783.000000	38.842701 
1782.000000	38.852977 
1781.000000	38.862228 
1780.000000	38.867640 
1779.000000	38.867187 
1778.000000	38.859677 
1777.000000	38.845086 
1776.000000	38.824510 
1775.000000	38.799738 
1774.000000	38.772749 
1773.000000	38.745236 
1772.000000	38.718318 
1771.000000	38.692331 
1770.000000	38.666963 
1769.000000	38.641381 
1768.000000	38.614892 
1767.000000	38.586950 
1766.000000	38.557600 
1765.000000	38.527274 
1764.000000	38.496851 
1763.000000	38.467383 
1762.000000	38.439893 
1761.000000	38.414931 
1760.000000	38.392758 
1759.000000	38.373136 
1758.000000	38.355541 
1757.000000	38.339257 
1756.000000	38.323760 
1755.000000	38.308596 
1754.000000	38.293933 
1753.000000	38.280081 
1752.000000	38.267683 
1751.000000	38.257431 
1750.000000	38.249778 
1749.000000	38.244819 
1748.000000	38.242101 
1747.000000	38.240599 
1746.000000	38.238763 
1745.000000	38.234758 
1744.000000	38.226699 
1743.000000	38.212919 
1742.000000	38.192486 
1741.000000	38.165307 
1740.000000	38.132238 
1739.000000	38.094925 
1738.000000	38.055610 
1737.000000	38.016843 
1736.000000	37.980794 
1735.000000	37.949037 
1734.000000	37.922453 
1733.000000	37.900996 
1732.000000	37.883949 
1731.000000	37.870121 
1730.000000	37.858319 
1729.000000	37.847709 
1728.000000	37.837719 
1727.000000	37.828254 
1726.000000	37.819385 
1725.000000	37.811374 
1724.000000	37.804269 
1723.000000	37.798118 
1722.000000	37.792491 
1721.000000	37.787127 
1720.000000	37.781596 
1719.000000	37.775969 
1718.000000	37.770342 
1717.000000	37.765049 
1716.000000	37.760496 
1715.000000	37.756848 
1714.000000	37.754082 
1713.000000	37.751889 
1712.000000	37.749791 
1711.000000	37.747359 
1710.000000	37.744402 
1709.000000	37.741017 
1708.000000	37.737560 
1707.000000	37.734603 
1706.000000	37.732505 
1705.000000	37.731146 
1704.000000	37.729787 
1703.000000	37.727117 
1702.000000	37.721443 
1701.000000	37.711167 
1700.000000	37.695121 
1699.000000	37.672948 
1698.000000	37.645196 
1697.000000	37.613511 
1696.000000	37.580037 
1695.000000	37.547159 
1694.000000	37.517046 
1693.000000	37.491488 
1692.000000	37.471508 
1691.000000	37.457489 
1690.000000	37.449049 
1689.000000	37.445425 
1688.000000	37.445497 
1687.000000	37.447881 
1686.000000	37.450957 
1685.000000	37.453126 
1684.000000	37.452745 
1683.000000	37.448596 
1682.000000	37.439990 
1681.000000	37.427258 
1680.000000	37.411355 
1679.000000	37.393903 
1678.000000	37.376809 
1677.000000	37.361550 
1676.000000	37.348914 
1675.000000	37.338709 
1674.000000	37.329673 
1673.000000	37.319779 
1672.000000	37.306857 
1671.000000	37.289214 
1670.000000	37.266182 
1669.000000	37.238216 
1668.000000	37.206983 
1667.000000	37.174844 
1666.000000	37.144374 
1665.000000	37.117767 
1664.000000	37.096333 
1663.000000	37.080359 
1662.000000	37.069249 
1661.000000	37.061786 
1660.000000	37.056517 
1659.000000	37.051916 
1658.000000	37.046718 
1657.000000	37.039756 
1656.000000	37.030363 
1655.000000	37.018299 
1654.000000	37.003946 
1653.000000	36.988115 
1652.000000	36.972022 
1651.000000	36.957240 
1650.000000	36.945199 
1649.000000	36.937022 
1648.000000	36.933159 
1647.000000	36.933159 
1646.000000	36.935615 
1645.000000	36.938595 
1644.000000	36.939644 
1643.000000	36.936473 
1642.000000	36.927366 
1641.000000	36.911463 
1640.000000	36.889100 
1639.000000	36.861610 
1638.000000	36.831092 
1637.000000	36.800074 
1636.000000	36.771059 
1635.000000	36.746096 
1634.000000	36.726450 
1633.000000	36.712574 
1632.000000	36.703872 
1631.000000	36.698818 
1630.000000	36.695218 
1629.000000	36.690664 
1628.000000	36.683011 
1627.000000	36.670899 
1626.000000	36.653804 
1625.000000	36.632204 
1624.000000	36.607384 
1623.000000	36.581206 
1622.000000	36.555433 
1621.000000	36.531305 
1620.000000	36.509513 
1619.000000	36.489748 
1618.000000	36.471223 
1617.000000	36.452627 
1616.000000	36.432838 
1615.000000	36.411046 
1614.000000	36.387109 
1613.000000	36.361527 
1612.000000	36.335301 
1611.000000	36.309766 
1610.000000	36.285948 
1609.000000	36.264777 
1608.000000	36.246633 
1607.000000	36.231589 
1606.000000	36.219429 
1605.000000	36.209750 
1604.000000	36.202239 
1603.000000	36.196398 
1602.000000	36.191725 
1601.000000	36.187744 
1600.000000	36.183571 
1599.000000	36.178183 
1598.000000	36.170387 
1597.000000	36.159086 
1596.000000	36.143660 
1595.000000	36.124038 
1594.000000	36.100840 
1593.000000	36.075377 
1592.000000	36.049294 
1591.000000	36.024665 
1590.000000	36.003303 
1589.000000	35.986375 
1588.000000	35.974216 
1587.000000	35.966348 
1586.000000	35.961484 
1585.000000	35.957813 
1584.000000	35.953235 
1583.000000	35.946035 
1582.000000	35.934877 
1581.000000	35.919260 
1580.000000	35.899472 
1579.000000	35.876584 
1578.000000	35.852241 
1577.000000	35.828089 
1576.000000	35.805821 
1575.000000	35.786581 
1574.000000	35.770750 
1573.000000	35.757851 
1572.000000	35.746741 
1571.000000	35.735893 
1570.000000	35.723829 
1569.000000	35.709691 
1568.000000	35.693240 
1567.000000	35.675048 
1566.000000	35.656476 
1565.000000	35.639166 
1564.000000	35.624551 
1563.000000	35.613393 
1562.000000	35.605573 
1561.000000	35.599970 
1560.000000	35.594797 
1559.000000	35.588121 
1558.000000	35.578298 
1557.000000	35.564637 
1556.000000	35.547518 
1555.000000	35.528469 
1554.000000	35.509538 
1553.000000	35.492992 
1552.000000	35.480594 
1551.000000	35.473322 
1550.000000	35.470867 
1549.000000	35.471940 
1548.000000	35.474371 
1547.000000	35.475349 
1546.000000	35.472130 
1545.000000	35.462546 
1544.000000	35.445356 
1543.000000	35.420417 
1542.000000	35.388851 
1541.000000	35.352683 
1540.000000	35.314559 
1539.000000	35.277080 
1538.000000	35.242533 
1537.000000	35.212492 
1536.000000	35.187578 
1535.000000	35.167670 
1534.000000	35.152173 
1533.000000	35.140132 
1532.000000	35.130858 
1531.000000	35.123848 
1530.000000	35.118985 
1529.000000	35.116291 
1528.000000	35.116076 
1527.000000	35.118460 
1526.000000	35.123324 
1525.000000	35.129976 
1524.000000	35.137367 
1523.000000	35.144042 
1522.000000	35.148549 
1521.000000	35.149431 
1520.000000	35.145592 
1519.000000	35.136532 
1518.000000	35.122299 
1517.000000	35.103535 
1516.000000	35.081529 
1515.000000	35.057878 
1514.000000	35.034322 
1513.000000	35.012245 
1512.000000	34.992742 
1511.000000	34.976291 
1510.000000	34.962916 
1509.000000	34.952211 
1508.000000	34.943556 
1507.000000	34.936261 
1506.000000	34.929776 
1505.000000	34.923768 
1504.000000	34.917831 
1503.000000	34.911608 
1502.000000	34.904694 
1501.000000	34.896636 
1500.000000	34.887003 
1499.000000	34.875512 
1498.000000	34.862089 
1497.000000	34.847187 
1496.000000	34.831404 
1495.000000	34.815788 
1494.000000	34.801054 
1493.000000	34.787678 
1492.000000	34.775352 
1491.000000	34.763240 
1490.000000	34.749841 
1489.000000	34.733843 
1488.000000	34.714245 
1487.000000	34.690690 
1486.000000	34.663677 
1485.000000	34.634256 
1484.000000	34.603905 
1483.000000	34.574127 
1482.000000	34.546303 
1481.000000	34.521365 
1480.000000	34.499859 
1479.000000	34.481954 
1478.000000	34.467339 
1477.000000	34.455204 
1476.000000	34.444427 
1475.000000	34.433698 
1474.000000	34.421944 
1473.000000	34.408473 
1472.000000	34.393334 
1471.000000	34.377312 
1470.000000	34.361863 
1469.000000	34.348845 
1468.000000	34.340023 
1467.000000	34.336471 
1466.000000	34.338355 
1465.000000	34.344410 
1464.000000	34.352278 
1463.000000	34.358692 
1462.000000	34.360218 
1461.000000	34.353804 
1460.000000	34.337639 
1459.000000	34.311676 
1458.000000	34.277391 
1457.000000	34.237885 
1456.000000	34.197115 
1455.000000	34.159421 
1454.000000	34.128451 
1453.000000	34.106659 
1452.000000	34.095168 
1451.000000	34.093475 
1450.000000	34.099578 
1449.000000	34.110474 
1448.000000	34.123015 
1447.000000	34.134125 
1446.000000	34.141397 
1445.000000	34.143424 
1444.000000	34.139800 
1443.000000	34.130978 
1442.000000	34.118008 
1441.000000	34.102249 
1440.000000	34.084844 
1439.000000	34.066772 
1438.000000	34.048295 
1437.000000	34.029245 
1436.000000	34.009075 
1435.000000	33.987283 
1434.000000	33.963704 
1433.000000	33.938527 
1432.000000	33.912682 
1431.000000	33.887529 
1430.000000	33.864784 
1429.000000	33.846044 
1428.000000	33.832693 
1427.000000	33.825111 
1426.000000	33.823132 
1425.000000	33.825707 
1424.000000	33.831095 
1423.000000	33.837175 
1422.000000	33.841753 
1421.000000	33.842968 
1420.000000	33.839559 
1419.000000	33.830881 
1418.000000	33.816909 
1417.000000	33.798122 
1416.000000	33.775210 
1415.000000	33.748984 
1414.000000	33.720016 
1413.000000	33.688569 
1412.000000	33.654499 
1411.000000	33.617568 
1410.000000	33.577561 
1409.000000	33.534765 
1408.000000	33.490228 
1407.000000	33.446121 
1406.000000	33.405113 
1405.000000	33.370542 
1404.000000	33.345317 
1403.000000	33.331775 
1402.000000	33.330631 
1401.000000	33.341193 
1400.000000	33.361077 
1399.000000	33.386921 
1398.000000	33.414578 
1397.000000	33.440065 
1396.000000	33.459949 
1395.000000	33.472108 
1394.000000	33.475542 
1393.000000	33.470606 
1392.000000	33.458733 
1391.000000	33.442044 
1390.000000	33.422923 
1389.000000	33.403754 
1388.000000	33.386111 
1387.000000	33.371090 
1386.000000	33.358693 
1385.000000	33.348011 
1384.000000	33.337235 
1383.000000	33.324289 
1382.000000	33.307194 
1381.000000	33.284521 
1380.000000	33.255934 
1379.000000	33.222460 
1378.000000	33.186316 
1377.000000	33.150339 
1376.000000	33.117651 
1375.000000	33.090782 
1374.000000	33.071398 
1373.000000	33.059525 
1372.000000	33.053922 
1371.000000	33.052301 
1370.000000	33.051919 
1369.000000	33.050131 
1368.000000	33.045101 
1367.000000	33.035802 
1366.000000	33.022427 
1365.000000	33.006119 
1364.000000	32.988500 
1363.000000	32.971024 
1362.000000	32.954764 
1361.000000	32.940125 
1360.000000	32.926821 
1359.000000	32.913994 
1358.000000	32.900571 
1357.000000	32.885408 
1356.000000	32.867884 
1355.000000	32.847976 
1354.000000	32.826447 
1353.000000	32.804656 
1352.000000	32.784295 
1351.000000	32.767176 
1350.000000	32.754683 
1349.000000	32.747507 
1348.000000	32.745456 
1347.000000	32.747411 
1346.000000	32.751607 
1345.000000	32.755923 
1344.000000	32.758212 
1343.000000	32.756781 
1342.000000	32.750463 
1341.000000	32.739067 
1340.000000	32.723093 
1339.000000	32.703924 
1338.000000	32.683372 
1337.000000	32.663536 
1336.000000	32.646298 
1335.000000	32.633161 
1334.000000	32.624721 
1333.000000	32.621002 
1332.000000	32.621169 
1331.000000	32.623982 
1330.000000	32.627511 
1329.000000	32.629942 
1328.000000	32.629585 
1327.000000	32.625102 
1326.000000	32.615661 
1325.000000	32.600855 
1324.000000	32.580685 
1323.000000	32.555532 
1322.000000	32.525873 
1321.000000	32.492589 
1320.000000	32.456564 
1319.000000	32.418704 
1318.000000	32.380127 
1317.000000	32.341885 
1316.000000	32.305192 
1315.000000	32.271265 
1314.000000	32.241272 
1313.000000	32.216215 
1312.000000	32.197117 
1311.000000	32.184696 
1310.000000	32.179355 
1309.000000	32.180929 
1308.000000	32.188510 
1307.000000	32.200288 
1306.000000	32.213664 
1305.000000	32.225394 
1304.000000	32.232141 
1303.000000	32.230758 
1302.000000	32.219123 
1301.000000	32.196378 
1300.000000	32.163357 
1299.000000	32.122397 
1298.000000	32.076930 
1297.000000	32.030892 
1296.000000	31.988310 
1295.000000	31.952285 
1294.000000	31.924796 
1293.000000	31.906318 
1292.000000	31.895971 
1291.000000	31.891942 
1290.000000	31.891894 
1289.000000	31.893420 
1288.000000	31.894516 
1287.000000	31.893634 
1286.000000	31.889939 
1285.000000	31.883072 
1284.000000	31.873035 
1283.000000	31.860041 
1282.000000	31.844425 
1281.000000	31.826734 
1280.000000	31.807661 
1279.000000	31.788039 
1278.000000	31.768822 
1277.000000	31.751060 
1276.000000	31.735587 
1275.000000	31.722688 
1274.000000	31.712126 
1273.000000	31.702947 
1272.000000	31.693720 
1271.000000	31.682586 
1270.000000	31.667923 
1269.000000	31.648802 
1268.000000	31.625199 
1267.000000	31.598258 
1266.000000	31.570100 
1265.000000	31.543159 
1264.000000	31.519889 
1263.000000	31.502223 
1262.000000	31.491160 
1261.000000	31.486511 
1260.000000	31.486988 
1259.000000	31.490588 
1258.000000	31.494760 
1257.000000	31.497120 
1256.000000	31.495666 
1255.000000	31.488990 
1254.000000	31.476736 
1253.000000	31.459450 
1252.000000	31.438302 
1251.000000	31.414866 
1250.000000	31.390762 
1249.000000	31.367397 
1248.000000	31.345605 
1247.000000	31.325912 
1246.000000	31.308150 
1245.000000	31.292128 
1244.000000	31.277537 
1243.000000	31.264400 
1242.000000	31.253099 
1241.000000	31.244373 
1240.000000	31.239104 
1239.000000	31.237769 
1238.000000	31.240057 
1237.000000	31.244683 
1236.000000	31.249618 
1235.000000	31.252455 
1234.000000	31.250882 
1233.000000	31.243276 
1232.000000	31.229281 
1231.000000	31.209325 
1230.000000	31.184554 
1229.000000	31.156301 
1228.000000	31.125640 
1227.000000	31.093478 
1226.000000	31.060409 
1225.000000	31.027030 
1224.000000	30.993938 
1223.000000	30.962228 
1222.000000	30.933260 
1221.000000	30.908393 
1220.000000	30.888962 
1219.000000	30.875372 
1218.000000	30.867695 
1217.000000	30.864739 
1216.000000	30.865263 
1215.000000	30.867981 
1214.000000	30.872130 
1213.000000	30.877566 
1212.000000	30.884742 
1211.000000	30.894351 
1210.000000	30.906701 
1209.000000	30.921268 
1208.000000	30.936431 
1207.000000	30.949687 
1206.000000	30.957961 
1205.000000	30.958294 
1204.000000	30.948328 
1203.000000	30.926918 
1202.000000	30.894351 
1201.000000	30.852413 
1200.000000	30.804061 
1199.000000	30.752778 
1198.000000	30.702376 
1197.000000	30.656218 
1196.000000	30.616784 
1195.000000	30.585408 
1194.000000	30.562281 
1193.000000	30.546593 
1192.000000	30.536627 
1191.000000	30.530333 
1190.000000	30.525255 
1189.000000	30.519390 
1188.000000	30.511140 
1187.000000	30.499887 
1186.000000	30.485534 
1185.000000	30.468797 
1184.000000	30.450844 
1183.000000	30.433034 
1182.000000	30.416560 
1181.000000	30.402326 
1180.000000	30.390644 
1179.000000	30.381393 
1178.000000	30.374097 
1177.000000	30.368280 
1176.000000	30.363655 
1175.000000	30.360174 
1174.000000	30.358052 
1173.000000	30.357670 
1172.000000	30.359363 
1171.000000	30.363082 
1170.000000	30.368065 
1169.000000	30.372929 
1168.000000	30.375361 
1167.000000	30.373144 
1166.000000	30.364131 
1165.000000	30.346751 
1164.000000	30.320405 
1163.000000	30.285954 
1162.000000	30.245423 
1161.000000	30.201673 
1160.000000	30.158305 
1159.000000	30.118775 
1158.000000	30.086159 
1157.000000	30.062818 
1156.000000	30.050063 
1155.000000	30.048012 
1154.000000	30.055546 
1153.000000	30.070447 
1152.000000	30.089569 
1151.000000	30.109119 
1150.000000	30.125164 
1149.000000	30.134034 
1148.000000	30.133080 
1147.000000	30.120801 
1146.000000	30.097389 
1145.000000	30.064535 
1144.000000	30.025315 
1143.000000	29.983448 
1142.000000	29.942965 
1141.000000	29.907250 
1140.000000	29.878640 
1139.000000	29.857873 
1138.000000	29.844236 
1137.000000	29.835915 
1136.000000	29.830265 
1135.000000	29.824733 
1134.000000	29.817342 
1133.000000	29.807090 
1132.000000	29.793834 
1131.000000	29.778361 
1130.000000	29.761767 
1129.000000	29.745173 
1128.000000	29.729199 
1127.000000	29.713940 
1126.000000	29.698872 
1125.000000	29.683303 
1124.000000	29.666709 
1123.000000	29.648995 
1122.000000	29.630589 
1121.000000	29.612445 
1120.000000	29.595422 
1119.000000	29.579973 
1118.000000	29.565834 
1117.000000	29.551768 
1116.000000	29.535818 
1115.000000	29.516100 
1114.000000	29.491138 
1113.000000	29.460692 
1112.000000	29.425907 
1111.000000	29.389214 
1110.000000	29.353618 
1109.000000	29.322290 
1108.000000	29.297399 
1107.000000	29.279804 
1106.000000	29.268646 
1105.000000	29.261732 
1104.000000	29.256248 
1103.000000	29.249525 
1102.000000	29.239964 
1101.000000	29.227161 
1100.000000	29.212260 
1099.000000	29.197430 
1098.000000	29.185390 
1097.000000	29.178357 
1096.000000	29.177570 
1095.000000	29.182910 
1094.000000	29.193091 
1093.000000	29.205703 
1092.000000	29.217767 
1091.000000	29.226398 
1090.000000	29.229211 
1089.000000	29.225015 
1088.000000	29.213666 
1087.000000	29.196214 
1086.000000	29.174733 
1085.000000	29.151797 
1084.000000	29.130220 
1083.000000	29.112243 
1082.000000	29.099559 
1081.000000	29.092478 
1080.000000	29.090309 
1079.000000	29.091000 
1078.000000	29.091763 
1077.000000	29.089498 
1076.000000	29.081368 
1075.000000	29.065465 
1074.000000	29.041099 
1073.000000	29.009151 
1072.000000	28.971886 
1071.000000	28.932619 
1070.000000	28.894805 
1069.000000	28.861808 
1068.000000	28.836226 
1067.000000	28.819680 
1066.000000	28.812408 
1065.000000	28.813600 
1064.000000	28.821611 
1063.000000	28.834271 
1062.000000	28.849005 
1061.000000	28.863263 
1060.000000	28.874921 
1059.000000	28.881978 
1058.000000	28.883123 
1057.000000	28.877449 
1056.000000	28.865122 
1055.000000	28.847122 
1054.000000	28.825068 
1053.000000	28.801202 
1052.000000	28.777575 
1051.000000	28.756237 
1050.000000	28.738212 
1049.000000	28.723740 
1048.000000	28.711891 
1047.000000	28.700757 
1046.000000	28.688025 
1045.000000	28.671789 
1044.000000	28.650689 
1043.000000	28.624343 
1042.000000	28.593397 
1041.000000	28.559255 
1040.000000	28.523755 
1039.000000	28.488802 
1038.000000	28.455948 
1037.000000	28.426218 
1036.000000	28.400158 
1035.000000	28.378057 
1034.000000	28.359985 
1033.000000	28.346061 
1032.000000	28.336334 
1031.000000	28.331089 
1030.000000	28.330779 
1029.000000	28.335690 
1028.000000	28.345584 
1027.000000	28.359174 
1026.000000	28.374433 
1025.000000	28.387832 
1024.000000	28.395438 
1023.000000	28.392887 
1022.000000	28.376626 
1021.000000	28.344535 
1020.000000	28.296732 
1019.000000	28.235626 
1018.000000	28.166103 
1017.000000	28.094506 
1016.000000	28.027749 
1015.000000	27.972054 
1014.000000	27.931904 
1013.000000	27.909326 
1012.000000	27.903747 
1011.000000	27.912116 
1010.000000	27.929806 
1009.000000	27.951502 
1008.000000	27.972412 
1007.000000	27.988600 
1006.000000	27.997779 
1005.000000	27.999043 
1004.000000	27.993083 
1003.000000	27.981376 
1002.000000	27.965974 
1001.000000	27.949023 
1000.000000	27.932047 
999.000000	 27.916121 
998.000000	 27.901411 
997.000000	 27.887558 
996.000000	 27.873301 
995.000000	 27.857232 
994.000000	 27.837967 
993.000000	 27.814412 
992.000000	 27.786350 
991.000000	 27.754521 
990.000000	 27.720761 
989.000000	 27.687668 
988.000000	 27.658367 
987.000000	 27.635884 
986.000000	 27.622628 
985.000000	 27.619886 
984.000000	 27.627325 
983.000000	 27.642869 
982.000000	 27.663421 
981.000000	 27.685213 
980.000000	 27.704262 
979.000000	 27.716946 
978.000000	 27.720594 
977.000000	 27.713680 
976.000000	 27.695989 
975.000000	 27.668166 
974.000000	 27.631568 
973.000000	 27.588129 
972.000000	 27.540349 
971.000000	 27.490973 
970.000000	 27.443218 
969.000000	 27.400088 
968.000000	 27.364158 
967.000000	 27.336883 
966.000000	 27.318549 
965.000000	 27.307701 
964.000000	 27.301478 
963.000000	 27.296018 
962.000000	 27.287077 
961.000000	 27.271270 
960.000000	 27.246928 
959.000000	 27.214813 
958.000000	 27.177977 
957.000000	 27.142024 
956.000000	 27.113676 
955.000000	 27.099418 
954.000000	 27.103495 
953.000000	 27.126741 
952.000000	 27.165675 
951.000000	 27.213191 
950.000000	 27.259683 
949.000000	 27.295398 
948.000000	 27.312302 
947.000000	 27.305960 
946.000000	 27.276492 
945.000000	 27.228426 
944.000000	 27.169322 
943.000000	 27.107858 
942.000000	 27.051520 
941.000000	 27.005505 
940.000000	 26.971030 
939.000000	 26.946759 
938.000000	 26.928329 
937.000000	 26.910519 
936.000000	 26.888108 
935.000000	 26.857924 
934.000000	 26.817941 
933.000000	 26.767659 
932.000000	 26.707839 
931.000000	 26.640391 
930.000000	 26.568484 
929.000000	 26.496529 
928.000000	 26.430177 
927.000000	 26.375532 
926.000000	 26.338338 
925.000000	 26.322460 
924.000000	 26.328921 
923.000000	 26.354980 
922.000000	 26.394176 
921.000000	 26.436972 
920.000000	 26.472401 
919.000000	 26.490759 
918.000000	 26.485061 
917.000000	 26.453471 
916.000000	 26.398086 
915.000000	 26.326632 
914.000000	 26.250123 
913.000000	 26.181674 
912.000000	 26.133012 
911.000000	 26.113224 
910.000000	 26.127147 
909.000000	 26.174521 
908.000000	 26.250505 
907.000000	 26.346015 
906.000000	 26.449489 
905.000000	 26.548314 
904.000000	 26.631021 
903.000000	 26.688885 
902.000000	 26.717352 
901.000000	 26.716876 
900.000000	 26.692509 
899.000000	 26.652693 
898.000000	 26.606988 
897.000000	 26.565647 
896.000000	 26.535892 
895.000000	 26.522040 
894.000000	 26.522278 
893.000000	 26.531624 
892.000000	 26.540136 
891.000000	 26.536393 
890.000000	 26.508784 
889.000000	 26.447963 
888.000000	 26.349949 
887.000000	 26.217651 
886.000000	 26.060676 
885.000000	 25.893235 
884.000000	 25.732016 
883.000000	 25.592541 
882.000000	 25.486302 
881.000000	 25.418472 
880.000000	 25.387597 
879.000000	 25.386738 
878.000000	 25.405836 
877.000000	 25.434446 
876.000000	 25.464797 
875.000000	 25.493144 
874.000000	 25.519323 
873.000000	 25.545907 
872.000000	 25.575900 
871.000000	 25.611042 
870.000000	 25.650572 
869.000000	 25.690722 
868.000000	 25.726461 
867.000000	 25.751638 
866.000000	 25.762462 
865.000000	 25.755763 
864.000000	 25.730252 
863.000000	 25.685024 
862.000000	 25.619769 
861.000000	 25.534844 
860.000000	 25.431299 
859.000000	 25.312352 
858.000000	 25.183987 
857.000000	 25.054788 
856.000000	 24.935197 
855.000000	 24.835824 
854.000000	 24.765658 
853.000000	 24.729299 
852.000000	 24.725747 
851.000000	 24.749064 
850.000000	 24.789786 
849.000000	 24.837422 
848.000000	 24.882936 
847.000000	 24.921035 
846.000000	 24.951100 
845.000000	 24.976491 
844.000000	 25.002551 
843.000000	 25.033760 
842.000000	 25.071787 
841.000000	 25.114774 
840.000000	 25.157070 
839.000000	 25.191235 
838.000000	 25.209450 
837.000000	 25.206637 
836.000000	 25.180983 
835.000000	 25.135040 
834.000000	 25.074720 
833.000000	 25.007748 
832.000000	 24.942159 
831.000000	 24.884581 
830.000000	 24.839210 
829.000000	 24.807381 
828.000000	 24.788475 
827.000000	 24.781131 
826.000000	 24.783682 
825.000000	 24.794769 
824.000000	 24.813556 
823.000000	 24.839472 
822.000000	 24.871635 
821.000000	 24.908185 
820.000000	 24.946308 
819.000000	 24.982023 
818.000000	 25.010967 
817.000000	 25.028872 
816.000000	 25.032186 
815.000000	 25.018548 
814.000000	 24.987602 
813.000000	 24.940705 
812.000000	 24.880814 
811.000000	 24.811887 
810.000000	 24.739360 
809.000000	 24.668884 
808.000000	 24.605822 
807.000000	 24.554800 
806.000000	 24.519371 
805.000000	 24.501228 
804.000000	 24.499869 
803.000000	 24.512743 
802.000000	 24.535560 
801.000000	 24.563145 
800.000000	 24.589967 
799.000000	 24.611210 
798.000000	 24.623155 
797.000000	 24.624085 
796.000000	 24.614048 
795.000000	 24.595189 
794.000000	 24.570870 
793.000000	 24.545049 
792.000000	 24.521040 
791.000000	 24.501276 
790.000000	 24.486374 
789.000000	 24.475359 
788.000000	 24.465203 
787.000000	 24.452018 
786.000000	 24.431443 
785.000000	 24.399805 
784.000000	 24.354910 
783.000000	 24.296712 
782.000000	 24.227285 
781.000000	 24.150633 
780.000000	 24.072122 
779.000000	 23.997306 
778.000000	 23.931384 
777.000000	 23.878097 
776.000000	 23.839402 
775.000000	 23.815250 
774.000000	 23.803782 
773.000000	 23.801875 
772.000000	 23.805642 
771.000000	 23.811173 
770.000000	 23.814535 
769.000000	 23.812198 
768.000000	 23.801517 
767.000000	 23.780870 
766.000000	 23.749661 
765.000000	 23.708629 
764.000000	 23.660135 
763.000000	 23.607850 
762.000000	 23.556756 
761.000000	 23.511743 
760.000000	 23.476839 
759.000000	 23.453855 
758.000000	 23.442459 
757.000000	 23.439526 
756.000000	 23.439955 
755.000000	 23.437833 
754.000000	 23.427867 
753.000000	 23.406767 
752.000000	 23.373746 
751.000000	 23.330998 
750.000000	 23.283052 
749.000000	 23.235464 
748.000000	 23.193407 
747.000000	 23.160171 
746.000000	 23.136544 
745.000000	 23.120665 
744.000000	 23.108696 
743.000000	 23.095941 
742.000000	 23.077964 
741.000000	 23.051977 
740.000000	 23.017454 
739.000000	 22.975802 
738.000000	 22.930359 
737.000000	 22.885656 
736.000000	 22.846579 
735.000000	 22.817182 
734.000000	 22.799968 
733.000000	 22.795367 
732.000000	 22.802066 
731.000000	 22.817158 
730.000000	 22.837400 
729.000000	 22.859382 
728.000000	 22.880578 
727.000000	 22.899627 
726.000000	 22.915720 
725.000000	 22.928309 
724.000000	 22.936129 
723.000000	 22.937345 
722.000000	 22.929048 
721.000000	 22.908091 
720.000000	 22.871518 
719.000000	 22.817873 
718.000000	 22.747683 
717.000000	 22.663998 
716.000000	 22.571825 
715.000000	 22.477436 
714.000000	 22.386837 
713.000000	 22.304701 
712.000000	 22.233295 
711.000000	 22.172832 
710.000000	 22.121977 
709.000000	 22.078990 
708.000000	 22.042465 
707.000000	 22.012424 
706.000000	 21.989512 
705.000000	 21.975684 
704.000000	 21.972107 
703.000000	 21.979808 
702.000000	 21.998333 
701.000000	 22.026348 
700.000000	 22.061085 
699.000000	 22.098827 
698.000000	 22.135591 
697.000000	 22.167038 
696.000000	 22.189140 
695.000000	 22.198271 
694.000000	 22.191596 
693.000000	 22.167515 
692.000000	 22.125911 
691.000000	 22.068595 
690.000000	 21.999382 
689.000000	 21.923899 
688.000000	 21.848702 
687.000000	 21.779942 
686.000000	 21.722459 
685.000000	 21.678757 
684.000000	 21.648931 
683.000000	 21.631026 
682.000000	 21.621584 
681.000000	 21.616816 
680.000000	 21.612954 
679.000000	 21.606659 
678.000000	 21.595406 
677.000000	 21.576857 
676.000000	 21.550011 
675.000000	 21.514940 
674.000000	 21.473240 
673.000000	 21.427679 
672.000000	 21.381998 
671.000000	 21.340441 
670.000000	 21.306586 
669.000000	 21.282339 
668.000000	 21.268057 
667.000000	 21.262478 
666.000000	 21.262931 
665.000000	 21.265959 
664.000000	 21.268033 
663.000000	 21.266317 
662.000000	 21.259164 
661.000000	 21.246051 
660.000000	 21.226835 
659.000000	 21.201229 
658.000000	 21.168875 
657.000000	 21.129083 
656.000000	 21.081018 
655.000000	 21.023988 
654.000000	 20.958614 
653.000000	 20.886588 
652.000000	 20.810675 
651.000000	 20.734333 
650.000000	 20.661044 
649.000000	 20.593643 
648.000000	 20.533919 
647.000000	 20.482134 
646.000000	 20.436835 
645.000000	 20.395302 
644.000000	 20.354008 
643.000000	 20.309782 
642.000000	 20.259690 
641.000000	 20.203232 
640.000000	 20.141792 
639.000000	 20.079612 
638.000000	 20.022296 
637.000000	 19.976639 
636.000000	 19.948792 
635.000000	 19.942951 
634.000000	 19.960021 
633.000000	 19.997382 
632.000000	 20.048999 
631.000000	 20.106363 
630.000000	 20.160007 
629.000000	 20.201468 
628.000000	 20.224761 
627.000000	 20.227575 
626.000000	 20.211052 
625.000000	 20.179176 
624.000000	 20.136976 
623.000000	 20.089936 
622.000000	 20.041871 
621.000000	 19.994568 
620.000000	 19.947195 
619.000000	 19.898319 
618.000000	 19.845461 
617.000000	 19.786381 
616.000000	 19.719934 
615.000000	 19.646811 
614.000000	 19.569420 
613.000000	 19.491529 
612.000000	 19.417428 
611.000000	 19.350862 
610.000000	 19.294071 
609.000000	 19.247412 
608.000000	 19.209265 
607.000000	 19.176506 
606.000000	 19.145679 
605.000000	 19.113850 
604.000000	 19.079709 
603.000000	 19.043850 
602.000000	 19.008135 
601.000000	 18.975496 
600.000000	 18.948173 
599.000000	 18.927741 
598.000000	 18.915152 
597.000000	 18.910717 
596.000000	 18.913555 
595.000000	 18.922638 
594.000000	 18.937206 
593.000000	 18.956518 
592.000000	 18.979859 
591.000000	 19.005870 
590.000000	 19.032502 
589.000000	 19.056463 
588.000000	 19.073915 
587.000000	 19.080162 
586.000000	 19.070625 
585.000000	 19.041824 
584.000000	 18.992471 
583.000000	 18.924283 
582.000000	 18.842172 
581.000000	 18.754076 
580.000000	 18.669819 
579.000000	 18.599843 
578.000000	 18.552660 
577.000000	 18.533444 
576.000000	 18.541812 
575.000000	 18.571877 
574.000000	 18.612241 
573.000000	 18.647861 
572.000000	 18.663144 
571.000000	 18.645071 
570.000000	 18.586421 
569.000000	 18.486976 
568.000000	 18.354487 
567.000000	 18.202447 
566.000000	 18.047881 
565.000000	 17.907595 
564.000000	 17.795038 
563.000000	 17.718362 
562.000000	 17.678618 
561.000000	 17.670869 
560.000000	 17.685127 
559.000000	 17.709183 
558.000000	 17.730832 
557.000000	 17.740035 
556.000000	 17.730450 
555.000000	 17.699527 
554.000000	 17.648196 
553.000000	 17.579555 
552.000000	 17.497634 
551.000000	 17.406058 
550.000000	 17.307996 
549.000000	 17.206144 
548.000000	 17.103004 
547.000000	 17.001581 
546.000000	 16.905713 
545.000000	 16.820144 
544.000000	 16.749739 
543.000000	 16.698884 
542.000000	 16.669392 
541.000000	 16.660618 
540.000000	 16.668772 
539.000000	 16.688179 
538.000000	 16.710829 
537.000000	 16.729569 
536.000000	 16.738677 
535.000000	 16.735839 
534.000000	 16.721606 
533.000000	 16.699576 
532.000000	 16.674947 
531.000000	 16.653299 
530.000000	 16.638660 
529.000000	 16.633033 
528.000000	 16.635990 
527.000000	 16.644883 
526.000000	 16.655588 
525.000000	 16.663551 
524.000000	 16.664814 
523.000000	 16.656732 
522.000000	 16.638183 
521.000000	 16.608881 
520.000000	 16.569232 
519.000000	 16.520214 
518.000000	 16.463065 
517.000000	 16.399598 
516.000000	 16.331243 
515.000000	 16.260385 
514.000000	 16.188406 
513.000000	 16.116142 
512.000000	 16.042757 
511.000000	 15.966796 
510.000000	 15.885400 
509.000000	 15.795254 
508.000000	 15.693283 
507.000000	 15.578198 
506.000000	 15.450644 
505.000000	 15.313553 
504.000000	 15.171718 
503.000000	 15.030813 
502.000000	 14.897465 
501.000000	 14.778184 
500.000000	 14.678788 
499.000000	 14.603519 
498.000000	 14.555191 
497.000000	 14.534521 
496.000000	 14.539813 
495.000000	 14.566731 
494.000000	 14.607787 
493.000000	 14.653062 
492.000000	 14.690327 
491.000000	 14.708352 
490.000000	 14.698171 
489.000000	 14.656662 
488.000000	 14.586019 
487.000000	 14.495682 
486.000000	 14.400625 
485.000000	 14.318633 
484.000000	 14.266562 
483.000000	 14.256024 
482.000000	 14.291429 
481.000000	 14.367318 
480.000000	 14.470672 
479.000000	 14.581680 
478.000000	 14.678359 
477.000000	 14.741086 
476.000000	 14.756894 
475.000000	 14.721608 
474.000000	 14.640092 
473.000000	 14.526224 
472.000000	 14.399194 
471.000000	 14.279747 
470.000000	 14.185142 
469.000000	 14.127898 
468.000000	 14.111971 
467.000000	 14.132785 
466.000000	 14.176797 
465.000000	 14.225935 
464.000000	 14.259457 
463.000000	 14.258313 
462.000000	 14.208483 
461.000000	 14.102053 
460.000000	 13.940382 
459.000000	 13.733458 
458.000000	 13.498902 
457.000000	 13.257670 
456.000000	 13.032150 
455.000000	 12.842655 
454.000000	 12.703776 
453.000000	 12.621665 
452.000000	 12.595200 
451.000000	 12.617325 
450.000000	 12.676191 
449.000000	 12.756872 
448.000000	 12.845230 
447.000000	 12.929582 
446.000000	 13.003230 
445.000000	 13.064289 
444.000000	 13.114905 
443.000000	 13.159132 
442.000000	 13.203525 
441.000000	 13.253736 
440.000000	 13.311934 
439.000000	 13.374519 
438.000000	 13.434386 
437.000000	 13.480019 
436.000000	 13.499140 
435.000000	 13.480091 
434.000000	 13.415718 
433.000000	 13.303470 
432.000000	 13.150000 
431.000000	 12.964820 
430.000000	 12.762117 
429.000000	 12.551093 
428.000000	 12.336087 
427.000000	 12.112808 
426.000000	 11.870050 
425.000000	 11.597609 
424.000000	 11.289668 
423.000000	 10.957312 
422.000000	 10.630917 
421.000000	 10.352087 
420.000000	 10.160994 
419.000000	 10.101437 
418.000000	 10.209608 
417.000000	 10.499119 
416.000000	 10.954308 
415.000000	 11.534142 
414.000000	 12.176036 
413.000000	 12.804126 
412.000000	 13.340711 
411.000000	 13.726997 
410.000000	 13.928890 
409.000000	 13.921284 
408.000000	 13.704442 
407.000000	 13.328361 
406.000000	 12.862586 
405.000000	 12.370967 
404.000000	 11.903548 
403.000000	 11.514568 
402.000000	 11.223721 
401.000000	 10.999703 
400.000000	 10.799789 
399.000000	 10.568046 
398.000000	 10.304999 
397.000000	 10.061407 
396.000000	 9.982895  
395.000000	 10.280156 
394.000000	 11.163830 
393.000000	 12.770462 
392.000000	 15.116357 
391.000000	 18.067598 
390.000000	 21.332192 
389.000000	 24.523401 
388.000000	 27.225160 
387.000000	 29.117894 
386.000000	 30.061936 
385.000000	 30.183410 
384.000000	 29.801249 
383.000000	 29.435157 
382.000000	 29.696035 
381.000000	 31.159710 
380.000000	 34.296965 
379.000000	 39.276814 
378.000000	 45.869946 
377.000000	 53.493404 
376.000000	 61.368846 
375.000000	 68.642425 
374.000000	 74.548983 
373.000000	 78.610110 
372.000000	 80.720806 
371.000000	 81.166410 
370.000000	 80.531191 

