PE IR       SPECTRUM    SPECTRUM    ASCII       PEDS        1.60        
  -1
C-1A6E~1.ASC
17/05/02
12:12:38.00
17/05/02
12:12:38.00
tln
$C-4040-8_t0016$<tbV0>[-2.5,-3.0,8.0,0.0,22,1,0]
370.000000
64









2002,4.07    
MIRTGS : RIGHTBACK : INTERNAL 2
MIR : ON : INTERNAL 2
OPTKBR

0.200000
8
8.000000
FILLER
RATIO
SPECTRUM
UNLOCKED 256

DOUBLE
64
COMBINED
1
0
0


1.000000
RATIO


1
0
TRUE
51149
0
LEFT NOT FITTED RIGHT NOT FITTED 0
NONE
NONE
15600
12.000000
4.427000
51148
TRUE
1 0 8 72 0 0 0 0 

15798.010000






#HDR
-1
-1
#GR
CM-1
%T
0.00002384185791015625
0.0
7800.000000
-1.000000
7431
8
83.495807
38.030958
#DATA
7800.000000	75.049424 
7799.000000	74.347639 
7798.000000	73.450851 
7797.000000	72.508263 
7796.000000	71.689081 
7795.000000	71.146011 
7794.000000	70.973038 
7793.000000	71.183586 
7792.000000	71.714234 
7791.000000	72.445678 
7790.000000	73.234462 
7789.000000	73.951244 
7788.000000	74.517846 
7787.000000	74.916648 
7786.000000	75.179910 
7785.000000	75.364637 
7784.000000	75.527024 
7783.000000	75.690531 
7782.000000	75.824427 
7781.000000	75.856184 
7780.000000	75.707387 
7779.000000	75.315356 
7778.000000	74.667382 
7777.000000	73.810887 
7776.000000	72.853207 
7775.000000	71.940469 
7774.000000	71.218323 
7773.000000	70.807695 
7772.000000	70.776271 
7771.000000	71.122026 
7770.000000	71.776747 
7769.000000	72.613310 
7768.000000	73.476195 
7767.000000	74.202799 
7766.000000	74.655771 
7765.000000	74.750375 
7764.000000	74.466872 
7763.000000	73.854947 
7762.000000	73.014259 
7761.000000	72.065544 
7760.000000	71.118617 
7759.000000	70.255756 
7758.000000	69.512748 
7757.000000	68.884754 
7756.000000	68.334221 
7755.000000	67.818331 
7754.000000	67.305183 
7753.000000	66.777205 
7752.000000	66.253185 
7751.000000	65.772652 
7750.000000	65.400624 
7749.000000	65.202784 
7748.000000	65.228843 
7747.000000	65.496659 
7746.000000	65.969419 
7745.000000	66.557526 
7744.000000	67.126536 
7743.000000	67.523431 
7742.000000	67.615127 
7741.000000	67.321014 
7740.000000	66.641378 
7739.000000	65.661978 
7738.000000	64.535355 
7737.000000	63.449954 
7736.000000	62.586116 
7735.000000	62.083959 
7734.000000	62.022280 
7733.000000	62.414002 
7732.000000	63.213801 
7731.000000	64.339423 
7730.000000	65.689158 
7729.000000	67.167663 
7728.000000	68.688297 
7727.000000	70.187711 
7726.000000	71.620893 
7725.000000	72.951054 
7724.000000	74.143862 
7723.000000	75.150346 
7722.000000	75.912642 
7721.000000	76.363849 
7720.000000	76.454687 
7719.000000	76.160669 
7718.000000	75.508046 
7717.000000	74.569797 
7716.000000	73.471260 
7715.000000	72.355222 
7714.000000	71.361708 
7713.000000	70.599818 
7712.000000	70.132231 
7711.000000	69.975757 
7710.000000	70.105171 
7709.000000	70.469594 
7708.000000	71.001482 
7707.000000	71.627259 
7706.000000	72.269153 
7705.000000	72.843742 
7704.000000	73.265004 
7703.000000	73.448562 
7702.000000	73.323202 
7701.000000	72.840571 
7700.000000	71.990990 
7699.000000	70.817685 
7698.000000	69.411969 
7697.000000	67.902827 
7696.000000	66.438198 
7695.000000	65.167212 
7694.000000	64.206957 
7693.000000	63.620686 
7692.000000	63.413286 
7691.000000	63.533592 
7690.000000	63.894200 
7689.000000	64.388751 
7688.000000	64.924287 
7687.000000	65.433645 
7686.000000	65.888261 
7685.000000	66.289973 
7684.000000	66.651916 
7683.000000	66.977906 
7682.000000	67.255949 
7681.000000	67.450499 
7680.000000	67.507910 
7679.000000	67.369103 
7678.000000	66.996026 
7677.000000	66.382622 
7676.000000	65.567541 
7675.000000	64.628577 
7674.000000	63.665962 
7673.000000	62.787604 
7672.000000	62.088322 
7671.000000	61.634421 
7670.000000	61.450314 
7669.000000	61.521625 
7668.000000	61.797952 
7667.000000	62.213087 
7666.000000	62.697410 
7665.000000	63.195538 
7664.000000	63.663244 
7663.000000	64.086627 
7662.000000	64.471077 
7661.000000	64.842438 
7660.000000	65.229058 
7659.000000	65.660405 
7658.000000	66.154003 
7657.000000	66.711211 
7656.000000	67.312002 
7655.000000	67.918848 
7654.000000	68.479013 
7653.000000	68.935894 
7652.000000	69.233703 
7651.000000	69.334626 
7650.000000	69.217443 
7649.000000	68.879508 
7648.000000	68.335819 
7647.000000	67.622041 
7646.000000	66.789174 
7645.000000	65.897512 
7644.000000	65.015363 
7643.000000	64.213085 
7642.000000	63.559532 
7641.000000	63.113284 
7640.000000	62.917208 
7639.000000	62.989258 
7638.000000	63.320159 
7637.000000	63.868665 
7636.000000	64.570307 
7635.000000	65.340733 
7634.000000	66.096925 
7633.000000	66.767406 
7632.000000	67.303323 
7631.000000	67.681431 
7630.000000	67.907428 
7629.000000	68.011164 
7628.000000	68.033075 
7627.000000	68.017745 
7626.000000	68.016052 
7625.000000	68.075776 
7624.000000	68.240714 
7623.000000	68.537378 
7622.000000	68.980884 
7621.000000	69.555854 
7620.000000	70.219755 
7619.000000	70.898008 
7618.000000	71.498751 
7617.000000	71.925687 
7616.000000	72.099924 
7615.000000	71.977949 
7614.000000	71.557617 
7613.000000	70.892977 
7612.000000	70.085549 
7611.000000	69.269251 
7610.000000	68.585681 
7609.000000	68.152260 
7608.000000	68.043422 
7607.000000	68.260884 
7606.000000	68.737411 
7605.000000	69.343686 
7604.000000	69.919562 
7603.000000	70.315289 
7602.000000	70.425462 
7601.000000	70.207214 
7600.000000	69.683313 
7599.000000	68.927597 
7598.000000	68.040966 
7597.000000	67.115521 
7596.000000	66.220140 
7595.000000	65.394663 
7594.000000	64.654088 
7593.000000	64.005470 
7592.000000	63.457608 
7591.000000	63.029789 
7590.000000	62.753534 
7589.000000	62.660312 
7588.000000	62.775850 
7587.000000	63.097119 
7586.000000	63.595724 
7585.000000	64.208364 
7584.000000	64.855360 
7583.000000	65.450429 
7582.000000	65.921497 
7581.000000	66.223883 
7580.000000	66.343641 
7579.000000	66.295266 
7578.000000	66.114187 
7577.000000	65.844821 
7576.000000	65.527105 
7575.000000	65.187072 
7574.000000	64.836430 
7573.000000	64.473414 
7572.000000	64.089059 
7571.000000	63.676476 
7570.000000	63.234686 
7569.000000	62.780714 
7568.000000	62.342095 
7567.000000	61.967563 
7566.000000	61.710500 
7565.000000	61.632323 
7564.000000	61.782670 
7563.000000	62.194538 
7562.000000	62.872576 
7561.000000	63.785457 
7560.000000	64.863419 
7559.000000	66.006755 
7558.000000	67.097043 
7557.000000	68.022489 
7556.000000	68.697452 
7555.000000	69.078254 
7554.000000	69.171738 
7553.000000	69.021964 
7552.000000	68.697786 
7551.000000	68.271732 
7550.000000	67.805814 
7549.000000	67.343282 
7548.000000	66.907310 
7547.000000	66.511201 
7546.000000	66.164445 
7545.000000	65.877223 
7544.000000	65.662503 
7543.000000	65.536594 
7542.000000	65.512228 
7541.000000	65.588450 
7540.000000	65.747284 
7539.000000	65.951943 
7538.000000	66.152286 
7537.000000	66.292619 
7536.000000	66.324615 
7535.000000	66.214585 
7534.000000	65.956044 
7533.000000	65.570378 
7532.000000	65.107035 
7531.000000	64.627337 
7530.000000	64.202356 
7529.000000	63.897943 
7528.000000	63.764333 
7527.000000	63.826131 
7526.000000	64.079880 
7525.000000	64.496469 
7524.000000	65.023422 
7523.000000	65.595173 
7522.000000	66.148233 
7521.000000	66.633510 
7520.000000	67.023730 
7519.000000	67.316675 
7518.000000	67.532944 
7517.000000	67.705631 
7516.000000	67.873239 
7515.000000	68.061590 
7514.000000	68.281221 
7513.000000	68.513202 
7512.000000	68.724417 
7511.000000	68.861937 
7510.000000	68.870687 
7509.000000	68.703532 
7508.000000	68.336033 
7507.000000	67.777657 
7506.000000	67.073845 
7505.000000	66.303586 
7504.000000	65.561771 
7503.000000	64.947795 
7502.000000	64.545512 
7501.000000	64.407038 
7500.000000	64.543533 
7499.000000	64.919948 
7498.000000	65.462565 
7497.000000	66.072893 
7496.000000	66.647529 
7495.000000	67.093920 
7494.000000	67.346525 
7493.000000	67.373108 
7492.000000	67.178130 
7491.000000	66.796827 
7490.000000	66.288065 
7489.000000	65.721464 
7488.000000	65.167045 
7487.000000	64.691638 
7486.000000	64.343738 
7485.000000	64.159965 
7484.000000	64.146041 
7483.000000	64.281868 
7482.000000	64.516377 
7481.000000	64.777660 
7480.000000	64.986038 
7479.000000	65.063858 
7478.000000	64.961719 
7477.000000	64.663577 
7476.000000	64.201211 
7475.000000	63.643670 
7474.000000	63.088583 
7473.000000	62.637090 
7472.000000	62.374949 
7471.000000	62.352943 
7470.000000	62.574434 
7469.000000	62.996077 
7468.000000	63.540410 
7467.000000	64.116692 
7466.000000	64.639449 
7465.000000	65.049576 
7464.000000	65.324091 
7463.000000	65.479350 
7462.000000	65.557003 
7461.000000	65.612959 
7460.000000	65.697622 
7459.000000	65.845489 
7458.000000	66.070055 
7457.000000	66.362380 
7456.000000	66.699576 
7455.000000	67.050886 
7454.000000	67.397832 
7453.000000	67.725706 
7452.000000	68.030619 
7451.000000	68.304944 
7450.000000	68.542265 
7449.000000	68.716692 
7448.000000	68.788123 
7447.000000	68.702483 
7446.000000	68.408298 
7445.000000	67.871713 
7444.000000	67.094206 
7443.000000	66.119742 
7442.000000	65.034461 
7441.000000	63.953185 
7440.000000	62.999749 
7439.000000	62.280750 
7438.000000	61.865568 
7437.000000	61.778521 
7436.000000	61.995816 
7435.000000	62.447142 
7434.000000	63.035869 
7433.000000	63.656878 
7432.000000	64.223480 
7431.000000	64.665007 
7430.000000	64.955949 
7429.000000	65.105795 
7428.000000	65.164637 
7427.000000	65.201139 
7426.000000	65.288496 
7425.000000	65.486335 
7424.000000	65.820217 
7423.000000	66.284418 
7422.000000	66.828298 
7421.000000	67.374420 
7420.000000	67.828750 
7419.000000	68.108749 
7418.000000	68.154764 
7417.000000	67.945742 
7416.000000	67.501831 
7415.000000	66.879701 
7414.000000	66.155195 
7413.000000	65.405035 
7412.000000	64.692473 
7411.000000	64.054560 
7410.000000	63.497352 
7409.000000	63.001012 
7408.000000	62.536144 
7407.000000	62.076973 
7406.000000	61.607670 
7405.000000	61.136054 
7404.000000	60.682964 
7403.000000	60.290217 
7402.000000	59.999036 
7401.000000	59.854507 
7400.000000	59.876775 
7399.000000	60.077810 
7398.000000	60.454320 
7397.000000	60.993218 
7396.000000	61.669230 
7395.000000	62.447214 
7394.000000	63.282012 
7393.000000	64.118552 
7392.000000	64.894604 
7391.000000	65.547442 
7390.000000	66.021919 
7389.000000	66.279983 
7388.000000	66.308355 
7387.000000	66.122126 
7386.000000	65.763282 
7385.000000	65.296268 
7384.000000	64.796781 
7383.000000	64.337253 
7382.000000	63.974475 
7381.000000	63.750934 
7380.000000	63.683414 
7379.000000	63.763952 
7378.000000	63.958883 
7377.000000	64.222264 
7376.000000	64.498829 
7375.000000	64.730119 
7374.000000	64.867830 
7373.000000	64.873957 
7372.000000	64.737272 
7371.000000	64.469647 
7370.000000	64.111781 
7369.000000	63.723754 
7368.000000	63.374042 
7367.000000	63.127636 
7366.000000	63.026094 
7365.000000	63.079762 
7364.000000	63.262820 
7363.000000	63.522219 
7362.000000	63.788342 
7361.000000	63.994050 
7360.000000	64.097642 
7359.000000	64.094877 
7358.000000	64.021515 
7357.000000	63.943004 
7356.000000	63.936209 
7355.000000	64.064764 
7354.000000	64.361858 
7353.000000	64.815163 
7352.000000	65.368652 
7351.000000	65.932679 
7350.000000	66.410565 
7349.000000	66.718530 
7348.000000	66.810011 
7347.000000	66.681742 
7346.000000	66.372895 
7345.000000	65.951967 
7344.000000	65.498590 
7343.000000	65.083336 
7342.000000	64.750719 
7341.000000	64.516520 
7340.000000	64.373397 
7339.000000	64.298534 
7338.000000	64.269948 
7337.000000	64.270234 
7336.000000	64.292669 
7335.000000	64.341878 
7334.000000	64.429521 
7333.000000	64.572262 
7332.000000	64.783811 
7331.000000	65.072369 
7330.000000	65.434122 
7329.000000	65.854263 
7328.000000	66.303730 
7327.000000	66.744780 
7326.000000	67.131352 
7325.000000	67.417454 
7324.000000	67.561006 
7323.000000	67.536234 
7322.000000	67.333364 
7321.000000	66.965532 
7320.000000	66.461849 
7319.000000	65.866088 
7318.000000	65.226960 
7317.000000	64.592885 
7316.000000	64.006686 
7315.000000	63.499927 
7314.000000	63.098478 
7313.000000	62.822508 
7312.000000	62.689447 
7311.000000	62.712597 
7310.000000	62.895417 
7309.000000	63.226246 
7308.000000	63.673210 
7307.000000	64.183974 
7306.000000	64.694070 
7305.000000	65.138316 
7304.000000	65.465068 
7303.000000	65.648627 
7302.000000	65.698432 
7301.000000	65.655064 
7300.000000	65.582990 
7299.000000	65.548515 
7298.000000	65.603137 
7297.000000	65.765023 
7296.000000	66.015720 
7295.000000	66.303133 
7294.000000	66.562438 
7293.000000	66.730022 
7292.000000	66.768217 
7291.000000	66.668391 
7290.000000	66.454744 
7289.000000	66.173219 
7288.000000	65.877366 
7287.000000	65.612816 
7286.000000	65.404844 
7285.000000	65.255641 
7284.000000	65.149736 
7283.000000	65.058779 
7282.000000	64.954042 
7281.000000	64.817667 
7280.000000	64.650321 
7279.000000	64.471459 
7278.000000	64.314603 
7277.000000	64.218306 
7276.000000	64.215159 
7275.000000	64.322400 
7274.000000	64.536190 
7273.000000	64.830684 
7272.000000	65.163230 
7271.000000	65.487098 
7270.000000	65.759205 
7269.000000	65.947127 
7268.000000	66.035413 
7267.000000	66.027808 
7266.000000	65.942406 
7265.000000	65.805721 
7264.000000	65.644550 
7263.000000	65.481853 
7262.000000	65.330481 
7261.000000	65.194940 
7260.000000	65.071558 
7259.000000	64.954066 
7258.000000	64.838981 
7257.000000	64.729881 
7256.000000	64.638853 
7255.000000	64.583015 
7254.000000	64.585781 
7253.000000	64.669585 
7252.000000	64.853930 
7251.000000	65.147471 
7250.000000	65.546083 
7249.000000	66.027188 
7248.000000	66.551351 
7247.000000	67.062711 
7246.000000	67.498373 
7245.000000	67.795372 
7244.000000	67.902874 
7243.000000	67.790651 
7242.000000	67.458224 
7241.000000	66.934919 
7240.000000	66.276836 
7239.000000	65.557503 
7238.000000	64.855337 
7237.000000	64.243316 
7236.000000	63.779664 
7235.000000	63.501000 
7234.000000	63.419055 
7233.000000	63.524127 
7232.000000	63.789677 
7231.000000	64.177560 
7230.000000	64.642572 
7229.000000	65.138316 
7228.000000	65.619683 
7227.000000	66.045236 
7226.000000	66.377854 
7225.000000	66.591548 
7224.000000	66.672992 
7223.000000	66.624522 
7222.000000	66.463589 
7221.000000	66.222858 
7220.000000	65.944004 
7219.000000	65.674042 
7218.000000	65.454673 
7217.000000	65.317034 
7216.000000	65.274047 
7215.000000	65.321779 
7214.000000	65.438914 
7213.000000	65.594363 
7212.000000	65.752005 
7211.000000	65.880846 
7210.000000	65.957045 
7209.000000	65.963840 
7208.000000	65.896463 
7207.000000	65.761017 
7206.000000	65.571451 
7205.000000	65.345668 
7204.000000	65.101552 
7203.000000	64.856362 
7202.000000	64.618062 
7201.000000	64.387154 
7200.000000	64.153742 
7199.000000	63.903069 
7198.000000	63.624930 
7197.000000	63.321495 
7196.000000	63.007903 
7195.000000	62.713646 
7194.000000	62.480449 
7193.000000	62.353682 
7192.000000	62.366938 
7191.000000	62.535810 
7190.000000	62.847900 
7189.000000	63.270092 
7188.000000	63.750910 
7187.000000	64.238905 
7186.000000	64.690589 
7185.000000	65.083074 
7184.000000	65.417933 
7183.000000	65.712809 
7182.000000	65.991735 
7181.000000	66.270160 
7180.000000	66.546654 
7179.000000	66.798877 
7178.000000	66.992092 
7177.000000	67.085289 
7176.000000	67.049765 
7175.000000	66.871714 
7174.000000	66.561317 
7173.000000	66.147780 
7172.000000	65.675354 
7171.000000	65.186810 
7170.000000	64.715909 
7169.000000	64.281439 
7168.000000	63.888931 
7167.000000	63.535857 
7166.000000	63.221168 
7165.000000	62.950134 
7164.000000	62.740659 
7163.000000	62.619304 
7162.000000	62.617564 
7161.000000	62.756466 
7160.000000	63.041448 
7159.000000	63.454413 
7158.000000	63.953709 
7157.000000	64.479541 
7156.000000	64.962029 
7155.000000	65.335464 
7154.000000	65.548348 
7153.000000	65.572071 
7152.000000	65.407824 
7151.000000	65.084099 
7150.000000	64.654612 
7149.000000	64.186358 
7148.000000	63.751673 
7147.000000	63.415741 
7146.000000	63.226008 
7145.000000	63.205718 
7144.000000	63.344526 
7143.000000	63.601589 
7142.000000	63.911724 
7141.000000	64.199972 
7140.000000	64.393734 
7139.000000	64.441156 
7138.000000	64.319348 
7137.000000	64.042758 
7136.000000	63.655853 
7135.000000	63.227105 
7134.000000	62.829923 
7133.000000	62.531089 
7132.000000	62.377619 
7131.000000	62.389898 
7130.000000	62.561464 
7129.000000	62.862014 
7128.000000	63.249087 
7127.000000	63.673520 
7126.000000	64.087963 
7125.000000	64.453959 
7124.000000	64.742660 
7123.000000	64.940357 
7122.000000	65.042567 
7121.000000	65.061807 
7120.000000	65.021729 
7119.000000	64.958024 
7118.000000	64.911127 
7117.000000	64.914584 
7116.000000	64.985966 
7115.000000	65.122652 
7114.000000	65.299677 
7113.000000	65.471720 
7112.000000	65.583491 
7111.000000	65.583395 
7110.000000	65.437054 
7109.000000	65.139436 
7108.000000	64.715957 
7107.000000	64.216732 
7106.000000	63.705277 
7105.000000	63.242650 
7104.000000	62.876081 
7103.000000	62.627291 
7102.000000	62.495446 
7101.000000	62.461066 
7100.000000	62.496662 
7099.000000	62.576746 
7098.000000	62.683916 
7097.000000	62.809085 
7096.000000	62.951803 
7095.000000	63.110995 
7094.000000	63.286828 
7093.000000	63.473629 
7092.000000	63.664746 
7091.000000	63.851475 
7090.000000	64.028596 
7089.000000	64.194059 
7088.000000	64.348530 
7087.000000	64.491462 
7086.000000	64.617896 
7085.000000	64.715576 
7084.000000	64.764809 
7083.000000	64.742517 
7082.000000	64.632129 
7081.000000	64.427161 
7080.000000	64.138913 
7079.000000	63.792085 
7078.000000	63.421678 
7077.000000	63.064622 
7076.000000	62.750840 
7075.000000	62.501597 
7074.000000	62.321734 
7073.000000	62.211704 
7072.000000	62.168645 
7071.000000	62.196302 
7070.000000	62.303638 
7069.000000	62.506008 
7068.000000	62.817645 
7067.000000	63.241744 
7066.000000	63.761782 
7065.000000	64.337253 
7064.000000	64.905571 
7063.000000	65.394210 
7062.000000	65.733647 
7061.000000	65.872120 
7060.000000	65.785527 
7059.000000	65.482401 
7058.000000	65.000486 
7057.000000	64.397740 
7056.000000	63.740944 
7055.000000	63.093876 
7054.000000	62.508630 
7053.000000	62.024450 
7052.000000	61.664295 
7051.000000	61.437439 
7050.000000	61.342811 
7049.000000	61.370062 
7048.000000	61.506152 
7047.000000	61.731624 
7046.000000	62.028765 
7045.000000	62.372517 
7044.000000	62.742805 
7043.000000	63.119840 
7042.000000	63.489389 
7041.000000	63.840508 
7040.000000	64.162254 
7039.000000	64.442229 
7038.000000	64.661884 
7037.000000	64.798736 
7036.000000	64.828896 
7035.000000	64.734578 
7034.000000	64.510345 
7033.000000	64.170074 
7032.000000	63.750720 
7031.000000	63.309764 
7030.000000	62.915897 
7029.000000	62.636590 
7028.000000	62.527322 
7027.000000	62.615180 
7026.000000	62.897944 
7025.000000	63.334393 
7024.000000	63.849878 
7023.000000	64.349842 
7022.000000	64.739489 
7021.000000	64.943718 
7020.000000	64.920377 
7019.000000	64.671802 
7018.000000	64.240789 
7017.000000	63.701462 
7016.000000	63.140296 
7015.000000	62.638521 
7014.000000	62.254452 
7013.000000	62.019085 
7012.000000	61.936402 
7011.000000	61.985993 
7010.000000	62.133646 
7009.000000	62.334203 
7008.000000	62.542605 
7007.000000	62.714600 
7006.000000	62.816381 
7005.000000	62.827157 
7004.000000	62.746167 
7003.000000	62.591075 
7002.000000	62.397718 
7001.000000	62.213063 
7000.000000	62.085390 
6999.000000	62.057065 
6998.000000	62.150382 
6997.000000	62.365055 
6996.000000	62.672233 
6995.000000	63.023161 
6994.000000	63.355231 
6993.000000	63.608121 
6992.000000	63.733911 
6991.000000	63.705563 
6990.000000	63.524484 
6989.000000	63.218188 
6988.000000	62.835955 
6987.000000	62.435984 
6986.000000	62.078142 
6985.000000	61.811685 
6984.000000	61.671566 
6983.000000	61.674833 
6982.000000	61.815047 
6981.000000	62.065768 
6980.000000	62.386989 
6979.000000	62.733817 
6978.000000	63.062334 
6977.000000	63.338065 
6976.000000	63.540029 
6975.000000	63.661813 
6974.000000	63.709449 
6973.000000	63.695001 
6972.000000	63.633489 
6971.000000	63.534307 
6970.000000	63.402533 
6969.000000	63.234901 
6968.000000	63.027381 
6967.000000	62.775731 
6966.000000	62.483000 
6965.000000	62.160348 
6964.000000	61.828422 
6963.000000	61.514925 
6962.000000	61.248517 
6961.000000	61.055707 
6960.000000	60.952973 
6959.000000	60.948657 
6958.000000	61.039996 
6957.000000	61.218523 
6956.000000	61.471581 
6955.000000	61.785864 
6954.000000	62.148165 
6953.000000	62.546157 
6952.000000	62.966895 
6951.000000	63.396024 
6950.000000	63.815784 
6949.000000	64.205551 
6948.000000	64.541459 
6947.000000	64.802241 
6946.000000	64.968585 
6945.000000	65.030026 
6944.000000	64.983487 
6943.000000	64.837479 
6942.000000	64.609146 
6941.000000	64.324784 
6940.000000	64.015936 
6939.000000	63.716387 
6938.000000	63.459658 
6937.000000	63.275623 
6936.000000	63.187527 
6935.000000	63.209700 
6934.000000	63.344645 
6933.000000	63.582921 
6932.000000	63.901638 
6931.000000	64.266920 
6930.000000	64.637112 
6929.000000	64.968276 
6928.000000	65.222215 
6927.000000	65.372467 
6926.000000	65.408134 
6925.000000	65.334987 
6924.000000	65.174388 
6923.000000	64.958024 
6922.000000	64.721703 
6921.000000	64.498138 
6920.000000	64.315104 
6919.000000	64.188909 
6918.000000	64.125537 
6917.000000	64.118647 
6916.000000	64.155149 
6915.000000	64.216184 
6914.000000	64.281153 
6913.000000	64.331746 
6912.000000	64.353394 
6911.000000	64.339184 
6910.000000	64.288902 
6909.000000	64.208960 
6908.000000	64.109492 
6907.000000	64.001035 
6906.000000	63.893389 
6905.000000	63.788723 
6904.000000	63.681650 
6903.000000	63.561725 
6902.000000	63.418245 
6901.000000	63.247179 
6900.000000	63.055372 
6899.000000	62.861871 
6898.000000	62.694621 
6897.000000	62.584829 
6896.000000	62.558460 
6895.000000	62.624049 
6894.000000	62.771701 
6893.000000	62.975549 
6892.000000	63.200545 
6891.000000	63.409662 
6890.000000	63.574385 
6889.000000	63.680839 
6888.000000	63.731861 
6887.000000	63.743710 
6886.000000	63.739848 
6885.000000	63.741135 
6884.000000	63.761615 
6883.000000	63.803029 
6882.000000	63.859081 
6881.000000	63.919043 
6880.000000	63.975238 
6879.000000	64.029216 
6878.000000	64.090514 
6877.000000	64.174175 
6876.000000	64.295554 
6875.000000	64.463663 
6874.000000	64.674329 
6873.000000	64.906597 
6872.000000	65.126442 
6871.000000	65.290737 
6870.000000	65.354394 
6869.000000	65.279269 
6868.000000	65.044069 
6867.000000	64.650273 
6866.000000	64.123630 
6865.000000	63.511681 
6864.000000	62.877321 
6863.000000	62.286782 
6862.000000	61.797618 
6861.000000	61.449289 
6860.000000	61.255884 
6859.000000	61.208724 
6858.000000	61.280083 
6857.000000	61.434292 
6856.000000	61.630988 
6855.000000	61.841654 
6854.000000	62.049889 
6853.000000	62.255954 
6852.000000	62.467288 
6851.000000	62.696838 
6850.000000	62.952518 
6849.000000	63.232851 
6848.000000	63.523221 
6847.000000	63.799571 
6846.000000	64.033317 
6845.000000	64.199423 
6844.000000	64.282894 
6843.000000	64.281201 
6842.000000	64.206171 
6841.000000	64.081525 
6840.000000	63.938617 
6839.000000	63.811945 
6838.000000	63.730144 
6837.000000	63.714408 
6836.000000	63.769531 
6835.000000	63.885140 
6834.000000	64.035153 
6833.000000	64.186573 
6832.000000	64.303755 
6831.000000	64.355492 
6830.000000	64.322948 
6829.000000	64.204740 
6828.000000	64.014840 
6827.000000	63.778114 
6826.000000	63.524508 
6825.000000	63.281822 
6824.000000	63.070869 
6823.000000	62.902903 
6822.000000	62.780475 
6821.000000	62.699961 
6820.000000	62.658834 
6819.000000	62.658739 
6818.000000	62.704849 
6817.000000	62.802982 
6816.000000	62.954926 
6815.000000	63.154101 
6814.000000	63.379263 
6813.000000	63.598537 
6812.000000	63.775968 
6811.000000	63.880276 
6810.000000	63.893008 
6809.000000	63.813924 
6808.000000	63.661861 
6807.000000	63.470435 
6806.000000	63.280010 
6805.000000	63.128328 
6804.000000	63.040685 
6803.000000	63.026762 
6802.000000	63.080739 
6801.000000	63.185000 
6800.000000	63.317418 
6799.000000	63.457322 
6798.000000	63.590931 
6797.000000	63.711452 
6796.000000	63.817882 
6795.000000	63.911080 
6794.000000	63.990068 
6793.000000	64.049315 
6792.000000	64.078235 
6791.000000	64.066600 
6790.000000	64.006853 
6789.000000	63.896298 
6788.000000	63.738155 
6787.000000	63.542819 
6786.000000	63.325715 
6785.000000	63.103342 
6784.000000	62.892031 
6783.000000	62.703657 
6782.000000	62.548089 
6781.000000	62.432742 
6780.000000	62.365126 
6779.000000	62.350893 
6778.000000	62.395238 
6777.000000	62.501597 
6776.000000	62.667942 
6775.000000	62.883496 
6774.000000	63.128376 
6773.000000	63.374304 
6772.000000	63.589334 
6771.000000	63.742160 
6770.000000	63.811755 
6769.000000	63.792300 
6768.000000	63.696479 
6767.000000	63.552975 
6766.000000	63.402843 
6765.000000	63.290524 
6764.000000	63.254427 
6763.000000	63.317894 
6762.000000	63.485574 
6761.000000	63.741040 
6760.000000	64.052677 
6759.000000	64.378619 
6758.000000	64.676094 
6757.000000	64.908528 
6756.000000	65.051794 
6755.000000	65.096592 
6754.000000	65.048456 
6753.000000	64.923357 
6752.000000	64.745235 
6751.000000	64.536237 
6750.000000	64.314103 
6749.000000	64.087462 
6748.000000	63.860416 
6747.000000	63.630819 
6746.000000	63.396978 
6745.000000	63.158679 
6744.000000	62.920928 
6743.000000	62.693262 
6742.000000	62.488174 
6741.000000	62.318062 
6740.000000	62.191700 
6739.000000	62.114429 
6738.000000	62.086606 
6737.000000	62.104582 
6736.000000	62.160754 
6735.000000	62.243604 
6734.000000	62.338519 
6733.000000	62.429356 
6732.000000	62.500190 
6731.000000	62.534213 
6730.000000	62.519264 
6729.000000	62.447881 
6728.000000	62.323141 
6727.000000	62.159180 
6726.000000	61.980819 
6725.000000	61.817908 
6724.000000	61.701011 
6723.000000	61.656427 
6722.000000	61.698269 
6721.000000	61.824822 
6720.000000	62.018394 
6719.000000	62.248539 
6718.000000	62.479853 
6717.000000	62.679839 
6716.000000	62.825322 
6715.000000	62.905597 
6714.000000	62.926030 
6713.000000	62.904763 
6712.000000	62.869453 
6711.000000	62.850189 
6710.000000	62.874412 
6709.000000	62.961077 
6708.000000	63.118481 
6707.000000	63.342022 
6706.000000	63.619923 
6705.000000	63.931536 
6704.000000	64.252090 
6703.000000	64.552164 
6702.000000	64.804577 
6701.000000	64.982199 
6700.000000	65.062451 
6699.000000	65.027999 
6698.000000	64.870762 
6697.000000	64.594674 
6696.000000	64.216995 
6695.000000	63.769960 
6694.000000	63.298583 
6693.000000	62.855482 
6692.000000	62.494683 
6691.000000	62.259793 
6690.000000	62.177848 
6689.000000	62.248539 
6688.000000	62.444829 
6687.000000	62.713909 
6686.000000	62.988400 
6685.000000	63.204264 
6684.000000	63.316583 
6683.000000	63.308167 
6682.000000	63.194870 
6681.000000	63.023114 
6680.000000	62.858128 
6679.000000	62.766575 
6678.000000	62.798666 
6677.000000	62.976908 
6676.000000	63.287830 
6675.000000	63.689136 
6674.000000	64.116382 
6673.000000	64.501571 
6672.000000	64.786481 
6671.000000	64.935684 
6670.000000	64.942669 
6669.000000	64.827013 
6668.000000	64.629817 
6667.000000	64.400506 
6666.000000	64.186620 
6665.000000	64.024448 
6664.000000	63.931250 
6663.000000	63.909530 
6662.000000	63.939547 
6661.000000	63.988685 
6660.000000	64.016389 
6659.000000	63.986682 
6658.000000	63.870334 
6657.000000	63.653135 
6656.000000	63.339829 
6655.000000	62.955284 
6654.000000	62.540984 
6653.000000	62.148547 
6652.000000	61.829185 
6651.000000	61.625218 
6650.000000	61.562728 
6649.000000	61.646747 
6648.000000	61.858749 
6647.000000	62.162852 
6646.000000	62.513518 
6645.000000	62.865447 
6644.000000	63.178706 
6643.000000	63.427448 
6642.000000	63.599848 
6641.000000	63.699340 
6640.000000	63.735699 
6639.000000	63.726568 
6638.000000	63.690185 
6637.000000	63.646936 
6636.000000	63.616347 
6635.000000	63.618373 
6634.000000	63.672065 
6633.000000	63.795232 
6632.000000	64.002156 
6631.000000	64.298343 
6630.000000	64.676976 
6629.000000	65.117549 
6628.000000	65.585541 
6627.000000	66.036200 
6626.000000	66.419267 
6625.000000	66.690230 
6624.000000	66.815304 
6623.000000	66.777396 
6622.000000	66.578292 
6621.000000	66.240406 
6620.000000	65.801906 
6619.000000	65.311169 
6618.000000	64.819312 
6617.000000	64.374899 
6616.000000	64.016938 
6615.000000	63.773775 
6614.000000	63.657665 
6613.000000	63.665175 
6612.000000	63.779020 
6611.000000	63.972401 
6610.000000	64.211869 
6609.000000	64.459300 
6608.000000	64.681506 
6607.000000	64.852619 
6606.000000	64.959406 
6605.000000	65.000605 
6604.000000	64.988064 
6603.000000	64.942431 
6602.000000	64.889240 
6601.000000	64.852380 
6600.000000	64.851140 
6599.000000	64.894342 
6598.000000	64.980626 
6597.000000	65.096569 
6596.000000	65.221810 
6595.000000	65.331983 
6594.000000	65.403938 
6593.000000	65.421199 
6592.000000	65.378499 
6591.000000	65.281701 
6590.000000	65.147566 
6589.000000	64.996790 
6588.000000	64.848732 
6587.000000	64.716696 
6586.000000	64.606285 
6585.000000	64.514899 
6584.000000	64.434528 
6583.000000	64.356660 
6582.000000	64.276957 
6581.000000	64.197182 
6580.000000	64.125633 
6579.000000	64.073920 
6578.000000	64.052367 
6577.000000	64.068675 
6576.000000	64.124894 
6575.000000	64.215302 
6574.000000	64.327549 
6573.000000	64.446234 
6572.000000	64.556860 
6571.000000	64.648342 
6570.000000	64.715909 
6569.000000	64.761614 
6568.000000	64.792871 
6567.000000	64.820337 
6566.000000	64.853334 
6565.000000	64.897298 
6564.000000	64.950537 
6563.000000	65.006852 
6562.000000	65.054106 
6561.000000	65.079331 
6560.000000	65.069890 
6559.000000	65.018796 
6558.000000	64.924788 
6557.000000	64.793515 
6556.000000	64.635753 
6555.000000	64.466285 
6554.000000	64.298653 
6553.000000	64.142727 
6552.000000	64.003705 
6551.000000	63.882446 
6550.000000	63.776540 
6549.000000	63.682365 
6548.000000	63.596940 
6547.000000	63.519668 
6546.000000	63.450503 
6545.000000	63.391470 
6544.000000	63.342833 
6543.000000	63.306355 
6542.000000	63.285160 
6541.000000	63.285398 
6540.000000	63.313651 
6539.000000	63.376355 
6538.000000	63.478112 
6537.000000	63.618063 
6536.000000	63.788223 
6535.000000	63.973331 
6534.000000	64.151906 
6533.000000	64.301204 
6532.000000	64.402174 
6531.000000	64.444255 
6530.000000	64.427328 
6529.000000	64.363694 
6528.000000	64.275646 
6527.000000	64.189600 
6526.000000	64.129662 
6525.000000	64.113640 
6524.000000	64.149475 
6523.000000	64.234089 
6522.000000	64.354252 
6521.000000	64.491796 
6520.000000	64.626502 
6519.000000	64.737844 
6518.000000	64.807820 
6517.000000	64.821577 
6516.000000	64.770722 
6515.000000	64.653849 
6514.000000	64.479136 
6513.000000	64.262199 
6512.000000	64.026474 
6511.000000	63.800525 
6510.000000	63.613939 
6509.000000	63.491082 
6508.000000	63.448786 
6507.000000	63.494110 
6506.000000	63.623452 
6505.000000	63.821482 
6504.000000	64.066910 
6503.000000	64.334702 
6502.000000	64.602208 
6501.000000	64.850878 
6500.000000	65.069985 
6499.000000	65.255069 
6498.000000	65.408325 
6497.000000	65.535259 
6496.000000	65.641689 
6495.000000	65.730214 
6494.000000	65.800786 
6493.000000	65.849137 
6492.000000	65.868711 
6491.000000	65.850806 
6490.000000	65.788388 
6489.000000	65.675997 
6488.000000	65.514230 
6487.000000	65.307235 
6486.000000	65.063810 
6485.000000	64.794445 
6484.000000	64.510178 
6483.000000	64.221930 
6482.000000	63.938999 
6481.000000	63.671851 
6480.000000	63.430023 
6479.000000	63.226699 
6478.000000	63.075113 
6477.000000	62.991380 
6476.000000	62.988710 
6475.000000	63.077306 
6474.000000	63.257145 
6473.000000	63.521051 
6472.000000	63.852739 
6471.000000	64.227080 
6470.000000	64.611434 
6469.000000	64.971375 
6468.000000	65.274596 
6467.000000	65.494394 
6466.000000	65.612459 
6465.000000	65.620446 
6464.000000	65.520286 
6463.000000	65.324926 
6462.000000	65.055942 
6461.000000	64.742326 
6460.000000	64.415717 
6459.000000	64.108872 
6458.000000	63.849663 
6457.000000	63.659310 
6456.000000	63.548779 
6455.000000	63.520002 
6454.000000	63.565087 
6453.000000	63.668012 
6452.000000	63.807415 
6451.000000	63.961529 
6450.000000	64.107251 
6449.000000	64.221143 
6448.000000	64.282298 
6447.000000	64.273762 
6446.000000	64.185714 
6445.000000	64.016699 
6444.000000	63.777637 
6443.000000	63.490891 
6442.000000	63.191413 
6441.000000	62.921118 
6440.000000	62.721633 
6439.000000	62.624573 
6438.000000	62.645173 
6437.000000	62.776684 
6436.000000	62.989020 
6435.000000	63.235187 
6434.000000	63.459897 
6433.000000	63.614392 
6432.000000	63.665747 
6431.000000	63.607859 
6430.000000	63.457798 
6429.000000	63.256359 
6428.000000	63.055443 
6427.000000	62.908196 
6426.000000	62.855148 
6425.000000	62.916564 
6424.000000	63.090229 
6423.000000	63.351440 
6422.000000	63.662385 
6421.000000	63.978314 
6420.000000	64.258694 
6419.000000	64.472723 
6418.000000	64.603853 
6417.000000	64.649057 
6416.000000	64.615964 
6415.000000	64.518690 
6414.000000	64.373707 
6413.000000	64.198136 
6412.000000	64.008665 
6411.000000	63.822221 
6410.000000	63.656497 
6409.000000	63.531160 
6408.000000	63.465809 
6407.000000	63.476943 
6406.000000	63.573980 
6405.000000	63.755965 
6404.000000	64.009571 
6403.000000	64.310717 
6402.000000	64.625883 
6401.000000	64.917635 
6400.000000	65.149450 
6399.000000	65.291786 
6398.000000	65.327024 
6397.000000	65.251874 
6396.000000	65.078759 
6395.000000	64.833188 
6394.000000	64.550185 
6393.000000	64.268708 
6392.000000	64.024996 
6391.000000	63.847684 
6390.000000	63.751745 
6389.000000	63.737583 
6388.000000	63.791441 
6387.000000	63.890051 
6386.000000	64.004778 
6385.000000	64.108586 
6384.000000	64.180588 
6383.000000	64.210414 
6382.000000	64.198160 
6381.000000	64.153814 
6380.000000	64.091563 
6379.000000	64.027261 
6378.000000	63.973021 
6377.000000	63.936519 
6376.000000	63.921475 
6375.000000	63.927221 
6374.000000	63.952350 
6373.000000	63.993358 
6372.000000	64.048051 
6371.000000	64.111948 
6370.000000	64.177894 
6369.000000	64.235806 
6368.000000	64.273333 
6367.000000	64.278435 
6366.000000	64.241194 
6365.000000	64.159202 
6364.000000	64.038681 
6363.000000	63.897109 
6362.000000	63.760495 
6361.000000	63.657522 
6360.000000	63.612747 
6359.000000	63.642287 
6358.000000	63.748860 
6357.000000	63.920116 
6356.000000	64.130043 
6355.000000	64.345383 
6354.000000	64.531159 
6353.000000	64.658474 
6352.000000	64.708852 
6351.000000	64.676594 
6350.000000	64.569020 
6349.000000	64.403057 
6348.000000	64.201688 
6347.000000	63.989257 
6346.000000	63.787126 
6345.000000	63.611841 
6344.000000	63.473320 
6343.000000	63.376259 
6342.000000	63.320803 
6341.000000	63.304424 
6340.000000	63.323760 
6339.000000	63.373970 
6338.000000	63.452219 
6337.000000	63.556337 
6336.000000	63.685822 
6335.000000	63.839268 
6334.000000	64.015221 
6333.000000	64.209914 
6332.000000	64.417481 
6331.000000	64.628815 
6330.000000	64.831733 
6329.000000	65.011811 
6328.000000	65.155696 
6327.000000	65.252590 
6326.000000	65.296411 
6325.000000	65.286779 
6324.000000	65.230774 
6323.000000	65.140533 
6322.000000	65.033102 
6321.000000	64.925003 
6320.000000	64.830946 
6319.000000	64.759588 
6318.000000	64.714908 
6317.000000	64.693760 
6316.000000	64.688611 
6315.000000	64.688944 
6314.000000	64.684534 
6313.000000	64.667606 
6312.000000	64.633774 
6311.000000	64.583992 
6310.000000	64.523530 
6309.000000	64.461255 
6308.000000	64.406681 
6307.000000	64.369559 
6306.000000	64.357852 
6305.000000	64.377021 
6304.000000	64.429306 
6303.000000	64.513611 
6302.000000	64.626121 
6301.000000	64.761090 
6300.000000	64.911031 
6299.000000	65.068364 
6298.000000	65.223836 
6297.000000	65.367770 
6296.000000	65.487837 
6295.000000	65.572500 
6294.000000	65.608382 
6293.000000	65.584921 
6292.000000	65.493297 
6291.000000	65.330648 
6290.000000	65.099740 
6289.000000	64.812636 
6288.000000	64.487171 
6287.000000	64.145874 
6286.000000	63.812351 
6285.000000	63.508629 
6284.000000	63.252472 
6283.000000	63.055562 
6282.000000	62.923741 
6281.000000	62.857222 
6280.000000	62.855386 
6279.000000	62.917804 
6278.000000	63.044166 
6277.000000	63.232636 
6276.000000	63.478755 
6275.000000	63.772249 
6274.000000	64.094376 
6273.000000	64.418268 
6272.000000	64.711046 
6271.000000	64.939451 
6270.000000	65.076255 
6269.000000	65.106272 
6268.000000	65.031123 
6267.000000	64.868617 
6266.000000	64.651870 
6265.000000	64.420294 
6264.000000	64.213252 
6263.000000	64.060497 
6262.000000	63.979268 
6261.000000	63.969445 
6260.000000	64.017367 
6259.000000	64.098930 
6258.000000	64.188957 
6257.000000	64.262366 
6256.000000	64.299416 
6255.000000	64.287495 
6254.000000	64.222025 
6253.000000	64.104652 
6252.000000	63.941884 
6251.000000	63.744521 
6250.000000	63.526511 
6249.000000	63.304638 
6248.000000	63.097572 
6247.000000	62.924289 
6246.000000	62.802147 
6245.000000	62.745189 
6244.000000	62.761235 
6243.000000	62.848591 
6242.000000	62.996959 
6241.000000	63.187074 
6240.000000	63.395786 
6239.000000	63.596916 
6238.000000	63.769721 
6237.000000	63.900232 
6236.000000	63.985919 
6235.000000	64.033818 
6234.000000	64.059042 
6233.000000	64.079976 
6232.000000	64.113140 
6231.000000	64.169931 
6230.000000	64.251422 
6229.000000	64.349389 
6228.000000	64.446973 
6227.000000	64.524197 
6226.000000	64.562797 
6225.000000	64.551877 
6224.000000	64.489936 
6223.000000	64.386057 
6222.000000	64.256477 
6221.000000	64.121794 
6220.000000	64.002442 
6219.000000	63.915657 
6218.000000	63.872885 
6217.000000	63.878893 
6216.000000	63.933777 
6215.000000	64.032292 
6214.000000	64.165186 
6213.000000	64.320278 
6212.000000	64.483094 
6211.000000	64.639186 
6210.000000	64.775061 
6209.000000	64.879536 
6208.000000	64.944243 
6207.000000	64.964485 
6206.000000	64.940929 
6205.000000	64.876651 
6204.000000	64.777708 
6203.000000	64.650249 
6202.000000	64.500570 
6201.000000	64.334869 
6200.000000	64.160084 
6199.000000	63.985419 
6198.000000	63.822793 
6197.000000	63.686132 
6196.000000	63.589453 
6195.000000	63.543152 
6194.000000	63.552021 
6193.000000	63.611102 
6192.000000	63.708257 
6191.000000	63.826608 
6190.000000	63.948893 
6189.000000	64.061307 
6188.000000	64.155173 
6187.000000	64.226770 
6186.000000	64.276146 
6185.000000	64.304780 
6184.000000	64.313864 
6183.000000	64.302682 
6182.000000	64.269781 
6181.000000	64.214634 
6180.000000	64.139628 
6179.000000	64.051723 
6178.000000	63.962411 
6177.000000	63.886809 
6176.000000	63.839912 
6175.000000	63.833260 
6174.000000	63.871097 
6173.000000	63.948798 
6172.000000	64.053583 
6171.000000	64.166665 
6170.000000	64.267659 
6169.000000	64.338397 
6168.000000	64.364910 
6167.000000	64.340305 
6166.000000	64.265203 
6165.000000	64.148545 
6164.000000	64.004802 
6163.000000	63.852882 
6162.000000	63.713788 
6161.000000	63.607096 
6160.000000	63.547182 
6159.000000	63.542270 
6158.000000	63.592100 
6157.000000	63.690996 
6156.000000	63.829970 
6155.000000	63.998341 
6154.000000	64.184856 
6153.000000	64.378786 
6152.000000	64.570164 
6151.000000	64.748430 
6150.000000	64.901638 
6149.000000	65.017676 
6148.000000	65.085887 
6147.000000	65.098762 
6146.000000	65.054512 
6145.000000	64.958024 
6144.000000	64.821577 
6143.000000	64.663529 
6142.000000	64.506316 
6141.000000	64.372515 
6140.000000	64.282083 
6139.000000	64.248514 
6138.000000	64.277935 
6137.000000	64.370107 
6136.000000	64.517760 
6135.000000	64.709043 
6134.000000	64.927101 
6133.000000	65.151691 
6132.000000	65.360164 
6131.000000	65.529799 
6130.000000	65.640211 
6129.000000	65.676760 
6128.000000	65.631890 
6127.000000	65.508627 
6126.000000	65.317726 
6125.000000	65.077733 
6124.000000	64.810276 
6123.000000	64.537858 
6122.000000	64.281177 
6121.000000	64.058279 
6120.000000	63.882255 
6119.000000	63.760948 
6118.000000	63.696599 
6117.000000	63.686656 
6116.000000	63.722467 
6115.000000	63.791322 
6114.000000	63.877367 
6113.000000	63.965034 
6112.000000	64.039587 
6111.000000	64.091324 
6110.000000	64.115691 
6109.000000	64.114665 
6108.000000	64.096546 
6107.000000	64.072370 
6106.000000	64.052152 
6105.000000	64.041948 
6104.000000	64.043140 
6103.000000	64.051294 
6102.000000	64.058828 
6101.000000	64.056468 
6100.000000	64.037728 
6099.000000	63.999652 
6098.000000	63.943862 
6097.000000	63.876271 
6096.000000	63.805222 
6095.000000	63.740038 
6094.000000	63.688611 
6093.000000	63.656067 
6092.000000	63.644075 
6091.000000	63.649106 
6090.000000	63.663721 
6089.000000	63.677597 
6088.000000	63.680911 
6087.000000	63.666367 
6086.000000	63.632702 
6085.000000	63.584446 
6084.000000	63.533329 
6083.000000	63.495540 
6082.000000	63.489747 
6081.000000	63.531446 
6080.000000	63.630771 
6079.000000	63.789319 
6078.000000	63.999938 
6077.000000	64.247202 
6076.000000	64.510655 
6075.000000	64.769101 
6074.000000	65.003466 
6073.000000	65.200328 
6072.000000	65.352058 
6071.000000	65.457725 
6070.000000	65.519618 
6069.000000	65.542268 
6068.000000	65.529203 
6067.000000	65.482926 
6066.000000	65.404605 
6065.000000	65.296387 
6064.000000	65.160369 
6063.000000	65.000629 
6062.000000	64.824366 
6061.000000	64.642143 
6060.000000	64.465975 
6059.000000	64.308238 
6058.000000	64.179515 
6057.000000	64.087724 
6056.000000	64.036536 
6055.000000	64.025592 
6054.000000	64.050364 
6053.000000	64.103198 
6052.000000	64.174890 
6051.000000	64.254975 
6050.000000	64.332842 
6049.000000	64.397644 
6048.000000	64.438605 
6047.000000	64.446353 
6046.000000	64.412903 
6045.000000	64.335179 
6044.000000	64.215803 
6043.000000	64.065003 
6042.000000	63.898921 
6041.000000	63.739824 
6040.000000	63.612389 
6039.000000	63.539481 
6038.000000	63.537454 
6037.000000	63.612866 
6036.000000	63.760733 
6035.000000	63.964867 
6034.000000	64.200878 
6033.000000	64.440536 
6032.000000	64.657282 
6031.000000	64.830398 
6030.000000	64.948725 
6029.000000	65.010595 
6028.000000	65.023636 
6027.000000	65.001749 
6026.000000	64.961647 
6025.000000	64.919328 
6024.000000	64.886784 
6023.000000	64.872741 
6022.000000	64.879822 
6021.000000	64.907288 
6020.000000	64.950442 
6019.000000	65.003728 
6018.000000	65.061235 
6017.000000	65.118718 
6016.000000	65.173172 
6015.000000	65.222620 
6014.000000	65.265917 
6013.000000	65.301775 
6012.000000	65.328645 
6011.000000	65.344405 
6010.000000	65.346336 
6009.000000	65.331459 
6008.000000	65.297484 
6007.000000	65.243601 
6006.000000	65.170359 
6005.000000	65.080261 
6004.000000	64.977025 
6003.000000	64.866161 
6002.000000	64.754748 
6001.000000	64.651298 
6000.000000	64.563632 
5999.000000	64.499044 
5998.000000	64.463257 
5997.000000	64.459252 
5996.000000	64.486837 
5995.000000	64.541482 
5994.000000	64.614129 
5993.000000	64.692544 
5992.000000	64.762830 
5991.000000	64.812254 
5990.000000	64.831233 
5989.000000	64.815568 
5988.000000	64.766550 
5987.000000	64.691662 
5986.000000	64.602828 
5985.000000	64.513826 
5984.000000	64.437103 
5983.000000	64.382028 
5982.000000	64.353036 
5981.000000	64.349222 
5980.000000	64.365100 
5979.000000	64.391303 
5978.000000	64.417552 
5977.000000	64.434528 
5976.000000	64.437294 
5975.000000	64.425110 
5974.000000	64.403629 
5973.000000	64.382266 
5972.000000	64.373922 
5971.000000	64.391517 
5970.000000	64.445090 
5969.000000	64.539790 
5968.000000	64.672613 
5967.000000	64.833235 
5966.000000	65.003705 
5965.000000	65.162968 
5964.000000	65.288949 
5963.000000	65.364003 
5962.000000	65.377092 
5961.000000	65.325999 
5960.000000	65.217518 
5959.000000	65.066432 
5958.000000	64.892292 
5957.000000	64.716124 
5956.000000	64.558219 
5955.000000	64.435505 
5954.000000	64.360642 
5953.000000	64.340782 
5952.000000	64.376711 
5951.000000	64.462590 
5950.000000	64.587020 
5949.000000	64.733886 
5948.000000	64.883017 
5947.000000	65.013694 
5946.000000	65.106272 
5945.000000	65.147304 
5944.000000	65.130972 
5943.000000	65.061402 
5942.000000	64.951658 
5941.000000	64.820384 
5940.000000	64.689540 
5939.000000	64.577293 
5938.000000	64.496326 
5937.000000	64.448618 
5936.000000	64.427042 
5935.000000	64.416360 
5934.000000	64.398694 
5933.000000	64.357972 
5932.000000	64.285087 
5931.000000	64.180374 
5930.000000	64.053821 
5929.000000	63.923096 
5928.000000	63.809180 
5927.000000	63.732004 
5926.000000	63.705945 
5925.000000	63.737654 
5924.000000	63.824415 
5923.000000	63.956260 
5922.000000	64.116764 
5921.000000	64.286446 
5920.000000	64.444947 
5919.000000	64.573121 
5918.000000	64.656400 
5917.000000	64.685845 
5916.000000	64.660429 
5915.000000	64.585447 
5914.000000	64.473319 
5913.000000	64.341354 
5912.000000	64.209651 
5911.000000	64.098358 
5910.000000	64.023947 
5909.000000	63.997173 
5908.000000	64.021444 
5907.000000	64.093160 
5906.000000	64.201998 
5905.000000	64.333248 
5904.000000	64.470577 
5903.000000	64.598941 
5902.000000	64.706325 
5901.000000	64.785099 
5900.000000	64.832139 
5899.000000	64.848041 
5898.000000	64.836502 
5897.000000	64.802575 
5896.000000	64.752626 
5895.000000	64.692521 
5894.000000	64.627242 
5893.000000	64.560174 
5892.000000	64.494252 
5891.000000	64.431405 
5890.000000	64.374017 
5889.000000	64.324045 
5888.000000	64.282989 
5887.000000	64.251708 
5886.000000	64.229893 
5885.000000	64.216327 
5884.000000	64.208340 
5883.000000	64.203310 
5882.000000	64.198803 
5881.000000	64.193797 
5880.000000	64.188623 
5879.000000	64.184403 
5878.000000	64.182257 
5877.000000	64.182209 
5876.000000	64.182829 
5875.000000	64.181017 
5874.000000	64.172744 
5873.000000	64.154052 
5872.000000	64.122557 
5871.000000	64.079570 
5870.000000	64.030289 
5869.000000	63.982844 
5868.000000	63.946533 
5867.000000	63.929367 
5866.000000	63.936233 
5865.000000	63.966917 
5864.000000	64.016890 
5863.000000	64.078307 
5862.000000	64.142227 
5861.000000	64.201140 
5860.000000	64.249968 
5859.000000	64.286565 
5858.000000	64.311289 
5857.000000	64.325761 
5856.000000	64.331984 
5855.000000	64.330840 
5854.000000	64.322447 
5853.000000	64.306783 
5852.000000	64.284062 
5851.000000	64.255738 
5850.000000	64.224648 
5849.000000	64.194965 
5848.000000	64.170908 
5847.000000	64.155888 
5846.000000	64.151287 
5845.000000	64.156389 
5844.000000	64.168787 
5843.000000	64.185357 
5842.000000	64.203190 
5841.000000	64.220118 
5840.000000	64.235186 
5839.000000	64.248204 
5838.000000	64.258933 
5837.000000	64.266514 
5836.000000	64.268898 
5835.000000	64.263606 
5834.000000	64.248323 
5833.000000	64.222216 
5832.000000	64.186978 
5831.000000	64.146709 
5830.000000	64.107537 
5829.000000	64.076137 
5828.000000	64.058566 
5827.000000	64.058065 
5826.000000	64.074397 
5825.000000	64.103698 
5824.000000	64.139437 
5823.000000	64.174151 
5822.000000	64.201426 
5821.000000	64.216566 
5820.000000	64.217209 
5819.000000	64.203381 
5818.000000	64.176726 
5817.000000	64.139056 
5816.000000	64.091897 
5815.000000	64.036226 
5814.000000	63.973069 
5813.000000	63.904953 
5812.000000	63.835930 
5811.000000	63.771939 
5810.000000	63.719463 
5809.000000	63.684153 
5808.000000	63.669276 
5807.000000	63.674068 
5806.000000	63.694405 
5805.000000	63.722538 
5804.000000	63.750219 
5803.000000	63.770103 
5802.000000	63.778448 
5801.000000	63.775134 
5800.000000	63.764858 
5799.000000	63.754868 
5798.000000	63.754129 
5797.000000	63.770437 
5796.000000	63.809037 
5795.000000	63.871073 
5794.000000	63.953900 
5793.000000	64.051485 
5792.000000	64.155054 
5791.000000	64.254403 
5790.000000	64.338636 
5789.000000	64.397740 
5788.000000	64.423799 
5787.000000	64.412927 
5786.000000	64.365386 
5785.000000	64.287090 
5784.000000	64.189672 
5783.000000	64.088630 
5782.000000	64.000320 
5781.000000	63.939380 
5780.000000	63.916444 
5779.000000	63.935756 
5778.000000	63.994765 
5777.000000	64.084720 
5776.000000	64.193153 
5775.000000	64.305734 
5774.000000	64.409470 
5773.000000	64.493513 
5772.000000	64.550471 
5771.000000	64.575839 
5770.000000	64.567852 
5769.000000	64.526510 
5768.000000	64.453291 
5767.000000	64.352297 
5766.000000	64.230537 
5765.000000	64.098668 
5764.000000	63.970541 
5763.000000	63.861608 
5762.000000	63.786864 
5761.000000	63.757586 
5760.000000	63.779687 
5759.000000	63.852095 
5758.000000	63.967561 
5757.000000	64.112949 
5756.000000	64.272713 
5755.000000	64.431142 
5754.000000	64.575171 
5753.000000	64.695858 
5752.000000	64.788770 
5751.000000	64.852738 
5750.000000	64.888954 
5749.000000	64.899992 
5748.000000	64.888238 
5747.000000	64.856529 
5746.000000	64.807081 
5745.000000	64.743232 
5744.000000	64.668798 
5743.000000	64.589166 
5742.000000	64.510273 
5741.000000	64.438676 
5740.000000	64.380669 
5739.000000	64.341974 
5738.000000	64.326643 
5737.000000	64.336609 
5736.000000	64.371156 
5735.000000	64.426970 
5734.000000	64.497971 
5733.000000	64.576578 
5732.000000	64.653968 
5731.000000	64.722657 
5730.000000	64.776802 
5729.000000	64.814043 
5728.000000	64.836096 
5727.000000	64.847397 
5726.000000	64.854311 
5725.000000	64.862179 
5724.000000	64.874863 
5723.000000	64.891958 
5722.000000	64.909386 
5721.000000	64.920353 
5720.000000	64.917945 
5719.000000	64.897608 
5718.000000	64.859366 
5717.000000	64.808702 
5716.000000	64.755892 
5715.000000	64.713072 
5714.000000	64.690780 
5713.000000	64.693951 
5712.000000	64.720177 
5711.000000	64.759540 
5710.000000	64.797377 
5709.000000	64.818572 
5708.000000	64.811587 
5707.000000	64.772272 
5706.000000	64.704632 
5705.000000	64.619660 
5704.000000	64.531946 
5703.000000	64.454555 
5702.000000	64.396333 
5701.000000	64.359378 
5700.000000	64.340472 
5699.000000	64.332413 
5698.000000	64.328360 
5697.000000	64.325547 
5696.000000	64.325356 
5695.000000	64.333534 
5694.000000	64.356184 
5693.000000	64.396572 
5692.000000	64.452481 
5691.000000	64.514327 
5690.000000	64.568710 
5689.000000	64.601445 
5688.000000	64.602518 
5687.000000	64.569497 
5686.000000	64.507508 
5685.000000	64.427900 
5684.000000	64.344286 
5683.000000	64.268779 
5682.000000	64.207959 
5681.000000	64.162111 
5680.000000	64.126205 
5679.000000	64.092969 
5678.000000	64.056658 
5677.000000	64.015412 
5676.000000	63.973164 
5675.000000	63.937664 
5674.000000	63.917326 
5673.000000	63.918423 
5672.000000	63.940930 
5671.000000	63.978838 
5670.000000	64.020061 
5669.000000	64.050722 
5668.000000	64.059185 
5667.000000	64.038991 
5666.000000	63.990616 
5665.000000	63.921689 
5664.000000	63.844442 
5663.000000	63.773369 
5662.000000	63.721227 
5661.000000	63.696980 
5660.000000	63.703823 
5659.000000	63.738965 
5658.000000	63.794755 
5657.000000	63.861250 
5656.000000	63.928818 
5655.000000	63.990044 
5654.000000	64.040923 
5653.000000	64.080882 
5652.000000	64.111685 
5651.000000	64.135432 
5650.000000	64.153814 
5649.000000	64.166736 
5648.000000	64.173102 
5647.000000	64.171552 
5646.000000	64.161682 
5645.000000	64.145231 
5644.000000	64.125943 
5643.000000	64.109444 
5642.000000	64.101386 
5641.000000	64.106607 
5640.000000	64.127111 
5639.000000	64.160966 
5638.000000	64.203429 
5637.000000	64.247703 
5636.000000	64.287900 
5635.000000	64.320802 
5634.000000	64.347052 
5633.000000	64.371228 
5632.000000	64.399909 
5631.000000	64.439320 
5630.000000	64.493107 
5629.000000	64.560246 
5628.000000	64.635109 
5627.000000	64.707589 
5626.000000	64.766240 
5625.000000	64.799976 
5624.000000	64.800858 
5623.000000	64.765644 
5622.000000	64.696311 
5621.000000	64.600181 
5620.000000	64.488172 
5619.000000	64.373803 
5618.000000	64.270448 
5617.000000	64.189982 
5616.000000	64.140772 
5615.000000	64.126658 
5614.000000	64.146757 
5613.000000	64.195799 
5612.000000	64.265751 
5611.000000	64.346718 
5610.000000	64.427971 
5609.000000	64.500236 
5608.000000	64.556694 
5607.000000	64.594006 
5606.000000	64.611887 
5605.000000	64.612984 
5604.000000	64.601516 
5603.000000	64.582610 
5602.000000	64.561176 
5601.000000	64.541149 
5600.000000	64.525103 
5599.000000	64.514374 
5598.000000	64.509391 
5597.000000	64.510154 
5596.000000	64.516758 
5595.000000	64.529323 
5594.000000	64.548039 
5593.000000	64.574003 
5592.000000	64.607238 
5591.000000	64.647316 
5590.000000	64.690732 
5589.000000	64.731359 
5588.000000	64.760136 
5587.000000	64.767193 
5586.000000	64.743638 
5585.000000	64.683675 
5584.000000	64.587640 
5583.000000	64.462327 
5582.000000	64.321875 
5581.000000	64.185261 
5580.000000	64.073324 
5579.000000	64.004158 
5578.000000	63.990092 
5577.000000	64.034843 
5576.000000	64.132809 
5575.000000	64.269804 
5574.000000	64.425492 
5573.000000	64.577126 
5572.000000	64.703822 
5571.000000	64.790391 
5570.000000	64.828181 
5569.000000	64.816999 
5568.000000	64.763569 
5567.000000	64.680600 
5566.000000	64.583873 
5565.000000	64.489412 
5564.000000	64.411973 
5563.000000	64.361166 
5562.000000	64.342808 
5561.000000	64.355731 
5560.000000	64.393925 
5559.000000	64.446306 
5558.000000	64.499807 
5557.000000	64.541029 
5556.000000	64.558601 
5555.000000	64.546251 
5554.000000	64.503550 
5553.000000	64.437222 
5552.000000	64.359545 
5551.000000	64.287233 
5550.000000	64.238047 
5549.000000	64.227843 
5548.000000	64.267086 
5547.000000	64.359068 
5546.000000	64.499068 
5545.000000	64.674830 
5544.000000	64.868450 
5543.000000	65.060257 
5542.000000	65.231156 
5541.000000	65.365934 
5540.000000	65.454363 
5539.000000	65.492224 
5538.000000	65.480470 
5537.000000	65.424728 
5536.000000	65.333127 
5535.000000	65.215826 
5534.000000	65.082836 
5533.000000	64.944863 
5532.000000	64.811229 
5531.000000	64.691185 
5530.000000	64.591741 
5529.000000	64.518094 
5528.000000	64.472246 
5527.000000	64.453315 
5526.000000	64.456629 
5525.000000	64.474439 
5524.000000	64.496445 
5523.000000	64.511728 
5522.000000	64.510083 
5521.000000	64.484739 
5520.000000	64.433002 
5519.000000	64.357948 
5518.000000	64.267539 
5517.000000	64.174199 
5516.000000	64.092826 
5515.000000	64.037966 
5514.000000	64.021444 
5513.000000	64.048886 
5512.000000	64.119720 
5511.000000	64.224743 
5510.000000	64.348268 
5509.000000	64.469289 
5508.000000	64.565920 
5507.000000	64.618468 
5506.000000	64.613008 
5505.000000	64.544701 
5504.000000	64.417672 
5503.000000	64.246249 
5502.000000	64.051866 
5501.000000	63.860487 
5500.000000	63.697671 
5499.000000	63.585019 
5498.000000	63.536787 
5497.000000	63.556385 
5496.000000	63.636231 
5495.000000	63.759589 
5494.000000	63.904643 
5493.000000	64.048337 
5492.000000	64.171576 
5491.000000	64.261674 
5490.000000	64.314603 
5489.000000	64.333772 
5488.000000	64.328289 
5487.000000	64.309525 
5486.000000	64.287996 
5485.000000	64.270830 
5484.000000	64.260363 
5483.000000	64.256596 
5482.000000	64.256048 
5481.000000	64.255499 
5480.000000	64.251351 
5479.000000	64.241814 
5478.000000	64.226055 
5477.000000	64.204287 
5476.000000	64.177656 
5475.000000	64.146375 
5474.000000	64.113116 
5473.000000	64.082217 
5472.000000	64.060664 
5471.000000	64.056563 
5470.000000	64.077496 
5469.000000	64.127898 
5468.000000	64.206957 
5467.000000	64.307689 
5466.000000	64.417481 
5465.000000	64.520549 
5464.000000	64.601373 
5463.000000	64.648771 
5462.000000	64.658689 
5461.000000	64.635372 
5460.000000	64.590263 
5459.000000	64.538669 
5458.000000	64.496016 
5457.000000	64.472961 
5456.000000	64.473986 
5455.000000	64.494752 
5454.000000	64.525079 
5453.000000	64.550256 
5452.000000	64.557337 
5451.000000	64.536213 
5450.000000	64.482855 
5449.000000	64.399409 
5448.000000	64.293432 
5447.000000	64.175486 
5446.000000	64.056444 
5445.000000	63.945269 
5444.000000	63.847422 
5443.000000	63.764452 
5442.000000	63.694930 
5441.000000	63.635683 
5440.000000	63.584160 
5439.000000	63.539767 
5438.000000	63.505506 
5437.000000	63.486075 
5436.000000	63.487839 
5435.000000	63.516426 
5434.000000	63.575387 
5433.000000	63.663125 
5432.000000	63.773441 
5431.000000	63.896036 
5430.000000	64.018702 
5429.000000	64.129281 
5428.000000	64.218807 
5427.000000	64.282822 
5426.000000	64.322686 
5425.000000	64.345312 
5424.000000	64.360284 
5423.000000	64.377331 
5422.000000	64.403200 
5421.000000	64.440655 
5420.000000	64.486789 
5419.000000	64.534664 
5418.000000	64.575052 
5417.000000	64.599776 
5416.000000	64.603424 
5415.000000	64.584922 
5414.000000	64.547801 
5413.000000	64.498877 
5412.000000	64.445853 
5411.000000	64.394950 
5410.000000	64.349484 
5409.000000	64.309263 
5408.000000	64.271378 
5407.000000	64.232110 
5406.000000	64.188480 
5405.000000	64.140892 
5404.000000	64.093518 
5403.000000	64.053988 
5402.000000	64.030313 
5401.000000	64.029932 
5400.000000	64.056825 
5399.000000	64.110708 
5398.000000	64.185237 
5397.000000	64.270496 
5396.000000	64.355301 
5395.000000	64.429116 
5394.000000	64.484405 
5393.000000	64.517235 
5392.000000	64.527821 
5391.000000	64.519023 
5390.000000	64.494991 
5389.000000	64.459490 
5388.000000	64.415097 
5387.000000	64.362907 
5386.000000	64.303207 
5385.000000	64.237523 
5384.000000	64.168691 
5383.000000	64.101386 
5382.000000	64.040851 
5381.000000	63.991332 
5380.000000	63.954544 
5379.000000	63.929176 
5378.000000	63.910913 
5377.000000	63.892698 
5376.000000	63.867330 
5375.000000	63.829159 
5374.000000	63.776063 
5373.000000	63.710117 
5372.000000	63.637328 
5371.000000	63.564562 
5370.000000	63.500046 
5369.000000	63.450670 
5368.000000	63.421511 
5367.000000	63.414454 
5366.000000	63.428711 
5365.000000	63.461542 
5364.000000	63.507628 
5363.000000	63.559913 
5362.000000	63.608646 
5361.000000	63.642716 
5360.000000	63.650226 
5359.000000	63.621473 
5358.000000	63.551044 
5357.000000	63.441205 
5356.000000	63.303041 
5355.000000	63.156032 
5354.000000	63.026142 
5353.000000	62.938976 
5352.000000	62.915873 
5351.000000	62.965416 
5350.000000	63.080930 
5349.000000	63.239049 
5348.000000	63.406014 
5347.000000	63.543057 
5346.000000	63.614058 
5345.000000	63.595461 
5344.000000	63.482379 
5343.000000	63.289046 
5342.000000	63.043069 
5341.000000	62.782001 
5340.000000	62.544488 
5339.000000	62.362289 
5338.000000	62.253189 
5337.000000	62.221813 
5336.000000	62.260985 
5335.000000	62.355208 
5334.000000	62.485408 
5333.000000	62.632107 
5332.000000	62.778258 
5331.000000	62.909460 
5330.000000	63.014793 
5329.000000	63.083767 
5328.000000	63.109254 
5327.000000	63.086247 
5326.000000	63.016939 
5325.000000	62.912082 
5324.000000	62.792515 
5323.000000	62.684488 
5322.000000	62.618851 
5321.000000	62.623810 
5320.000000	62.722086 
5319.000000	62.923693 
5318.000000	63.227581 
5317.000000	63.617730 
5316.000000	64.071536 
5315.000000	64.563441 
5314.000000	65.068507 
5313.000000	65.564084 
5312.000000	66.031432 
5311.000000	66.456246 
5310.000000	66.823387 
5309.000000	67.116546 
5308.000000	67.316174 
5307.000000	67.403149 
5306.000000	67.363667 
5305.000000	67.195773 
5304.000000	66.914725 
5303.000000	66.555070 
5302.000000	66.168665 
5301.000000	65.816974 
5300.000000	65.562200 
5299.000000	65.453648 
5298.000000	65.517568 
5297.000000	65.750288 
5296.000000	66.121506 
5295.000000	66.576790 
5294.000000	67.051839 
5293.000000	67.479443 
5292.000000	67.801976 
5291.000000	67.977595 
5290.000000	67.987203 
5289.000000	67.831206 
5288.000000	67.526364 
5287.000000	67.100501 
5286.000000	66.588616 
5285.000000	66.026115 
5284.000000	65.447568 
5283.000000	64.883995 
5282.000000	64.363574 
5281.000000	63.913011 
5280.000000	63.557410 
5279.000000	63.315057 
5278.000000	63.194680 
5277.000000	63.191342 
5276.000000	63.286280 
5275.000000	63.442969 
5274.000000	63.617300 
5273.000000	63.762879 
5272.000000	63.846111 
5271.000000	63.847184 
5270.000000	63.772153 
5269.000000	63.647079 
5268.000000	63.517856 
5267.000000	63.434433 
5266.000000	63.444089 
5265.000000	63.578438 
5264.000000	63.848209 
5263.000000	64.239764 
5262.000000	64.719986 
5261.000000	65.245461 
5260.000000	65.769076 
5259.000000	66.249966 
5258.000000	66.657280 
5257.000000	66.972827 
5256.000000	67.191362 
5255.000000	67.317700 
5254.000000	67.362451 
5253.000000	67.337036 
5252.000000	67.255902 
5251.000000	67.132592 
5250.000000	66.976547 
5249.000000	66.791319 
5248.000000	66.578745 
5247.000000	66.337966 
5246.000000	66.068124 
5245.000000	65.770244 
5244.000000	65.449023 
5243.000000	65.115094 
5242.000000	64.784836 
5241.000000	64.479422 
5240.000000	64.218711 
5239.000000	64.020514 
5238.000000	63.895153 
5237.000000	63.845181 
5236.000000	63.861513 
5235.000000	63.929200 
5234.000000	64.029026 
5233.000000	64.142656 
5232.000000	64.253640 
5231.000000	64.351916 
5230.000000	64.433169 
5229.000000	64.497804 
5228.000000	64.546966 
5227.000000	64.585375 
5226.000000	64.618587 
5225.000000	64.651918 
5224.000000	64.688229 
5223.000000	64.727139 
5222.000000	64.763879 
5221.000000	64.790558 
5220.000000	64.797377 
5219.000000	64.774060 
5218.000000	64.713621 
5217.000000	64.616012 
5216.000000	64.489054 
5215.000000	64.347052 
5214.000000	64.208483 
5213.000000	64.094233 
5212.000000	64.020085 
5211.000000	63.992762 
5210.000000	64.008212 
5209.000000	64.053273 
5208.000000	64.108848 
5207.000000	64.154314 
5206.000000	64.173817 
5205.000000	64.160037 
5204.000000	64.115118 
5203.000000	64.048957 
5202.000000	63.976144 
5201.000000	63.910889 
5200.000000	63.865804 
5199.000000	63.848900 
5198.000000	63.863277 
5197.000000	63.907217 
5196.000000	63.975596 
5195.000000	64.061093 
5194.000000	64.154958 
5193.000000	64.248728 
5192.000000	64.334177 
5191.000000	64.405274 
5190.000000	64.457488 
5189.000000	64.489722 
5188.000000	64.504551 
5187.000000	64.507412 
5186.000000	64.506435 
5185.000000	64.509344 
5184.000000	64.521741 
5183.000000	64.545273 
5182.000000	64.577889 
5181.000000	64.613938 
5180.000000	64.646291 
5179.000000	64.668560 
5178.000000	64.677882 
5177.000000	64.674401 
5176.000000	64.661169 
5175.000000	64.642524 
5174.000000	64.622378 
5173.000000	64.603829 
5172.000000	64.588642 
5171.000000	64.577364 
5170.000000	64.569568 
5169.000000	64.564895 
5168.000000	64.563012 
5167.000000	64.563679 
5166.000000	64.566159 
5165.000000	64.569115 
5164.000000	64.569973 
5163.000000	64.564800 
5162.000000	64.549279 
5161.000000	64.519715 
5160.000000	64.474821 
5159.000000	64.416122 
5158.000000	64.348745 
5157.000000	64.280843 
5156.000000	64.222478 
5155.000000	64.183044 
5154.000000	64.169955 
5153.000000	64.187026 
5152.000000	64.233160 
5151.000000	64.302635 
5150.000000	64.385294 
5149.000000	64.468622 
5148.000000	64.539432 
5147.000000	64.586162 
5146.000000	64.600944 
5145.000000	64.580988 
5144.000000	64.528656 
5143.000000	64.450836 
5142.000000	64.356946 
5141.000000	64.257144 
5140.000000	64.160847 
5139.000000	64.075708 
5138.000000	64.007377 
5137.000000	63.959527 
5136.000000	63.934278 
5135.000000	63.932275 
5134.000000	63.953185 
5133.000000	63.994956 
5132.000000	64.053368 
5131.000000	64.122295 
5130.000000	64.193511 
5129.000000	64.258217 
5128.000000	64.308023 
5127.000000	64.336752 
5126.000000	64.340972 
5125.000000	64.321374 
5124.000000	64.282798 
5123.000000	64.232730 
5122.000000	64.179730 
5121.000000	64.131832 
5120.000000	64.094996 
5119.000000	64.072751 
5118.000000	64.065957 
5117.000000	64.073324 
5116.000000	64.092016 
5115.000000	64.118480 
5114.000000	64.148783 
5113.000000	64.178776 
5112.000000	64.204335 
5111.000000	64.221262 
5110.000000	64.225840 
5109.000000	64.215016 
5108.000000	64.187622 
5107.000000	64.144325 
5106.000000	64.088892 
5105.000000	64.027690 
5104.000000	63.969755 
5103.000000	63.924884 
5102.000000	63.902568 
5101.000000	63.909935 
5100.000000	63.949966 
5099.000000	64.020705 
5098.000000	64.115023 
5097.000000	64.221811 
5096.000000	64.327883 
5095.000000	64.420390 
5094.000000	64.489316 
5093.000000	64.529061 
5092.000000	64.539647 
5091.000000	64.526033 
5090.000000	64.496707 
5089.000000	64.461016 
5088.000000	64.426922 
5087.000000	64.398789 
5086.000000	64.376711 
5085.000000	64.356803 
5084.000000	64.333128 
5083.000000	64.299941 
5082.000000	64.253783 
5081.000000	64.195656 
5080.000000	64.130520 
5079.000000	64.067649 
5078.000000	64.017248 
5077.000000	63.989520 
5076.000000	63.991212 
5075.000000	64.024949 
5074.000000	64.088201 
5073.000000	64.174103 
5072.000000	64.273190 
5071.000000	64.374876 
5070.000000	64.469790 
5069.000000	64.550447 
5068.000000	64.612126 
5067.000000	64.652276 
5066.000000	64.669990 
5065.000000	64.665389 
5064.000000	64.638972 
5063.000000	64.591383 
5062.000000	64.523839 
5061.000000	64.438652 
5060.000000	64.339900 
5059.000000	64.233756 
5058.000000	64.128208 
5057.000000	64.031958 
5056.000000	63.953542 
5055.000000	63.899850 
5054.000000	63.875389 
5053.000000	63.881325 
5052.000000	63.915348 
5051.000000	63.971757 
5050.000000	64.042592 
5049.000000	64.118242 
5048.000000	64.189553 
5047.000000	64.248275 
5046.000000	64.289164 
5045.000000	64.309763 
5044.000000	64.311385 
5043.000000	64.298081 
5042.000000	64.275646 
5041.000000	64.250397 
5040.000000	64.227414 
5039.000000	64.209723 
5038.000000	64.198064 
5037.000000	64.191508 
5036.000000	64.188194 
5035.000000	64.186477 
5034.000000	64.186024 
5033.000000	64.187884 
5032.000000	64.194607 
5031.000000	64.208912 
5030.000000	64.232063 
5029.000000	64.262938 
5028.000000	64.297604 
5027.000000	64.330101 
5026.000000	64.352869 
5025.000000	64.359617 
5024.000000	64.347124 
5023.000000	64.316487 
5022.000000	64.273285 
5021.000000	64.226508 
5020.000000	64.186263 
5019.000000	64.161682 
5018.000000	64.158678 
5017.000000	64.178109 
5016.000000	64.215493 
5015.000000	64.262533 
5014.000000	64.309549 
5013.000000	64.347672 
5012.000000	64.370965 
5011.000000	64.377903 
5010.000000	64.371299 
5009.000000	64.357209 
5008.000000	64.343023 
5007.000000	64.334964 
5006.000000	64.336585 
5005.000000	64.348435 
5004.000000	64.368128 
5003.000000	64.392042 
5002.000000	64.416337 
5001.000000	64.438748 
5000.000000	64.458465 
4999.000000	64.476299 
4998.000000	64.493298 
4997.000000	64.509868 
4996.000000	64.524579 
4995.000000	64.534449 
4994.000000	64.534640 
4993.000000	64.520382 
4992.000000	64.487528 
4991.000000	64.434599 
4990.000000	64.362645 
4989.000000	64.275956 
4988.000000	64.181017 
4987.000000	64.085602 
4986.000000	63.997554 
4985.000000	63.923621 
4984.000000	63.869524 
4983.000000	63.839221 
4982.000000	63.834786 
4981.000000	63.856124 
4980.000000	63.900685 
4979.000000	63.963699 
4978.000000	64.038085 
4977.000000	64.115715 
4976.000000	64.188218 
4975.000000	64.248657 
4974.000000	64.292788 
4973.000000	64.319419 
4972.000000	64.330649 
4971.000000	64.330434 
4970.000000	64.323687 
4969.000000	64.314317 
4968.000000	64.305233 
4967.000000	64.296793 
4966.000000	64.287662 
4965.000000	64.274978 
4964.000000	64.256381 
4963.000000	64.230155 
4962.000000	64.196515 
4961.000000	64.157199 
4960.000000	64.115095 
4959.000000	64.073753 
4958.000000	64.036655 
4957.000000	64.006733 
4956.000000	63.986039 
4955.000000	63.976407 
4954.000000	63.979506 
4953.000000	63.996362 
4952.000000	64.027142 
4951.000000	64.071249 
4950.000000	64.126777 
4949.000000	64.190196 
4948.000000	64.256262 
4947.000000	64.318799 
4946.000000	64.370679 
4945.000000	64.405488 
4944.000000	64.417576 
4943.000000	64.403724 
4942.000000	64.362931 
4941.000000	64.297080 
4940.000000	64.210629 
4939.000000	64.110207 
4938.000000	64.003705 
4937.000000	63.899302 
4936.000000	63.804602 
4935.000000	63.725996 
4934.000000	63.667750 
4933.000000	63.631701 
4932.000000	63.617610 
4931.000000	63.623356 
4930.000000	63.646316 
4929.000000	63.683938 
4928.000000	63.734149 
4927.000000	63.795423 
4926.000000	63.866615 
4925.000000	63.946652 
4924.000000	64.033532 
4923.000000	64.124250 
4922.000000	64.214992 
4921.000000	64.301323 
4920.000000	64.378881 
4919.000000	64.443850 
4918.000000	64.494538 
4917.000000	64.530634 
4916.000000	64.553594 
4915.000000	64.565467 
4914.000000	64.568591 
4913.000000	64.564824 
4912.000000	64.555907 
4911.000000	64.543318 
4910.000000	64.528918 
4909.000000	64.514923 
4908.000000	64.504766 
4907.000000	64.500832 
4906.000000	64.504122 
4905.000000	64.513516 
4904.000000	64.526081 
4903.000000	64.537525 
4902.000000	64.543294 
4901.000000	64.540362 
4900.000000	64.527916 
4899.000000	64.507699 
4898.000000	64.482927 
4897.000000	64.457273 
4896.000000	64.432907 
4895.000000	64.409732 
4894.000000	64.385128 
4893.000000	64.353799 
4892.000000	64.310693 
4891.000000	64.253425 
4890.000000	64.183688 
4889.000000	64.107656 
4888.000000	64.035320 
4887.000000	63.978147 
4886.000000	63.946747 
4885.000000	63.947367 
4884.000000	63.981389 
4883.000000	64.044594 
4882.000000	64.128279 
4881.000000	64.221429 
4880.000000	64.312219 
4879.000000	64.390325 
4878.000000	64.448094 
4877.000000	64.481544 
4876.000000	64.491081 
4875.000000	64.480710 
4874.000000	64.457535 
4873.000000	64.429545 
4872.000000	64.404606 
4871.000000	64.387941 
4870.000000	64.381814 
4869.000000	64.384150 
4868.000000	64.389491 
4867.000000	64.389967 
4866.000000	64.377808 
4865.000000	64.347791 
4864.000000	64.298677 
4863.000000	64.234852 
4862.000000	64.165616 
4861.000000	64.103388 
4860.000000	64.060139 
4859.000000	64.045071 
4858.000000	64.061951 
4857.000000	64.108204 
4856.000000	64.175820 
4855.000000	64.252662 
4854.000000	64.325881 
4853.000000	64.383840 
4852.000000	64.418888 
4851.000000	64.427566 
4850.000000	64.410352 
4849.000000	64.371609 
4848.000000	64.318084 
4847.000000	64.257097 
4846.000000	64.195179 
4845.000000	64.137864 
4844.000000	64.089107 
4843.000000	64.051651 
4842.000000	64.027023 
4841.000000	64.015650 
4840.000000	64.017581 
4839.000000	64.031982 
4838.000000	64.058160 
4837.000000	64.094948 
4836.000000	64.141368 
4835.000000	64.196181 
4834.000000	64.257764 
4833.000000	64.324069 
4832.000000	64.391541 
4831.000000	64.455986 
4830.000000	64.511179 
4829.000000	64.550423 
4828.000000	64.566588 
4827.000000	64.554357 
4826.000000	64.510440 
4825.000000	64.435076 
4824.000000	64.332127 
4823.000000	64.209103 
4822.000000	64.076066 
4821.000000	63.944506 
4820.000000	63.825273 
4819.000000	63.727474 
4818.000000	63.656830 
4817.000000	63.615870 
4816.000000	63.603496 
4815.000000	63.616490 
4814.000000	63.649749 
4813.000000	63.697767 
4812.000000	63.754773 
4811.000000	63.816022 
4810.000000	63.876628 
4809.000000	63.933134 
4808.000000	63.982105 
4807.000000	64.021253 
4806.000000	64.048933 
4805.000000	64.064884 
4804.000000	64.070320 
4803.000000	64.067339 
4802.000000	64.059019 
4801.000000	64.048194 
4800.000000	64.037394 
4799.000000	64.028120 
4798.000000	64.021039 
4797.000000	64.015865 
4796.000000	64.011931 
4795.000000	64.008808 
4794.000000	64.006900 
4793.000000	64.007520 
4792.000000	64.012598 
4791.000000	64.023423 
4790.000000	64.040303 
4789.000000	64.062595 
4788.000000	64.088535 
4787.000000	64.115095 
4786.000000	64.139342 
4785.000000	64.159059 
4784.000000	64.173936 
4783.000000	64.185571 
4782.000000	64.197421 
4781.000000	64.213299 
4780.000000	64.237070 
4779.000000	64.271903 
4778.000000	64.318752 
4777.000000	64.376163 
4776.000000	64.439654 
4775.000000	64.503550 
4774.000000	64.560365 
4773.000000	64.603042 
4772.000000	64.624786 
4771.000000	64.620804 
4770.000000	64.588975 
4769.000000	64.530611 
4768.000000	64.450955 
4767.000000	64.358735 
4766.000000	64.265418 
4765.000000	64.183545 
4764.000000	64.124703 
4763.000000	64.096999 
4762.000000	64.103913 
4761.000000	64.142918 
4760.000000	64.206361 
4759.000000	64.282393 
4758.000000	64.357304 
4757.000000	64.417695 
4756.000000	64.452600 
4755.000000	64.454960 
4754.000000	64.422249 
4753.000000	64.356589 
4752.000000	64.263868 
4751.000000	64.153099 
4750.000000	64.034295 
4749.000000	63.917946 
4748.000000	63.813638 
4747.000000	63.729310 
4746.000000	63.670706 
4745.000000	63.640809 
4744.000000	63.639926 
4743.000000	63.665580 
4742.000000	63.712739 
4741.000000	63.774633 
4740.000000	63.843607 
4739.000000	63.912248 
4738.000000	63.974261 
4737.000000	64.024925 
4736.000000	64.061546 
4735.000000	64.083719 
4734.000000	64.093136 
4733.000000	64.093112 
4732.000000	64.087343 
4731.000000	64.079856 
4730.000000	64.073467 
4729.000000	64.069843 
4728.000000	64.068675 
4727.000000	64.068436 
4726.000000	64.066767 
4725.000000	64.061951 
4724.000000	64.053177 
4723.000000	64.041113 
4722.000000	64.027857 
4721.000000	64.015746 
4720.000000	64.007544 
4719.000000	64.005446 
4718.000000	64.010930 
4717.000000	64.024019 
4716.000000	64.044523 
4715.000000	64.072227 
4714.000000	64.107370 
4713.000000	64.150381 
4712.000000	64.201712 
4711.000000	64.260697 
4710.000000	64.325213 
4709.000000	64.390897 
4708.000000	64.451289 
4707.000000	64.498400 
4706.000000	64.524960 
4705.000000	64.525461 
4704.000000	64.498019 
4703.000000	64.444518 
4702.000000	64.370679 
4701.000000	64.284896 
4700.000000	64.196634 
4699.000000	64.115190 
4698.000000	64.047980 
4697.000000	64.000225 
4696.000000	63.974618 
4695.000000	63.971638 
4694.000000	63.989925 
4693.000000	64.026832 
4692.000000	64.078593 
4691.000000	64.140629 
4690.000000	64.207530 
4689.000000	64.273333 
4688.000000	64.331579 
4687.000000	64.376449 
4686.000000	64.403367 
4685.000000	64.409995 
4684.000000	64.396643 
4683.000000	64.366173 
4682.000000	64.323496 
4681.000000	64.275026 
4680.000000	64.227223 
4679.000000	64.185810 
4678.000000	64.154624 
4677.000000	64.135456 
4676.000000	64.127826 
4675.000000	64.129662 
4674.000000	64.137697 
4673.000000	64.148378 
4672.000000	64.158606 
4671.000000	64.166140 
4670.000000	64.170169 
4669.000000	64.170956 
4668.000000	64.169859 
4667.000000	64.168453 
4666.000000	64.168190 
4665.000000	64.169812 
4664.000000	64.172887 
4663.000000	64.176082 
4662.000000	64.177346 
4661.000000	64.174771 
4660.000000	64.167833 
4659.000000	64.158010 
4658.000000	64.148974 
4657.000000	64.146041 
4656.000000	64.154911 
4655.000000	64.180135 
4654.000000	64.223742 
4653.000000	64.284205 
4652.000000	64.355993 
4651.000000	64.430475 
4650.000000	64.498019 
4649.000000	64.549636 
4648.000000	64.578986 
4647.000000	64.583277 
4646.000000	64.564418 
4645.000000	64.527416 
4644.000000	64.479541 
4643.000000	64.427733 
4642.000000	64.378023 
4641.000000	64.333486 
4640.000000	64.295029 
4639.000000	64.261245 
4638.000000	64.230203 
4637.000000	64.199924 
4636.000000	64.169573 
4635.000000	64.139771 
4634.000000	64.112424 
4633.000000	64.090466 
4632.000000	64.077234 
4631.000000	64.075469 
4630.000000	64.087033 
4629.000000	64.112687 
4628.000000	64.151906 
4627.000000	64.203000 
4626.000000	64.263033 
4625.000000	64.328360 
4624.000000	64.394664 
4623.000000	64.457035 
4622.000000	64.510202 
4621.000000	64.549660 
4620.000000	64.571809 
4619.000000	64.574790 
4618.000000	64.558815 
4617.000000	64.526772 
4616.000000	64.483308 
4615.000000	64.435124 
4614.000000	64.388847 
4613.000000	64.350318 
4612.000000	64.323353 
4611.000000	64.309549 
4610.000000	64.307737 
4609.000000	64.314675 
4608.000000	64.325952 
4607.000000	64.337182 
4606.000000	64.344906 
4605.000000	64.347505 
4604.000000	64.344978 
4603.000000	64.338493 
4602.000000	64.329981 
4601.000000	64.321041 
4600.000000	64.312314 
4599.000000	64.303159 
4598.000000	64.291739 
4597.000000	64.275789 
4596.000000	64.253211 
4595.000000	64.223504 
4594.000000	64.188075 
4593.000000	64.150691 
4592.000000	64.116287 
4591.000000	64.090657 
4590.000000	64.079141 
4589.000000	64.085292 
4588.000000	64.109635 
4587.000000	64.149546 
4586.000000	64.199709 
4585.000000	64.252710 
4584.000000	64.300823 
4583.000000	64.336848 
4582.000000	64.355349 
4581.000000	64.353609 
4580.000000	64.331722 
4579.000000	64.292001 
4578.000000	64.238452 
4577.000000	64.176058 
4576.000000	64.110088 
4575.000000	64.045810 
4574.000000	63.988018 
4573.000000	63.940882 
4572.000000	63.907814 
4571.000000	63.891029 
4570.000000	63.891172 
4569.000000	63.906979 
4568.000000	63.935136 
4567.000000	63.970160 
4566.000000	64.005398 
4565.000000	64.033937 
4564.000000	64.049911 
4563.000000	64.049267 
4562.000000	64.030933 
4561.000000	63.996958 
4560.000000	63.952231 
4559.000000	63.903307 
4558.000000	63.857150 
4557.000000	63.819742 
4556.000000	63.794922 
4555.000000	63.784027 
4554.000000	63.785910 
4553.000000	63.797593 
4552.000000	63.815522 
4551.000000	63.836574 
4550.000000	63.858437 
4549.000000	63.879728 
4548.000000	63.899564 
4547.000000	63.917303 
4546.000000	63.931679 
4545.000000	63.941454 
4544.000000	63.944911 
4543.000000	63.941287 
4542.000000	63.931417 
4541.000000	63.918161 
4540.000000	63.906216 
4539.000000	63.900947 
4538.000000	63.907599 
4537.000000	63.928890 
4536.000000	63.964295 
4535.000000	64.009165 
4534.000000	64.055728 
4533.000000	64.094543 
4532.000000	64.117074 
4531.000000	64.117431 
4530.000000	64.094424 
4529.000000	64.051151 
4528.000000	63.994407 
4527.000000	63.932514 
4526.000000	63.873434 
4525.000000	63.823103 
4524.000000	63.784360 
4523.000000	63.757085 
4522.000000	63.738822 
4521.000000	63.726449 
4520.000000	63.717412 
4519.000000	63.710522 
4518.000000	63.706231 
4517.000000	63.705968 
4516.000000	63.711571 
4515.000000	63.723659 
4514.000000	63.741588 
4513.000000	63.762807 
4512.000000	63.783812 
4511.000000	63.800621 
4510.000000	63.810491 
4509.000000	63.812351 
4508.000000	63.807559 
4507.000000	63.799667 
4506.000000	63.793015 
4505.000000	63.791990 
4504.000000	63.798999 
4503.000000	63.814401 
4502.000000	63.835191 
4501.000000	63.856124 
4500.000000	63.870239 
4499.000000	63.871145 
4498.000000	63.853764 
4497.000000	63.815951 
4496.000000	63.759374 
4495.000000	63.689589 
4494.000000	63.615202 
4493.000000	63.546323 
4492.000000	63.493275 
4491.000000	63.464164 
4490.000000	63.463282 
4489.000000	63.490223 
4488.000000	63.540029 
4487.000000	63.604450 
4486.000000	63.673448 
4485.000000	63.737487 
4484.000000	63.788986 
4483.000000	63.824033 
4482.000000	63.841843 
4481.000000	63.845014 
4480.000000	63.837289 
4479.000000	63.823556 
4478.000000	63.808488 
4477.000000	63.795781 
4476.000000	63.787865 
4475.000000	63.785767 
4474.000000	63.789725 
4473.000000	63.799023 
4472.000000	63.812804 
4471.000000	63.829398 
4470.000000	63.846969 
4469.000000	63.863396 
4468.000000	63.877034 
4467.000000	63.886737 
4466.000000	63.892626 
4465.000000	63.896346 
4464.000000	63.901042 
4463.000000	63.910937 
4462.000000	63.929986 
4461.000000	63.961172 
4460.000000	64.004635 
4459.000000	64.058184 
4458.000000	64.116001 
4457.000000	64.170694 
4456.000000	64.213013 
4455.000000	64.234137 
4454.000000	64.227128 
4453.000000	64.188480 
4452.000000	64.119458 
4451.000000	64.026212 
4450.000000	63.919210 
4449.000000	63.811039 
4448.000000	63.714504 
4447.000000	63.640260 
4446.000000	63.595175 
4445.000000	63.581323 
4444.000000	63.597488 
4443.000000	63.639664 
4442.000000	63.702964 
4441.000000	63.782143 
4440.000000	63.869833 
4439.000000	63.956856 
4438.000000	64.032626 
4437.000000	64.086389 
4436.000000	64.108681 
4435.000000	64.094018 
4434.000000	64.041399 
4433.000000	63.956212 
4432.000000	63.850498 
4431.000000	63.740563 
4430.000000	63.642382 
4429.000000	63.570308 
4428.000000	63.534903 
4427.000000	63.540577 
4426.000000	63.589787 
4425.000000	63.675713 
4424.000000	63.777470 
4423.000000	63.873076 
4422.000000	63.949894 
4421.000000	63.996100 
4420.000000	63.999700 
4419.000000	63.957476 
4418.000000	63.872075 
4417.000000	63.767170 
4416.000000	63.686156 
4415.000000	63.659596 
4414.000000	63.699054 
4413.000000	63.812804 
4412.000000	63.998222 
4411.000000	64.253163 
4410.000000	64.562296 
4409.000000	64.888978 
4408.000000	65.179181 
4407.000000	65.345764 
4406.000000	65.312790 
4405.000000	65.048718 
4404.000000	64.575386 
4403.000000	63.993477 
4402.000000	63.438892 
4401.000000	62.986040 
4400.000000	62.726879 
4399.000000	62.668728 
4398.000000	62.902784 
4397.000000	63.643407 
4396.000000	65.135502 
4395.000000	67.687225 
4394.000000	71.297454 
4393.000000	75.593972 
4392.000000	79.775977 
4391.000000	82.736325 
4390.000000	83.495807 
4389.000000	81.475305 
4388.000000	76.795911 
4387.000000	70.269131 
4386.000000	63.068604 
4385.000000	56.448841 
4384.000000	51.283955 
4383.000000	47.961997 
4382.000000	46.433258 
4381.000000	46.307945 
4380.000000	47.204065 
4379.000000	48.771548 
4378.000000	50.767636 
4377.000000	53.066921 
4376.000000	55.451917 
4375.000000	57.768177 
4374.000000	59.825372 
4373.000000	61.505699 
4372.000000	62.788248 
4371.000000	63.716006 
4370.000000	64.380407 
4369.000000	64.870119 
4368.000000	65.232944 
4367.000000	65.486884 
4366.000000	65.634489 
4365.000000	65.673351 
4364.000000	65.627074 
4363.000000	65.517783 
4362.000000	65.373849 
4361.000000	65.212154 
4360.000000	65.038681 
4359.000000	64.863514 
4358.000000	64.699077 
4357.000000	64.562344 
4356.000000	64.470934 
4355.000000	64.423894 
4354.000000	64.408826 
4353.000000	64.421343 
4352.000000	64.457106 
4351.000000	64.498853 
4350.000000	64.530181 
4349.000000	64.540648 
4348.000000	64.527225 
4347.000000	64.497661 
4346.000000	64.464282 
4345.000000	64.432549 
4344.000000	64.407658 
4343.000000	64.397883 
4342.000000	64.405083 
4341.000000	64.421272 
4340.000000	64.436984 
4339.000000	64.445710 
4338.000000	64.442276 
4337.000000	64.424133 
4336.000000	64.393115 
4335.000000	64.354848 
4334.000000	64.315629 
4333.000000	64.280772 
4332.000000	64.253211 
4331.000000	64.233112 
4330.000000	64.218902 
4329.000000	64.208436 
4328.000000	64.200186 
4327.000000	64.193844 
4326.000000	64.191794 
4325.000000	64.197063 
4324.000000	64.211606 
4323.000000	64.235115 
4322.000000	64.264106 
4321.000000	64.292287 
4320.000000	64.311718 
4319.000000	64.314746 
4318.000000	64.296174 
4317.000000	64.254784 
4316.000000	64.194154 
4315.000000	64.121961 
4314.000000	64.048242 
4313.000000	63.983774 
4312.000000	63.937616 
4311.000000	63.915610 
4310.000000	63.919186 
4309.000000	63.945150 
4308.000000	63.986468 
4307.000000	64.033675 
4306.000000	64.076900 
4305.000000	64.107489 
4304.000000	64.120173 
4303.000000	64.113235 
4302.000000	64.089226 
4301.000000	64.054107 
4300.000000	64.015960 
4299.000000	63.983511 
4298.000000	63.963675 
4297.000000	63.960742 
4296.000000	63.974714 
4295.000000	64.002251 
4294.000000	64.036726 
4293.000000	64.070272 
4292.000000	64.094758 
4291.000000	64.104199 
4290.000000	64.095139 
4289.000000	64.066553 
4288.000000	64.020156 
4287.000000	63.959670 
4286.000000	63.890480 
4285.000000	63.818740 
4284.000000	63.750863 
4283.000000	63.692879 
4282.000000	63.649487 
4281.000000	63.623261 
4280.000000	63.614201 
4279.000000	63.619732 
4278.000000	63.634562 
4277.000000	63.651943 
4276.000000	63.664293 
4275.000000	63.665604 
4274.000000	63.652110 
4273.000000	63.623881 
4272.000000	63.584280 
4271.000000	63.540077 
4270.000000	63.499379 
4269.000000	63.470816 
4268.000000	63.460969 
4267.000000	63.473892 
4266.000000	63.510417 
4265.000000	63.568186 
4264.000000	63.642501 
4263.000000	63.726806 
4262.000000	63.814163 
4261.000000	63.897490 
4260.000000	63.970637 
4259.000000	64.028620 
4258.000000	64.067864 
4257.000000	64.086651 
4256.000000	64.085412 
4255.000000	64.066267 
4254.000000	64.033007 
4253.000000	63.991165 
4252.000000	63.947343 
4251.000000	63.908338 
4250.000000	63.879871 
4249.000000	63.866281 
4248.000000	63.869237 
4247.000000	63.887763 
4246.000000	63.917970 
4245.000000	63.953852 
4244.000000	63.988018 
4243.000000	64.013075 
4242.000000	64.023113 
4241.000000	64.014148 
4240.000000	63.985729 
4239.000000	63.940548 
4238.000000	63.884568 
4237.000000	63.825392 
4236.000000	63.771557 
4235.000000	63.730835 
4234.000000	63.708949 
4233.000000	63.708496 
4232.000000	63.728904 
4231.000000	63.767051 
4230.000000	63.817739 
4229.000000	63.874745 
4228.000000	63.932228 
4227.000000	63.985586 
4226.000000	64.031791 
4225.000000	64.069199 
4224.000000	64.097023 
4223.000000	64.114928 
4222.000000	64.122939 
4221.000000	64.121103 
4220.000000	64.109992 
4219.000000	64.090347 
4218.000000	64.064764 
4217.000000	64.036178 
4216.000000	64.008140 
4215.000000	63.983249 
4214.000000	63.963317 
4213.000000	63.948178 
4212.000000	63.936161 
4211.000000	63.924264 
4210.000000	63.909077 
4209.000000	63.888025 
4208.000000	63.859844 
4207.000000	63.825464 
4206.000000	63.787722 
4205.000000	63.750839 
4204.000000	63.719081 
4203.000000	63.696217 
4202.000000	63.684344 
4201.000000	63.684058 
4200.000000	63.694405 
4199.000000	63.713383 
4198.000000	63.738489 
4197.000000	63.767433 
4196.000000	63.798809 
4195.000000	63.831520 
4194.000000	63.865041 
4193.000000	63.899302 
4192.000000	63.934397 
4191.000000	63.970255 
4190.000000	64.006018 
4189.000000	64.040470 
4188.000000	64.071679 
4187.000000	64.097571 
4186.000000	64.116311 
4185.000000	64.126658 
4184.000000	64.128541 
4183.000000	64.123320 
4182.000000	64.113283 
4181.000000	64.101505 
4180.000000	64.090943 
4179.000000	64.084124 
4178.000000	64.081764 
4177.000000	64.082908 
4176.000000	64.084792 
4175.000000	64.083671 
4174.000000	64.075851 
4173.000000	64.058709 
4172.000000	64.031481 
4171.000000	63.995838 
4170.000000	63.955116 
4169.000000	63.913798 
4168.000000	63.876318 
4167.000000	63.846278 
4166.000000	63.825869 
4165.000000	63.815474 
4164.000000	63.813853 
4163.000000	63.818478 
4162.000000	63.826012 
4161.000000	63.832974 
4160.000000	63.836026 
4159.000000	63.833236 
4158.000000	63.823890 
4157.000000	63.809299 
4156.000000	63.791871 
4155.000000	63.775134 
4154.000000	63.762688 
4153.000000	63.757419 
4152.000000	63.760805 
4151.000000	63.772249 
4150.000000	63.789296 
4149.000000	63.807988 
4148.000000	63.823938 
4147.000000	63.833522 
4146.000000	63.834738 
4145.000000	63.827991 
4144.000000	63.816070 
4143.000000	63.803124 
4142.000000	63.793635 
4141.000000	63.791370 
4140.000000	63.798451 
4139.000000	63.815236 
4138.000000	63.840222 
4137.000000	63.871097 
4136.000000	63.904714 
4135.000000	63.937997 
4134.000000	63.968205 
4133.000000	63.993382 
4132.000000	64.012408 
4131.000000	64.024972 
4130.000000	64.031457 
4129.000000	64.032793 
4128.000000	64.029932 
4127.000000	64.023900 
4126.000000	64.015412 
4125.000000	64.005208 
4124.000000	63.993930 
4123.000000	63.982510 
4122.000000	63.972163 
4121.000000	63.964557 
4120.000000	63.961625 
4119.000000	63.965225 
4118.000000	63.976526 
4117.000000	63.995528 
4116.000000	64.020657 
4115.000000	64.048910 
4114.000000	64.076042 
4113.000000	64.097642 
4112.000000	64.109945 
4111.000000	64.110922 
4110.000000	64.100646 
4109.000000	64.081382 
4108.000000	64.057064 
4107.000000	64.032220 
4106.000000	64.010810 
4105.000000	63.995647 
4104.000000	63.987994 
4103.000000	63.987469 
4102.000000	63.992404 
4101.000000	64.000344 
4100.000000	64.009213 
4099.000000	64.016962 
4098.000000	64.022183 
4097.000000	64.023470 
4096.000000	64.019465 
4095.000000	64.008665 
4094.000000	63.989806 
4093.000000	63.962340 
4092.000000	63.926863 
4091.000000	63.885807 
4090.000000	63.843131 
4089.000000	63.803577 
4088.000000	63.771772 
4087.000000	63.751149 
4086.000000	63.743114 
4085.000000	63.746809 
4084.000000	63.759088 
4083.000000	63.775682 
4082.000000	63.791561 
4081.000000	63.802146 
4080.000000	63.803744 
4079.000000	63.794159 
4078.000000	63.772797 
4077.000000	63.740396 
4076.000000	63.699078 
4075.000000	63.651728 
4074.000000	63.601994 
4073.000000	63.553762 
4072.000000	63.511013 
4071.000000	63.477516 
4070.000000	63.456439 
4069.000000	63.450026 
4068.000000	63.459134 
4067.000000	63.482832 
4066.000000	63.518619 
4065.000000	63.562512 
4064.000000	63.609933 
4063.000000	63.656282 
4062.000000	63.697957 
4061.000000	63.732743 
4060.000000	63.760352 
4059.000000	63.782286 
4058.000000	63.801026 
4057.000000	63.819050 
4056.000000	63.838696 
4055.000000	63.860750 
4054.000000	63.884711 
4053.000000	63.908529 
4052.000000	63.929700 
4051.000000	63.945412 
4050.000000	63.953852 
4049.000000	63.954210 
4048.000000	63.947153 
4047.000000	63.934326 
4046.000000	63.918137 
4045.000000	63.900995 
4044.000000	63.884830 
4043.000000	63.871026 
4042.000000	63.860249 
4041.000000	63.852715 
4040.000000	63.848662 
4039.000000	63.848447 
4038.000000	63.852596 
4037.000000	63.861584 
4036.000000	63.875555 
4035.000000	63.893961 
4034.000000	63.915467 
4033.000000	63.937592 
4032.000000	63.957095 
4031.000000	63.970971 
4030.000000	63.976883 
4029.000000	63.973808 
4028.000000	63.961935 
4027.000000	63.943266 
4026.000000	63.920617 
4025.000000	63.897275 
4024.000000	63.876008 
4023.000000	63.858771 
4022.000000	63.846135 
4021.000000	63.837456 
4020.000000	63.830924 
4019.000000	63.824391 
4018.000000	63.815879 
4017.000000	63.804149 
4016.000000	63.789105 
4015.000000	63.771867 
4014.000000	63.754534 
4013.000000	63.739514 
4012.000000	63.728761 
4011.000000	63.723206 
4010.000000	63.722586 
4009.000000	63.725304 
4008.000000	63.729047 
4007.000000	63.731265 
4006.000000	63.730072 
4005.000000	63.724756 
4004.000000	63.715720 
4003.000000	63.704705 
4002.000000	63.693904 
4001.000000	63.685560 
4000.000000	63.681197 
3999.000000	63.681292 
3998.000000	63.685035 
3997.000000	63.690900 
3996.000000	63.696980 
3995.000000	63.701581 
3994.000000	63.703870 
3993.000000	63.703799 
3992.000000	63.701939 
3991.000000	63.699316 
3990.000000	63.696980 
3989.000000	63.696026 
3988.000000	63.697147 
3987.000000	63.700747 
3986.000000	63.706922 
3985.000000	63.715338 
3984.000000	63.725376 
3983.000000	63.736033 
3982.000000	63.746452 
3981.000000	63.755798 
3980.000000	63.763451 
3979.000000	63.769388 
3978.000000	63.773798 
3977.000000	63.777089 
3976.000000	63.779664 
3975.000000	63.781976 
3974.000000	63.784193 
3973.000000	63.785910 
3972.000000	63.786888 
3971.000000	63.786911 
3970.000000	63.786172 
3969.000000	63.785576 
3968.000000	63.785958 
3967.000000	63.788414 
3966.000000	63.793182 
3965.000000	63.799595 
3964.000000	63.805890 
3963.000000	63.809227 
3962.000000	63.806939 
3961.000000	63.797187 
3960.000000	63.779902 
3959.000000	63.756871 
3958.000000	63.731169 
3957.000000	63.706493 
3956.000000	63.685846 
3955.000000	63.670849 
3954.000000	63.661360 
3953.000000	63.656020 
3952.000000	63.652658 
3951.000000	63.649725 
3950.000000	63.647103 
3949.000000	63.646674 
3948.000000	63.651704 
3947.000000	63.665914 
3946.000000	63.692164 
3945.000000	63.731122 
3944.000000	63.780570 
3943.000000	63.835358 
3942.000000	63.888406 
3941.000000	63.932156 
3940.000000	63.960552 
3939.000000	63.970184 
3938.000000	63.961243 
3937.000000	63.937330 
3936.000000	63.904356 
3935.000000	63.869285 
3934.000000	63.838624 
3933.000000	63.817071 
3932.000000	63.806772 
3931.000000	63.807344 
3930.000000	63.816356 
3929.000000	63.830137 
3928.000000	63.844871 
3927.000000	63.857197 
3926.000000	63.864779 
3925.000000	63.866233 
3924.000000	63.861346 
3923.000000	63.850235 
3922.000000	63.833570 
3921.000000	63.812541 
3920.000000	63.788580 
3919.000000	63.763642 
3918.000000	63.739776 
3917.000000	63.719201 
3916.000000	63.703608 
3915.000000	63.693833 
3914.000000	63.689303 
3913.000000	63.688158 
3912.000000	63.687372 
3911.000000	63.683652 
3910.000000	63.673925 
3909.000000	63.656091 
3908.000000	63.629913 
3907.000000	63.597154 
3906.000000	63.561129 
3905.000000	63.525891 
3904.000000	63.495779 
3903.000000	63.474392 
3902.000000	63.463926 
3901.000000	63.465046 
3900.000000	63.477087 
3899.000000	63.498687 
3898.000000	63.527941 
3897.000000	63.563036 
3896.000000	63.602280 
3895.000000	63.644194 
3894.000000	63.687443 
3893.000000	63.730692 
3892.000000	63.772320 
3891.000000	63.810753 
3890.000000	63.844799 
3889.000000	63.873243 
3888.000000	63.895225 
3887.000000	63.910007 
3886.000000	63.917636 
3885.000000	63.917946 
3884.000000	63.911032 
3883.000000	63.896703 
3882.000000	63.875126 
3881.000000	63.846254 
3880.000000	63.810658 
3879.000000	63.768982 
3878.000000	63.722372 
3877.000000	63.672184 
3876.000000	63.620066 
3875.000000	63.567805 
3874.000000	63.517403 
3873.000000	63.471221 
3872.000000	63.432049 
3871.000000	63.402700 
3870.000000	63.386058 
3869.000000	63.384461 
3868.000000	63.399600 
3867.000000	63.431191 
3866.000000	63.477611 
3865.000000	63.535523 
3864.000000	63.600683 
3863.000000	63.668084 
3862.000000	63.732910 
3861.000000	63.791322 
3860.000000	63.840270 
3859.000000	63.877892 
3858.000000	63.902807 
3857.000000	63.914227 
3856.000000	63.911390 
3855.000000	63.894081 
3854.000000	63.862752 
3853.000000	63.819074 
3852.000000	63.766241 
3851.000000	63.709378 
3850.000000	63.654446 
3849.000000	63.607525 
3848.000000	63.573193 
3847.000000	63.553833 
3846.000000	63.548707 
3845.000000	63.554286 
3844.000000	63.564968 
3843.000000	63.574743 
3842.000000	63.578891 
3841.000000	63.575196 
3840.000000	63.564395 
3839.000000	63.549900 
3838.000000	63.536596 
3837.000000	63.529276 
3836.000000	63.530850 
3835.000000	63.541865 
3834.000000	63.559937 
3833.000000	63.580942 
3832.000000	63.600158 
3831.000000	63.613557 
3830.000000	63.619375 
3829.000000	63.618063 
3828.000000	63.612222 
3827.000000	63.605165 
3826.000000	63.599848 
3825.000000	63.597464 
3824.000000	63.597178 
3823.000000	63.596129 
3822.000000	63.590335 
3821.000000	63.576102 
3820.000000	63.551187 
3819.000000	63.515281 
3818.000000	63.470220 
3817.000000	63.419413 
3816.000000	63.367319 
3815.000000	63.317918 
3814.000000	63.274717 
3813.000000	63.239645 
3812.000000	63.213968 
3811.000000	63.198113 
3810.000000	63.192772 
3809.000000	63.198423 
3808.000000	63.215827 
3807.000000	63.245344 
3806.000000	63.286852 
3805.000000	63.338732 
3804.000000	63.398313 
3803.000000	63.461279 
3802.000000	63.522934 
3801.000000	63.578557 
3800.000000	63.624334 
3799.000000	63.657903 
3798.000000	63.678622 
3797.000000	63.687467 
3796.000000	63.686537 
3795.000000	63.678526 
3794.000000	63.666272 
3793.000000	63.652086 
3792.000000	63.637614 
3791.000000	63.623523 
3790.000000	63.609933 
3789.000000	63.596534 
3788.000000	63.582420 
3787.000000	63.566517 
3786.000000	63.547873 
3785.000000	63.525962 
3784.000000	63.500666 
3783.000000	63.473010 
3782.000000	63.444852 
3781.000000	63.419365 
3780.000000	63.400006 
3779.000000	63.390517 
3778.000000	63.393497 
3777.000000	63.410115 
3776.000000	63.439750 
3775.000000	63.479423 
3774.000000	63.524031 
3773.000000	63.567495 
3772.000000	63.603782 
3771.000000	63.628005 
3770.000000	63.637089 
3769.000000	63.630557 
3768.000000	63.610601 
3767.000000	63.581418 
3766.000000	63.548278 
3765.000000	63.516569 
3764.000000	63.490676 
3763.000000	63.473606 
3762.000000	63.466382 
3761.000000	63.468265 
3760.000000	63.477230 
3759.000000	63.490629 
3758.000000	63.505887 
3757.000000	63.520956 
3756.000000	63.534355 
3755.000000	63.545417 
3754.000000	63.553643 
3753.000000	63.558554 
3752.000000	63.559198 
3751.000000	63.554549 
3750.000000	63.543224 
3749.000000	63.524007 
3748.000000	63.496661 
3747.000000	63.462257 
3746.000000	63.423347 
3745.000000	63.383889 
3744.000000	63.348603 
3743.000000	63.322162 
3742.000000	63.308405 
3741.000000	63.309335 
3740.000000	63.324761 
3739.000000	63.352084 
3738.000000	63.387203 
3737.000000	63.425302 
3736.000000	63.461637 
3735.000000	63.492465 
3734.000000	63.515305 
3733.000000	63.529181 
3732.000000	63.534379 
3731.000000	63.532018 
3730.000000	63.523817 
3729.000000	63.511538 
3728.000000	63.496804 
3727.000000	63.481116 
3726.000000	63.465905 
3725.000000	63.452816 
3724.000000	63.443303 
3723.000000	63.438940 
3722.000000	63.441252 
3721.000000	63.451433 
3720.000000	63.469839 
3719.000000	63.495707 
3718.000000	63.527202 
3717.000000	63.561367 
3716.000000	63.594627 
3715.000000	63.623094 
3714.000000	63.643360 
3713.000000	63.653159 
3712.000000	63.651823 
3711.000000	63.640308 
3710.000000	63.620924 
3709.000000	63.596963 
3708.000000	63.571548 
3707.000000	63.547205 
3706.000000	63.525128 
3705.000000	63.505148 
3704.000000	63.485598 
3703.000000	63.464832 
3702.000000	63.441181 
3701.000000	63.413977 
3700.000000	63.383483 
3699.000000	63.351058 
3698.000000	63.318729 
3697.000000	63.288331 
3696.000000	63.261628 
3695.000000	63.239312 
3694.000000	63.221764 
3693.000000	63.208699 
3692.000000	63.200020 
3691.000000	63.195872 
3690.000000	63.196802 
3689.000000	63.203287 
3688.000000	63.215422 
3687.000000	63.232326 
3686.000000	63.251805 
3685.000000	63.270568 
3684.000000	63.284897 
3683.000000	63.291597 
3682.000000	63.288688 
3681.000000	63.276028 
3680.000000	63.255214 
3679.000000	63.229274 
3678.000000	63.202095 
3677.000000	63.177275 
3676.000000	63.157248 
3675.000000	63.142871 
3674.000000	63.133835 
3673.000000	63.128781 
3672.000000	63.125801 
3671.000000	63.123130 
3670.000000	63.119649 
3669.000000	63.115000 
3668.000000	63.109111 
3667.000000	63.102459 
3666.000000	63.095235 
3665.000000	63.087749 
3664.000000	63.080334 
3663.000000	63.073515 
3662.000000	63.068032 
3661.000000	63.064861 
3660.000000	63.065028 
3659.000000	63.069391 
3658.000000	63.078284 
3657.000000	63.091635 
3656.000000	63.109016 
3655.000000	63.129591 
3654.000000	63.152790 
3653.000000	63.178014 
3652.000000	63.205170 
3651.000000	63.234305 
3650.000000	63.265657 
3649.000000	63.299131 
3648.000000	63.334178 
3647.000000	63.369846 
3646.000000	63.404488 
3645.000000	63.436269 
3644.000000	63.462996 
3643.000000	63.483095 
3642.000000	63.494920 
3641.000000	63.497519 
3640.000000	63.490223 
3639.000000	63.472986 
3638.000000	63.446569 
3637.000000	63.412642 
3636.000000	63.373851 
3635.000000	63.333702 
3634.000000	63.296127 
3633.000000	63.265037 
3632.000000	63.243627 
3631.000000	63.233685 
3630.000000	63.235497 
3629.000000	63.247942 
3628.000000	63.268351 
3627.000000	63.293433 
3626.000000	63.320016 
3625.000000	63.345479 
3624.000000	63.368034 
3623.000000	63.386654 
3622.000000	63.401031 
3621.000000	63.411021 
3620.000000	63.416194 
3619.000000	63.416004 
3618.000000	63.409924 
3617.000000	63.397693 
3616.000000	63.379907 
3615.000000	63.357686 
3614.000000	63.333034 
3613.000000	63.308286 
3612.000000	63.285899 
3611.000000	63.267636 
3610.000000	63.254451 
3609.000000	63.246130 
3608.000000	63.241505 
3607.000000	63.238453 
3606.000000	63.234353 
3605.000000	63.226628 
3604.000000	63.213324 
3603.000000	63.193225 
3602.000000	63.166213 
3601.000000	63.133382 
3600.000000	63.096618 
3599.000000	63.058567 
3598.000000	63.022208 
3597.000000	62.989950 
3596.000000	62.963676 
3595.000000	62.944173 
3594.000000	62.931537 
3593.000000	62.924623 
3592.000000	62.922048 
3591.000000	62.922573 
3590.000000	62.925839 
3589.000000	62.932014 
3588.000000	62.942361 
3587.000000	62.958168 
3586.000000	62.980508 
3585.000000	63.009643 
3584.000000	63.044357 
3583.000000	63.082098 
3582.000000	63.119316 
3581.000000	63.152194 
3580.000000	63.177418 
3579.000000	63.192629 
3578.000000	63.197159 
3577.000000	63.192009 
3576.000000	63.179397 
3575.000000	63.161873 
3574.000000	63.141894 
3573.000000	63.120913 
3572.000000	63.099431 
3571.000000	63.076734 
3570.000000	63.051700 
3569.000000	63.023495 
3568.000000	62.991976 
3567.000000	62.958502 
3566.000000	62.925434 
3565.000000	62.896585 
3564.000000	62.875747 
3563.000000	62.866473 
3562.000000	62.870717 
3561.000000	62.888813 
3560.000000	62.918853 
3559.000000	62.957382 
3558.000000	62.999582 
3557.000000	63.040614 
3556.000000	63.076424 
3555.000000	63.104200 
3554.000000	63.122677 
3553.000000	63.132309 
3552.000000	63.134622 
3551.000000	63.131690 
3550.000000	63.125467 
3549.000000	63.117480 
3548.000000	63.108301 
3547.000000	63.098001 
3546.000000	63.086009 
3545.000000	63.071751 
3544.000000	63.054656 
3543.000000	63.034653 
3542.000000	63.012337 
3541.000000	62.988662 
3540.000000	62.965011 
3539.000000	62.942934 
3538.000000	62.924170 
3537.000000	62.910175 
3536.000000	62.902092 
3535.000000	62.900543 
3534.000000	62.905216 
3533.000000	62.915062 
3532.000000	62.927985 
3531.000000	62.941217 
3530.000000	62.951612 
3529.000000	62.956261 
3528.000000	62.953138 
3527.000000	62.941503 
3526.000000	62.922382 
3525.000000	62.898302 
3524.000000	62.873125 
3523.000000	62.851238 
3522.000000	62.836599 
3521.000000	62.831902 
3520.000000	62.838101 
3519.000000	62.854075 
3518.000000	62.877130 
3517.000000	62.903356 
3516.000000	62.928605 
3515.000000	62.949180 
3514.000000	62.962436 
3513.000000	62.967109 
3512.000000	62.963223 
3511.000000	62.952089 
3510.000000	62.935423 
3509.000000	62.915205 
3508.000000	62.893509 
3507.000000	62.872076 
3506.000000	62.852334 
3505.000000	62.835478 
3504.000000	62.822651 
3503.000000	62.815070 
3502.000000	62.813949 
3501.000000	62.820458 
3500.000000	62.835240 
3499.000000	62.858390 
3498.000000	62.889122 
3497.000000	62.925648 
3496.000000	62.965059 
3495.000000	63.003635 
3494.000000	63.037276 
3493.000000	63.061904 
3492.000000	63.074350 
3491.000000	63.073110 
3490.000000	63.058662 
3489.000000	63.033533 
3488.000000	63.002061 
3487.000000	62.969470 
3486.000000	62.941074 
3485.000000	62.921309 
3484.000000	62.912750 
3483.000000	62.916326 
3482.000000	62.930750 
3481.000000	62.953209 
3480.000000	62.979459 
3479.000000	63.004779 
3478.000000	63.024687 
3477.000000	63.035631 
3476.000000	63.035798 
3475.000000	63.025164 
3474.000000	63.005685 
3473.000000	62.980580 
3472.000000	62.953877 
3471.000000	62.929224 
3470.000000	62.909150 
3469.000000	62.894392 
3468.000000	62.883639 
3467.000000	62.874269 
3466.000000	62.862777 
3465.000000	62.846159 
3464.000000	62.823224 
3463.000000	62.795209 
3462.000000	62.765526 
3461.000000	62.739253 
3460.000000	62.721514 
3459.000000	62.716770 
3458.000000	62.726855 
3457.000000	62.751317 
3456.000000	62.787175 
3455.000000	62.829828 
3454.000000	62.874245 
3453.000000	62.915778 
3452.000000	62.950706 
3451.000000	62.976884 
3450.000000	62.993288 
3449.000000	63.000297 
3448.000000	62.999033 
3447.000000	62.991285 
3446.000000	62.979149 
3445.000000	62.964892 
3444.000000	62.950754 
3443.000000	62.938785 
3442.000000	62.930440 
3441.000000	62.926030 
3440.000000	62.924861 
3439.000000	62.925100 
3438.000000	62.924575 
3437.000000	62.921261 
3436.000000	62.914156 
3435.000000	62.903571 
3434.000000	62.891173 
3433.000000	62.879562 
3432.000000	62.871408 
3431.000000	62.868738 
3430.000000	62.872314 
3429.000000	62.881493 
3428.000000	62.894225 
3427.000000	62.907886 
3426.000000	62.919378 
3425.000000	62.926268 
3424.000000	62.926864 
3423.000000	62.920379 
3422.000000	62.907004 
3421.000000	62.887835 
3420.000000	62.864613 
3419.000000	62.839317 
3418.000000	62.813854 
3417.000000	62.789964 
3416.000000	62.768959 
3415.000000	62.751793 
3414.000000	62.738585 
3413.000000	62.728762 
3412.000000	62.721014 
3411.000000	62.713861 
3410.000000	62.706017 
3409.000000	62.697029 
3408.000000	62.687182 
3407.000000	62.678146 
3406.000000	62.672281 
3405.000000	62.672185 
3404.000000	62.679815 
3403.000000	62.695741 
3402.000000	62.718939 
3401.000000	62.746477 
3400.000000	62.774181 
3399.000000	62.797474 
3398.000000	62.812209 
3397.000000	62.816214 
3396.000000	62.809371 
3395.000000	62.794399 
3394.000000	62.775945 
3393.000000	62.759900 
3392.000000	62.751674 
3391.000000	62.754964 
3390.000000	62.770462 
3389.000000	62.795805 
3388.000000	62.825989 
3387.000000	62.854242 
3386.000000	62.873744 
3385.000000	62.879157 
3384.000000	62.867856 
3383.000000	62.840175 
3382.000000	62.799286 
3381.000000	62.750220 
3380.000000	62.698960 
3379.000000	62.650656 
3378.000000	62.609171 
3377.000000	62.576699 
3376.000000	62.553524 
3375.000000	62.539052 
3374.000000	62.531995 
3373.000000	62.531375 
3372.000000	62.536191 
3371.000000	62.545680 
3370.000000	62.559008 
3369.000000	62.574672 
3368.000000	62.591171 
3367.000000	62.606692 
3366.000000	62.619733 
3365.000000	62.629079 
3364.000000	62.634325 
3363.000000	62.635993 
3362.000000	62.635183 
3361.000000	62.633180 
3360.000000	62.631249 
3359.000000	62.630057 
3358.000000	62.629795 
3357.000000	62.629985 
3356.000000	62.630176 
3355.000000	62.630033 
3354.000000	62.629508 
3353.000000	62.629032 
3352.000000	62.629222 
3351.000000	62.630677 
3350.000000	62.633752 
3349.000000	62.638688 
3348.000000	62.645292 
3347.000000	62.653231 
3346.000000	62.662315 
3345.000000	62.672376 
3344.000000	62.683057 
3343.000000	62.693691 
3342.000000	62.703275 
3341.000000	62.710356 
3340.000000	62.713432 
3339.000000	62.711024 
3338.000000	62.702083 
3337.000000	62.686300 
3336.000000	62.664461 
3335.000000	62.638211 
3334.000000	62.609887 
3333.000000	62.582302 
3332.000000	62.558317 
3331.000000	62.540268 
3330.000000	62.529993 
3329.000000	62.528514 
3328.000000	62.536263 
3327.000000	62.552809 
3326.000000	62.577104 
3325.000000	62.607240 
3324.000000	62.640476 
3323.000000	62.673521 
3322.000000	62.702727 
3321.000000	62.724351 
3320.000000	62.735342 
3319.000000	62.733864 
3318.000000	62.719583 
3317.000000	62.693929 
3316.000000	62.659621 
3315.000000	62.620496 
3314.000000	62.580466 
3313.000000	62.543010 
3312.000000	62.510585 
3311.000000	62.484192 
3310.000000	62.463879 
3309.000000	62.449026 
3308.000000	62.438631 
3307.000000	62.431669 
3306.000000	62.427449 
3305.000000	62.425470 
3304.000000	62.425255 
3303.000000	62.426400 
3302.000000	62.428069 
3301.000000	62.429547 
3300.000000	62.430191 
3299.000000	62.430000 
3298.000000	62.429761 
3297.000000	62.430787 
3296.000000	62.434816 
3295.000000	62.443399 
3294.000000	62.457156 
3293.000000	62.475633 
3292.000000	62.496805 
3291.000000	62.517952 
3290.000000	62.536144 
3289.000000	62.548828 
3288.000000	62.554883 
3287.000000	62.553882 
3286.000000	62.546491 
3285.000000	62.533617 
3284.000000	62.516355 
3283.000000	62.495613 
3282.000000	62.471961 
3281.000000	62.446475 
3280.000000	62.420558 
3279.000000	62.396430 
3278.000000	62.376832 
3277.000000	62.364792 
3276.000000	62.362694 
3275.000000	62.371635 
3274.000000	62.390708 
3273.000000	62.416720 
3272.000000	62.445020 
3271.000000	62.469983 
3270.000000	62.486386 
3269.000000	62.490439 
3268.000000	62.480854 
3267.000000	62.458896 
3266.000000	62.428236 
3265.000000	62.393951 
3264.000000	62.361764 
3263.000000	62.336587 
3262.000000	62.321901 
3261.000000	62.319135 
3260.000000	62.327671 
3259.000000	62.345528 
3258.000000	62.369608 
3257.000000	62.396502 
3256.000000	62.423205 
3255.000000	62.447428 
3254.000000	62.467885 
3253.000000	62.484025 
3252.000000	62.496232 
3251.000000	62.505316 
3250.000000	62.512373 
3249.000000	62.518215 
3248.000000	62.523365 
3247.000000	62.527561 
3246.000000	62.530231 
3245.000000	62.530684 
3244.000000	62.528109 
3243.000000	62.522387 
3242.000000	62.514066 
3241.000000	62.504434 
3240.000000	62.495231 
3239.000000	62.488055 
3238.000000	62.484192 
3237.000000	62.483787 
3236.000000	62.486028 
3235.000000	62.488985 
3234.000000	62.490367 
3233.000000	62.487888 
3232.000000	62.479925 
3231.000000	62.465906 
3230.000000	62.446618 
3229.000000	62.423682 
3228.000000	62.399268 
3227.000000	62.375354 
3226.000000	62.353157 
3225.000000	62.333393 
3224.000000	62.316155 
3223.000000	62.301349 
3222.000000	62.288880 
3221.000000	62.279224 
3220.000000	62.273359 
3219.000000	62.272548 
3218.000000	62.277698 
3217.000000	62.289047 
3216.000000	62.305736 
3215.000000	62.325787 
3214.000000	62.346172 
3213.000000	62.363696 
3212.000000	62.375473 
3211.000000	62.379837 
3210.000000	62.376523 
3209.000000	62.366771 
3208.000000	62.352800 
3207.000000	62.337327 
3206.000000	62.322664 
3205.000000	62.310123 
3204.000000	62.299728 
3203.000000	62.290453 
3202.000000	62.280559 
3201.000000	62.268376 
3200.000000	62.252879 
3199.000000	62.234187 
3198.000000	62.213516 
3197.000000	62.193179 
3196.000000	62.175726 
3195.000000	62.163710 
3194.000000	62.158942 
3193.000000	62.162065 
3192.000000	62.172579 
3191.000000	62.189006 
3190.000000	62.209177 
3189.000000	62.230777 
3188.000000	62.251639 
3187.000000	62.270140 
3186.000000	62.285161 
3185.000000	62.296342 
3184.000000	62.303805 
3183.000000	62.308025 
3182.000000	62.309765 
3181.000000	62.309741 
3180.000000	62.308549 
3179.000000	62.306571 
3178.000000	62.304091 
3177.000000	62.301111 
3176.000000	62.297654 
3175.000000	62.293791 
3174.000000	62.289738 
3173.000000	62.285876 
3172.000000	62.282681 
3171.000000	62.280392 
3170.000000	62.278819 
3169.000000	62.277436 
3168.000000	62.275290 
3167.000000	62.271094 
3166.000000	62.263655 
3165.000000	62.252330 
3164.000000	62.237167 
3163.000000	62.218928 
3162.000000	62.199187 
3161.000000	62.179899 
3160.000000	62.163162 
3159.000000	62.150835 
3158.000000	62.143898 
3157.000000	62.142419 
3156.000000	62.145376 
3155.000000	62.151288 
3154.000000	62.158036 
3153.000000	62.163329 
3152.000000	62.165212 
3151.000000	62.162208 
3150.000000	62.153506 
3149.000000	62.139081 
3148.000000	62.119770 
3147.000000	62.097167 
3146.000000	62.073373 
3145.000000	62.050795 
3144.000000	62.031483 
3143.000000	62.016963 
3142.000000	62.008166 
3141.000000	62.005090 
3140.000000	62.007308 
3139.000000	62.014031 
3138.000000	62.024307 
3137.000000	62.037253 
3136.000000	62.051844 
3135.000000	62.067246 
3134.000000	62.082219 
3133.000000	62.095546 
3132.000000	62.105703 
3131.000000	62.111520 
3130.000000	62.112188 
3129.000000	62.107586 
3128.000000	62.098288 
3127.000000	62.085509 
3126.000000	62.071204 
3125.000000	62.057304 
3124.000000	62.045502 
3123.000000	62.036752 
3122.000000	62.031388 
3121.000000	62.029075 
3120.000000	62.028837 
3119.000000	62.029695 
3118.000000	62.030625 
3117.000000	62.030744 
3116.000000	62.029361 
3115.000000	62.025785 
3114.000000	62.019634 
3113.000000	62.010359 
3112.000000	61.997747 
3111.000000	61.981797 
3110.000000	61.963415 
3109.000000	61.943984 
3108.000000	61.925792 
3107.000000	61.911392 
3106.000000	61.903572 
3105.000000	61.904287 
3104.000000	61.914658 
3103.000000	61.934208 
3102.000000	61.961269 
3101.000000	61.993193 
3100.000000	62.026834 
3099.000000	62.059020 
3098.000000	62.087106 
3097.000000	62.109184 
3096.000000	62.124276 
3095.000000	62.132215 
3094.000000	62.133383 
3093.000000	62.128520 
3092.000000	62.118577 
3091.000000	62.104654 
3090.000000	62.087678 
3089.000000	62.068605 
3088.000000	62.048387 
3087.000000	62.028098 
3086.000000	62.008881 
3085.000000	61.992001 
3084.000000	61.978673 
3083.000000	61.969923 
3082.000000	61.966586 
3081.000000	61.969065 
3080.000000	61.976909 
3079.000000	61.989068 
3078.000000	62.003517 
3077.000000	62.017846 
3076.000000	62.029361 
3075.000000	62.036037 
3074.000000	62.036490 
3073.000000	62.030959 
3072.000000	62.021040 
3071.000000	62.009286 
3070.000000	61.998701 
3069.000000	61.991810 
3068.000000	61.990046 
3067.000000	61.993622 
3066.000000	62.001371 
3065.000000	62.011265 
3064.000000	62.020897 
3063.000000	62.028193 
3062.000000	62.031936 
3061.000000	62.031912 
3060.000000	62.028956 
3059.000000	62.023973 
3058.000000	62.017798 
3057.000000	62.010836 
3056.000000	62.002635 
3055.000000	61.992359 
3054.000000	61.978936 
3053.000000	61.961889 
3052.000000	61.941599 
3051.000000	61.919260 
3050.000000	61.896967 
3049.000000	61.877131 
3048.000000	61.862277 
3047.000000	61.854314 
3046.000000	61.854314 
3045.000000	61.862111 
3044.000000	61.876273 
3043.000000	61.894583 
3042.000000	61.914110 
3041.000000	61.931633 
3040.000000	61.944508 
3039.000000	61.950898 
3038.000000	61.950135 
3037.000000	61.942958 
3036.000000	61.931324 
3035.000000	61.917972 
3034.000000	61.906147 
3033.000000	61.898756 
3032.000000	61.897850 
3031.000000	61.904287 
3030.000000	61.917543 
3029.000000	61.935663 
3028.000000	61.956048 
3027.000000	61.975765 
3026.000000	61.992311 
3025.000000	62.003898 
3024.000000	62.009739 
3023.000000	62.010002 
3022.000000	62.005591 
3021.000000	61.997628 
3020.000000	61.987161 
3019.000000	61.974716 
3018.000000	61.960577 
3017.000000	61.944365 
3016.000000	61.925745 
3015.000000	61.904287 
3014.000000	61.880159 
3013.000000	61.854243 
3012.000000	61.828303 
3011.000000	61.804389 
3010.000000	61.784553 
3009.000000	61.770582 
3008.000000	61.763501 
3007.000000	61.763215 
3006.000000	61.768507 
3005.000000	61.777138 
3004.000000	61.786508 
3003.000000	61.794018 
3002.000000	61.797618 
3001.000000	61.796474 
3000.000000	61.790680 
2999.000000	61.781358 
2998.000000	61.770200 
2997.000000	61.758971 
2996.000000	61.749267 
2995.000000	61.741757 
2994.000000	61.736631 
2993.000000	61.733603 
2992.000000	61.732101 
2991.000000	61.731648 
2990.000000	61.731386 
2989.000000	61.730432 
2988.000000	61.727547 
2987.000000	61.721396 
2986.000000	61.710453 
2985.000000	61.693549 
2984.000000	61.670351 
2983.000000	61.641788 
2982.000000	61.610221 
2981.000000	61.579298 
2980.000000	61.553335 
2979.000000	61.536407 
2978.000000	61.531209 
2977.000000	61.538457 
2976.000000	61.556458 
2975.000000	61.581182 
2974.000000	61.607432 
2973.000000	61.629605 
2972.000000	61.643147 
2971.000000	61.645483 
2970.000000	61.636281 
2969.000000	61.617565 
2968.000000	61.592912 
2967.000000	61.566591 
2966.000000	61.542582 
2965.000000	61.523890 
2964.000000	61.512064 
2963.000000	61.507296 
2962.000000	61.508631 
2961.000000	61.514353 
2960.000000	61.522650 
2959.000000	61.531662 
2958.000000	61.539864 
2957.000000	61.545801 
2956.000000	61.548089 
2955.000000	61.545705 
2954.000000	61.537837 
2953.000000	61.524224 
2952.000000	61.505174 
2951.000000	61.481785 
2950.000000	61.455488 
2949.000000	61.428284 
2948.000000	61.402273 
2947.000000	61.379241 
2946.000000	61.360430 
2945.000000	61.346483 
2944.000000	61.337423 
2943.000000	61.332702 
2942.000000	61.331462 
2941.000000	61.332678 
2940.000000	61.335325 
2939.000000	61.338543 
2938.000000	61.341404 
2937.000000	61.343193 
2936.000000	61.342906 
2935.000000	61.339330 
2934.000000	61.331224 
2933.000000	61.317563 
2932.000000	61.297559 
2931.000000	61.271142 
2930.000000	61.239075 
2929.000000	61.203002 
2928.000000	61.165237 
2927.000000	61.128473 
2926.000000	61.095476 
2925.000000	61.068487 
2924.000000	61.048984 
2923.000000	61.037540 
2922.000000	61.033773 
2921.000000	61.036777 
2920.000000	61.045050 
2919.000000	61.057257 
2918.000000	61.072063 
2917.000000	61.088824 
2916.000000	61.106991 
2915.000000	61.126470 
2914.000000	61.147069 
2913.000000	61.168694 
2912.000000	61.190819 
2911.000000	61.212754 
2910.000000	61.233544 
2909.000000	61.252212 
2908.000000	61.267852 
2907.000000	61.279845 
2906.000000	61.288070 
2905.000000	61.292719 
2904.000000	61.294436 
2903.000000	61.294102 
2902.000000	61.292767 
2901.000000	61.291313 
2900.000000	61.290359 
2899.000000	61.290121 
2898.000000	61.290574 
2897.000000	61.291337 
2896.000000	61.291790 
2895.000000	61.291265 
2894.000000	61.289405 
2893.000000	61.285924 
2892.000000	61.280941 
2891.000000	61.274790 
2890.000000	61.268091 
2889.000000	61.261510 
2888.000000	61.255574 
2887.000000	61.250638 
2886.000000	61.246633 
2885.000000	61.243176 
2884.000000	61.239647 
2883.000000	61.235237 
2882.000000	61.229419 
2881.000000	61.222100 
2880.000000	61.213660 
2879.000000	61.204957 
2878.000000	61.197066 
2877.000000	61.191129 
2876.000000	61.187815 
2875.000000	61.187195 
2874.000000	61.188745 
2873.000000	61.191248 
2872.000000	61.193323 
2871.000000	61.193537 
2870.000000	61.190652 
2869.000000	61.184144 
2868.000000	61.174106 
2867.000000	61.161351 
2866.000000	61.147332 
2865.000000	61.133718 
2864.000000	61.122345 
2863.000000	61.114573 
2862.000000	61.111283 
2861.000000	61.112403 
2860.000000	61.116981 
2859.000000	61.123275 
2858.000000	61.129093 
2857.000000	61.132097 
2856.000000	61.130356 
2855.000000	61.122727 
2854.000000	61.109042 
2853.000000	61.090469 
2852.000000	61.069059 
2851.000000	61.047673 
2850.000000	61.029124 
2849.000000	61.015796 
2848.000000	61.009335 
2847.000000	61.010026 
2846.000000	61.017036 
2845.000000	61.028647 
2844.000000	61.042809 
2843.000000	61.057424 
2842.000000	61.070942 
2841.000000	61.082553 
2840.000000	61.092138 
2839.000000	61.100006 
2838.000000	61.106562 
2837.000000	61.111950 
2836.000000	61.115622 
2835.000000	61.116433 
2834.000000	61.113023 
2833.000000	61.104297 
2832.000000	61.089825 
2831.000000	61.070251 
2830.000000	61.047267 
2829.000000	61.023521 
2828.000000	61.001920 
2827.000000	60.985088 
2826.000000	60.974621 
2825.000000	60.970735 
2824.000000	60.972428 
2823.000000	60.977911 
2822.000000	60.985231 
2821.000000	60.992860 
2820.000000	61.000180 
2819.000000	61.007571 
2818.000000	61.016201 
2817.000000	61.027288 
2816.000000	61.041712 
2815.000000	61.059284 
2814.000000	61.078667 
2813.000000	61.097407 
2812.000000	61.112785 
2811.000000	61.122131 
2810.000000	61.123991 
2809.000000	61.118221 
2808.000000	61.106300 
2807.000000	61.090755 
2806.000000	61.074686 
2805.000000	61.060738 
2804.000000	61.050748 
2803.000000	61.045026 
2802.000000	61.042547 
2801.000000	61.041092 
2800.000000	61.038112 
2799.000000	61.031246 
2798.000000	61.019086 
2797.000000	61.001515 
2796.000000	60.979747 
2795.000000	60.956025 
2794.000000	60.933017 
2793.000000	60.913228 
2792.000000	60.898494 
2791.000000	60.889554 
2790.000000	60.886096 
2789.000000	60.887145 
2788.000000	60.891437 
2787.000000	60.897660 
2786.000000	60.904932 
2785.000000	60.912942 
2784.000000	60.921978 
2783.000000	60.932326 
2782.000000	60.944223 
2781.000000	60.957455 
2780.000000	60.971212 
2779.000000	60.984063 
2778.000000	60.994410 
2777.000000	61.000990 
2776.000000	61.002850 
2775.000000	61.000037 
2774.000000	60.993218 
2773.000000	60.983753 
2772.000000	60.973095 
2771.000000	60.962653 
2770.000000	60.953354 
2769.000000	60.945701 
2768.000000	60.939836 
2767.000000	60.935449 
2766.000000	60.931921 
2765.000000	60.928416 
2764.000000	60.924267 
2763.000000	60.918927 
2762.000000	60.912084 
2761.000000	60.903716 
2760.000000	60.894155 
2759.000000	60.884022 
2758.000000	60.874152 
2757.000000	60.865283 
2756.000000	60.857892 
2755.000000	60.852289 
2754.000000	60.848498 
2753.000000	60.846352 
2752.000000	60.845232 
2751.000000	60.844397 
2750.000000	60.843157 
2749.000000	60.840749 
2748.000000	60.836529 
2747.000000	60.829949 
2746.000000	60.820889 
2745.000000	60.809493 
2744.000000	60.796380 
2743.000000	60.782670 
2742.000000	60.769891 
2741.000000	60.759925 
2740.000000	60.754585 
2739.000000	60.755395 
2738.000000	60.763072 
2737.000000	60.777473 
2736.000000	60.797357 
2735.000000	60.820555 
2734.000000	60.844206 
2733.000000	60.865259 
2732.000000	60.880970 
2731.000000	60.889244 
2730.000000	60.889053 
2729.000000	60.880398 
2728.000000	60.864400 
2727.000000	60.842752 
2726.000000	60.817623 
2725.000000	60.791206 
2724.000000	60.765409 
2723.000000	60.741758 
2722.000000	60.721111 
2721.000000	60.703921 
2720.000000	60.690116 
2719.000000	60.679316 
2718.000000	60.670995 
2717.000000	60.664463 
2716.000000	60.659408 
2715.000000	60.655903 
2714.000000	60.654306 
2713.000000	60.655212 
2712.000000	60.659098 
2711.000000	60.666108 
2710.000000	60.675859 
2709.000000	60.687160 
2708.000000	60.698509 
2707.000000	60.708045 
2706.000000	60.714244 
2705.000000	60.716080 
2704.000000	60.713338 
2703.000000	60.706615 
2702.000000	60.697269 
2701.000000	60.686612 
2700.000000	60.675954 
2699.000000	60.666012 
2698.000000	60.656929 
2697.000000	60.648441 
2696.000000	60.640120 
2695.000000	60.631799 
2694.000000	60.623764 
2693.000000	60.616636 
2692.000000	60.611200 
2691.000000	60.608005 
2690.000000	60.607194 
2689.000000	60.608243 
2688.000000	60.610151 
2687.000000	60.611605 
2686.000000	60.611319 
2685.000000	60.608458 
2684.000000	60.602736 
2683.000000	60.594677 
2682.000000	60.585188 
2681.000000	60.575246 
2680.000000	60.565662 
2679.000000	60.556721 
2678.000000	60.548400 
2677.000000	60.540437 
2676.000000	60.532593 
2675.000000	60.524940 
2674.000000	60.517835 
2673.000000	60.511851 
2672.000000	60.507583 
2671.000000	60.505366 
2670.000000	60.505151 
2669.000000	60.506558 
2668.000000	60.508656 
2667.000000	60.510492 
2666.000000	60.511088 
2665.000000	60.509610 
2664.000000	60.505509 
2663.000000	60.498690 
2662.000000	60.489463 
2661.000000	60.478329 
2660.000000	60.466337 
2659.000000	60.454654 
2658.000000	60.444593 
2657.000000	60.437488 
2656.000000	60.434269 
2655.000000	60.435390 
2654.000000	60.440659 
2653.000000	60.449147 
2652.000000	60.459280 
2651.000000	60.469317 
2650.000000	60.477542 
2649.000000	60.483121 
2648.000000	60.485935 
2647.000000	60.486745 
2646.000000	60.486841 
2645.000000	60.487604 
2644.000000	60.490131 
2643.000000	60.494756 
2642.000000	60.501074 
2641.000000	60.508012 
2640.000000	60.514235 
2639.000000	60.518550 
2638.000000	60.520172 
2637.000000	60.518765 
2636.000000	60.514783 
2635.000000	60.508775 
2634.000000	60.501265 
2633.000000	60.492348 
2632.000000	60.481691 
2631.000000	60.468554 
2630.000000	60.452175 
2629.000000	60.431957 
2628.000000	60.408091 
2627.000000	60.381627 
2626.000000	60.354232 
2625.000000	60.327982 
2624.000000	60.305023 
2623.000000	60.286927 
2622.000000	60.274744 
2621.000000	60.268259 
2620.000000	60.266757 
2619.000000	60.268878 
2618.000000	60.273241 
2617.000000	60.278439 
2616.000000	60.283732 
2615.000000	60.288763 
2614.000000	60.293936 
2613.000000	60.299515 
2612.000000	60.306167 
2611.000000	60.314083 
2610.000000	60.323309 
2609.000000	60.333442 
2608.000000	60.343956 
2607.000000	60.354089 
2606.000000	60.363221 
2605.000000	60.370635 
2604.000000	60.375523 
2603.000000	60.377025 
2602.000000	60.374307 
2601.000000	60.366749 
2600.000000	60.354113 
2599.000000	60.336709 
2598.000000	60.315823 
2597.000000	60.293483 
2596.000000	60.272550 
2595.000000	60.255742 
2594.000000	60.245704 
2593.000000	60.243725 
2592.000000	60.249686 
2591.000000	60.261940 
2590.000000	60.277485 
2589.000000	60.292744 
2588.000000	60.304307 
2587.000000	60.309696 
2586.000000	60.307741 
2585.000000	60.298633 
2584.000000	60.283851 
2583.000000	60.265541 
2582.000000	60.245919 
2581.000000	60.227084 
2580.000000	60.210800 
2579.000000	60.198426 
2578.000000	60.190916 
2577.000000	60.189104 
2576.000000	60.193634 
2575.000000	60.204720 
2574.000000	60.221958 
2573.000000	60.244011 
2572.000000	60.268545 
2571.000000	60.292410 
2570.000000	60.311985 
2569.000000	60.324239 
2568.000000	60.326957 
2567.000000	60.319590 
2566.000000	60.302901 
2565.000000	60.278892 
2564.000000	60.250353 
2563.000000	60.220336 
2562.000000	60.191583 
2561.000000	60.166215 
2560.000000	60.145688 
2559.000000	60.131120 
2558.000000	60.122776 
2557.000000	60.120463 
2556.000000	60.123348 
2555.000000	60.130071 
2554.000000	60.138988 
2553.000000	60.148429 
2552.000000	60.156822 
2551.000000	60.162997 
2550.000000	60.166478 
2549.000000	60.167407 
2548.000000	60.166454 
2547.000000	60.164165 
2546.000000	60.160899 
2545.000000	60.156440 
2544.000000	60.149860 
2543.000000	60.139775 
2542.000000	60.124897 
2541.000000	60.104632 
2540.000000	60.079526 
2539.000000	60.051512 
2538.000000	60.023951 
2537.000000	60.000944 
2536.000000	59.986400 
2535.000000	59.983372 
2534.000000	59.992861 
2533.000000	60.013699 
2532.000000	60.042619 
2531.000000	60.074734 
2530.000000	60.104703 
2529.000000	60.127472 
2528.000000	60.139441 
2527.000000	60.138702 
2526.000000	60.125160 
2525.000000	60.100173 
2524.000000	60.066175 
2523.000000	60.026264 
2522.000000	59.983611 
2521.000000	59.941148 
2520.000000	59.901475 
2519.000000	59.866523 
2518.000000	59.837627 
2517.000000	59.815406 
2516.000000	59.800028 
2515.000000	59.791064 
2514.000000	59.787988 
2513.000000	59.789824 
2512.000000	59.795975 
2511.000000	59.805560 
2510.000000	59.818124 
2509.000000	59.833025 
2508.000000	59.849667 
2507.000000	59.867024 
2506.000000	59.883952 
2505.000000	59.898972 
2504.000000	59.910488 
2503.000000	59.917068 
2502.000000	59.917449 
2501.000000	59.911131 
2500.000000	59.898114 
2499.000000	59.879136 
2498.000000	59.855437 
2497.000000	59.828662 
2496.000000	59.800744 
2495.000000	59.773707 
2494.000000	59.749627 
2493.000000	59.730386 
2492.000000	59.717297 
2491.000000	59.711122 
2490.000000	59.711837 
2489.000000	59.718823 
2488.000000	59.730768 
2487.000000	59.745979 
2486.000000	59.762620 
2485.000000	59.779167 
2484.000000	59.794378 
2483.000000	59.807586 
2482.000000	59.818387 
2481.000000	59.826707 
2480.000000	59.832549 
2479.000000	59.835767 
2478.000000	59.836053 
2477.000000	59.833288 
2476.000000	59.827542 
2475.000000	59.819436 
2474.000000	59.810066 
2473.000000	59.801101 
2472.000000	59.794378 
2471.000000	59.791564 
2470.000000	59.793663 
2469.000000	59.800982 
2468.000000	59.812736 
2467.000000	59.827399 
2466.000000	59.842872 
2465.000000	59.856748 
2464.000000	59.866666 
2463.000000	59.870982 
2462.000000	59.868788 
2461.000000	59.860134 
2460.000000	59.846210 
2459.000000	59.828686 
2458.000000	59.809827 
2457.000000	59.791874 
2456.000000	59.776687 
2455.000000	59.765529 
2454.000000	59.758710 
2453.000000	59.756112 
2452.000000	59.756660 
2451.000000	59.759092 
2450.000000	59.761881 
2449.000000	59.763789 
2448.000000	59.763860 
2447.000000	59.761571 
2446.000000	59.756779 
2445.000000	59.749722 
2444.000000	59.740972 
2443.000000	59.731197 
2442.000000	59.721374 
2441.000000	59.712362 
2440.000000	59.705042 
2439.000000	59.700274 
2438.000000	59.698486 
2437.000000	59.699726 
2436.000000	59.703540 
2435.000000	59.709000 
2434.000000	59.714937 
2433.000000	59.719991 
2432.000000	59.722757 
2431.000000	59.722113 
2430.000000	59.717226 
2429.000000	59.707760 
2428.000000	59.693741 
2427.000000	59.675812 
2426.000000	59.654974 
2425.000000	59.632802 
2424.000000	59.611153 
2423.000000	59.592103 
2422.000000	59.577608 
2421.000000	59.569311 
2420.000000	59.568142 
2419.000000	59.574103 
2418.000000	59.586334 
2417.000000	59.602975 
2416.000000	59.621453 
2415.000000	59.639072 
2414.000000	59.653186 
2413.000000	59.661912 
2412.000000	59.664273 
2411.000000	59.660267 
2410.000000	59.650635 
2409.000000	59.636902 
2408.000000	59.620571 
2407.000000	59.603118 
2406.000000	59.585618 
2405.000000	59.568643 
2404.000000	59.552335 
2403.000000	59.536767 
2402.000000	59.521675 
2401.000000	59.507107 
2400.000000	59.492874 
2399.000000	59.478878 
2398.000000	59.464883 
2397.000000	59.450435 
2396.000000	59.434938 
2395.000000	59.417915 
2394.000000	59.399127 
2393.000000	59.378719 
2392.000000	59.357547 
2391.000000	59.336972 
2390.000000	59.318876 
2389.000000	59.305167 
2388.000000	59.297418 
2387.000000	59.296488 
2386.000000	59.302330 
2385.000000	59.313845 
2384.000000	59.329128 
2383.000000	59.345746 
2382.000000	59.361100 
2381.000000	59.372830 
2380.000000	59.379291 
2379.000000	59.379601 
2378.000000	59.373569 
2377.000000	59.362149 
2376.000000	59.346795 
2375.000000	59.329533 
2374.000000	59.312558 
2373.000000	59.298086 
2372.000000	59.287762 
2371.000000	59.282588 
2370.000000	59.282660 
2369.000000	59.287071 
2368.000000	59.294223 
2367.000000	59.301924 
2366.000000	59.307980 
2365.000000	59.310626 
2364.000000	59.308767 
2363.000000	59.302401 
2362.000000	59.292507 
2361.000000	59.280848 
2360.000000	59.269499 
2359.000000	59.260463 
2358.000000	59.255123 
2357.000000	59.254121 
2356.000000	59.257102 
2355.000000	59.262990 
2354.000000	59.270191 
2353.000000	59.276890 
2352.000000	59.281349 
2351.000000	59.282302 
2350.000000	59.279203 
2349.000000	59.272170 
2348.000000	59.261727 
2347.000000	59.248876 
2346.000000	59.234690 
2345.000000	59.220266 
2344.000000	59.206414 
2343.000000	59.193801 
2342.000000	59.182715 
2341.000000	59.173178 
2340.000000	59.165072 
2339.000000	59.158205 
2338.000000	59.152173 
2337.000000	59.146571 
2336.000000	59.140777 
2335.000000	59.134125 
2334.000000	59.126043 
2333.000000	59.116148 
2332.000000	59.104347 
2331.000000	59.091186 
2330.000000	59.077763 
2329.000000	59.065771 
2328.000000	59.057354 
2327.000000	59.054470 
2326.000000	59.058547 
2325.000000	59.069991 
2324.000000	59.087991 
2323.000000	59.110474 
2322.000000	59.134435 
2321.000000	59.156250 
2320.000000	59.172630 
2319.000000	59.180951 
2318.000000	59.179949 
2317.000000	59.169864 
2316.000000	59.152293 
2315.000000	59.129738 
2314.000000	59.105229 
2313.000000	59.081554 
2312.000000	59.060883 
2311.000000	59.044361 
2310.000000	59.032106 
2309.000000	59.023332 
2308.000000	59.016823 
2307.000000	59.011101 
2306.000000	59.004878 
2305.000000	58.997201 
2304.000000	58.987927 
2303.000000	58.977365 
2302.000000	58.966660 
2301.000000	58.957123 
2300.000000	58.950257 
2299.000000	58.947229 
2298.000000	58.948612 
2297.000000	58.954358 
2296.000000	58.963394 
2295.000000	58.974003 
2294.000000	58.984065 
2293.000000	58.991336 
2292.000000	58.994054 
2291.000000	58.991217 
2290.000000	58.982920 
2289.000000	58.969974 
2288.000000	58.954167 
2287.000000	58.937644 
2286.000000	58.922553 
2285.000000	58.910632 
2284.000000	58.903050 
2283.000000	58.900284 
2282.000000	58.902144 
2281.000000	58.907890 
2280.000000	58.916449 
2279.000000	58.926510 
2278.000000	58.936548 
2277.000000	58.945202 
2276.000000	58.951163 
2275.000000	58.953404 
2274.000000	58.951234 
2273.000000	58.944487 
2272.000000	58.933615 
2271.000000	58.919525 
2270.000000	58.903598 
2269.000000	58.887290 
2268.000000	58.871865 
2267.000000	58.858060 
2266.000000	58.846092 
2265.000000	58.835792 
2264.000000	58.826661 
2263.000000	58.818197 
2262.000000	58.810091 
2261.000000	58.802485 
2260.000000	58.795785 
2259.000000	58.790755 
2258.000000	58.787870 
2257.000000	58.787512 
2256.000000	58.789587 
2255.000000	58.793783 
2254.000000	58.799362 
2253.000000	58.805465 
2252.000000	58.811259 
2251.000000	58.816075 
2250.000000	58.819317 
2249.000000	58.820605 
2248.000000	58.819675 
2247.000000	58.816337 
2246.000000	58.810544 
2245.000000	58.802580 
2244.000000	58.793115 
2243.000000	58.783197 
2242.000000	58.774256 
2241.000000	58.767628 
2240.000000	58.764362 
2239.000000	58.765053 
2238.000000	58.769321 
2237.000000	58.776164 
2236.000000	58.783769 
2235.000000	58.790159 
2234.000000	58.793210 
2233.000000	58.791375 
2232.000000	58.783674 
2231.000000	58.770132 
2230.000000	58.751487 
2229.000000	58.729171 
2228.000000	58.704948 
2227.000000	58.680725 
2226.000000	58.658027 
2225.000000	58.638095 
2224.000000	58.621668 
2223.000000	58.609080 
2222.000000	58.600187 
2221.000000	58.594822 
2220.000000	58.592724 
2219.000000	58.593750 
2218.000000	58.597683 
2217.000000	58.604359 
2216.000000	58.613324 
2215.000000	58.623886 
2214.000000	58.635020 
2213.000000	58.645343 
2212.000000	58.653378 
2211.000000	58.657741 
2210.000000	58.657670 
2209.000000	58.653068 
2208.000000	58.644580 
2207.000000	58.633518 
2206.000000	58.621525 
2205.000000	58.610033 
2204.000000	58.599925 
2203.000000	58.591437 
2202.000000	58.584189 
2201.000000	58.577203 
2200.000000	58.569574 
2199.000000	58.560776 
2198.000000	58.551073 
2197.000000	58.541607 
2196.000000	58.534097 
2195.000000	58.530449 
2194.000000	58.532094 
2193.000000	58.539557 
2192.000000	58.552265 
2191.000000	58.568429 
2190.000000	58.585453 
2189.000000	58.600521 
2188.000000	58.610844 
2187.000000	58.614420 
2186.000000	58.610010 
2185.000000	58.597588 
2184.000000	58.578038 
2183.000000	58.553218 
2182.000000	58.525466 
2181.000000	58.497238 
2180.000000	58.470726 
2179.000000	58.447504 
2178.000000	58.428502 
2177.000000	58.413958 
2176.000000	58.403635 
2175.000000	58.397197 
2174.000000	58.394312 
2173.000000	58.394622 
2172.000000	58.397746 
2171.000000	58.403205 
2170.000000	58.410096 
2169.000000	58.417248 
2168.000000	58.423280 
2167.000000	58.427190 
2166.000000	58.428335 
2165.000000	58.426833 
2164.000000	58.423542 
2163.000000	58.419680 
2162.000000	58.416604 
2161.000000	58.415150 
2160.000000	58.415365 
2159.000000	58.416032 
2158.000000	58.415126 
2157.000000	58.410215 
2156.000000	58.399152 
2155.000000	58.380651 
2154.000000	58.354902 
2153.000000	58.323335 
2152.000000	58.288478 
2151.000000	58.253240 
2150.000000	58.220291 
2149.000000	58.191514 
2148.000000	58.167719 
2147.000000	58.148598 
2146.000000	58.133220 
2145.000000	58.120203 
2144.000000	58.108258 
2143.000000	58.096408 
2142.000000	58.084487 
2141.000000	58.072781 
2140.000000	58.062124 
2139.000000	58.053326 
2138.000000	58.047270 
2137.000000	58.044505 
2136.000000	58.045363 
2135.000000	58.049559 
2134.000000	58.056497 
2133.000000	58.065104 
2132.000000	58.074235 
2131.000000	58.082365 
2130.000000	58.088421 
2129.000000	58.091497 
2128.000000	58.091402 
2127.000000	58.088612 
2126.000000	58.084177 
2125.000000	58.079481 
2124.000000	58.075881 
2123.000000	58.074522 
2122.000000	58.076119 
2121.000000	58.080720 
2120.000000	58.087944 
2119.000000	58.096981 
2118.000000	58.106851 
2117.000000	58.116555 
2116.000000	58.125281 
2115.000000	58.132338 
2114.000000	58.137226 
2113.000000	58.139348 
2112.000000	58.138275 
2111.000000	58.133411 
2110.000000	58.124303 
2109.000000	58.110618 
2108.000000	58.092546 
2107.000000	58.070611 
2106.000000	58.046030 
2105.000000	58.020401 
2104.000000	57.995700 
2103.000000	57.973980 
2102.000000	57.957196 
2101.000000	57.946801 
2100.000000	57.943391 
2099.000000	57.946681 
2098.000000	57.955360 
2097.000000	57.967209 
2096.000000	57.979369 
2095.000000	57.988905 
2094.000000	57.993173 
2093.000000	57.990503 
2092.000000	57.980346 
2091.000000	57.963371 
2090.000000	57.941436 
2089.000000	57.917118 
2088.000000	57.893371 
2087.000000	57.872843 
2086.000000	57.857680 
2085.000000	57.849049 
2084.000000	57.847023 
2083.000000	57.850837 
2082.000000	57.858896 
2081.000000	57.869315 
2080.000000	57.880091 
2079.000000	57.889318 
2078.000000	57.895636 
2077.000000	57.898044 
2076.000000	57.896256 
2075.000000	57.890415 
2074.000000	57.881379 
2073.000000	57.870268 
2072.000000	57.858324 
2071.000000	57.846713 
2070.000000	57.836413 
2069.000000	57.828021 
2068.000000	57.821774 
2067.000000	57.817673 
2066.000000	57.815551 
2065.000000	57.815122 
2064.000000	57.816147 
2063.000000	57.818388 
2062.000000	57.821393 
2061.000000	57.824611 
2060.000000	57.827305 
2059.000000	57.828545 
2058.000000	57.827401 
2057.000000	57.823157 
2056.000000	57.815551 
2055.000000	57.804822 
2054.000000	57.791876 
2053.000000	57.778048 
2052.000000	57.764983 
2051.000000	57.753992 
2050.000000	57.745933 
2049.000000	57.741069 
2048.000000	57.738971 
2047.000000	57.738828 
2046.000000	57.739472 
2045.000000	57.739782 
2044.000000	57.738804 
2043.000000	57.736063 
2042.000000	57.731294 
2041.000000	57.724666 
2040.000000	57.716345 
2039.000000	57.706713 
2038.000000	57.696175 
2037.000000	57.685208 
2036.000000	57.674479 
2035.000000	57.664728 
2034.000000	57.656669 
2033.000000	57.650971 
2032.000000	57.648015 
2031.000000	57.647514 
2030.000000	57.648706 
2029.000000	57.650446 
2028.000000	57.651329 
2027.000000	57.650089 
2026.000000	57.645797 
2025.000000	57.638263 
2024.000000	57.627844 
2023.000000	57.615733 
2022.000000	57.603263 
2021.000000	57.591938 
2020.000000	57.582831 
2019.000000	57.576632 
2018.000000	57.573437 
2017.000000	57.572793 
2016.000000	57.573866 
2015.000000	57.575798 
2014.000000	57.577800 
2013.000000	57.579398 
2012.000000	57.580327 
2011.000000	57.580542 
2010.000000	57.579994 
2009.000000	57.578611 
2008.000000	57.576131 
2007.000000	57.572269 
2006.000000	57.566499 
2005.000000	57.558298 
2004.000000	57.547378 
2003.000000	57.533717 
2002.000000	57.517600 
2001.000000	57.499694 
2000.000000	57.480978 
1999.000000	57.462787 
1998.000000	57.446551 
1997.000000	57.433676 
1996.000000	57.425332 
1995.000000	57.422184 
1994.000000	57.424259 
1993.000000	57.430863 
1992.000000	57.440614 
1991.000000	57.451534 
1990.000000	57.461571 
1989.000000	57.468819 
1988.000000	57.471942 
1987.000000	57.470178 
1986.000000	57.463574 
1985.000000	57.452893 
1984.000000	57.439279 
1983.000000	57.424283 
1982.000000	57.409429 
1981.000000	57.396268 
1980.000000	57.385969 
1979.000000	57.379245 
1978.000000	57.376217 
1977.000000	57.376670 
1976.000000	57.379913 
1975.000000	57.385015 
1974.000000	57.390928 
1973.000000	57.396650 
1972.000000	57.401180 
1971.000000	57.403898 
1970.000000	57.404184 
1969.000000	57.401823 
1968.000000	57.396697 
1967.000000	57.388973 
1966.000000	57.378864 
1965.000000	57.366967 
1964.000000	57.353878 
1963.000000	57.340335 
1962.000000	57.327008 
1961.000000	57.314491 
1960.000000	57.303166 
1959.000000	57.293200 
1958.000000	57.284545 
1957.000000	57.277035 
1956.000000	57.270526 
1955.000000	57.265233 
1954.000000	57.261466 
1953.000000	57.259774 
1952.000000	57.260632 
1951.000000	57.264328 
1950.000000	57.270765 
1949.000000	57.279443 
1948.000000	57.289481 
1947.000000	57.299757 
1946.000000	57.309222 
1945.000000	57.317018 
1944.000000	57.322573 
1943.000000	57.325577 
1942.000000	57.326030 
1941.000000	57.324051 
1940.000000	57.319736 
1939.000000	57.313346 
1938.000000	57.305049 
1937.000000	57.295274 
1936.000000	57.284617 
1935.000000	57.273697 
1934.000000	57.263374 
1933.000000	57.254242 
1932.000000	57.246708 
1931.000000	57.240581 
1930.000000	57.235217 
1929.000000	57.229804 
1928.000000	57.223463 
1927.000000	57.215666 
1926.000000	57.206416 
1925.000000	57.196402 
1924.000000	57.186746 
1923.000000	57.178831 
1922.000000	57.173681 
1921.000000	57.171869 
1920.000000	57.173109 
1919.000000	57.176232 
1918.000000	57.179450 
1917.000000	57.180929 
1916.000000	57.178878 
1915.000000	57.172393 
1914.000000	57.161450 
1913.000000	57.146906 
1912.000000	57.130455 
1911.000000	57.113981 
1910.000000	57.099366 
1909.000000	57.087922 
1908.000000	57.080173 
1907.000000	57.075977 
1906.000000	57.074570 
1905.000000	57.074832 
1904.000000	57.075619 
1903.000000	57.075953 
1902.000000	57.075166 
1901.000000	57.072830 
1900.000000	57.068824 
1899.000000	57.063102 
1898.000000	57.055640 
1897.000000	57.046484 
1896.000000	57.035732 
1895.000000	57.023835 
1894.000000	57.011508 
1893.000000	56.999683 
1892.000000	56.989622 
1891.000000	56.982469 
1890.000000	56.979274 
1889.000000	56.980466 
1888.000000	56.985926 
1887.000000	56.994652 
1886.000000	57.004928 
1885.000000	57.014441 
1884.000000	57.021021 
1883.000000	57.022619 
1882.000000	57.017922 
1881.000000	57.006573 
1880.000000	56.989240 
1879.000000	56.967377 
1878.000000	56.943011 
1877.000000	56.918239 
1876.000000	56.894993 
1875.000000	56.874680 
1874.000000	56.858134 
1873.000000	56.845474 
1872.000000	56.836318 
1871.000000	56.829929 
1870.000000	56.825494 
1869.000000	56.822085 
1868.000000	56.818747 
1867.000000	56.814646 
1866.000000	56.809163 
1865.000000	56.801772 
1864.000000	56.792616 
1863.000000	56.782102 
1862.000000	56.771278 
1861.000000	56.761646 
1860.000000	56.754827 
1859.000000	56.752204 
1858.000000	56.754422 
1857.000000	56.761384 
1856.000000	56.771731 
1855.000000	56.783461 
1854.000000	56.794047 
1853.000000	56.801056 
1852.000000	56.802701 
1851.000000	56.798267 
1850.000000	56.788158 
1849.000000	56.773924 
1848.000000	56.757616 
1847.000000	56.741261 
1846.000000	56.726431 
1845.000000	56.713891 
1844.000000	56.703352 
1843.000000	56.693649 
1842.000000	56.683397 
1841.000000	56.671357 
1840.000000	56.656861 
1839.000000	56.640243 
1838.000000	56.622648 
1837.000000	56.606006 
1836.000000	56.592440 
1835.000000	56.583976 
1834.000000	56.581687 
1833.000000	56.585860 
1832.000000	56.595635 
1831.000000	56.609272 
1830.000000	56.624436 
1829.000000	56.638813 
1828.000000	56.650400 
1827.000000	56.657886 
1826.000000	56.660842 
1825.000000	56.659603 
1824.000000	56.655049 
1823.000000	56.648492 
1822.000000	56.641197 
1821.000000	56.634259 
1820.000000	56.628394 
1819.000000	56.623864 
1818.000000	56.620597 
1817.000000	56.618046 
1816.000000	56.615614 
1815.000000	56.612658 
1814.000000	56.608796 
1813.000000	56.603646 
1812.000000	56.597137 
1811.000000	56.589460 
1810.000000	56.580638 
1809.000000	56.570839 
1808.000000	56.560039 
1807.000000	56.547975 
1806.000000	56.534433 
1805.000000	56.519174 
1804.000000	56.502103 
1803.000000	56.483483 
1802.000000	56.464099 
1801.000000	56.445050 
1800.000000	56.427717 
1799.000000	56.413459 
1798.000000	56.403231 
1797.000000	56.397461 
1796.000000	56.395888 
1795.000000	56.397581 
1794.000000	56.401300 
1793.000000	56.405735 
1792.000000	56.409907 
1791.000000	56.413221 
1790.000000	56.415510 
1789.000000	56.416893 
1788.000000	56.417512 
1787.000000	56.417250 
1786.000000	56.415772 
1785.000000	56.412434 
1784.000000	56.406450 
1783.000000	56.397008 
1782.000000	56.383967 
1781.000000	56.367444 
1780.000000	56.348276 
1779.000000	56.327676 
1778.000000	56.307101 
1777.000000	56.287884 
1776.000000	56.271004 
1775.000000	56.257081 
1774.000000	56.246232 
1773.000000	56.238436 
1772.000000	56.233334 
1771.000000	56.230616 
1770.000000	56.230068 
1769.000000	56.231427 
1768.000000	56.234455 
1767.000000	56.238818 
1766.000000	56.244039 
1765.000000	56.249523 
1764.000000	56.254529 
1763.000000	56.258296 
1762.000000	56.260156 
1761.000000	56.259393 
1760.000000	56.255483 
1759.000000	56.248140 
1758.000000	56.237196 
1757.000000	56.222605 
1756.000000	56.204509 
1755.000000	56.183362 
1754.000000	56.159615 
1753.000000	56.134200 
1752.000000	56.108045 
1751.000000	56.082153 
1750.000000	56.057310 
1749.000000	56.034231 
1748.000000	56.013560 
1747.000000	55.995702 
1746.000000	55.980944 
1745.000000	55.969548 
1744.000000	55.961561 
1743.000000	55.956840 
1742.000000	55.954980 
1741.000000	55.955266 
1740.000000	55.956602 
1739.000000	55.957651 
1738.000000	55.957031 
1737.000000	55.953454 
1736.000000	55.946135 
1735.000000	55.934810 
1734.000000	55.919909 
1733.000000	55.902552 
1732.000000	55.884218 
1731.000000	55.866789 
1730.000000	55.851984 
1729.000000	55.841350 
1728.000000	55.835914 
1727.000000	55.836009 
1726.000000	55.841517 
1725.000000	55.851626 
1724.000000	55.865073 
1723.000000	55.880284 
1722.000000	55.895614 
1721.000000	55.909657 
1720.000000	55.921125 
1719.000000	55.929398 
1718.000000	55.934429 
1717.000000	55.936336 
1716.000000	55.935478 
1715.000000	55.932164 
1714.000000	55.926680 
1713.000000	55.919146 
1712.000000	55.909585 
1711.000000	55.897998 
1710.000000	55.884552 
1709.000000	55.869889 
1708.000000	55.855131 
1707.000000	55.841708 
1706.000000	55.831193 
1705.000000	55.825328 
1704.000000	55.825424 
1703.000000	55.831837 
1702.000000	55.844044 
1701.000000	55.860352 
1700.000000	55.878019 
1699.000000	55.893826 
1698.000000	55.904603 
1697.000000	55.907893 
1696.000000	55.902552 
1695.000000	55.889105 
1694.000000	55.869674 
1693.000000	55.847740 
1692.000000	55.827236 
1691.000000	55.811786 
1690.000000	55.803990 
1689.000000	55.804753 
1688.000000	55.813002 
1687.000000	55.826044 
1686.000000	55.840229 
1685.000000	55.851745 
1684.000000	55.857348 
1683.000000	55.855035 
1682.000000	55.844306 
1681.000000	55.826044 
1680.000000	55.802178 
1679.000000	55.775332 
1678.000000	55.748271 
1677.000000	55.723381 
1676.000000	55.702567 
1675.000000	55.686855 
1674.000000	55.676627 
1673.000000	55.671596 
1672.000000	55.670976 
1671.000000	55.673885 
1670.000000	55.679368 
1669.000000	55.686783 
1668.000000	55.695509 
1667.000000	55.705165 
1666.000000	55.715274 
1665.000000	55.725383 
1664.000000	55.734729 
1663.000000	55.742359 
1662.000000	55.747151 
1661.000000	55.748081 
1660.000000	55.744552 
1659.000000	55.736589 
1658.000000	55.724859 
1657.000000	55.710887 
1656.000000	55.696368 
1655.000000	55.682849 
1654.000000	55.671286 
1653.000000	55.661702 
1652.000000	55.653214 
1651.000000	55.644440 
1650.000000	55.633783 
1649.000000	55.620121 
1648.000000	55.603075 
1647.000000	55.582976 
1646.000000	55.561137 
1645.000000	55.539155 
1644.000000	55.519008 
1643.000000	55.502319 
1642.000000	55.490255 
1641.000000	55.483293 
1640.000000	55.481195 
1639.000000	55.483150 
1638.000000	55.487680 
1637.000000	55.493235 
1636.000000	55.498194 
1635.000000	55.501222 
1634.000000	55.501437 
1633.000000	55.498480 
1632.000000	55.492663 
1631.000000	55.484962 
1630.000000	55.476713 
1629.000000	55.469298 
1628.000000	55.463862 
1627.000000	55.461072 
1626.000000	55.460953 
1625.000000	55.462932 
1624.000000	55.466222 
1623.000000	55.469727 
1622.000000	55.472779 
1621.000000	55.474805 
1620.000000	55.475425 
1619.000000	55.474233 
1618.000000	55.471038 
1617.000000	55.465459 
1616.000000	55.457139 
1615.000000	55.445933 
1614.000000	55.432105 
1613.000000	55.416464 
1612.000000	55.400109 
1611.000000	55.384421 
1610.000000	55.370807 
1609.000000	55.360293 
1608.000000	55.353116 
1607.000000	55.348801 
1606.000000	55.346059 
1605.000000	55.343246 
1604.000000	55.338716 
1603.000000	55.331158 
1602.000000	55.319976 
1601.000000	55.305361 
1600.000000	55.288147 
1599.000000	55.269503 
1598.000000	55.250787 
1597.000000	55.233240 
1596.000000	55.218124 
1595.000000	55.206155 
1594.000000	55.198049 
1593.000000	55.194044 
1592.000000	55.194091 
1591.000000	55.197906 
1590.000000	55.204868 
1589.000000	55.214142 
1588.000000	55.224633 
1587.000000	55.235052 
1586.000000	55.244159 
1585.000000	55.250620 
1584.000000	55.253505 
1583.000000	55.252289 
1582.000000	55.247044 
1581.000000	55.238318 
1580.000000	55.227112 
1579.000000	55.214834 
1578.000000	55.202722 
1577.000000	55.191636 
1576.000000	55.181980 
1575.000000	55.173277 
1574.000000	55.164504 
1573.000000	55.154228 
1572.000000	55.140995 
1571.000000	55.123758 
1570.000000	55.102443 
1569.000000	55.078077 
1568.000000	55.052518 
1567.000000	55.028390 
1566.000000	55.008316 
1565.000000	54.994440 
1564.000000	54.987955 
1563.000000	54.988837 
1562.000000	54.995822 
1561.000000	55.006814 
1560.000000	55.019474 
1559.000000	55.031657 
1558.000000	55.041837 
1557.000000	55.049324 
1556.000000	55.054187 
1555.000000	55.057001 
1554.000000	55.058503 
1553.000000	55.059242 
1552.000000	55.059266 
1551.000000	55.058145 
1550.000000	55.055117 
1549.000000	55.049395 
1548.000000	55.040478 
1547.000000	55.028152 
1546.000000	55.012702 
1545.000000	54.994821 
1544.000000	54.975557 
1543.000000	54.956197 
1542.000000	54.937982 
1541.000000	54.922223 
1540.000000	54.910063 
1539.000000	54.902434 
1538.000000	54.899883 
1537.000000	54.902601 
1536.000000	54.910326 
1535.000000	54.922270 
1534.000000	54.937195 
1533.000000	54.953455 
1532.000000	54.969167 
1531.000000	54.982447 
1530.000000	54.991769 
1529.000000	54.995918 
1528.000000	54.994463 
1527.000000	54.987525 
1526.000000	54.976058 
1525.000000	54.961252 
1524.000000	54.944658 
1523.000000	54.927706 
1522.000000	54.911589 
1521.000000	54.897212 
1520.000000	54.885363 
1519.000000	54.876470 
1518.000000	54.870867 
1517.000000	54.868769 
1516.000000	54.870414 
1515.000000	54.875826 
1514.000000	54.884648 
1513.000000	54.896187 
1512.000000	54.909062 
1511.000000	54.921674 
1510.000000	54.932093 
1509.000000	54.938530 
1508.000000	54.939651 
1507.000000	54.934811 
1506.000000	54.924345 
1505.000000	54.909348 
1504.000000	54.891610 
1503.000000	54.873204 
1502.000000	54.856181 
1501.000000	54.842281 
1500.000000	54.832911 
1499.000000	54.828739 
1498.000000	54.829740 
1497.000000	54.835200 
1496.000000	54.843568 
1495.000000	54.852771 
1494.000000	54.860472 
1493.000000	54.864263 
1492.000000	54.862236 
1491.000000	54.853248 
1490.000000	54.837441 
1489.000000	54.815888 
1488.000000	54.790616 
1487.000000	54.764366 
1486.000000	54.739952 
1485.000000	54.719853 
1484.000000	54.705548 
1483.000000	54.697513 
1482.000000	54.694867 
1481.000000	54.695749 
1480.000000	54.697823 
1479.000000	54.698395 
1478.000000	54.695487 
1477.000000	54.688143 
1476.000000	54.676485 
1475.000000	54.661607 
1474.000000	54.645276 
1473.000000	54.629516 
1472.000000	54.616117 
1471.000000	54.606270 
1470.000000	54.600501 
1469.000000	54.598593 
1468.000000	54.600071 
1467.000000	54.604244 
1466.000000	54.610514 
1465.000000	54.618477 
1464.000000	54.627799 
1463.000000	54.638099 
1462.000000	54.648685 
1461.000000	54.658794 
1460.000000	54.667162 
1459.000000	54.672646 
1458.000000	54.674315 
1457.000000	54.671597 
1456.000000	54.664778 
1455.000000	54.654407 
1454.000000	54.641532 
1453.000000	54.627251 
1452.000000	54.612565 
1451.000000	54.598093 
1450.000000	54.584050 
1449.000000	54.570508 
1448.000000	54.557490 
1447.000000	54.545235 
1446.000000	54.534244 
1445.000000	54.525136 
1444.000000	54.518556 
1443.000000	54.514813 
1442.000000	54.513645 
1441.000000	54.514169 
1440.000000	54.515027 
1439.000000	54.514908 
1438.000000	54.512763 
1437.000000	54.508209 
1436.000000	54.501485 
1435.000000	54.493522 
1434.000000	54.485249 
1433.000000	54.477524 
1432.000000	54.470634 
1431.000000	54.464149 
1430.000000	54.457211 
1429.000000	54.448604 
1428.000000	54.437255 
1427.000000	54.422664 
1426.000000	54.405021 
1425.000000	54.385209 
1424.000000	54.364633 
1423.000000	54.345083 
1422.000000	54.328203 
1421.000000	54.315233 
1420.000000	54.306793 
1419.000000	54.302811 
1418.000000	54.302763 
1417.000000	54.305720 
1416.000000	54.310274 
1415.000000	54.314875 
1414.000000	54.318070 
1413.000000	54.318666 
1412.000000	54.316020 
1411.000000	54.310011 
1410.000000	54.301333 
1409.000000	54.291367 
1408.000000	54.281997 
1407.000000	54.274940 
1406.000000	54.271769 
1405.000000	54.272913 
1404.000000	54.277968 
1403.000000	54.285097 
1402.000000	54.291820 
1401.000000	54.295206 
1400.000000	54.292583 
1399.000000	54.282093 
1398.000000	54.263019 
1397.000000	54.236221 
1396.000000	54.203724 
1395.000000	54.168629 
1394.000000	54.134297 
1393.000000	54.104256 
1392.000000	54.081368 
1391.000000	54.067850 
1390.000000	54.064893 
1389.000000	54.072666 
1388.000000	54.090142 
1387.000000	54.115295 
1386.000000	54.145216 
1385.000000	54.176735 
1384.000000	54.206490 
1383.000000	54.231333 
1382.000000	54.248881 
1381.000000	54.257631 
1380.000000	54.257273 
1379.000000	54.248642 
1378.000000	54.233527 
1377.000000	54.214310 
1376.000000	54.193472 
1375.000000	54.173445 
1374.000000	54.155826 
1373.000000	54.141521 
1372.000000	54.130244 
1371.000000	54.121112 
1370.000000	54.112887 
1369.000000	54.104495 
1368.000000	54.095339 
1367.000000	54.085588 
1366.000000	54.076051 
1365.000000	54.068017 
1364.000000	54.062962 
1363.000000	54.062056 
1362.000000	54.065561 
1361.000000	54.072737 
1360.000000	54.081797 
1359.000000	54.090285 
1358.000000	54.095458 
1357.000000	54.094886 
1356.000000	54.087066 
1355.000000	54.071593 
1354.000000	54.049468 
1353.000000	54.023051 
1352.000000	53.995251 
1351.000000	53.969192 
1350.000000	53.947639 
1349.000000	53.932404 
1348.000000	53.924083 
1347.000000	53.921794 
1346.000000	53.923416 
1345.000000	53.926181 
1344.000000	53.927159 
1343.000000	53.924179 
1342.000000	53.916192 
1341.000000	53.903722 
1340.000000	53.888654 
1339.000000	53.873825 
1338.000000	53.862261 
1337.000000	53.856492 
1336.000000	53.857827 
1335.000000	53.865861 
1334.000000	53.878664 
1333.000000	53.893065 
1332.000000	53.905439 
1331.000000	53.912615 
1330.000000	53.912425 
1329.000000	53.904080 
1328.000000	53.888297 
1327.000000	53.867077 
1326.000000	53.843140 
1325.000000	53.819370 
1324.000000	53.798174 
1323.000000	53.781414 
1322.000000	53.769969 
1321.000000	53.764224 
1320.000000	53.763437 
1319.000000	53.766322 
1318.000000	53.771066 
1317.000000	53.775668 
1316.000000	53.778290 
1315.000000	53.777456 
1314.000000	53.772425 
1313.000000	53.763341 
1312.000000	53.751420 
1311.000000	53.738546 
1310.000000	53.726983 
1309.000000	53.718829 
1308.000000	53.715276 
1307.000000	53.716325 
1306.000000	53.720569 
1305.000000	53.725600 
1304.000000	53.728437 
1303.000000	53.726315 
1302.000000	53.717350 
1301.000000	53.701066 
1300.000000	53.678393 
1299.000000	53.651499 
1298.000000	53.623223 
1297.000000	53.596472 
1296.000000	53.573632 
1295.000000	53.556156 
1294.000000	53.544521 
1293.000000	53.538441 
1292.000000	53.536868 
1291.000000	53.538608 
1290.000000	53.542423 
1289.000000	53.547525 
1288.000000	53.553247 
1287.000000	53.559255 
1286.000000	53.565192 
1285.000000	53.570723 
1284.000000	53.575587 
1283.000000	53.579401 
1282.000000	53.581714 
1281.000000	53.581905 
1280.000000	53.579449 
1279.000000	53.573703 
1278.000000	53.564381 
1277.000000	53.551530 
1276.000000	53.535628 
1275.000000	53.517889 
1274.000000	53.500008 
1273.000000	53.484201 
1272.000000	53.472495 
1271.000000	53.466701 
1270.000000	53.467607 
1269.000000	53.475165 
1268.000000	53.487944 
1267.000000	53.503823 
1266.000000	53.519845 
1265.000000	53.533029 
1264.000000	53.540658 
1263.000000	53.540945 
1262.000000	53.533124 
1261.000000	53.517508 
1260.000000	53.495335 
1259.000000	53.468513 
1258.000000	53.439235 
1257.000000	53.409743 
1256.000000	53.381991 
1255.000000	53.357434 
1254.000000	53.337168 
1253.000000	53.321623 
1252.000000	53.310990 
1251.000000	53.305125 
1250.000000	53.303766 
1249.000000	53.306484 
1248.000000	53.312635 
1247.000000	53.321361 
1246.000000	53.331422 
1245.000000	53.341245 
1244.000000	53.349018 
1243.000000	53.352832 
1242.000000	53.351068 
1241.000000	53.342747 
1240.000000	53.327703 
1239.000000	53.306722 
1238.000000	53.281474 
1237.000000	53.254318 
1236.000000	53.227806 
1235.000000	53.204274 
1234.000000	53.185582 
1233.000000	53.172588 
1232.000000	53.165197 
1231.000000	53.162550 
1230.000000	53.163456 
1229.000000	53.166532 
1228.000000	53.170537 
1227.000000	53.174614 
1226.000000	53.178143 
1225.000000	53.180813 
1224.000000	53.182458 
1223.000000	53.182888 
1222.000000	53.181791 
1221.000000	53.179001 
1220.000000	53.174233 
1219.000000	53.167319 
1218.000000	53.158259 
1217.000000	53.147125 
1216.000000	53.134417 
1215.000000	53.121018 
1214.000000	53.107953 
1213.000000	53.096413 
1212.000000	53.087425 
1211.000000	53.081774 
1210.000000	53.079652 
1209.000000	53.080654 
1208.000000	53.083515 
1207.000000	53.086352 
1206.000000	53.086853 
1205.000000	53.082966 
1204.000000	53.073215 
1203.000000	53.057003 
1202.000000	53.034925 
1201.000000	53.008770 
1200.000000	52.981209 
1199.000000	52.955102 
1198.000000	52.933073 
1197.000000	52.916955 
1196.000000	52.907681 
1195.000000	52.905082 
1194.000000	52.907991 
1193.000000	52.914643 
1192.000000	52.922940 
1191.000000	52.930998 
1190.000000	52.937078 
1189.000000	52.939987 
1188.000000	52.939105 
1187.000000	52.934646 
1186.000000	52.927160 
1185.000000	52.918004 
1184.000000	52.908802 
1183.000000	52.901458 
1182.000000	52.897834 
1181.000000	52.899169 
1180.000000	52.905869 
1179.000000	52.917265 
1178.000000	52.931833 
1177.000000	52.947473 
1176.000000	52.961802 
1175.000000	52.972865 
1174.000000	52.979350 
1173.000000	52.980852 
1172.000000	52.977585 
1171.000000	52.970361 
1170.000000	52.959847 
1169.000000	52.946591 
1168.000000	52.930498 
1167.000000	52.911186 
1166.000000	52.888035 
1165.000000	52.860713 
1164.000000	52.829313 
1163.000000	52.794814 
1162.000000	52.759003 
1161.000000	52.724075 
1160.000000	52.692723 
1159.000000	52.666997 
1158.000000	52.648472 
1157.000000	52.637887 
1156.000000	52.635049 
1155.000000	52.638983 
1154.000000	52.648258 
1153.000000	52.661013 
1152.000000	52.675557 
1151.000000	52.690172 
1150.000000	52.703762 
1149.000000	52.715444 
1148.000000	52.724790 
1147.000000	52.731442 
1146.000000	52.735185 
1145.000000	52.735757 
1144.000000	52.732729 
1143.000000	52.725529 
1142.000000	52.713632 
1141.000000	52.696657 
1140.000000	52.674722 
1139.000000	52.648615 
1138.000000	52.619552 
1137.000000	52.589154 
1136.000000	52.559447 
1135.000000	52.532482 
1134.000000	52.509784 
1133.000000	52.492403 
1132.000000	52.480506 
1131.000000	52.473521 
1130.000000	52.470183 
1129.000000	52.468943 
1128.000000	52.468180 
1127.000000	52.466535 
1126.000000	52.462863 
1125.000000	52.456593 
1124.000000	52.447438 
1123.000000	52.435636 
1122.000000	52.421522 
1121.000000	52.405595 
1120.000000	52.388453 
1119.000000	52.370953 
1118.000000	52.354383 
1117.000000	52.340292 
1116.000000	52.330517 
1115.000000	52.327179 
1114.000000	52.332234 
1113.000000	52.346944 
1112.000000	52.371311 
1111.000000	52.403879 
1110.000000	52.441525 
1109.000000	52.479743 
1108.000000	52.513170 
1107.000000	52.536511 
1106.000000	52.545642 
1105.000000	52.538394 
1104.000000	52.515435 
1103.000000	52.479958 
1102.000000	52.437472 
1101.000000	52.394723 
1100.000000	52.358388 
1099.000000	52.333498 
1098.000000	52.322554 
1097.000000	52.325177 
1096.000000	52.338147 
1095.000000	52.356529 
1094.000000	52.374601 
1093.000000	52.387237 
1092.000000	52.390861 
1091.000000	52.383899 
1090.000000	52.366805 
1089.000000	52.341532 
1088.000000	52.310991 
1087.000000	52.278256 
1086.000000	52.246117 
1085.000000	52.216315 
1084.000000	52.189993 
1083.000000	52.167391 
1082.000000	52.148437 
1081.000000	52.132844 
1080.000000	52.120351 
1079.000000	52.111077 
1078.000000	52.105236 
1077.000000	52.103185 
1076.000000	52.104830 
1075.000000	52.110028 
1074.000000	52.118110 
1073.000000	52.128124 
1072.000000	52.138900 
1071.000000	52.149081 
1070.000000	52.157330 
1069.000000	52.162337 
1068.000000	52.162790 
1067.000000	52.157855 
1066.000000	52.147126 
1065.000000	52.131009 
1064.000000	52.110457 
1063.000000	52.087092 
1062.000000	52.062654 
1061.000000	52.038764 
1060.000000	52.016615 
1059.000000	51.996374 
1058.000000	51.977539 
1057.000000	51.959013 
1056.000000	51.940369 
1055.000000	51.921725 
1054.000000	51.904940 
1053.000000	51.893377 
1052.000000	51.891493 
1051.000000	51.903676 
1050.000000	51.932597 
1049.000000	51.977944 
1048.000000	52.035927 
1047.000000	52.099204 
1046.000000	52.158832 
1045.000000	52.205991 
1044.000000	52.234125 
1043.000000	52.240705 
1042.000000	52.227306 
1041.000000	52.199387 
1040.000000	52.164292 
1039.000000	52.129316 
1038.000000	52.099943 
1037.000000	52.078485 
1036.000000	52.064156 
1035.000000	52.053380 
1034.000000	52.041482 
1033.000000	52.024102 
1032.000000	51.998519 
1031.000000	51.964569 
1030.000000	51.924324 
1029.000000	51.881909 
1028.000000	51.841664 
1027.000000	51.807761 
1026.000000	51.782751 
1025.000000	51.767802 
1024.000000	51.762557 
1023.000000	51.765465 
1022.000000	51.774549 
1021.000000	51.787614 
1020.000000	51.802706 
1019.000000	51.818084 
1018.000000	51.832079 
1017.000000	51.843094 
1016.000000	51.849341 
1015.000000	51.849722 
1014.000000	51.843786 
1013.000000	51.832079 
1012.000000	51.816010 
1011.000000	51.797747 
1010.000000	51.779627 
1009.000000	51.763772 
1008.000000	51.751422 
1007.000000	51.742315 
1006.000000	51.735234 
1005.000000	51.728129 
1004.000000	51.719427 
1003.000000	51.707744 
1002.000000	51.693105 
1001.000000	51.676559 
1000.000000	51.660394 
999.000000	 51.647424 
998.000000	 51.640558 
997.000000	 51.641798 
996.000000	 51.651859 
995.000000	 51.670098 
994.000000	 51.694464 
993.000000	 51.722049 
992.000000	 51.749444 
991.000000	 51.773619 
990.000000	 51.791810 
989.000000	 51.801991 
988.000000	 51.802992 
987.000000	 51.794695 
986.000000	 51.777768 
985.000000	 51.753640 
984.000000	 51.724886 
983.000000	 51.694631 
982.000000	 51.666736 
981.000000	 51.644730 
980.000000	 51.631522 
979.000000	 51.628255 
978.000000	 51.634693 
977.000000	 51.648449 
976.000000	 51.665043 
975.000000	 51.679015 
974.000000	 51.685237 
973.000000	 51.680135 
972.000000	 51.662278 
971.000000	 51.633119 
970.000000	 51.596260 
969.000000	 51.556539 
968.000000	 51.518654 
967.000000	 51.485681 
966.000000	 51.458573 
965.000000	 51.436042 
964.000000	 51.415348 
963.000000	 51.392793 
962.000000	 51.365065 
961.000000	 51.330041 
960.000000	 51.287794 
959.000000	 51.239395 
958.000000	 51.186633 
957.000000	 51.132202 
956.000000	 51.079630 
955.000000	 51.032638 
954.000000	 50.995802 
953.000000	 50.974559 
952.000000	 50.974750 
951.000000	 51.002097 
950.000000	 51.060032 
949.000000	 51.148033 
948.000000	 51.260495 
947.000000	 51.386737 
946.000000	 51.512765 
945.000000	 51.623702 
944.000000	 51.706910 
943.000000	 51.755142 
942.000000	 51.767110 
941.000000	 51.748180 
940.000000	 51.707124 
939.000000	 51.655268 
938.000000	 51.600551 
937.000000	 51.546835 
936.000000	 51.491594 
935.000000	 51.428437 
934.000000	 51.348280 
933.000000	 51.243591 
932.000000	 51.111221 
931.000000	 50.954794 
930.000000	 50.784921 
929.000000	 50.617909 
928.000000	 50.471878 
927.000000	 50.363659 
926.000000	 50.305199 
925.000000	 50.301241 
924.000000	 50.348496 
923.000000	 50.436305 
922.000000	 50.548601 
921.000000	 50.667333 
920.000000	 50.774836 
919.000000	 50.858211 
918.000000	 50.909662 
917.000000	 50.928664 
916.000000	 50.919771 
915.000000	 50.891971 
914.000000	 50.855970 
913.000000	 50.821566 
912.000000	 50.795912 
911.000000	 50.781726 
910.000000	 50.778150 
909.000000	 50.780582 
908.000000	 50.783300 
907.000000	 50.779795 
906.000000	 50.765156 
905.000000	 50.736808 
904.000000	 50.695419 
903.000000	 50.643730 
902.000000	 50.586104 
901.000000	 50.527811 
900.000000	 50.474262 
899.000000	 50.429725 
898.000000	 50.397181 
897.000000	 50.378847 
896.000000	 50.376009 
895.000000	 50.388860 
894.000000	 50.416612 
893.000000	 50.457191 
892.000000	 50.507855 
891.000000	 50.564885 
890.000000	 50.623726 
889.000000	 50.678944 
888.000000	 50.725030 
887.000000	 50.757884 
886.000000	 50.774407 
885.000000	 50.773143 
884.000000	 50.754332 
883.000000	 50.720024 
882.000000	 50.673866 
881.000000	 50.620794 
880.000000	 50.566434 
879.000000	 50.516605 
878.000000	 50.477075 
877.000000	 50.452947 
876.000000	 50.448250 
875.000000	 50.465345 
874.000000	 50.504279 
873.000000	 50.562477 
872.000000	 50.634574 
871.000000	 50.713300 
870.000000	 50.789999 
869.000000	 50.856161 
868.000000	 50.905132 
867.000000	 50.932478 
866.000000	 50.937128 
865.000000	 50.919985 
864.000000	 50.883913 
863.000000	 50.831890 
862.000000	 50.766968 
861.000000	 50.691533 
860.000000	 50.608062 
859.000000	 50.519561 
858.000000	 50.430488 
857.000000	 50.346636 
856.000000	 50.274991 
855.000000	 50.222301 
854.000000	 50.193762 
853.000000	 50.191545 
852.000000	 50.214028 
851.000000	 50.255584 
850.000000	 50.307559 
849.000000	 50.359988 
848.000000	 50.403356 
847.000000	 50.430607 
846.000000	 50.437903 
845.000000	 50.424551 
844.000000	 50.392460 
843.000000	 50.344777 
842.000000	 50.285053 
841.000000	 50.216937 
840.000000	 50.143837 
839.000000	 50.069189 
838.000000	 49.996566 
837.000000	 49.930071 
836.000000	 49.874424 
835.000000	 49.834084 
834.000000	 49.813389 
833.000000	 49.815201 
832.000000	 49.840641 
831.000000	 49.888229 
830.000000	 49.953675 
829.000000	 50.029802 
828.000000	 50.108003 
827.000000	 50.179171 
826.000000	 50.235819 
825.000000	 50.273251 
824.000000	 50.290632 
823.000000	 50.290656 
822.000000	 50.278544 
821.000000	 50.260448 
820.000000	 50.241780 
819.000000	 50.225830 
818.000000	 50.213456 
817.000000	 50.203180 
816.000000	 50.192403 
815.000000	 50.178551 
814.000000	 50.160431 
813.000000	 50.139236 
812.000000	 50.118231 
811.000000	 50.102353 
810.000000	 50.096464 
809.000000	 50.104331 
808.000000	 50.127530 
807.000000	 50.164484 
806.000000	 50.210595 
805.000000	 50.258922 
804.000000	 50.302195 
803.000000	 50.333452 
802.000000	 50.347685 
801.000000	 50.342321 
800.000000	 50.317573 
799.000000	 50.275850 
798.000000	 50.221133 
797.000000	 50.157809 
796.000000	 50.090217 
795.000000	 50.022459 
794.000000	 49.958181 
793.000000	 49.900364 
792.000000	 49.851274 
791.000000	 49.812197 
790.000000	 49.783611 
789.000000	 49.764466 
788.000000	 49.752807 
787.000000	 49.745845 
786.000000	 49.741029 
785.000000	 49.735951 
784.000000	 49.729514 
783.000000	 49.721813 
782.000000	 49.714374 
781.000000	 49.709200 
780.000000	 49.708700 
779.000000	 49.714660 
778.000000	 49.727869 
777.000000	 49.747776 
776.000000	 49.772572 
775.000000	 49.799609 
774.000000	 49.825716 
773.000000	 49.847888 
772.000000	 49.863743 
771.000000	 49.872064 
770.000000	 49.872422 
769.000000	 49.865102 
768.000000	 49.850964 
767.000000	 49.830889 
766.000000	 49.805855 
765.000000	 49.776625 
764.000000	 49.743723 
763.000000	 49.707579 
762.000000	 49.669122 
761.000000	 49.629545 
760.000000	 49.590420 
759.000000	 49.553561 
758.000000	 49.520993 
757.000000	 49.494814 
756.000000	 49.476385 
755.000000	 49.466371 
754.000000	 49.464392 
753.000000	 49.469327 
752.000000	 49.479413 
751.000000	 49.492502 
750.000000	 49.505996 
749.000000	 49.517393 
748.000000	 49.524569 
747.000000	 49.525594 
746.000000	 49.518990 
745.000000	 49.503588 
744.000000	 49.478769 
743.000000	 49.444293 
742.000000	 49.400377 
741.000000	 49.348068 
740.000000	 49.289274 
739.000000	 49.226713 
738.000000	 49.164080 
737.000000	 49.105620 
736.000000	 49.056005 
735.000000	 49.019598 
734.000000	 49.000096 
733.000000	 48.999547 
732.000000	 49.018239 
731.000000	 49.054145 
730.000000	 49.102926 
729.000000	 49.158120 
728.000000	 49.212050 
727.000000	 49.256825 
726.000000	 49.285602 
725.000000	 49.293804 
724.000000	 49.279761 
723.000000	 49.245166 
722.000000	 49.194240 
721.000000	 49.132966 
720.000000	 49.067521 
719.000000	 49.003362 
718.000000	 48.944139 
717.000000	 48.891639 
716.000000	 48.845911 
715.000000	 48.805975 
714.000000	 48.770666 
713.000000	 48.739528 
712.000000	 48.712801 
711.000000	 48.691630 
710.000000	 48.677468 
709.000000	 48.671507 
708.000000	 48.673820 
707.000000	 48.683285 
706.000000	 48.697209 
705.000000	 48.712229 
704.000000	 48.724722 
703.000000	 48.731780 
702.000000	 48.731708 
701.000000	 48.724174 
700.000000	 48.710441 
699.000000	 48.692560 
698.000000	 48.673152 
697.000000	 48.654174 
696.000000	 48.637151 
695.000000	 48.622035 
694.000000	 48.607611 
693.000000	 48.591852 
692.000000	 48.572635 
691.000000	 48.548221 
690.000000	 48.517847 
689.000000	 48.481869 
688.000000	 48.441624 
687.000000	 48.398900 
686.000000	 48.355460 
685.000000	 48.312449 
684.000000	 48.270392 
683.000000	 48.229432 
682.000000	 48.189806 
681.000000	 48.151826 
680.000000	 48.116397 
679.000000	 48.084545 
678.000000	 48.057723 
677.000000	 48.036646 
676.000000	 48.022270 
675.000000	 48.014497 
674.000000	 48.013758 
673.000000	 48.019838 
672.000000	 48.033356 
671.000000	 48.055434 
670.000000	 48.087573 
669.000000	 48.130869 
668.000000	 48.184943 
667.000000	 48.247599 
666.000000	 48.313879 
665.000000	 48.376798 
664.000000	 48.427867 
663.000000	 48.458552 
662.000000	 48.461914 
661.000000	 48.434400 
660.000000	 48.376035 
659.000000	 48.290753 
658.000000	 48.185825 
657.000000	 48.070693 
656.000000	 47.955632 
655.000000	 47.850131 
654.000000	 47.762131 
653.000000	 47.696948 
652.000000	 47.656679 
651.000000	 47.640705 
650.000000	 47.645688 
649.000000	 47.666501 
648.000000	 47.696757 
647.000000	 47.730135 
646.000000	 47.760200 
645.000000	 47.782206 
644.000000	 47.792863 
643.000000	 47.791361 
642.000000	 47.778201 
641.000000	 47.755765 
640.000000	 47.727608 
639.000000	 47.697472 
638.000000	 47.668838 
637.000000	 47.644400 
636.000000	 47.625708 
635.000000	 47.612833 
634.000000	 47.604441 
633.000000	 47.598147 
632.000000	 47.591185 
631.000000	 47.580409 
630.000000	 47.563457 
629.000000	 47.538828 
628.000000	 47.506666 
627.000000	 47.468924 
626.000000	 47.429132 
625.000000	 47.391581 
624.000000	 47.360324 
623.000000	 47.338843 
622.000000	 47.328472 
621.000000	 47.327923 
620.000000	 47.333145 
619.000000	 47.338294 
618.000000	 47.336912 
617.000000	 47.323584 
616.000000	 47.295331 
615.000000	 47.252416 
614.000000	 47.198343 
613.000000	 47.138929 
612.000000	 47.080969 
611.000000	 47.030520 
610.000000	 46.991133 
609.000000	 46.963191 
608.000000	 46.943879 
607.000000	 46.928429 
606.000000	 46.911811 
605.000000	 46.890449 
604.000000	 46.863269 
603.000000	 46.831846 
602.000000	 46.799564 
601.000000	 46.770596 
600.000000	 46.748113 
599.000000	 46.733498 
598.000000	 46.726322 
597.000000	 46.723937 
596.000000	 46.723318 
595.000000	 46.720981 
594.000000	 46.713447 
593.000000	 46.698665 
592.000000	 46.675419 
591.000000	 46.644854 
590.000000	 46.609783 
589.000000	 46.574997 
588.000000	 46.546030 
587.000000	 46.528053 
586.000000	 46.525216 
585.000000	 46.538519 
584.000000	 46.565604 
583.000000	 46.600651 
582.000000	 46.635413 
581.000000	 46.660757 
580.000000	 46.668720 
579.000000	 46.654391 
578.000000	 46.617269 
577.000000	 46.561431 
576.000000	 46.494770 
575.000000	 46.427154 
574.000000	 46.368622 
573.000000	 46.326994 
572.000000	 46.306872 
571.000000	 46.309351 
570.000000	 46.331930 
569.000000	 46.370363 
568.000000	 46.418333 
567.000000	 46.468782 
566.000000	 46.514201 
565.000000	 46.547484 
564.000000	 46.562266 
563.000000	 46.553659 
562.000000	 46.519017 
561.000000	 46.458482 
560.000000	 46.374702 
559.000000	 46.272993 
558.000000	 46.160173 
557.000000	 46.044039 
556.000000	 45.931887 
555.000000	 45.829796 
554.000000	 45.741510 
553.000000	 45.668578 
552.000000	 45.610117 
551.000000	 45.563983 
550.000000	 45.526981 
549.000000	 45.496511 
548.000000	 45.471262 
547.000000	 45.452094 
546.000000	 45.440936 
545.000000	 45.440626 
544.000000	 45.453238 
543.000000	 45.479536 
542.000000	 45.517826 
541.000000	 45.564603 
540.000000	 45.614957 
539.000000	 45.663475 
538.000000	 45.705676 
537.000000	 45.737695 
536.000000	 45.757198 
535.000000	 45.762681 
534.000000	 45.753502 
533.000000	 45.729756 
532.000000	 45.692706 
531.000000	 45.644354 
530.000000	 45.587849 
529.000000	 45.526742 
528.000000	 45.464706 
527.000000	 45.405054 
526.000000	 45.350742 
525.000000	 45.304250 
524.000000	 45.267224 
523.000000	 45.240902 
522.000000	 45.225739 
521.000000	 45.220780 
520.000000	 45.223903 
519.000000	 45.230984 
518.000000	 45.237398 
517.000000	 45.238876 
516.000000	 45.232629 
515.000000	 45.217370 
514.000000	 45.194053 
513.000000	 45.165729 
512.000000	 45.136666 
511.000000	 45.110678 
510.000000	 45.090460 
509.000000	 45.077776 
508.000000	 45.071911 
507.000000	 45.070004 
506.000000	 45.067787 
505.000000	 45.060825 
504.000000	 45.045208 
503.000000	 45.018219 
502.000000	 44.979166 
501.000000	 44.929337 
500.000000	 44.871878 
499.000000	 44.811248 
498.000000	 44.751596 
497.000000	 44.695520 
496.000000	 44.643712 
495.000000	 44.594359 
494.000000	 44.543623 
493.000000	 44.486260 
492.000000	 44.417405 
491.000000	 44.333553 
490.000000	 44.233560 
489.000000	 44.119167 
488.000000	 43.994736 
487.000000	 43.866372 
486.000000	 43.741178 
485.000000	 43.624782 
484.000000	 43.520236 
483.000000	 43.427133 
482.000000	 43.341565 
481.000000	 43.258047 
480.000000	 43.170118 
479.000000	 43.075227 
478.000000	 42.975473 
477.000000	 42.879223 
476.000000	 42.798686 
475.000000	 42.747282 
474.000000	 42.735195 
473.000000	 42.765974 
472.000000	 42.834401 
471.000000	 42.927265 
470.000000	 43.025970 
469.000000	 43.111038 
468.000000	 43.166351 
467.000000	 43.183445 
466.000000	 43.162918 
465.000000	 43.112754 
464.000000	 43.045854 
463.000000	 42.976903 
462.000000	 42.917346 
461.000000	 42.873549 
460.000000	 42.843914 
459.000000	 42.821192 
458.000000	 42.793583 
457.000000	 42.750334 
456.000000	 42.683339 
455.000000	 42.589497 
454.000000	 42.472267 
453.000000	 42.340517 
452.000000	 42.207241 
451.000000	 42.085695 
450.000000	 41.987919 
449.000000	 41.921496 
448.000000	 41.890263 
447.000000	 41.893815 
446.000000	 41.926884 
445.000000	 41.979670 
444.000000	 42.039060 
443.000000	 42.089819 
442.000000	 42.114615 
441.000000	 42.096471 
440.000000	 42.020821 
439.000000	 41.879010 
438.000000	 41.671538 
437.000000	 41.409325 
436.000000	 41.110944 
435.000000	 40.802335 
434.000000	 40.512776 
433.000000	 40.271306 
432.000000	 40.101242 
431.000000	 40.016961 
430.000000	 40.022683 
429.000000	 40.110206 
428.000000	 40.257573 
427.000000	 40.435910 
426.000000	 40.617990 
425.000000	 40.776300 
424.000000	 40.884566 
423.000000	 40.923738 
422.000000	 40.885186 
421.000000	 40.765786 
420.000000	 40.568137 
419.000000	 40.296697 
418.000000	 39.959025 
417.000000	 39.569735 
416.000000	 39.153909 
415.000000	 38.745999 
414.000000	 38.389968 
413.000000	 38.135910 
412.000000	 38.030958 
411.000000	 38.114309 
410.000000	 38.402438 
409.000000	 38.871526 
408.000000	 39.465379 
407.000000	 40.102005 
406.000000	 40.698027 
405.000000	 41.172909 
404.000000	 41.490435 
403.000000	 41.647315 
402.000000	 41.706132 
401.000000	 41.780185 
400.000000	 42.007732 
399.000000	 42.521953 
398.000000	 43.394899 
397.000000	 44.613456 
396.000000	 46.064710 
395.000000	 47.561693 
394.000000	 48.873567 
393.000000	 49.782824 
392.000000	 50.131654 
391.000000	 49.864172 
390.000000	 49.015760 
389.000000	 47.716283 
388.000000	 46.148896 
387.000000	 44.536995 
386.000000	 43.133735 
385.000000	 42.183756 
384.000000	 41.919541 
383.000000	 42.487955 
382.000000	 43.919420 
381.000000	 46.085071 
380.000000	 48.722791 
379.000000	 51.457762 
378.000000	 53.844547 
377.000000	 55.484414 
376.000000	 56.112980 
375.000000	 55.658435 
374.000000	 54.239368 
373.000000	 52.161097 
372.000000	 49.807739 
371.000000	 47.625970 
370.000000	 46.043109 

