PE IR       SPECTRUM    SPECTRUM    ASCII       PEDS        1.60        
  -1
C-9964~1.ASC
17/05/02
10:59:27.00
17/05/02
10:59:27.00
tln
$C-4040-8_t0002$<tbV0>[7.5,-13.0,8.0,0.0,22,1,0]
370.000000
64









2002,4.07    
MIRTGS : RIGHTBACK : INTERNAL 2
MIR : ON : INTERNAL 2
OPTKBR

0.200000
8
8.000000
FILLER
RATIO
SPECTRUM
UNLOCKED 256

DOUBLE
64
COMBINED
1
0
0


1.000000
RATIO


1
0
TRUE
51149
0
LEFT NOT FITTED RIGHT NOT FITTED 0
NONE
NONE
15600
12.000000
4.427000
51148
TRUE
1 0 8 72 0 0 0 0 

15798.010000






#HDR
-1
-1
#GR
CM-1

0.00002384185791015625
0.0
7800.000000
-1.000000
7431
8
71.079587
12.369465
#DATA
7800.000000	64.493632 
7799.000000	66.229271 
7798.000000	67.535138 
7797.000000	68.259119 
7796.000000	68.331837 
7795.000000	67.764830 
7794.000000	66.659235 
7793.000000	65.185546 
7792.000000	63.546085 
7791.000000	61.940836 
7790.000000	60.542011 
7789.000000	59.470939 
7788.000000	58.795619 
7787.000000	58.525204 
7786.000000	58.629179 
7785.000000	59.039616 
7784.000000	59.655094 
7783.000000	60.363030 
7782.000000	61.033225 
7781.000000	61.563014 
7780.000000	61.874723 
7779.000000	61.952614 
7778.000000	61.830067 
7777.000000	61.595201 
7776.000000	61.360955 
7775.000000	61.244654 
7774.000000	61.340093 
7773.000000	61.692571 
7772.000000	62.293910 
7771.000000	63.076949 
7770.000000	63.934445 
7769.000000	64.745712 
7768.000000	65.409874 
7767.000000	65.857458 
7766.000000	66.064119 
7765.000000	66.053938 
7764.000000	65.890145 
7763.000000	65.657711 
7762.000000	65.443539 
7761.000000	65.323162 
7760.000000	65.341925 
7759.000000	65.525722 
7758.000000	65.862321 
7757.000000	66.307806 
7756.000000	66.786432 
7755.000000	67.207765 
7754.000000	67.481255 
7753.000000	67.540431 
7752.000000	67.350792 
7751.000000	66.919279 
7750.000000	66.286158 
7749.000000	65.519118 
7748.000000	64.690732 
7747.000000	63.869094 
7746.000000	63.097667 
7745.000000	62.392139 
7744.000000	61.746716 
7743.000000	61.150145 
7742.000000	60.588121 
7741.000000	60.053515 
7740.000000	59.553647 
7739.000000	59.109997 
7738.000000	58.754277 
7737.000000	58.519148 
7736.000000	58.427667 
7735.000000	58.484244 
7734.000000	58.672165 
7733.000000	58.951520 
7732.000000	59.267807 
7731.000000	59.555649 
7730.000000	59.750175 
7729.000000	59.795784 
7728.000000	59.646892 
7727.000000	59.287571 
7726.000000	58.726620 
7725.000000	58.017730 
7724.000000	57.235288 
7723.000000	56.495094 
7722.000000	55.928921 
7721.000000	55.677413 
7720.000000	55.856728 
7719.000000	56.541395 
7718.000000	57.740950 
7717.000000	59.393501 
7716.000000	61.371684 
7715.000000	63.492417 
7714.000000	65.542697 
7713.000000	67.328190 
7712.000000	68.705940 
7711.000000	69.616866 
7710.000000	70.087170 
7709.000000	70.223712 
7708.000000	70.171308 
7707.000000	70.072269 
7706.000000	70.016908 
7705.000000	70.032048 
7704.000000	70.065903 
7703.000000	70.027446 
7702.000000	69.803237 
7701.000000	69.320201 
7700.000000	68.550753 
7699.000000	67.532348 
7698.000000	66.353344 
7697.000000	65.120410 
7696.000000	63.950967 
7695.000000	62.935090 
7694.000000	62.144923 
7693.000000	61.615324 
7692.000000	61.370515 
7691.000000	61.426711 
7690.000000	61.796832 
7689.000000	62.482404 
7688.000000	63.466119 
7687.000000	64.700603 
7686.000000	66.089677 
7685.000000	67.489194 
7684.000000	68.729329 
7683.000000	69.643282 
7682.000000	70.100140 
7681.000000	70.035028 
7680.000000	69.476819 
7679.000000	68.539118 
7678.000000	67.401289 
7677.000000	66.261672 
7676.000000	65.295743 
7675.000000	64.615273 
7674.000000	64.258813 
7673.000000	64.186525 
7672.000000	64.308309 
7671.000000	64.509773 
7670.000000	64.699935 
7669.000000	64.816880 
7668.000000	64.838790 
7667.000000	64.771032 
7666.000000	64.625692 
7665.000000	64.408779 
7664.000000	64.102292 
7663.000000	63.677978 
7662.000000	63.104438 
7661.000000	62.376046 
7660.000000	61.527323 
7659.000000	60.638737 
7658.000000	59.826254 
7657.000000	59.218835 
7656.000000	58.928036 
7655.000000	59.010815 
7654.000000	59.454798 
7653.000000	60.177373 
7652.000000	61.049199 
7651.000000	61.920928 
7650.000000	62.667012 
7649.000000	63.211655 
7648.000000	63.548135 
7647.000000	63.732671 
7646.000000	63.860583 
7645.000000	64.028191 
7644.000000	64.299845 
7643.000000	64.695596 
7642.000000	65.170598 
7641.000000	65.637516 
7640.000000	65.978193 
7639.000000	66.095209 
7638.000000	65.917754 
7637.000000	65.429377 
7636.000000	64.664220 
7635.000000	63.701653 
7634.000000	62.646293 
7633.000000	61.605572 
7632.000000	60.673975 
7631.000000	59.919309 
7630.000000	59.382247 
7629.000000	59.079122 
7628.000000	59.005618 
7627.000000	59.146809 
7626.000000	59.483289 
7625.000000	59.996366 
7624.000000	60.657548 
7623.000000	61.432170 
7622.000000	62.272500 
7621.000000	63.122558 
7620.000000	63.915562 
7619.000000	64.587950 
7618.000000	65.084791 
7617.000000	65.375971 
7616.000000	65.461611 
7615.000000	65.376305 
7614.000000	65.183997 
7613.000000	64.965653 
7612.000000	64.811158 
7611.000000	64.788675 
7610.000000	64.936590 
7609.000000	65.244865 
7608.000000	65.664815 
7607.000000	66.108846 
7606.000000	66.474986 
7605.000000	66.663026 
7604.000000	66.599297 
7603.000000	66.242837 
7602.000000	65.594244 
7601.000000	64.692568 
7600.000000	63.609719 
7599.000000	62.432241 
7598.000000	61.254739 
7597.000000	60.166168 
7596.000000	59.249305 
7595.000000	58.574104 
7594.000000	58.200669 
7593.000000	58.162713 
7592.000000	58.477115 
7591.000000	59.139513 
7590.000000	60.121130 
7589.000000	61.354112 
7588.000000	62.743854 
7587.000000	64.167523 
7586.000000	65.497994 
7585.000000	66.613078 
7584.000000	67.424392 
7583.000000	67.889881 
7582.000000	68.019294 
7581.000000	67.873787 
7580.000000	67.537188 
7579.000000	67.097783 
7578.000000	66.628599 
7577.000000	66.179060 
7576.000000	65.771102 
7575.000000	65.406560 
7574.000000	65.086960 
7573.000000	64.818716 
7572.000000	64.617896 
7571.000000	64.499354 
7570.000000	64.468169 
7569.000000	64.506268 
7568.000000	64.559459 
7567.000000	64.552998 
7566.000000	64.396882 
7565.000000	64.027976 
7564.000000	63.427686 
7563.000000	62.645530 
7562.000000	61.792850 
7561.000000	61.022186 
7560.000000	60.490655 
7559.000000	60.317897 
7558.000000	60.542631 
7557.000000	61.126375 
7556.000000	61.962366 
7555.000000	62.905526 
7554.000000	63.805174 
7553.000000	64.552235 
7552.000000	65.101480 
7551.000000	65.475392 
7550.000000	65.745925 
7549.000000	66.007661 
7548.000000	66.339254 
7547.000000	66.783618 
7546.000000	67.326307 
7545.000000	67.898297 
7544.000000	68.387842 
7543.000000	68.682098 
7542.000000	68.688774 
7541.000000	68.365931 
7540.000000	67.728686 
7539.000000	66.850233 
7538.000000	65.840268 
7537.000000	64.823555 
7536.000000	63.906550 
7535.000000	63.163280 
7534.000000	62.613987 
7533.000000	62.234735 
7532.000000	61.961078 
7531.000000	61.713361 
7530.000000	61.419343 
7529.000000	61.030268 
7528.000000	60.543394 
7527.000000	59.994101 
7526.000000	59.461593 
7525.000000	59.042000 
7524.000000	58.832788 
7523.000000	58.902525 
7522.000000	59.281420 
7521.000000	59.948873 
7520.000000	60.833287 
7519.000000	61.823701 
7518.000000	62.790536 
7517.000000	63.609313 
7516.000000	64.186024 
7515.000000	64.470291 
7514.000000	64.456701 
7513.000000	64.180970 
7512.000000	63.711333 
7511.000000	63.126802 
7510.000000	62.504386 
7509.000000	61.900973 
7508.000000	61.356210 
7507.000000	60.884928 
7506.000000	60.488271 
7505.000000	60.160422 
7504.000000	59.900927 
7503.000000	59.717130 
7502.000000	59.622335 
7501.000000	59.633326 
7500.000000	59.759569 
7499.000000	59.997010 
7498.000000	60.320973 
7497.000000	60.689592 
7496.000000	61.049461 
7495.000000	61.353588 
7494.000000	61.574554 
7493.000000	61.713981 
7492.000000	61.805796 
7491.000000	61.911702 
7490.000000	62.105584 
7489.000000	62.455391 
7488.000000	62.999844 
7487.000000	63.740372 
7486.000000	64.627099 
7485.000000	65.573430 
7484.000000	66.461467 
7483.000000	67.173409 
7482.000000	67.606592 
7481.000000	67.701506 
7480.000000	67.446327 
7479.000000	66.878008 
7478.000000	66.076874 
7477.000000	65.152263 
7476.000000	64.222073 
7475.000000	63.396334 
7474.000000	62.755584 
7473.000000	62.348461 
7472.000000	62.172555 
7471.000000	62.184190 
7470.000000	62.304091 
7469.000000	62.439441 
7468.000000	62.505555 
7467.000000	62.447857 
7466.000000	62.251210 
7465.000000	61.944603 
7464.000000	61.591029 
7463.000000	61.273264 
7462.000000	61.067175 
7461.000000	61.027193 
7460.000000	61.176323 
7459.000000	61.501407 
7458.000000	61.959958 
7457.000000	62.487936 
7456.000000	63.021230 
7455.000000	63.499999 
7454.000000	63.875627 
7453.000000	64.117789 
7452.000000	64.215588 
7451.000000	64.176273 
7450.000000	64.015173 
7449.000000	63.761091 
7448.000000	63.451242 
7447.000000	63.131165 
7446.000000	62.855076 
7445.000000	62.667059 
7444.000000	62.593841 
7443.000000	62.642574 
7442.000000	62.801909 
7441.000000	63.039445 
7440.000000	63.310933 
7439.000000	63.573575 
7438.000000	63.795852 
7437.000000	63.964986 
7436.000000	64.085316 
7435.000000	64.176177 
7434.000000	64.256238 
7433.000000	64.336037 
7432.000000	64.403486 
7431.000000	64.430928 
7430.000000	64.370822 
7429.000000	64.171743 
7428.000000	63.790369 
7427.000000	63.205766 
7426.000000	62.434935 
7425.000000	61.532402 
7424.000000	60.593318 
7423.000000	59.726643 
7422.000000	59.054231 
7421.000000	58.682465 
7420.000000	58.689284 
7419.000000	59.103202 
7418.000000	59.903264 
7417.000000	61.019730 
7416.000000	62.341403 
7415.000000	63.732457 
7414.000000	65.047788 
7413.000000	66.156578 
7412.000000	66.959333 
7411.000000	67.405581 
7410.000000	67.507457 
7409.000000	67.332053 
7408.000000	66.991519 
7407.000000	66.608715 
7406.000000	66.297864 
7405.000000	66.128516 
7404.000000	66.120576 
7403.000000	66.236662 
7402.000000	66.410017 
7401.000000	66.556310 
7400.000000	66.613483 
7399.000000	66.542959 
7398.000000	66.338872 
7397.000000	66.023683 
7396.000000	65.635180 
7395.000000	65.216302 
7394.000000	64.797496 
7393.000000	64.400243 
7392.000000	64.036250 
7391.000000	63.711690 
7390.000000	63.432121 
7389.000000	63.206410 
7388.000000	63.047003 
7387.000000	62.961816 
7386.000000	62.948846 
7385.000000	62.985682 
7384.000000	63.030052 
7383.000000	63.030576 
7382.000000	62.936592 
7381.000000	62.703442 
7380.000000	62.309122 
7379.000000	61.762666 
7378.000000	61.108779 
7377.000000	60.411190 
7376.000000	59.753799 
7375.000000	59.218597 
7374.000000	58.881497 
7373.000000	58.795690 
7372.000000	58.987116 
7371.000000	59.447979 
7370.000000	60.138344 
7369.000000	60.991501 
7368.000000	61.922621 
7367.000000	62.837290 
7366.000000	63.649272 
7365.000000	64.287710 
7364.000000	64.715051 
7363.000000	64.926981 
7362.000000	64.956831 
7361.000000	64.864277 
7360.000000	64.713883 
7359.000000	64.555835 
7358.000000	64.417147 
7357.000000	64.293193 
7356.000000	64.150953 
7355.000000	63.939261 
7354.000000	63.612532 
7353.000000	63.144826 
7352.000000	62.537717 
7351.000000	61.829066 
7350.000000	61.080431 
7349.000000	60.375428 
7348.000000	59.798502 
7347.000000	59.423923 
7346.000000	59.298729 
7345.000000	59.433841 
7344.000000	59.800124 
7343.000000	60.333752 
7342.000000	60.945606 
7341.000000	61.542201 
7340.000000	62.041211 
7339.000000	62.387585 
7338.000000	62.554669 
7337.000000	62.556457 
7336.000000	62.438011 
7335.000000	62.265419 
7334.000000	62.107324 
7333.000000	62.028217 
7332.000000	62.073922 
7331.000000	62.266921 
7330.000000	62.601113 
7329.000000	63.044524 
7328.000000	63.544106 
7327.000000	64.040327 
7326.000000	64.474987 
7325.000000	64.795589 
7324.000000	64.967131 
7323.000000	64.978265 
7322.000000	64.841556 
7321.000000	64.591145 
7320.000000	64.271140 
7319.000000	63.935375 
7318.000000	63.623070 
7317.000000	63.356280 
7316.000000	63.129448 
7315.000000	62.918829 
7314.000000	62.687373 
7313.000000	62.400507 
7312.000000	62.038135 
7311.000000	61.604046 
7310.000000	61.126947 
7309.000000	60.654330 
7308.000000	60.240316 
7307.000000	59.931230 
7306.000000	59.760069 
7305.000000	59.741067 
7304.000000	59.869360 
7303.000000	60.127091 
7302.000000	60.492324 
7301.000000	60.946106 
7300.000000	61.473774 
7299.000000	62.064218 
7298.000000	62.704849 
7297.000000	63.375186 
7296.000000	64.040541 
7295.000000	64.653158 
7294.000000	65.161800 
7293.000000	65.516614 
7292.000000	65.682435 
7291.000000	65.645360 
7290.000000	65.421271 
7289.000000	65.053033 
7288.000000	64.606451 
7287.000000	64.158034 
7286.000000	63.782477 
7285.000000	63.540267 
7284.000000	63.471531 
7283.000000	63.584208 
7282.000000	63.856029 
7281.000000	64.238190 
7280.000000	64.668011 
7279.000000	65.075421 
7278.000000	65.397810 
7277.000000	65.591359 
7276.000000	65.639543 
7275.000000	65.554618 
7274.000000	65.372133 
7273.000000	65.145587 
7272.000000	64.926910 
7271.000000	64.756965 
7270.000000	64.649200 
7269.000000	64.589285 
7268.000000	64.537048 
7267.000000	64.445781 
7266.000000	64.271950 
7265.000000	63.989520 
7264.000000	63.599920 
7263.000000	63.132786 
7262.000000	62.642002 
7261.000000	62.185668 
7260.000000	61.823248 
7259.000000	61.598753 
7258.000000	61.537241 
7257.000000	61.639308 
7256.000000	61.885023 
7255.000000	62.238240 
7254.000000	62.657237 
7253.000000	63.102030 
7252.000000	63.540720 
7251.000000	63.952159 
7250.000000	64.326596 
7249.000000	64.662051 
7248.000000	64.960503 
7247.000000	65.221548 
7246.000000	65.442085 
7245.000000	65.611457 
7244.000000	65.717864 
7243.000000	65.745735 
7242.000000	65.686774 
7241.000000	65.536594 
7240.000000	65.300703 
7239.000000	64.991855 
7238.000000	64.632916 
7237.000000	64.251542 
7236.000000	63.877463 
7235.000000	63.538527 
7234.000000	63.257098 
7233.000000	63.048505 
7232.000000	62.919521 
7231.000000	62.869811 
7230.000000	62.891578 
7229.000000	62.974596 
7228.000000	63.106727 
7227.000000	63.278627 
7226.000000	63.482856 
7225.000000	63.716030 
7224.000000	63.975954 
7223.000000	64.258837 
7222.000000	64.556002 
7221.000000	64.855098 
7220.000000	65.138626 
7219.000000	65.384674 
7218.000000	65.570020 
7217.000000	65.676689 
7216.000000	65.693926 
7215.000000	65.623950 
7214.000000	65.478944 
7213.000000	65.283012 
7212.000000	65.062618 
7211.000000	64.845561 
7210.000000	64.650464 
7209.000000	64.486551 
7208.000000	64.349794 
7207.000000	64.228153 
7206.000000	64.104580 
7205.000000	63.963460 
7204.000000	63.797712 
7203.000000	63.610839 
7202.000000	63.420367 
7201.000000	63.253259 
7200.000000	63.138794 
7199.000000	63.099288 
7198.000000	63.142633 
7197.000000	63.259124 
7196.000000	63.419866 
7195.000000	63.584756 
7194.000000	63.717675 
7193.000000	63.795137 
7192.000000	63.812041 
7191.000000	63.780999 
7190.000000	63.726663 
7189.000000	63.676476 
7188.000000	63.649058 
7187.000000	63.650059 
7186.000000	63.672089 
7185.000000	63.696742 
7184.000000	63.706278 
7183.000000	63.683700 
7182.000000	63.621330 
7181.000000	63.517832 
7180.000000	63.380527 
7179.000000	63.217926 
7178.000000	63.035845 
7177.000000	62.836813 
7176.000000	62.620353 
7175.000000	62.384819 
7174.000000	62.130308 
7173.000000	61.860966 
7172.000000	61.586928 
7171.000000	61.314678 
7170.000000	61.046481 
7169.000000	60.778737 
7168.000000	60.505771 
7167.000000	60.221052 
7166.000000	59.924840 
7165.000000	59.630012 
7164.000000	59.362649 
7163.000000	59.154152 
7162.000000	59.036779 
7161.000000	59.029293 
7160.000000	59.136247 
7159.000000	59.344625 
7158.000000	59.627246 
7157.000000	59.944748 
7156.000000	60.256409 
7155.000000	60.527873 
7154.000000	60.736298 
7153.000000	60.870671 
7152.000000	60.933804 
7151.000000	60.936450 
7150.000000	60.897755 
7149.000000	60.838603 
7148.000000	60.783982 
7147.000000	60.758733 
7146.000000	60.790705 
7145.000000	60.907959 
7144.000000	61.133718 
7143.000000	61.482214 
7142.000000	61.956810 
7141.000000	62.547206 
7140.000000	63.229990 
7139.000000	63.967394 
7138.000000	64.717006 
7137.000000	65.427064 
7136.000000	66.044259 
7135.000000	66.511106 
7134.000000	66.778326 
7133.000000	66.805028 
7132.000000	66.569805 
7131.000000	66.074442 
7130.000000	65.352725 
7129.000000	64.465975 
7128.000000	63.501501 
7127.000000	62.557363 
7126.000000	61.731910 
7125.000000	61.104059 
7124.000000	60.723400 
7123.000000	60.601091 
7122.000000	60.709118 
7121.000000	60.994386 
7120.000000	61.391162 
7119.000000	61.836457 
7118.000000	62.279629 
7117.000000	62.691116 
7116.000000	63.061118 
7115.000000	63.391447 
7114.000000	63.686728 
7113.000000	63.951039 
7112.000000	64.180636 
7111.000000	64.363670 
7110.000000	64.480757 
7109.000000	64.517307 
7108.000000	64.463734 
7107.000000	64.322972 
7106.000000	64.109230 
7105.000000	63.848805 
7104.000000	63.574671 
7103.000000	63.321137 
7102.000000	63.118124 
7101.000000	62.987446 
7100.000000	62.938523 
7099.000000	62.970948 
7098.000000	63.070726 
7097.000000	63.212299 
7096.000000	63.365864 
7095.000000	63.503527 
7094.000000	63.603162 
7093.000000	63.650155 
7092.000000	63.642907 
7091.000000	63.590645 
7090.000000	63.506269 
7089.000000	63.400149 
7088.000000	63.272714 
7087.000000	63.113522 
7086.000000	62.905120 
7085.000000	62.631392 
7084.000000	62.282061 
7083.000000	61.864662 
7082.000000	61.408829 
7081.000000	60.966086 
7080.000000	60.600209 
7079.000000	60.374402 
7078.000000	60.333895 
7077.000000	60.494947 
7076.000000	60.834574 
7075.000000	61.298990 
7074.000000	61.812114 
7073.000000	62.296700 
7072.000000	62.687826 
7071.000000	62.951850 
7070.000000	63.088345 
7069.000000	63.130378 
7068.000000	63.129138 
7067.000000	63.141655 
7066.000000	63.213610 
7065.000000	63.365268 
7064.000000	63.586497 
7063.000000	63.835620 
7062.000000	64.051795 
7061.000000	64.170551 
7060.000000	64.143776 
7059.000000	63.951921 
7058.000000	63.613414 
7057.000000	63.183283 
7056.000000	62.741446 
7055.000000	62.372565 
7054.000000	62.145256 
7053.000000	62.100386 
7052.000000	62.235999 
7051.000000	62.509250 
7050.000000	62.845253 
7049.000000	63.161015 
7048.000000	63.379883 
7047.000000	63.450455 
7046.000000	63.354134 
7045.000000	63.105535 
7044.000000	62.744331 
7043.000000	62.321853 
7042.000000	61.886143 
7041.000000	61.466717 
7040.000000	61.082100 
7039.000000	60.743212 
7038.000000	60.457611 
7037.000000	60.235500 
7036.000000	60.092020 
7035.000000	60.046482 
7034.000000	60.114097 
7033.000000	60.302019 
7032.000000	60.599017 
7031.000000	60.979843 
7030.000000	61.407804 
7029.000000	61.846876 
7028.000000	62.265777 
7027.000000	62.649011 
7026.000000	63.000106 
7025.000000	63.336348 
7024.000000	63.680529 
7023.000000	64.046859 
7022.000000	64.440870 
7021.000000	64.840912 
7020.000000	65.207815 
7019.000000	65.479469 
7018.000000	65.596318 
7017.000000	65.500426 
7016.000000	65.158843 
7015.000000	64.563703 
7014.000000	63.741016 
7013.000000	62.746834 
7012.000000	61.661410 
7011.000000	60.581302 
7010.000000	59.606599 
7009.000000	58.834528 
7008.000000	58.347344 
7007.000000	58.202815 
7006.000000	58.426642 
7005.000000	59.007120 
7004.000000	59.897279 
7003.000000	61.011934 
7002.000000	62.245225 
7001.000000	63.481545 
7000.000000	64.617538 
6999.000000	65.568876 
6998.000000	66.285800 
6997.000000	66.756916 
6996.000000	67.002201 
6995.000000	67.064261 
6994.000000	66.991806 
6993.000000	66.837120 
6992.000000	66.635560 
6991.000000	66.414451 
6990.000000	66.179943 
6989.000000	65.933084 
6988.000000	65.666151 
6987.000000	65.378856 
6986.000000	65.071129 
6985.000000	64.748263 
6984.000000	64.418053 
6983.000000	64.090847 
6982.000000	63.772988 
6981.000000	63.466715 
6980.000000	63.174510 
6979.000000	62.901043 
6978.000000	62.653422 
6977.000000	62.441182 
6976.000000	62.276268 
6975.000000	62.167525 
6974.000000	62.116122 
6973.000000	62.111902 
6972.000000	62.129187 
6971.000000	62.133502 
6970.000000	62.090039 
6969.000000	61.971926 
6968.000000	61.761689 
6967.000000	61.463165 
6966.000000	61.100554 
6965.000000	60.717439 
6964.000000	60.361528 
6963.000000	60.084843 
6962.000000	59.929156 
6961.000000	59.924864 
6960.000000	60.084009 
6959.000000	60.400247 
6958.000000	60.848498 
6957.000000	61.390566 
6956.000000	61.980366 
6955.000000	62.565398 
6954.000000	63.092827 
6953.000000	63.517475 
6952.000000	63.808059 
6951.000000	63.948225 
6950.000000	63.940286 
6949.000000	63.809561 
6948.000000	63.597774 
6947.000000	63.356971 
6946.000000	63.136601 
6945.000000	62.980985 
6944.000000	62.913942 
6943.000000	62.938928 
6942.000000	63.035702 
6941.000000	63.169264 
6940.000000	63.297748 
6939.000000	63.384389 
6938.000000	63.406467 
6937.000000	63.357639 
6936.000000	63.252496 
6935.000000	63.119292 
6934.000000	62.994956 
6933.000000	62.912201 
6932.000000	62.897396 
6931.000000	62.964153 
6930.000000	63.115024 
6929.000000	63.342499 
6928.000000	63.635301 
6927.000000	63.981604 
6926.000000	64.369606 
6925.000000	64.787769 
6924.000000	65.224695 
6923.000000	65.666699 
6922.000000	66.095113 
6921.000000	66.486191 
6920.000000	66.817116 
6919.000000	67.064905 
6918.000000	67.215776 
6917.000000	67.260384 
6916.000000	67.201876 
6915.000000	67.046761 
6914.000000	66.810870 
6913.000000	66.508150 
6912.000000	66.153550 
6911.000000	65.758156 
6910.000000	65.335345 
6909.000000	64.897274 
6908.000000	64.458775 
6907.000000	64.036345 
6906.000000	63.648676 
6905.000000	63.313961 
6904.000000	63.047266 
6903.000000	62.857890 
6902.000000	62.746906 
6901.000000	62.709093 
6900.000000	62.734079 
6899.000000	62.809038 
6898.000000	62.920999 
6897.000000	63.060307 
6896.000000	63.219380 
6895.000000	63.389873 
6894.000000	63.560175 
6893.000000	63.713622 
6892.000000	63.829708 
6891.000000	63.884234 
6890.000000	63.858127 
6889.000000	63.741850 
6888.000000	63.543438 
6887.000000	63.288402 
6886.000000	63.018894 
6885.000000	62.786412 
6884.000000	62.640857 
6883.000000	62.619352 
6882.000000	62.736654 
6881.000000	62.981534 
6880.000000	63.318395 
6879.000000	63.695025 
6878.000000	64.055299 
6877.000000	64.351415 
6876.000000	64.553642 
6875.000000	64.654803 
6874.000000	64.668202 
6873.000000	64.621067 
6872.000000	64.545917 
6871.000000	64.471864 
6870.000000	64.419364 
6869.000000	64.397573 
6868.000000	64.408040 
6867.000000	64.446711 
6866.000000	64.509892 
6865.000000	64.595150 
6864.000000	64.704012 
6863.000000	64.838075 
6862.000000	64.997005 
6861.000000	65.173649 
6860.000000	65.354824 
6859.000000	65.517783 
6858.000000	65.636301 
6857.000000	65.680551 
6856.000000	65.628194 
6855.000000	65.462899 
6854.000000	65.181374 
6853.000000	64.792108 
6852.000000	64.316844 
6851.000000	63.786101 
6850.000000	63.235974 
6849.000000	62.703251 
6848.000000	62.220931 
6847.000000	61.815690 
6846.000000	61.505770 
6845.000000	61.297082 
6844.000000	61.185240 
6843.000000	61.156821 
6842.000000	61.195540 
6841.000000	61.281251 
6840.000000	61.398625 
6839.000000	61.536097 
6838.000000	61.690998 
6837.000000	61.864495 
6836.000000	62.061071 
6835.000000	62.282037 
6834.000000	62.523269 
6833.000000	62.772727 
6832.000000	63.011407 
6831.000000	63.217091 
6830.000000	63.368415 
6829.000000	63.452219 
6828.000000	63.464379 
6827.000000	63.412141 
6826.000000	63.311433 
6825.000000	63.185048 
6824.000000	63.055014 
6823.000000	62.938404 
6822.000000	62.845396 
6821.000000	62.779712 
6820.000000	62.736749 
6819.000000	62.707352 
6818.000000	62.682652 
6817.000000	62.657737 
6816.000000	62.631773 
6815.000000	62.609267 
6814.000000	62.596678 
6813.000000	62.601947 
6812.000000	62.631106 
6811.000000	62.687540 
6810.000000	62.769007 
6809.000000	62.869834 
6808.000000	62.983274 
6807.000000	63.102078 
6806.000000	63.218760 
6805.000000	63.327670 
6804.000000	63.425803 
6803.000000	63.512706 
6802.000000	63.587975 
6801.000000	63.654041 
6800.000000	63.714194 
6799.000000	63.774466 
6798.000000	63.842391 
6797.000000	63.926076 
6796.000000	64.032697 
6795.000000	64.165139 
6794.000000	64.320707 
6793.000000	64.487028 
6792.000000	64.642906 
6791.000000	64.760947 
6790.000000	64.812445 
6789.000000	64.773154 
6788.000000	64.629125 
6787.000000	64.382076 
6786.000000	64.049100 
6785.000000	63.662123 
6784.000000	63.259625 
6783.000000	62.879753 
6782.000000	62.552070 
6781.000000	62.293195 
6780.000000	62.105464 
6779.000000	61.977076 
6778.000000	61.891794 
6777.000000	61.833882 
6776.000000	61.796593 
6775.000000	61.780071 
6774.000000	61.795258 
6773.000000	61.856865 
6772.000000	61.977696 
6771.000000	62.159395 
6770.000000	62.390780 
6769.000000	62.646746 
6768.000000	62.893557 
6767.000000	63.095688 
6766.000000	63.225603 
6765.000000	63.269710 
6764.000000	63.232493 
6763.000000	63.133692 
6762.000000	63.000321 
6761.000000	62.858343 
6760.000000	62.727475 
6759.000000	62.615370 
6758.000000	62.517952 
6757.000000	62.421345 
6756.000000	62.313270 
6755.000000	62.183547 
6754.000000	62.027716 
6753.000000	61.848497 
6752.000000	61.655998 
6751.000000	61.464095 
6750.000000	61.283159 
6749.000000	61.121916 
6748.000000	60.984849 
6747.000000	60.873818 
6746.000000	60.788369 
6745.000000	60.727500 
6744.000000	60.689949 
6743.000000	60.675001 
6742.000000	60.681462 
6741.000000	60.708022 
6740.000000	60.752129 
6739.000000	60.813474 
6738.000000	60.894298 
6737.000000	61.000871 
6736.000000	61.142182 
6735.000000	61.328077 
6734.000000	61.566233 
6733.000000	61.857199 
6732.000000	62.194013 
6731.000000	62.561321 
6730.000000	62.939214 
6729.000000	63.307023 
6728.000000	63.647699 
6727.000000	63.951635 
6726.000000	64.216423 
6725.000000	64.448833 
6724.000000	64.656162 
6723.000000	64.844775 
6722.000000	65.012741 
6721.000000	65.152668 
6720.000000	65.249371 
6719.000000	65.286684 
6718.000000	65.252375 
6717.000000	65.145802 
6716.000000	64.979791 
6715.000000	64.781236 
6714.000000	64.585876 
6713.000000	64.431118 
6712.000000	64.348602 
6711.000000	64.356899 
6710.000000	64.456987 
6709.000000	64.631533 
6708.000000	64.850163 
6707.000000	65.075469 
6706.000000	65.270066 
6705.000000	65.404391 
6704.000000	65.462398 
6703.000000	65.443778 
6702.000000	65.359163 
6701.000000	65.228915 
6700.000000	65.079021 
6699.000000	64.934539 
6698.000000	64.815235 
6697.000000	64.731669 
6696.000000	64.688873 
6695.000000	64.681529 
6694.000000	64.698815 
6693.000000	64.724516 
6692.000000	64.742946 
6691.000000	64.739060 
6690.000000	64.700484 
6689.000000	64.620685 
6688.000000	64.499354 
6687.000000	64.343380 
6686.000000	64.165306 
6685.000000	63.980674 
6684.000000	63.804888 
6683.000000	63.652157 
6682.000000	63.532376 
6681.000000	63.449192 
6680.000000	63.399219 
6679.000000	63.373565 
6678.000000	63.359498 
6677.000000	63.342380 
6676.000000	63.309669 
6675.000000	63.251090 
6674.000000	63.163423 
6673.000000	63.051605 
6672.000000	62.926983 
6671.000000	62.805080 
6670.000000	62.699341 
6669.000000	62.617897 
6668.000000	62.559747 
6667.000000	62.515091 
6666.000000	62.468481 
6665.000000	62.402081 
6664.000000	62.305355 
6663.000000	62.178587 
6662.000000	62.036681 
6661.000000	61.905360 
6660.000000	61.818456 
6659.000000	61.808276 
6658.000000	61.897563 
6657.000000	62.091708 
6656.000000	62.376117 
6655.000000	62.717533 
6654.000000	63.070607 
6653.000000	63.386774 
6652.000000	63.624691 
6651.000000	63.757872 
6650.000000	63.778471 
6649.000000	63.697123 
6648.000000	63.538694 
6647.000000	63.335537 
6646.000000	63.121581 
6645.000000	62.924146 
6644.000000	62.761497 
6643.000000	62.640953 
6642.000000	62.561392 
6641.000000	62.517762 
6640.000000	62.504911 
6639.000000	62.522840 
6638.000000	62.575984 
6637.000000	62.674617 
6636.000000	62.829279 
6635.000000	63.046479 
6634.000000	63.322305 
6633.000000	63.640069 
6632.000000	63.970398 
6631.000000	64.274764 
6630.000000	64.512681 
6629.000000	64.650940 
6628.000000	64.671015 
6627.000000	64.574217 
6626.000000	64.380121 
6625.000000	64.124369 
6624.000000	63.846945 
6623.000000	63.584780 
6622.000000	63.360261 
6621.000000	63.178515 
6620.000000	63.027453 
6619.000000	62.885141 
6618.000000	62.729310 
6617.000000	62.545728 
6616.000000	62.336564 
6615.000000	62.119174 
6614.000000	61.925387 
6613.000000	61.789917 
6612.000000	61.743235 
6611.000000	61.799597 
6610.000000	61.954379 
6609.000000	62.181806 
6608.000000	62.443828 
6607.000000	62.698698 
6606.000000	62.911200 
6605.000000	63.059830 
6604.000000	63.140797 
6603.000000	63.166570 
6602.000000	63.159036 
6601.000000	63.141775 
6600.000000	63.134765 
6599.000000	63.148379 
6598.000000	63.182711 
6597.000000	63.228297 
6596.000000	63.272190 
6595.000000	63.301777 
6594.000000	63.311195 
6593.000000	63.302087 
6592.000000	63.282418 
6591.000000	63.264226 
6590.000000	63.260483 
6589.000000	63.279533 
6588.000000	63.322234 
6587.000000	63.380408 
6586.000000	63.439631 
6585.000000	63.481497 
6584.000000	63.489174 
6583.000000	63.451623 
6582.000000	63.367486 
6581.000000	63.245558 
6580.000000	63.102746 
6579.000000	62.960815 
6578.000000	62.841176 
6577.000000	62.758159 
6576.000000	62.715673 
6575.000000	62.705564 
6574.000000	62.710642 
6573.000000	62.710213 
6572.000000	62.687015 
6571.000000	62.631893 
6570.000000	62.548065 
6569.000000	62.450003 
6568.000000	62.360048 
6567.000000	62.301969 
6566.000000	62.293410 
6565.000000	62.340188 
6564.000000	62.433266 
6563.000000	62.551307 
6562.000000	62.664628 
6561.000000	62.742567 
6560.000000	62.761855 
6559.000000	62.712192 
6558.000000	62.600398 
6557.000000	62.446904 
6556.000000	62.283778 
6555.000000	62.145066 
6554.000000	62.062144 
6553.000000	62.056255 
6552.000000	62.135457 
6551.000000	62.293577 
6550.000000	62.512326 
6549.000000	62.765836 
6548.000000	63.025498 
6547.000000	63.265490 
6546.000000	63.464570 
6545.000000	63.609671 
6544.000000	63.696289 
6543.000000	63.728833 
6542.000000	63.717818 
6541.000000	63.678288 
6540.000000	63.627719 
6539.000000	63.582563 
6538.000000	63.557982 
6537.000000	63.563704 
6536.000000	63.605141 
6535.000000	63.681149 
6534.000000	63.786578 
6533.000000	63.911294 
6532.000000	64.043664 
6531.000000	64.170241 
6530.000000	64.278340 
6529.000000	64.356589 
6528.000000	64.396500 
6527.000000	64.392995 
6526.000000	64.345383 
6525.000000	64.258289 
6524.000000	64.141488 
6523.000000	64.010167 
6522.000000	63.883233 
6521.000000	63.781356 
6520.000000	63.723468 
6519.000000	63.724780 
6518.000000	63.792395 
6517.000000	63.922905 
6516.000000	64.101290 
6515.000000	64.303755 
6514.000000	64.500403 
6513.000000	64.660143 
6512.000000	64.756822 
6511.000000	64.773011 
6510.000000	64.705085 
6509.000000	64.562678 
6508.000000	64.368391 
6507.000000	64.152908 
6506.000000	63.949823 
6505.000000	63.789129 
6504.000000	63.692259 
6503.000000	63.670086 
6502.000000	63.720178 
6501.000000	63.829851 
6500.000000	63.977479 
6499.000000	64.137649 
6498.000000	64.284849 
6497.000000	64.397549 
6496.000000	64.460921 
6495.000000	64.468359 
6494.000000	64.420580 
6493.000000	64.325165 
6492.000000	64.194107 
6491.000000	64.042901 
6490.000000	63.888764 
6489.000000	63.749718 
6488.000000	63.644671 
6487.000000	63.589930 
6486.000000	63.598918 
6485.000000	63.676357 
6484.000000	63.817930 
6483.000000	64.006948 
6482.000000	64.215755 
6481.000000	64.410948 
6480.000000	64.557623 
6479.000000	64.630055 
6478.000000	64.615416 
6477.000000	64.520645 
6476.000000	64.369463 
6475.000000	64.199447 
6474.000000	64.053630 
6473.000000	63.968467 
6472.000000	63.965082 
6471.000000	64.044284 
6470.000000	64.187526 
6469.000000	64.361262 
6468.000000	64.526152 
6467.000000	64.646625 
6466.000000	64.699316 
6465.000000	64.677071 
6464.000000	64.589238 
6463.000000	64.454960 
6462.000000	64.298295 
6461.000000	64.141416 
6460.000000	64.001035 
6459.000000	63.885521 
6458.000000	63.796830 
6457.000000	63.735079 
6456.000000	63.700270 
6455.000000	63.695120 
6454.000000	63.724112 
6453.000000	63.791012 
6452.000000	63.897466 
6451.000000	64.037418 
6450.000000	64.201021 
6449.000000	64.373493 
6448.000000	64.540886 
6447.000000	64.691925 
6446.000000	64.821147 
6445.000000	64.928770 
6444.000000	65.020155 
6443.000000	65.103101 
6442.000000	65.182566 
6441.000000	65.257287 
6440.000000	65.320682 
6439.000000	65.360498 
6438.000000	65.361595 
6437.000000	65.308141 
6436.000000	65.189242 
6435.000000	65.000319 
6434.000000	64.745831 
6433.000000	64.438819 
6432.000000	64.097833 
6431.000000	63.746047 
6430.000000	63.407921 
6429.000000	63.107633 
6428.000000	62.865018 
6427.000000	62.695264 
6426.000000	62.605786 
6425.000000	62.597751 
6424.000000	62.662458 
6423.000000	62.788367 
6422.000000	62.960743 
6421.000000	63.166451 
6420.000000	63.391494 
6419.000000	63.627409 
6418.000000	63.869071 
6417.000000	64.114785 
6416.000000	64.362645 
6415.000000	64.610362 
6414.000000	64.852237 
6413.000000	65.080213 
6412.000000	65.282416 
6411.000000	65.444660 
6410.000000	65.550804 
6409.000000	65.588855 
6408.000000	65.550923 
6407.000000	65.435671 
6406.000000	65.248560 
6405.000000	65.004181 
6404.000000	64.723110 
6403.000000	64.431595 
6402.000000	64.155197 
6401.000000	63.918876 
6400.000000	63.737511 
6399.000000	63.615107 
6398.000000	63.542056 
6397.000000	63.498926 
6396.000000	63.460159 
6395.000000	63.399314 
6394.000000	63.297939 
6393.000000	63.147997 
6392.000000	62.958550 
6391.000000	62.752676 
6390.000000	62.563705 
6389.000000	62.425804 
6388.000000	62.369608 
6387.000000	62.414669 
6386.000000	62.565493 
6385.000000	62.810230 
6384.000000	63.125157 
6383.000000	63.478183 
6382.000000	63.835024 
6381.000000	64.163064 
6380.000000	64.434623 
6379.000000	64.629578 
6378.000000	64.735484 
6377.000000	64.749288 
6376.000000	64.676308 
6375.000000	64.530539 
6374.000000	64.336180 
6373.000000	64.121007 
6372.000000	63.916110 
6371.000000	63.746333 
6370.000000	63.631677 
6369.000000	63.577008 
6368.000000	63.572955 
6367.000000	63.597583 
6366.000000	63.622474 
6365.000000	63.620996 
6364.000000	63.574814 
6363.000000	63.480806 
6362.000000	63.351464 
6361.000000	63.212466 
6360.000000	63.095617 
6359.000000	63.029766 
6358.000000	63.033270 
6357.000000	63.110733 
6356.000000	63.252401 
6355.000000	63.436460 
6354.000000	63.635325 
6353.000000	63.825416 
6352.000000	63.990306 
6351.000000	64.121580 
6350.000000	64.218950 
6349.000000	64.288306 
6348.000000	64.337062 
6347.000000	64.368867 
6346.000000	64.383935 
6345.000000	64.380025 
6344.000000	64.354205 
6343.000000	64.308190 
6342.000000	64.246773 
6341.000000	64.178991 
6340.000000	64.116144 
6339.000000	64.070582 
6338.000000	64.051246 
6337.000000	64.061594 
6336.000000	64.098262 
6335.000000	64.151358 
6334.000000	64.205718 
6333.000000	64.243197 
6332.000000	64.244604 
6331.000000	64.192485 
6330.000000	64.073562 
6329.000000	63.880920 
6328.000000	63.615512 
6327.000000	63.287091 
6326.000000	62.912225 
6325.000000	62.513780 
6324.000000	62.118768 
6323.000000	61.755561 
6322.000000	61.448168 
6321.000000	61.215686 
6320.000000	61.067771 
6319.000000	61.007618 
6318.000000	61.029696 
6317.000000	61.124563 
6316.000000	61.277484 
6315.000000	61.473512 
6314.000000	61.696624 
6313.000000	61.930632 
6312.000000	62.157773 
6311.000000	62.358784 
6310.000000	62.513184 
6309.000000	62.601733 
6308.000000	62.609505 
6307.000000	62.529230 
6306.000000	62.364315 
6305.000000	62.130522 
6304.000000	61.855530 
6303.000000	61.574077 
6302.000000	61.324095 
6301.000000	61.139297 
6300.000000	61.046624 
6299.000000	61.062097 
6298.000000	61.191153 
6297.000000	61.428356 
6296.000000	61.759042 
6295.000000	62.160563 
6294.000000	62.604260 
6293.000000	63.058233 
6292.000000	63.488507 
6291.000000	63.860321 
6290.000000	64.143347 
6289.000000	64.316058 
6288.000000	64.368867 
6287.000000	64.305567 
6286.000000	64.144563 
6285.000000	63.918304 
6284.000000	63.665366 
6283.000000	63.425421 
6282.000000	63.230800 
6281.000000	63.102221 
6280.000000	63.045406 
6279.000000	63.052344 
6278.000000	63.103580 
6277.000000	63.173818 
6276.000000	63.237905 
6275.000000	63.276195 
6274.000000	63.276004 
6273.000000	63.233876 
6272.000000	63.153147 
6271.000000	63.043308 
6270.000000	62.915515 
6269.000000	62.781977 
6268.000000	62.652564 
6267.000000	62.536406 
6266.000000	62.440848 
6265.000000	62.373852 
6264.000000	62.343430 
6263.000000	62.358021 
6262.000000	62.423276 
6261.000000	62.542343 
6260.000000	62.713503 
6259.000000	62.928676 
6258.000000	63.172149 
6257.000000	63.423562 
6256.000000	63.660526 
6255.000000	63.861012 
6254.000000	64.006876 
6253.000000	64.085555 
6252.000000	64.091539 
6251.000000	64.027476 
6250.000000	63.902878 
6249.000000	63.731598 
6248.000000	63.529706 
6247.000000	63.314342 
6246.000000	63.102102 
6245.000000	62.908196 
6244.000000	62.746167 
6243.000000	62.626266 
6242.000000	62.557172 
6241.000000	62.544298 
6240.000000	62.591409 
6239.000000	62.697219 
6238.000000	62.857890 
6237.000000	63.065481 
6236.000000	63.308405 
6235.000000	63.571238 
6234.000000	63.834190 
6233.000000	64.074540 
6232.000000	64.268755 
6231.000000	64.395833 
6230.000000	64.441347 
6229.000000	64.400744 
6228.000000	64.280915 
6227.000000	64.099621 
6226.000000	63.883614 
6225.000000	63.664126 
6224.000000	63.470196 
6223.000000	63.323307 
6222.000000	63.234400 
6221.000000	63.202190 
6220.000000	63.215732 
6219.000000	63.256812 
6218.000000	63.305139 
6217.000000	63.341975 
6216.000000	63.353562 
6215.000000	63.333201 
6214.000000	63.278388 
6213.000000	63.192820 
6212.000000	63.081765 
6211.000000	62.954640 
6210.000000	62.821841 
6209.000000	62.696242 
6208.000000	62.592363 
6207.000000	62.523651 
6206.000000	62.501525 
6205.000000	62.529969 
6204.000000	62.604975 
6203.000000	62.711310 
6202.000000	62.825107 
6201.000000	62.917757 
6200.000000	62.962198 
6199.000000	62.941288 
6198.000000	62.852358 
6197.000000	62.710356 
6196.000000	62.544178 
6195.000000	62.389135 
6194.000000	62.277603 
6193.000000	62.231564 
6192.000000	62.256431 
6191.000000	62.340354 
6190.000000	62.457823 
6189.000000	62.577581 
6188.000000	62.671089 
6187.000000	62.719082 
6186.000000	62.716794 
6185.000000	62.671422 
6184.000000	62.602186 
6183.000000	62.531876 
6182.000000	62.483978 
6181.000000	62.474441 
6180.000000	62.511706 
6179.000000	62.595105 
6178.000000	62.717294 
6177.000000	62.867736 
6176.000000	63.034677 
6175.000000	63.207960 
6174.000000	63.379549 
6173.000000	63.543581 
6172.000000	63.696169 
6171.000000	63.834214 
6170.000000	63.955783 
6169.000000	64.058923 
6168.000000	64.141750 
6167.000000	64.201283 
6166.000000	64.235472 
6165.000000	64.241909 
6164.000000	64.218950 
6163.000000	64.165592 
6162.000000	64.083886 
6161.000000	63.978171 
6160.000000	63.856077 
6159.000000	63.727068 
6158.000000	63.602209 
6157.000000	63.491463 
6156.000000	63.403797 
6155.000000	63.343286 
6154.000000	63.308811 
6153.000000	63.293385 
6152.000000	63.285541 
6151.000000	63.272523 
6150.000000	63.242721 
6149.000000	63.190460 
6148.000000	63.117074 
6147.000000	63.032126 
6146.000000	62.950658 
6145.000000	62.891125 
6144.000000	62.870669 
6143.000000	62.900304 
6142.000000	62.981867 
6141.000000	63.108897 
6140.000000	63.267302 
6139.000000	63.438034 
6138.000000	63.600564 
6137.000000	63.737273 
6136.000000	63.835453 
6135.000000	63.888621 
6134.000000	63.896250 
6133.000000	63.861727 
6132.000000	63.792300 
6131.000000	63.697743 
6130.000000	63.589262 
6129.000000	63.478803 
6128.000000	63.378047 
6127.000000	63.299632 
6126.000000	63.253068 
6125.000000	63.244032 
6124.000000	63.272619 
6123.000000	63.333058 
6122.000000	63.415408 
6121.000000	63.507485 
6120.000000	63.596963 
6119.000000	63.673353 
6118.000000	63.729524 
6117.000000	63.761949 
6116.000000	63.770008 
6115.000000	63.755059 
6114.000000	63.719010 
6113.000000	63.664388 
6112.000000	63.594365 
6111.000000	63.513851 
6110.000000	63.430213 
6109.000000	63.353943 
6108.000000	63.297009 
6107.000000	63.271832 
6106.000000	63.289093 
6105.000000	63.355278 
6104.000000	63.470029 
6103.000000	63.625812 
6102.000000	63.808751 
6101.000000	63.999676 
6100.000000	64.178872 
6099.000000	64.325666 
6098.000000	64.421987 
6097.000000	64.454007 
6096.000000	64.414548 
6095.000000	64.304447 
6094.000000	64.133095 
6093.000000	63.917899 
6092.000000	63.682126 
6091.000000	63.452291 
6090.000000	63.254117 
6089.000000	63.108372 
6088.000000	63.027429 
6087.000000	63.013410 
6086.000000	63.058137 
6085.000000	63.144731 
6084.000000	63.251757 
6083.000000	63.356137 
6082.000000	63.439655 
6081.000000	63.489770 
6080.000000	63.504648 
6079.000000	63.489770 
6078.000000	63.459229 
6077.000000	63.429808 
6076.000000	63.419103 
6075.000000	63.442492 
6074.000000	63.507843 
6073.000000	63.615632 
6072.000000	63.755226 
6071.000000	63.909029 
6070.000000	64.052271 
6069.000000	64.158535 
6068.000000	64.205217 
6067.000000	64.178991 
6066.000000	64.078807 
6065.000000	63.916277 
6064.000000	63.714337 
6063.000000	63.502717 
6062.000000	63.312339 
6061.000000	63.169622 
6060.000000	63.091588 
6059.000000	63.083434 
6058.000000	63.140296 
6057.000000	63.248729 
6056.000000	63.389611 
6055.000000	63.542008 
6054.000000	63.687419 
6053.000000	63.811302 
6052.000000	63.903355 
6051.000000	63.957762 
6050.000000	63.971018 
6049.000000	63.942003 
6048.000000	63.872003 
6047.000000	63.763666 
6046.000000	63.622760 
6045.000000	63.456702 
6044.000000	63.276433 
6043.000000	63.093352 
6042.000000	62.919497 
6041.000000	62.764596 
6040.000000	62.635374 
6039.000000	62.534260 
6038.000000	62.459588 
6037.000000	62.407374 
6036.000000	62.373280 
6035.000000	62.353992 
6034.000000	62.349224 
6033.000000	62.362623 
6032.000000	62.401676 
6031.000000	62.475228 
6030.000000	62.590813 
6029.000000	62.750053 
6028.000000	62.947273 
6027.000000	63.169717 
6026.000000	63.398027 
6025.000000	63.610363 
6024.000000	63.784360 
6023.000000	63.902878 
6022.000000	63.954472 
6021.000000	63.935399 
6020.000000	63.849520 
6019.000000	63.707399 
6018.000000	63.525533 
6017.000000	63.324332 
6016.000000	63.126182 
6015.000000	62.954258 
6014.000000	62.826943 
6013.000000	62.756252 
6012.000000	62.744498 
6011.000000	62.785172 
6010.000000	62.861585 
6009.000000	62.951111 
6008.000000	63.029813 
6007.000000	63.078951 
6006.000000	63.089036 
6005.000000	63.063049 
6004.000000	63.015460 
6003.000000	62.968754 
6002.000000	62.946963 
6001.000000	62.969326 
6000.000000	63.043928 
5999.000000	63.166260 
5998.000000	63.321900 
5997.000000	63.488888 
5996.000000	63.644504 
5995.000000	63.769507 
5994.000000	63.853335 
5993.000000	63.894343 
5992.000000	63.897585 
5991.000000	63.873887 
5990.000000	63.835811 
5989.000000	63.795137 
5988.000000	63.760352 
5987.000000	63.736367 
5986.000000	63.724899 
5985.000000	63.726329 
5984.000000	63.741397 
5983.000000	63.770937 
5982.000000	63.816046 
5981.000000	63.877272 
5980.000000	63.953542 
5979.000000	64.041686 
5978.000000	64.135575 
5977.000000	64.226841 
5976.000000	64.305162 
5975.000000	64.360475 
5974.000000	64.383792 
5973.000000	64.369583 
5972.000000	64.316105 
5971.000000	64.227175 
5970.000000	64.110612 
5969.000000	63.978266 
5968.000000	63.842034 
5967.000000	63.712882 
5966.000000	63.597846 
5965.000000	63.499474 
5964.000000	63.416552 
5963.000000	63.346242 
5962.000000	63.285088 
5961.000000	63.230299 
5960.000000	63.181138 
5959.000000	63.139128 
5958.000000	63.106417 
5957.000000	63.084244 
5956.000000	63.072156 
5955.000000	63.067293 
5954.000000	63.065266 
5953.000000	63.061213 
5952.000000	63.051319 
5951.000000	63.034057 
5950.000000	63.011050 
5949.000000	62.986373 
5948.000000	62.965154 
5947.000000	62.952089 
5946.000000	62.949514 
5945.000000	62.957501 
5944.000000	62.972879 
5943.000000	62.991380 
5942.000000	63.009643 
5941.000000	63.025331 
5940.000000	63.038134 
5939.000000	63.048219 
5938.000000	63.056969 
5937.000000	63.063097 
5936.000000	63.062119 
5935.000000	63.046813 
5934.000000	63.008785 
5933.000000	62.941503 
5932.000000	62.842679 
5931.000000	62.717604 
5930.000000	62.579250 
5929.000000	62.447023 
5928.000000	62.342882 
5927.000000	62.286162 
5926.000000	62.289094 
5925.000000	62.352848 
5924.000000	62.467813 
5923.000000	62.615108 
5922.000000	62.772512 
5921.000000	62.918901 
5920.000000	63.040781 
5919.000000	63.134264 
5918.000000	63.205671 
5917.000000	63.267445 
5916.000000	63.333940 
5915.000000	63.416147 
5914.000000	63.517451 
5913.000000	63.632774 
5912.000000	63.748908 
5911.000000	63.850188 
5910.000000	63.921070 
5909.000000	63.952326 
5908.000000	63.941621 
5907.000000	63.895225 
5906.000000	63.824462 
5905.000000	63.743185 
5904.000000	63.663053 
5903.000000	63.591289 
5902.000000	63.530588 
5901.000000	63.480114 
5900.000000	63.437986 
5899.000000	63.403582 
5898.000000	63.379120 
5897.000000	63.370227 
5896.000000	63.383984 
5895.000000	63.427209 
5894.000000	63.503479 
5893.000000	63.611793 
5892.000000	63.744735 
5891.000000	63.890433 
5890.000000	64.035415 
5889.000000	64.166688 
5888.000000	64.273858 
5887.000000	64.350771 
5886.000000	64.397025 
5885.000000	64.415836 
5884.000000	64.413571 
5883.000000	64.395642 
5882.000000	64.366173 
5881.000000	64.325094 
5880.000000	64.270424 
5879.000000	64.197635 
5878.000000	64.103078 
5877.000000	63.984608 
5876.000000	63.844156 
5875.000000	63.688015 
5874.000000	63.526678 
5873.000000	63.374018 
5872.000000	63.244819 
5871.000000	63.152146 
5870.000000	63.104414 
5869.000000	63.103914 
5868.000000	63.145208 
5867.000000	63.215065 
5866.000000	63.295102 
5865.000000	63.363480 
5864.000000	63.401532 
5863.000000	63.396453 
5862.000000	63.346648 
5861.000000	63.260006 
5860.000000	63.154649 
5859.000000	63.054513 
5858.000000	62.983584 
5857.000000	62.959933 
5856.000000	62.990975 
5855.000000	63.072395 
5854.000000	63.188219 
5853.000000	63.315558 
5852.000000	63.429808 
5851.000000	63.510537 
5850.000000	63.547015 
5849.000000	63.540148 
5848.000000	63.501930 
5847.000000	63.451552 
5846.000000	63.410496 
5845.000000	63.396453 
5844.000000	63.419485 
5843.000000	63.479161 
5842.000000	63.566660 
5841.000000	63.666319 
5840.000000	63.760447 
5839.000000	63.832783 
5838.000000	63.872718 
5837.000000	63.876461 
5836.000000	63.846349 
5835.000000	63.789868 
5834.000000	63.716530 
5833.000000	63.636374 
5832.000000	63.556838 
5831.000000	63.483715 
5830.000000	63.421440 
5829.000000	63.373708 
5828.000000	63.344907 
5827.000000	63.339161 
5826.000000	63.360333 
5825.000000	63.409304 
5824.000000	63.482975 
5823.000000	63.572478 
5822.000000	63.663482 
5821.000000	63.740158 
5820.000000	63.788104 
5819.000000	63.797497 
5818.000000	63.765239 
5817.000000	63.695144 
5816.000000	63.597059 
5815.000000	63.484716 
5814.000000	63.372659 
5813.000000	63.272094 
5812.000000	63.190555 
5811.000000	63.131427 
5810.000000	63.096022 
5809.000000	63.084745 
5808.000000	63.099002 
5807.000000	63.140988 
5806.000000	63.213324 
5805.000000	63.317394 
5804.000000	63.450860 
5803.000000	63.605952 
5802.000000	63.768625 
5801.000000	63.920545 
5800.000000	64.040207 
5799.000000	64.108133 
5798.000000	64.108490 
5797.000000	64.033126 
5796.000000	63.883423 
5795.000000	63.671255 
5794.000000	63.418650 
5793.000000	63.155412 
5792.000000	62.915635 
5791.000000	62.732696 
5790.000000	62.634968 
5789.000000	62.640571 
5788.000000	62.753772 
5787.000000	62.963438 
5786.000000	63.244915 
5785.000000	63.563823 
5784.000000	63.880705 
5783.000000	64.158868 
5782.000000	64.369416 
5781.000000	64.496374 
5780.000000	64.537787 
5779.000000	64.503884 
5778.000000	64.413380 
5777.000000	64.287686 
5776.000000	64.147520 
5775.000000	64.007711 
5774.000000	63.877749 
5773.000000	63.760924 
5772.000000	63.658499 
5771.000000	63.570594 
5770.000000	63.499593 
5769.000000	63.448762 
5768.000000	63.421821 
5767.000000	63.421106 
5766.000000	63.445544 
5765.000000	63.488745 
5764.000000	63.539409 
5763.000000	63.582706 
5762.000000	63.603591 
5761.000000	63.590788 
5760.000000	63.539457 
5759.000000	63.451910 
5758.000000	63.337469 
5757.000000	63.210058 
5756.000000	63.085341 
5755.000000	62.977004 
5754.000000	62.894535 
5753.000000	62.841415 
5752.000000	62.816548 
5751.000000	62.816238 
5750.000000	62.835907 
5749.000000	62.871599 
5748.000000	62.920212 
5747.000000	62.979197 
5746.000000	63.045430 
5745.000000	63.114118 
5744.000000	63.177728 
5743.000000	63.225913 
5742.000000	63.248467 
5741.000000	63.237714 
5740.000000	63.190698 
5739.000000	63.110733 
5738.000000	63.007688 
5737.000000	62.896537 
5736.000000	62.793755 
5735.000000	62.714147 
5734.000000	62.667274 
5733.000000	62.656259 
5732.000000	62.677931 
5731.000000	62.724852 
5730.000000	62.786889 
5729.000000	62.855172 
5728.000000	62.923502 
5727.000000	62.990260 
5726.000000	63.056325 
5725.000000	63.125395 
5724.000000	63.200426 
5723.000000	63.283753 
5722.000000	63.375091 
5721.000000	63.471817 
5720.000000	63.569307 
5719.000000	63.662099 
5718.000000	63.746047 
5717.000000	63.817596 
5716.000000	63.874697 
5715.000000	63.916707 
5714.000000	63.944458 
5713.000000	63.959407 
5712.000000	63.963270 
5711.000000	63.957667 
5710.000000	63.943576 
5709.000000	63.921475 
5708.000000	63.890790 
5707.000000	63.850283 
5706.000000	63.797903 
5705.000000	63.731551 
5704.000000	63.649845 
5703.000000	63.553190 
5702.000000	63.444542 
5701.000000	63.329315 
5700.000000	63.215255 
5699.000000	63.110518 
5698.000000	63.023138 
5697.000000	62.958765 
5696.000000	62.921380 
5695.000000	62.910413 
5694.000000	62.924933 
5693.000000	62.963223 
5692.000000	63.024878 
5691.000000	63.109898 
5690.000000	63.218045 
5689.000000	63.346934 
5688.000000	63.490271 
5687.000000	63.637065 
5686.000000	63.771820 
5685.000000	63.876724 
5684.000000	63.935613 
5683.000000	63.937306 
5682.000000	63.879132 
5681.000000	63.767933 
5680.000000	63.619303 
5679.000000	63.454365 
5678.000000	63.295888 
5677.000000	63.163065 
5676.000000	63.068485 
5675.000000	63.015866 
5674.000000	63.000750 
5673.000000	63.012909 
5672.000000	63.039946 
5671.000000	63.070988 
5670.000000	63.098287 
5669.000000	63.119673 
5668.000000	63.136219 
5667.000000	63.153100 
5666.000000	63.174939 
5665.000000	63.206982 
5664.000000	63.252186 
5663.000000	63.312578 
5662.000000	63.388729 
5661.000000	63.480353 
5660.000000	63.586068 
5659.000000	63.702487 
5658.000000	63.823723 
5657.000000	63.940072 
5656.000000	64.038681 
5655.000000	64.105153 
5654.000000	64.126515 
5653.000000	64.094114 
5652.000000	64.006495 
5651.000000	63.871765 
5650.000000	63.705921 
5649.000000	63.531374 
5648.000000	63.371229 
5647.000000	63.244462 
5646.000000	63.162159 
5645.000000	63.125681 
5644.000000	63.127827 
5643.000000	63.155317 
5642.000000	63.194012 
5641.000000	63.232326 
5640.000000	63.264989 
5639.000000	63.292741 
5638.000000	63.321399 
5637.000000	63.357472 
5636.000000	63.405752 
5635.000000	63.465809 
5634.000000	63.532114 
5633.000000	63.594794 
5632.000000	63.642835 
5631.000000	63.667011 
5630.000000	63.663005 
5629.000000	63.632369 
5628.000000	63.581705 
5627.000000	63.520526 
5626.000000	63.458561 
5625.000000	63.403105 
5624.000000	63.357377 
5623.000000	63.320207 
5622.000000	63.288593 
5621.000000	63.258409 
5620.000000	63.226056 
5619.000000	63.189744 
5618.000000	63.150501 
5617.000000	63.111639 
5616.000000	63.076043 
5615.000000	63.047599 
5614.000000	63.028693 
5613.000000	63.021922 
5612.000000	63.029146 
5611.000000	63.052272 
5610.000000	63.092350 
5609.000000	63.149881 
5608.000000	63.224172 
5607.000000	63.311696 
5606.000000	63.405728 
5605.000000	63.498020 
5604.000000	63.580465 
5603.000000	63.646602 
5602.000000	63.693475 
5601.000000	63.723659 
5600.000000	63.744854 
5599.000000	63.767862 
5598.000000	63.804101 
5597.000000	63.863444 
5596.000000	63.950896 
5595.000000	64.065909 
5594.000000	64.201593 
5593.000000	64.346885 
5592.000000	64.488101 
5591.000000	64.613509 
5590.000000	64.713382 
5589.000000	64.782357 
5588.000000	64.818000 
5587.000000	64.821982 
5586.000000	64.796209 
5585.000000	64.742875 
5584.000000	64.662671 
5583.000000	64.556932 
5582.000000	64.426231 
5581.000000	64.272642 
5580.000000	64.100217 
5579.000000	63.916277 
5578.000000	63.730263 
5577.000000	63.552856 
5576.000000	63.393592 
5575.000000	63.259363 
5574.000000	63.152480 
5573.000000	63.070988 
5572.000000	63.008451 
5571.000000	62.957143 
5570.000000	62.909960 
5569.000000	62.863874 
5568.000000	62.818527 
5567.000000	62.778615 
5566.000000	62.750911 
5565.000000	62.743711 
5564.000000	62.761878 
5563.000000	62.807655 
5562.000000	62.878608 
5561.000000	62.969493 
5560.000000	63.072061 
5559.000000	63.178777 
5558.000000	63.284397 
5557.000000	63.386392 
5556.000000	63.484477 
5555.000000	63.579416 
5554.000000	63.671398 
5553.000000	63.759279 
5552.000000	63.840317 
5551.000000	63.911247 
5550.000000	63.969206 
5549.000000	64.014267 
5548.000000	64.049220 
5547.000000	64.078378 
5546.000000	64.105558 
5545.000000	64.133548 
5544.000000	64.162111 
5543.000000	64.186215 
5542.000000	64.197444 
5541.000000	64.187836 
5540.000000	64.151692 
5539.000000	64.088582 
5538.000000	64.003419 
5537.000000	63.907647 
5536.000000	63.814520 
5535.000000	63.735961 
5534.000000	63.679146 
5533.000000	63.644671 
5532.000000	63.626956 
5531.000000	63.616561 
5530.000000	63.602972 
5529.000000	63.578104 
5528.000000	63.538193 
5527.000000	63.484621 
5526.000000	63.422083 
5525.000000	63.356256 
5524.000000	63.293242 
5523.000000	63.238072 
5522.000000	63.194441 
5521.000000	63.164687 
5520.000000	63.151550 
5519.000000	63.158130 
5518.000000	63.187956 
5517.000000	63.243961 
5516.000000	63.326454 
5515.000000	63.432955 
5514.000000	63.555932 
5513.000000	63.685679 
5512.000000	63.811683 
5511.000000	63.925457 
5510.000000	64.022397 
5509.000000	64.101791 
5508.000000	64.166879 
5507.000000	64.222002 
5506.000000	64.271020 
5505.000000	64.314460 
5504.000000	64.349770 
5503.000000	64.370870 
5502.000000	64.371085 
5501.000000	64.344525 
5500.000000	64.289093 
5499.000000	64.207625 
5498.000000	64.108300 
5497.000000	64.003682 
5496.000000	63.908696 
5495.000000	63.837814 
5494.000000	63.802242 
5493.000000	63.808107 
5492.000000	63.854598 
5491.000000	63.935041 
5490.000000	64.037227 
5489.000000	64.145016 
5488.000000	64.241051 
5487.000000	64.309334 
5486.000000	64.338254 
5485.000000	64.321970 
5484.000000	64.261698 
5483.000000	64.165234 
5482.000000	64.044642 
5481.000000	63.914752 
5480.000000	63.788294 
5479.000000	63.674712 
5478.000000	63.576960 
5477.000000	63.493061 
5476.000000	63.416504 
5475.000000	63.339614 
5474.000000	63.256525 
5473.000000	63.165473 
5472.000000	63.070130 
5471.000000	62.978982 
5470.000000	62.903022 
5469.000000	62.852907 
5468.000000	62.835717 
5467.000000	62.853217 
5466.000000	62.901449 
5465.000000	62.972593 
5464.000000	63.056921 
5463.000000	63.145971 
5462.000000	63.234877 
5461.000000	63.322901 
5460.000000	63.412046 
5459.000000	63.504886 
5458.000000	63.602185 
5457.000000	63.701176 
5456.000000	63.794183 
5455.000000	63.871240 
5454.000000	63.922715 
5453.000000	63.942480 
5452.000000	63.931322 
5451.000000	63.896465 
5450.000000	63.850808 
5449.000000	63.809537 
5448.000000	63.787078 
5447.000000	63.792896 
5446.000000	63.828969 
5445.000000	63.890290 
5444.000000	63.966584 
5443.000000	64.044547 
5442.000000	64.110922 
5441.000000	64.155554 
5440.000000	64.172887 
5439.000000	64.161682 
5438.000000	64.124059 
5437.000000	64.063620 
5436.000000	63.984036 
5435.000000	63.888931 
5434.000000	63.781690 
5433.000000	63.665938 
5432.000000	63.546228 
5431.000000	63.429379 
5430.000000	63.323473 
5429.000000	63.236212 
5428.000000	63.174390 
5427.000000	63.142061 
5426.000000	63.139843 
5425.000000	63.163518 
5424.000000	63.206243 
5423.000000	63.258576 
5422.000000	63.312005 
5421.000000	63.359951 
5420.000000	63.399648 
5419.000000	63.431668 
5418.000000	63.459801 
5417.000000	63.489031 
5416.000000	63.522815 
5415.000000	63.561034 
5414.000000	63.599300 
5413.000000	63.629364 
5412.000000	63.641023 
5411.000000	63.624477 
5410.000000	63.573431 
5409.000000	63.487029 
5408.000000	63.370847 
5407.000000	63.235998 
5406.000000	63.097286 
5405.000000	62.970352 
5404.000000	62.867712 
5403.000000	62.797641 
5402.000000	62.762284 
5401.000000	62.759637 
5400.000000	62.783193 
5399.000000	62.826681 
5398.000000	62.884211 
5397.000000	62.954187 
5396.000000	63.037419 
5395.000000	63.137698 
5394.000000	63.257956 
5393.000000	63.398981 
5392.000000	63.556742 
5391.000000	63.721776 
5390.000000	63.880109 
5389.000000	64.015865 
5388.000000	64.114665 
5387.000000	64.166545 
5386.000000	64.168429 
5385.000000	64.125275 
5384.000000	64.048981 
5383.000000	63.955903 
5382.000000	63.863158 
5381.000000	63.785862 
5380.000000	63.733792 
5379.000000	63.711071 
5378.000000	63.715457 
5377.000000	63.741040 
5376.000000	63.779187 
5375.000000	63.821887 
5374.000000	63.862204 
5373.000000	63.894414 
5372.000000	63.915395 
5371.000000	63.923239 
5370.000000	63.918423 
5369.000000	63.902711 
5368.000000	63.879251 
5367.000000	63.852214 
5366.000000	63.825607 
5365.000000	63.803291 
5364.000000	63.786578 
5363.000000	63.774418 
5362.000000	63.762807 
5361.000000	63.746047 
5360.000000	63.717675 
5359.000000	63.672327 
5358.000000	63.607692 
5357.000000	63.525319 
5356.000000	63.430643 
5355.000000	63.331723 
5354.000000	63.236904 
5353.000000	63.153433 
5352.000000	63.085389 
5351.000000	63.034462 
5350.000000	63.000178 
5349.000000	62.981295 
5348.000000	62.976980 
5347.000000	62.986826 
5346.000000	63.010978 
5345.000000	63.048887 
5344.000000	63.097667 
5343.000000	63.152503 
5342.000000	63.206529 
5341.000000	63.252091 
5340.000000	63.281583 
5339.000000	63.290572 
5338.000000	63.279080 
5337.000000	63.251447 
5336.000000	63.215184 
5335.000000	63.180255 
5334.000000	63.157176 
5333.000000	63.154935 
5332.000000	63.179230 
5331.000000	63.232231 
5330.000000	63.311457 
5329.000000	63.412165 
5328.000000	63.526177 
5327.000000	63.642430 
5326.000000	63.747453 
5325.000000	63.827729 
5324.000000	63.871312 
5323.000000	63.869166 
5322.000000	63.818335 
5321.000000	63.724303 
5320.000000	63.599491 
5319.000000	63.461852 
5318.000000	63.329815 
5317.000000	63.221836 
5316.000000	63.147163 
5315.000000	63.105511 
5314.000000	63.084292 
5313.000000	63.063144 
5312.000000	63.017773 
5311.000000	62.927222 
5310.000000	62.779593 
5309.000000	62.576079 
5308.000000	62.333297 
5307.000000	62.080526 
5306.000000	61.853313 
5305.000000	61.686062 
5304.000000	61.605286 
5303.000000	61.624288 
5302.000000	61.739993 
5301.000000	61.934924 
5300.000000	62.180209 
5299.000000	62.443709 
5298.000000	62.694954 
5297.000000	62.913680 
5296.000000	63.089585 
5295.000000	63.226342 
5294.000000	63.334989 
5293.000000	63.432812 
5292.000000	63.538026 
5291.000000	63.663148 
5290.000000	63.813328 
5289.000000	63.981890 
5288.000000	64.155173 
5287.000000	64.312028 
5286.000000	64.431667 
5285.000000	64.495444 
5284.000000	64.492940 
5283.000000	64.422321 
5282.000000	64.291429 
5281.000000	64.115500 
5280.000000	63.914537 
5279.000000	63.708400 
5278.000000	63.514494 
5277.000000	63.347029 
5276.000000	63.217449 
5275.000000	63.134956 
5274.000000	63.107275 
5273.000000	63.141608 
5272.000000	63.241720 
5271.000000	63.406062 
5270.000000	63.623499 
5269.000000	63.874006 
5268.000000	64.126610 
5267.000000	64.342427 
5266.000000	64.481329 
5265.000000	64.509367 
5264.000000	64.407134 
5263.000000	64.176058 
5262.000000	63.838505 
5261.000000	63.435864 
5260.000000	63.017702 
5259.000000	62.634372 
5258.000000	62.321066 
5257.000000	62.092304 
5256.000000	61.938285 
5255.000000	61.831402 
5254.000000	61.733412 
5253.000000	61.608314 
5252.000000	61.434888 
5251.000000	61.213278 
5250.000000	60.962605 
5249.000000	60.714864 
5248.000000	60.503530 
5247.000000	60.353493 
5246.000000	60.269880 
5245.000000	60.239124 
5244.000000	60.230731 
5243.000000	60.211658 
5242.000000	60.156083 
5241.000000	60.058426 
5240.000000	59.934091 
5239.000000	59.819388 
5238.000000	59.759020 
5237.000000	59.794783 
5236.000000	59.947466 
5235.000000	60.214233 
5234.000000	60.565018 
5233.000000	60.953903 
5232.000000	61.328577 
5231.000000	61.649799 
5230.000000	61.900019 
5229.000000	62.090587 
5228.000000	62.256383 
5227.000000	62.444138 
5226.000000	62.695574 
5225.000000	63.034415 
5224.000000	63.455820 
5223.000000	63.926362 
5222.000000	64.389610 
5221.000000	64.783930 
5220.000000	65.054917 
5219.000000	65.170288 
5218.000000	65.125012 
5217.000000	64.945077 
5216.000000	64.676308 
5215.000000	64.372444 
5214.000000	64.080882 
5213.000000	63.836789 
5212.000000	63.653373 
5211.000000	63.526344 
5210.000000	63.435912 
5209.000000	63.360333 
5208.000000	63.279652 
5207.000000	63.184165 
5206.000000	63.074207 
5205.000000	62.957620 
5204.000000	62.846302 
5203.000000	62.749576 
5202.000000	62.670159 
5201.000000	62.601161 
5200.000000	62.530231 
5199.000000	62.443876 
5198.000000	62.330293 
5197.000000	62.184906 
5196.000000	62.013888 
5195.000000	61.835050 
5194.000000	61.671519 
5193.000000	61.549520 
5192.000000	61.492252 
5191.000000	61.516165 
5190.000000	61.624145 
5189.000000	61.808204 
5188.000000	62.051844 
5187.000000	62.333297 
5186.000000	62.628054 
5185.000000	62.914180 
5184.000000	63.173556 
5183.000000	63.394761 
5182.000000	63.572812 
5181.000000	63.707232 
5180.000000	63.799381 
5179.000000	63.851976 
5178.000000	63.869786 
5177.000000	63.856863 
5176.000000	63.817644 
5175.000000	63.756990 
5174.000000	63.682007 
5173.000000	63.599920 
5172.000000	63.518404 
5171.000000	63.444924 
5170.000000	63.385629 
5169.000000	63.343930 
5168.000000	63.319230 
5167.000000	63.307547 
5166.000000	63.301157 
5165.000000	63.290238 
5164.000000	63.264060 
5163.000000	63.213491 
5162.000000	63.132929 
5161.000000	63.020181 
5160.000000	62.879323 
5159.000000	62.718605 
5158.000000	62.551999 
5157.000000	62.395930 
5156.000000	62.268066 
5155.000000	62.182617 
5154.000000	62.149596 
5153.000000	62.172722 
5152.000000	62.248444 
5151.000000	62.365484 
5150.000000	62.508320 
5149.000000	62.659764 
5148.000000	62.803578 
5147.000000	62.926316 
5146.000000	63.018941 
5145.000000	63.076806 
5144.000000	63.099241 
5143.000000	63.088750 
5142.000000	63.049697 
5141.000000	62.987804 
5140.000000	62.910676 
5139.000000	62.827301 
5138.000000	62.748003 
5137.000000	62.683224 
5136.000000	62.643408 
5135.000000	62.636423 
5134.000000	62.665700 
5133.000000	62.729740 
5132.000000	62.821221 
5131.000000	62.929606 
5130.000000	63.042616 
5129.000000	63.149428 
5128.000000	63.242483 
5127.000000	63.317966 
5126.000000	63.375043 
5125.000000	63.415098 
5124.000000	63.440489 
5123.000000	63.453149 
5122.000000	63.454031 
5121.000000	63.443684 
5120.000000	63.422918 
5119.000000	63.393282 
5118.000000	63.357615 
5117.000000	63.319540 
5116.000000	63.283181 
5115.000000	63.252758 
5114.000000	63.231706 
5113.000000	63.221836 
5112.000000	63.222932 
5111.000000	63.232660 
5110.000000	63.247084 
5109.000000	63.261723 
5108.000000	63.271975 
5107.000000	63.273763 
5106.000000	63.264489 
5105.000000	63.242650 
5104.000000	63.209390 
5103.000000	63.167905 
5102.000000	63.123607 
5101.000000	63.082575 
5100.000000	63.050985 
5099.000000	63.034152 
5098.000000	63.035154 
5097.000000	63.053870 
5096.000000	63.087630 
5095.000000	63.132095 
5094.000000	63.181567 
5093.000000	63.230323 
5092.000000	63.272929 
5091.000000	63.305115 
5090.000000	63.324260 
5089.000000	63.329887 
5088.000000	63.323879 
5087.000000	63.310122 
5086.000000	63.294601 
5085.000000	63.283777 
5084.000000	63.283514 
5083.000000	63.296484 
5082.000000	63.322448 
5081.000000	63.356494 
5080.000000	63.390374 
5079.000000	63.413429 
5078.000000	63.415479 
5077.000000	63.389253 
5076.000000	63.332200 
5075.000000	63.247871 
5074.000000	63.145685 
5073.000000	63.039135 
5072.000000	62.942528 
5071.000000	62.868595 
5070.000000	62.825465 
5069.000000	62.815999 
5068.000000	62.837481 
5067.000000	62.883090 
5066.000000	62.943911 
5065.000000	63.011193 
5064.000000	63.078331 
5063.000000	63.141155 
5062.000000	63.198018 
5061.000000	63.249206 
5060.000000	63.295722 
5059.000000	63.338065 
5058.000000	63.375139 
5057.000000	63.404321 
5056.000000	63.421797 
5055.000000	63.424468 
5054.000000	63.410949 
5053.000000	63.382530 
5052.000000	63.343930 
5051.000000	63.302779 
5050.000000	63.268017 
5049.000000	63.248181 
5048.000000	63.249063 
5047.000000	63.272690 
5046.000000	63.316154 
5045.000000	63.372659 
5044.000000	63.432383 
5043.000000	63.484930 
5042.000000	63.520932 
5041.000000	63.533949 
5040.000000	63.521623 
5039.000000	63.485598 
5038.000000	63.430881 
5037.000000	63.364481 
5036.000000	63.294219 
5035.000000	63.227391 
5034.000000	63.170123 
5033.000000	63.126993 
5032.000000	63.100886 
5031.000000	63.093352 
5030.000000	63.104534 
5029.000000	63.133335 
5028.000000	63.177418 
5027.000000	63.233518 
5026.000000	63.297247 
5025.000000	63.363885 
5024.000000	63.428139 
5023.000000	63.484930 
5022.000000	63.530349 
5021.000000	63.561272 
5020.000000	63.576054 
5019.000000	63.574123 
5018.000000	63.556194 
5017.000000	63.523793 
5016.000000	63.479590 
5015.000000	63.426613 
5014.000000	63.368153 
5013.000000	63.307881 
5012.000000	63.249874 
5011.000000	63.198471 
5010.000000	63.158297 
5009.000000	63.133430 
5008.000000	63.127231 
5007.000000	63.142108 
5006.000000	63.179063 
5005.000000	63.237285 
5004.000000	63.314104 
5003.000000	63.405489 
5002.000000	63.505649 
5001.000000	63.608050 
5000.000000	63.704824 
4999.000000	63.787722 
4998.000000	63.848161 
4997.000000	63.879156 
4996.000000	63.875937 
4995.000000	63.837170 
4994.000000	63.766098 
4993.000000	63.670539 
4992.000000	63.562560 
4991.000000	63.457179 
4990.000000	63.369560 
4989.000000	63.312482 
4988.000000	63.293933 
4987.000000	63.316059 
4986.000000	63.374114 
4985.000000	63.457870 
4984.000000	63.553214 
4983.000000	63.644790 
4982.000000	63.718771 
4981.000000	63.764929 
4980.000000	63.777613 
4979.000000	63.756465 
4978.000000	63.705205 
4977.000000	63.631129 
4976.000000	63.543748 
4975.000000	63.453626 
4974.000000	63.371157 
4973.000000	63.305354 
4972.000000	63.264393 
4971.000000	63.253188 
4970.000000	63.273310 
4969.000000	63.321590 
4968.000000	63.390946 
4967.000000	63.470339 
4966.000000	63.545966 
4965.000000	63.604354 
4964.000000	63.634133 
4963.000000	63.629460 
4962.000000	63.590478 
4961.000000	63.524150 
4960.000000	63.442277 
4959.000000	63.359427 
4958.000000	63.289928 
4957.000000	63.244175 
4956.000000	63.226771 
4955.000000	63.235950 
4954.000000	63.264727 
4953.000000	63.303065 
4952.000000	63.340210 
4951.000000	63.367295 
4950.000000	63.378596 
4949.000000	63.371872 
4948.000000	63.348245 
4947.000000	63.310313 
4946.000000	63.261628 
4945.000000	63.205409 
4944.000000	63.144564 
4943.000000	63.082337 
4942.000000	63.021945 
4941.000000	62.967061 
4940.000000	62.921166 
4939.000000	62.887454 
4938.000000	62.867999 
4937.000000	62.863063 
4936.000000	62.871122 
4935.000000	62.888216 
4934.000000	62.909960 
4933.000000	62.932062 
4932.000000	62.951683 
4931.000000	62.967729 
4930.000000	62.980747 
4929.000000	62.992310 
4928.000000	63.004374 
4927.000000	63.018536 
4926.000000	63.035082 
4925.000000	63.053131 
4924.000000	63.071489 
4923.000000	63.089084 
4922.000000	63.105225 
4921.000000	63.120055 
4920.000000	63.134551 
4919.000000	63.149809 
4918.000000	63.167071 
4917.000000	63.186311 
4916.000000	63.206624 
4915.000000	63.225317 
4914.000000	63.238859 
4913.000000	63.243317 
4912.000000	63.235664 
4911.000000	63.214588 
4910.000000	63.180994 
4909.000000	63.138484 
4908.000000	63.092589 
4907.000000	63.050365 
4906.000000	63.018918 
4905.000000	63.004207 
4904.000000	63.009691 
4903.000000	63.035631 
4902.000000	63.079190 
4901.000000	63.134741 
4900.000000	63.195228 
4899.000000	63.253974 
4898.000000	63.305687 
4897.000000	63.347268 
4896.000000	63.377761 
4895.000000	63.397884 
4894.000000	63.409018 
4893.000000	63.412547 
4892.000000	63.408827 
4891.000000	63.397860 
4890.000000	63.378834 
4889.000000	63.351774 
4888.000000	63.316893 
4887.000000	63.276290 
4886.000000	63.232374 
4885.000000	63.188219 
4884.000000	63.146042 
4883.000000	63.106703 
4882.000000	63.069725 
4881.000000	63.033556 
4880.000000	62.997126 
4879.000000	62.960600 
4878.000000	62.926173 
4877.000000	62.897777 
4876.000000	62.879610 
4875.000000	62.874817 
4874.000000	62.883830 
4873.000000	62.904047 
4872.000000	62.930655 
4871.000000	62.957906 
4870.000000	62.980794 
4869.000000	62.996363 
4868.000000	63.004755 
4867.000000	63.008427 
4866.000000	63.011169 
4865.000000	63.016080 
4864.000000	63.024210 
4863.000000	63.034129 
4862.000000	63.042140 
4861.000000	63.043665 
4860.000000	63.035106 
4859.000000	63.015270 
4858.000000	62.986755 
4857.000000	62.954950 
4856.000000	62.926363 
4855.000000	62.907242 
4854.000000	62.901520 
4853.000000	62.910223 
4852.000000	62.931132 
4851.000000	62.959909 
4850.000000	62.991452 
4849.000000	63.020467 
4848.000000	63.042569 
4847.000000	63.054561 
4846.000000	63.054990 
4845.000000	63.043880 
4844.000000	63.022828 
4843.000000	62.994718 
4842.000000	62.963271 
4841.000000	62.933015 
4840.000000	62.908339 
4839.000000	62.893080 
4838.000000	62.889981 
4837.000000	62.900257 
4836.000000	62.923526 
4835.000000	62.957453 
4834.000000	62.998700 
4833.000000	63.043332 
4832.000000	63.087606 
4831.000000	63.128662 
4830.000000	63.164710 
4829.000000	63.194465 
4828.000000	63.217687 
4827.000000	63.234448 
4826.000000	63.245272 
4825.000000	63.251090 
4824.000000	63.253068 
4823.000000	63.252711 
4822.000000	63.251090 
4821.000000	63.248968 
4820.000000	63.246059 
4819.000000	63.241410 
4818.000000	63.233685 
4817.000000	63.221621 
4816.000000	63.204503 
4815.000000	63.182711 
4814.000000	63.157653 
4813.000000	63.131666 
4812.000000	63.107490 
4811.000000	63.087940 
4810.000000	63.074636 
4809.000000	63.068699 
4808.000000	63.069868 
4807.000000	63.077712 
4806.000000	63.091588 
4805.000000	63.111305 
4804.000000	63.137125 
4803.000000	63.169264 
4802.000000	63.207793 
4801.000000	63.251471 
4800.000000	63.297200 
4799.000000	63.340234 
4798.000000	63.374948 
4797.000000	63.395619 
4796.000000	63.397932 
4795.000000	63.380026 
4794.000000	63.343334 
4793.000000	63.292670 
4792.000000	63.235425 
4791.000000	63.180208 
4790.000000	63.135170 
4789.000000	63.106608 
4788.000000	63.097548 
4787.000000	63.107490 
4786.000000	63.132858 
4785.000000	63.167762 
4784.000000	63.205742 
4783.000000	63.241004 
4782.000000	63.269758 
4781.000000	63.290095 
4780.000000	63.302063 
4779.000000	63.306689 
4778.000000	63.305592 
4777.000000	63.299965 
4776.000000	63.290524 
4775.000000	63.277435 
4774.000000	63.260841 
4773.000000	63.241338 
4772.000000	63.220095 
4771.000000	63.199257 
4770.000000	63.181042 
4769.000000	63.167548 
4768.000000	63.160157 
4767.000000	63.159203 
4766.000000	63.163852 
4765.000000	63.172292 
4764.000000	63.182544 
4763.000000	63.192558 
4762.000000	63.200950 
4761.000000	63.206696 
4760.000000	63.208913 
4759.000000	63.206696 
4758.000000	63.198518 
4757.000000	63.183283 
4756.000000	63.160467 
4755.000000	63.130974 
4754.000000	63.097000 
4753.000000	63.062548 
4752.000000	63.033080 
4751.000000	63.014054 
4750.000000	63.009786 
4749.000000	63.021969 
4748.000000	63.049364 
4747.000000	63.087630 
4746.000000	63.130259 
4745.000000	63.170027 
4744.000000	63.200283 
4743.000000	63.217139 
4742.000000	63.220047 
4741.000000	63.211655 
4740.000000	63.196897 
4739.000000	63.181829 
4738.000000	63.171815 
4737.000000	63.170194 
4736.000000	63.177132 
4735.000000	63.190221 
4734.000000	63.204264 
4733.000000	63.212513 
4732.000000	63.207769 
4731.000000	63.184404 
4730.000000	63.139462 
4729.000000	63.072943 
4728.000000	62.988495 
4727.000000	62.892889 
4726.000000	62.795042 
4725.000000	62.704133 
4724.000000	62.628746 
4723.000000	62.575197 
4722.000000	62.547230 
4721.000000	62.545657 
4720.000000	62.568974 
4719.000000	62.613129 
4718.000000	62.673521 
4717.000000	62.745308 
4716.000000	62.823796 
4715.000000	62.904286 
4714.000000	62.982726 
4713.000000	63.055586 
4712.000000	63.119602 
4711.000000	63.172006 
4710.000000	63.211393 
4709.000000	63.238143 
4708.000000	63.254737 
4707.000000	63.265442 
4706.000000	63.275790 
4705.000000	63.291573 
4704.000000	63.317823 
4703.000000	63.357615 
4702.000000	63.411760 
4701.000000	63.477754 
4700.000000	63.551211 
4699.000000	63.625407 
4698.000000	63.693356 
4697.000000	63.747668 
4696.000000	63.782835 
4695.000000	63.794469 
4694.000000	63.780331 
4693.000000	63.740134 
4692.000000	63.676190 
4691.000000	63.592529 
4690.000000	63.494753 
4689.000000	63.389492 
4688.000000	63.284111 
4687.000000	63.185548 
4686.000000	63.099789 
4685.000000	63.030719 
4684.000000	62.980127 
4683.000000	62.948083 
4682.000000	62.933540 
4681.000000	62.933993 
4680.000000	62.946605 
4679.000000	62.968850 
4678.000000	62.998676 
4677.000000	63.033509 
4676.000000	63.070559 
4675.000000	63.106369 
4674.000000	63.137054 
4673.000000	63.158106 
4672.000000	63.165664 
4671.000000	63.157105 
4670.000000	63.132190 
4669.000000	63.093304 
4668.000000	63.045501 
4667.000000	62.995982 
4666.000000	62.952613 
4665.000000	62.922573 
4664.000000	62.910914 
4663.000000	62.919378 
4662.000000	62.946152 
4661.000000	62.986707 
4660.000000	63.033819 
4659.000000	63.079166 
4658.000000	63.115119 
4657.000000	63.135981 
4656.000000	63.138103 
4655.000000	63.120365 
4654.000000	63.084173 
4653.000000	63.033056 
4652.000000	62.971806 
4651.000000	62.905740 
4650.000000	62.840056 
4649.000000	62.779235 
4648.000000	62.726831 
4647.000000	62.685179 
4646.000000	62.655067 
4645.000000	62.636446 
4644.000000	62.628149 
4643.000000	62.629055 
4642.000000	62.637281 
4641.000000	62.651705 
4640.000000	62.671256 
4639.000000	62.695574 
4638.000000	62.724232 
4637.000000	62.756991 
4636.000000	62.793302 
4635.000000	62.832522 
4634.000000	62.873792 
4633.000000	62.916302 
4632.000000	62.959361 
4631.000000	63.002419 
4630.000000	63.044691 
4629.000000	63.084673 
4628.000000	63.119840 
4627.000000	63.146758 
4626.000000	63.161444 
4625.000000	63.160443 
4624.000000	63.141560 
4623.000000	63.105392 
4622.000000	63.055229 
4621.000000	62.997102 
4620.000000	62.938451 
4619.000000	62.887477 
4618.000000	62.850666 
4617.000000	62.831783 
4616.000000	62.831234 
4615.000000	62.846302 
4614.000000	62.871789 
4613.000000	62.901425 
4612.000000	62.929201 
4611.000000	62.950754 
4610.000000	62.963747 
4609.000000	62.967896 
4608.000000	62.964272 
4607.000000	62.954306 
4606.000000	62.939691 
4605.000000	62.921881 
4604.000000	62.902164 
4603.000000	62.881684 
4602.000000	62.862253 
4601.000000	62.846255 
4600.000000	62.836289 
4599.000000	62.834620 
4598.000000	62.842464 
4597.000000	62.859368 
4596.000000	62.882781 
4595.000000	62.908744 
4594.000000	62.932419 
4593.000000	62.949824 
4592.000000	62.958407 
4591.000000	62.958073 
4590.000000	62.951278 
4589.000000	62.942242 
4588.000000	62.935996 
4587.000000	62.936472 
4586.000000	62.945246 
4585.000000	62.961077 
4584.000000	62.980484 
4583.000000	62.997937 
4582.000000	63.007521 
4581.000000	63.004302 
4580.000000	62.985944 
4579.000000	62.953114 
4578.000000	62.909317 
4577.000000	62.860155 
4576.000000	62.812042 
4575.000000	62.771153 
4574.000000	62.742114 
4573.000000	62.727499 
4572.000000	62.727427 
4571.000000	62.740135 
4570.000000	62.762045 
4569.000000	62.788534 
4568.000000	62.814474 
4567.000000	62.834525 
4566.000000	62.844276 
4565.000000	62.840008 
4564.000000	62.820482 
4563.000000	62.786865 
4562.000000	62.743568 
4561.000000	62.697172 
4560.000000	62.656092 
4559.000000	62.628817 
4558.000000	62.622070 
4557.000000	62.639403 
4556.000000	62.680077 
4555.000000	62.738895 
4554.000000	62.807250 
4553.000000	62.874865 
4552.000000	62.931752 
4551.000000	62.970185 
4550.000000	62.985992 
4549.000000	62.978982 
4548.000000	62.952542 
4547.000000	62.912440 
4546.000000	62.865352 
4545.000000	62.817049 
4544.000000	62.771892 
4543.000000	62.732076 
4542.000000	62.698340 
4541.000000	62.670159 
4540.000000	62.646985 
4539.000000	62.628126 
4538.000000	62.613439 
4537.000000	62.603020 
4536.000000	62.596440 
4535.000000	62.593173 
4534.000000	62.591767 
4533.000000	62.591218 
4532.000000	62.590551 
4531.000000	62.590169 
4530.000000	62.591695 
4529.000000	62.597680 
4528.000000	62.610530 
4527.000000	62.631916 
4526.000000	62.661623 
4525.000000	62.697553 
4524.000000	62.735629 
4523.000000	62.770438 
4522.000000	62.796163 
4521.000000	62.807846 
4520.000000	62.802243 
4519.000000	62.778496 
4518.000000	62.738299 
4517.000000	62.685537 
4516.000000	62.625885 
4515.000000	62.565994 
4514.000000	62.512731 
4513.000000	62.471699 
4512.000000	62.447094 
4511.000000	62.441134 
4510.000000	62.454652 
4509.000000	62.486696 
4508.000000	62.535285 
4507.000000	62.597179 
4506.000000	62.668466 
4505.000000	62.744832 
4504.000000	62.821435 
4503.000000	62.893009 
4502.000000	62.954020 
4501.000000	62.999057 
4500.000000	63.023400 
4499.000000	63.023900 
4498.000000	62.999773 
4497.000000	62.953186 
4496.000000	62.889552 
4495.000000	62.816977 
4494.000000	62.745189 
4493.000000	62.683987 
4492.000000	62.641978 
4491.000000	62.624859 
4490.000000	62.635016 
4489.000000	62.670516 
4488.000000	62.726140 
4487.000000	62.793707 
4486.000000	62.863135 
4485.000000	62.923908 
4484.000000	62.966752 
4483.000000	62.984824 
4482.000000	62.974429 
4481.000000	62.935996 
4480.000000	62.873840 
4479.000000	62.795424 
4478.000000	62.709903 
4477.000000	62.626624 
4476.000000	62.553858 
4475.000000	62.497615 
4474.000000	62.461543 
4473.000000	62.446236 
4472.000000	62.449526 
4471.000000	62.467908 
4470.000000	62.497591 
4469.000000	62.534785 
4468.000000	62.576413 
4467.000000	62.621164 
4466.000000	62.669014 
4465.000000	62.720513 
4464.000000	62.776136 
4463.000000	62.835073 
4462.000000	62.895059 
4461.000000	62.952756 
4460.000000	63.004112 
4459.000000	63.045120 
4458.000000	63.073182 
4457.000000	63.088250 
4456.000000	63.092732 
4455.000000	63.091874 
4454.000000	63.091683 
4453.000000	63.098263 
4452.000000	63.114881 
4451.000000	63.141560 
4450.000000	63.173842 
4449.000000	63.204312 
4448.000000	63.223910 
4447.000000	63.224816 
4446.000000	63.201832 
4445.000000	63.154244 
4444.000000	63.084387 
4443.000000	62.997055 
4442.000000	62.899374 
4441.000000	62.799906 
4440.000000	62.704825 
4439.000000	62.617850 
4438.000000	62.545800 
4437.000000	62.496352 
4436.000000	62.472558 
4435.000000	62.474465 
4434.000000	62.498855 
4433.000000	62.540245 
4432.000000	62.594389 
4431.000000	62.657070 
4430.000000	62.716794 
4429.000000	62.763619 
4428.000000	62.798070 
4427.000000	62.822508 
4426.000000	62.832546 
4425.000000	62.825965 
4424.000000	62.808537 
4423.000000	62.783718 
4422.000000	62.751460 
4421.000000	62.708568 
4420.000000	62.647581 
4419.000000	62.567210 
4418.000000	62.477540 
4417.000000	62.394881 
4416.000000	62.342023 
4415.000000	62.357854 
4414.000000	62.493085 
4413.000000	62.810730 
4412.000000	63.366913 
4411.000000	64.205789 
4410.000000	65.325856 
4409.000000	66.670250 
4408.000000	68.107891 
4407.000000	69.463634 
4406.000000	70.519995 
4405.000000	71.079587 
4404.000000	70.968723 
4403.000000	70.104455 
4402.000000	68.470692 
4401.000000	66.129231 
4400.000000	63.208222 
4399.000000	59.876608 
4398.000000	56.358313 
4397.000000	52.902269 
4396.000000	49.794578 
4395.000000	47.319459 
4394.000000	45.748662 
4393.000000	45.294141 
4392.000000	46.064615 
4391.000000	48.025822 
4390.000000	50.985217 
4389.000000	54.606771 
4388.000000	58.450508 
4387.000000	62.048196 
4386.000000	64.995455 
4385.000000	67.025446 
4384.000000	68.054676 
4383.000000	68.180441 
4382.000000	67.639040 
4381.000000	66.731309 
4380.000000	65.753746 
4379.000000	64.921617 
4378.000000	64.360713 
4377.000000	64.073157 
4376.000000	64.008140 
4375.000000	64.055228 
4374.000000	64.115381 
4373.000000	64.108300 
4372.000000	63.997149 
4371.000000	63.790655 
4370.000000	63.520359 
4369.000000	63.240408 
4368.000000	63.000965 
4367.000000	62.837743 
4366.000000	62.754964 
4365.000000	62.740731 
4364.000000	62.775611 
4363.000000	62.832832 
4362.000000	62.888121 
4361.000000	62.923979 
4360.000000	62.933206 
4359.000000	62.920975 
4358.000000	62.902116 
4357.000000	62.886834 
4356.000000	62.879323 
4355.000000	62.887287 
4354.000000	62.914681 
4353.000000	62.951874 
4352.000000	62.983655 
4351.000000	62.997865 
4350.000000	62.987136 
4349.000000	62.953972 
4348.000000	62.907624 
4347.000000	62.857890 
4346.000000	62.815380 
4345.000000	62.789058 
4344.000000	62.783241 
4343.000000	62.796449 
4342.000000	62.822103 
4341.000000	62.851357 
4340.000000	62.874507 
4339.000000	62.884116 
4338.000000	62.875843 
4337.000000	62.849354 
4336.000000	62.807011 
4335.000000	62.752413 
4334.000000	62.689876 
4333.000000	62.623143 
4332.000000	62.555027 
4331.000000	62.487459 
4330.000000	62.421655 
4329.000000	62.359189 
4328.000000	62.302517 
4327.000000	62.255883 
4326.000000	62.224173 
4325.000000	62.212800 
4324.000000	62.225413 
4323.000000	62.263488 
4322.000000	62.325167 
4321.000000	62.404990 
4320.000000	62.493991 
4319.000000	62.581086 
4318.000000	62.654685 
4317.000000	62.704825 
4316.000000	62.724995 
4315.000000	62.713146 
4314.000000	62.672209 
4313.000000	62.608695 
4312.000000	62.531161 
4311.000000	62.448287 
4310.000000	62.367391 
4309.000000	62.292766 
4308.000000	62.225723 
4307.000000	62.164950 
4306.000000	62.108159 
4305.000000	62.053036 
4304.000000	61.999297 
4303.000000	61.948561 
4302.000000	61.905646 
4301.000000	61.876535 
4300.000000	61.867952 
4299.000000	61.885309 
4298.000000	61.931490 
4297.000000	62.005519 
4296.000000	62.102222 
4295.000000	62.213087 
4294.000000	62.327051 
4293.000000	62.432360 
4292.000000	62.518143 
4291.000000	62.576222 
4290.000000	62.601995 
4289.000000	62.595224 
4288.000000	62.559676 
4287.000000	62.502312 
4286.000000	62.432003 
4285.000000	62.358307 
4284.000000	62.290048 
4283.000000	62.234592 
4282.000000	62.196493 
4281.000000	62.177705 
4280.000000	62.177729 
4279.000000	62.194347 
4278.000000	62.223672 
4277.000000	62.261271 
4276.000000	62.302494 
4275.000000	62.343740 
4274.000000	62.382316 
4273.000000	62.416982 
4272.000000	62.447333 
4271.000000	62.473559 
4270.000000	62.496352 
4269.000000	62.515974 
4268.000000	62.532258 
4267.000000	62.544059 
4266.000000	62.550401 
4265.000000	62.550163 
4264.000000	62.542819 
4263.000000	62.528634 
4262.000000	62.509274 
4261.000000	62.487292 
4260.000000	62.465620 
4259.000000	62.447547 
4258.000000	62.435865 
4257.000000	62.432718 
4256.000000	62.439131 
4255.000000	62.454915 
4254.000000	62.478685 
4253.000000	62.508201 
4252.000000	62.540650 
4251.000000	62.572503 
4250.000000	62.599635 
4249.000000	62.618112 
4248.000000	62.624168 
4247.000000	62.614870 
4246.000000	62.588286 
4245.000000	62.544250 
4244.000000	62.484169 
4243.000000	62.411499 
4242.000000	62.330985 
4241.000000	62.248277 
4240.000000	62.169218 
4239.000000	62.099385 
4238.000000	62.043070 
4237.000000	62.002849 
4236.000000	61.979365 
4235.000000	61.971402 
4234.000000	61.976313 
4233.000000	61.990237 
4232.000000	62.009143 
4231.000000	62.029147 
4230.000000	62.047696 
4229.000000	62.063241 
4228.000000	62.075781 
4227.000000	62.086224 
4226.000000	62.096476 
4225.000000	62.108683 
4224.000000	62.124347 
4223.000000	62.143898 
4222.000000	62.166762 
4221.000000	62.191438 
4220.000000	62.216019 
4219.000000	62.238240 
4218.000000	62.256574 
4217.000000	62.269806 
4216.000000	62.277531 
4215.000000	62.279558 
4214.000000	62.276029 
4213.000000	62.267088 
4212.000000	62.252807 
4211.000000	62.233233 
4210.000000	62.208914 
4209.000000	62.180566 
4208.000000	62.149357 
4207.000000	62.117075 
4206.000000	62.085962 
4205.000000	62.058615 
4204.000000	62.037634 
4203.000000	62.025666 
4202.000000	62.024831 
4201.000000	62.037110 
4200.000000	62.063765 
4199.000000	62.105059 
4198.000000	62.159729 
4197.000000	62.224984 
4196.000000	62.296485 
4195.000000	62.368535 
4194.000000	62.434673 
4193.000000	62.489008 
4192.000000	62.526750 
4191.000000	62.545657 
4190.000000	62.545442 
4189.000000	62.528443 
4188.000000	62.497854 
4187.000000	62.457871 
4186.000000	62.411904 
4185.000000	62.362623 
4184.000000	62.311363 
4183.000000	62.259006 
4182.000000	62.206315 
4181.000000	62.154674 
4180.000000	62.106466 
4179.000000	62.065029 
4178.000000	62.033772 
4177.000000	62.015056 
4176.000000	62.009382 
4175.000000	62.014698 
4174.000000	62.027192 
4173.000000	62.041759 
4172.000000	62.053370 
4171.000000	62.058162 
4170.000000	62.054300 
4169.000000	62.042355 
4168.000000	62.024641 
4167.000000	62.004780 
4166.000000	61.986851 
4165.000000	61.974453 
4164.000000	61.969733 
4163.000000	61.972570 
4162.000000	61.981034 
4161.000000	61.991810 
4160.000000	62.000894 
4159.000000	62.005209 
4158.000000	62.003159 
4157.000000	61.995911 
4156.000000	61.986923 
4155.000000	61.981272 
4154.000000	61.984181 
4153.000000	61.999392 
4152.000000	62.028360 
4151.000000	62.068700 
4150.000000	62.114620 
4149.000000	62.157988 
4148.000000	62.190270 
4147.000000	62.204551 
4146.000000	62.197232 
4145.000000	62.168931 
4144.000000	62.124204 
4143.000000	62.070012 
4142.000000	62.013888 
4141.000000	61.962270 
4140.000000	61.919522 
4139.000000	61.887645 
4138.000000	61.866974 
4137.000000	61.857199 
4136.000000	61.858034 
4135.000000	61.869239 
4134.000000	61.890888 
4133.000000	61.922335 
4132.000000	61.962342 
4131.000000	62.008500 
4130.000000	62.057614 
4129.000000	62.105822 
4128.000000	62.149238 
4127.000000	62.184715 
4126.000000	62.210154 
4125.000000	62.224864 
4124.000000	62.229204 
4123.000000	62.224364 
4122.000000	62.211418 
4121.000000	62.191319 
4120.000000	62.164187 
4119.000000	62.129998 
4118.000000	62.088775 
4117.000000	62.041521 
4116.000000	61.990857 
4115.000000	61.941361 
4114.000000	61.899089 
4113.000000	61.870670 
4112.000000	61.861538 
4111.000000	61.874794 
4110.000000	61.910176 
4109.000000	61.963558 
4108.000000	62.027311 
4107.000000	62.091779 
4106.000000	62.147092 
4105.000000	62.185430 
4104.000000	62.202501 
4103.000000	62.198424 
4102.000000	62.177395 
4101.000000	62.146258 
4100.000000	62.112784 
4099.000000	62.083339 
4098.000000	62.061953 
4097.000000	62.048792 
4096.000000	62.041306 
4095.000000	62.034487 
4094.000000	62.023162 
4093.000000	62.003135 
4092.000000	61.972618 
4091.000000	61.932730 
4090.000000	61.887431 
4089.000000	61.842751 
4088.000000	61.805486 
4087.000000	61.781883 
4086.000000	61.776232 
4085.000000	61.789917 
4084.000000	61.821293 
4083.000000	61.865925 
4082.000000	61.917328 
4081.000000	61.968207 
4080.000000	62.012004 
4079.000000	62.043642 
4078.000000	62.060952 
4077.000000	62.064814 
4076.000000	62.059020 
4075.000000	62.049031 
4074.000000	62.040615 
4073.000000	62.038707 
4072.000000	62.045907 
4071.000000	62.062335 
4070.000000	62.085199 
4069.000000	62.110114 
4068.000000	62.131905 
4067.000000	62.146258 
4066.000000	62.150239 
4065.000000	62.143039 
4064.000000	62.125682 
4063.000000	62.100625 
4062.000000	62.071037 
4061.000000	62.039875 
4060.000000	62.009692 
4059.000000	61.981916 
4058.000000	61.957287 
4057.000000	61.935591 
4056.000000	61.916518 
4055.000000	61.899471 
4054.000000	61.883854 
4053.000000	61.869120 
4052.000000	61.854553 
4051.000000	61.840081 
4050.000000	61.825942 
4049.000000	61.813426 
4048.000000	61.803913 
4047.000000	61.799263 
4046.000000	61.801290 
4045.000000	61.810922 
4044.000000	61.827874 
4043.000000	61.850118 
4042.000000	61.874175 
4041.000000	61.895608 
4040.000000	61.909914 
4039.000000	61.913394 
4038.000000	61.904168 
4037.000000	61.882615 
4036.000000	61.851406 
4035.000000	61.815214 
4034.000000	61.779594 
4033.000000	61.750125 
4032.000000	61.731100 
4031.000000	61.724805 
4030.000000	61.731052 
4029.000000	61.747694 
4028.000000	61.771059 
4027.000000	61.796760 
4026.000000	61.820554 
4025.000000	61.839199 
4024.000000	61.850595 
4023.000000	61.853790 
4022.000000	61.849021 
4021.000000	61.837100 
4020.000000	61.819529 
4019.000000	61.798000 
4018.000000	61.774396 
4017.000000	61.750769 
4016.000000	61.729001 
4015.000000	61.710834 
4014.000000	61.697602 
4013.000000	61.690092 
4012.000000	61.688423 
4011.000000	61.691975 
4010.000000	61.699676 
4009.000000	61.710190 
4008.000000	61.722278 
4007.000000	61.735010 
4006.000000	61.747884 
4005.000000	61.760592 
4004.000000	61.772894 
4003.000000	61.784410 
4002.000000	61.794352 
4001.000000	61.801743 
4000.000000	61.805915 
3999.000000	61.806488 
3998.000000	61.803817 
3997.000000	61.798739 
3996.000000	61.792731 
3995.000000	61.787247 
3994.000000	61.783194 
3993.000000	61.780595 
3992.000000	61.778807 
3991.000000	61.776685 
3990.000000	61.773014 
3989.000000	61.767125 
3988.000000	61.758947 
3987.000000	61.749839 
3986.000000	61.742115 
3985.000000	61.738538 
3984.000000	61.741566 
3983.000000	61.752748 
3982.000000	61.772084 
3981.000000	61.797904 
3980.000000	61.826992 
3979.000000	61.855268 
3978.000000	61.878228 
3977.000000	61.892342 
3976.000000	61.895108 
3975.000000	61.885523 
3974.000000	61.864137 
3973.000000	61.832690 
3972.000000	61.793613 
3971.000000	61.749505 
3970.000000	61.702775 
3969.000000	61.655259 
3968.000000	61.608719 
3967.000000	61.564803 
3966.000000	61.525821 
3965.000000	61.494660 
3964.000000	61.475062 
3963.000000	61.470699 
3962.000000	61.484527 
3961.000000	61.517691 
3960.000000	61.568760 
3959.000000	61.633300 
3958.000000	61.704373 
3957.000000	61.773490 
3956.000000	61.831855 
3955.000000	61.871862 
3954.000000	61.888289 
3953.000000	61.879110 
3952.000000	61.845874 
3951.000000	61.792898 
3950.000000	61.726284 
3949.000000	61.652731 
3948.000000	61.578941 
3947.000000	61.510396 
3946.000000	61.451172 
3945.000000	61.403560 
3944.000000	61.368703 
3943.000000	61.346435 
3942.000000	61.335635 
3941.000000	61.334705 
3940.000000	61.341309 
3939.000000	61.353325 
3938.000000	61.368608 
3937.000000	61.385560 
3936.000000	61.402869 
3935.000000	61.419439 
3934.000000	61.433911 
3933.000000	61.444783 
3932.000000	61.450338 
3931.000000	61.448860 
3930.000000	61.439085 
3929.000000	61.420750 
3928.000000	61.395001 
3927.000000	61.364722 
3926.000000	61.334633 
3925.000000	61.310076 
3924.000000	61.296463 
3923.000000	61.298155 
3922.000000	61.317324 
3921.000000	61.353540 
3920.000000	61.403131 
3919.000000	61.459827 
3918.000000	61.515426 
3917.000000	61.561942 
3916.000000	61.592483 
3915.000000	61.602354 
3914.000000	61.590003 
3913.000000	61.557364 
3912.000000	61.509394 
3911.000000	61.452603 
3910.000000	61.394405 
3909.000000	61.341786 
3908.000000	61.300086 
3907.000000	61.272644 
3906.000000	61.260294 
3905.000000	61.261725 
3904.000000	61.273860 
3903.000000	61.292815 
3902.000000	61.314153 
3901.000000	61.333870 
3900.000000	61.349201 
3899.000000	61.359047 
3898.000000	61.363768 
3897.000000	61.365103 
3896.000000	61.365771 
3895.000000	61.368823 
3894.000000	61.376905 
3893.000000	61.391592 
3892.000000	61.413073 
3891.000000	61.439847 
3890.000000	61.469316 
3889.000000	61.498403 
3888.000000	61.524319 
3887.000000	61.544919 
3886.000000	61.559391 
3885.000000	61.567974 
3884.000000	61.572217 
3883.000000	61.573886 
3882.000000	61.574721 
3881.000000	61.575555 
3880.000000	61.576366 
3879.000000	61.576104 
3878.000000	61.573314 
3877.000000	61.566019 
3876.000000	61.552476 
3875.000000	61.531472 
3874.000000	61.503076 
3873.000000	61.468195 
3872.000000	61.428809 
3871.000000	61.387658 
3870.000000	61.347842 
3869.000000	61.312794 
3868.000000	61.285495 
3867.000000	61.268043 
3866.000000	61.261177 
3865.000000	61.264348 
3864.000000	61.275601 
3863.000000	61.291480 
3862.000000	61.307835 
3861.000000	61.320567 
3860.000000	61.326456 
3859.000000	61.323189 
3858.000000	61.310315 
3857.000000	61.289215 
3856.000000	61.262726 
3855.000000	61.234283 
3854.000000	61.207652 
3853.000000	61.186194 
3852.000000	61.172604 
3851.000000	61.168384 
3850.000000	61.174178 
3849.000000	61.189627 
3848.000000	61.213874 
3847.000000	61.245441 
3846.000000	61.282157 
3845.000000	61.321091 
3844.000000	61.358857 
3843.000000	61.391592 
3842.000000	61.415290 
3841.000000	61.426329 
3840.000000	61.422657 
3839.000000	61.403632 
3838.000000	61.370587 
3837.000000	61.326122 
3836.000000	61.274671 
3835.000000	61.220645 
3834.000000	61.168146 
3833.000000	61.119699 
3832.000000	61.076402 
3831.000000	61.037850 
3830.000000	61.002659 
3829.000000	60.969257 
3828.000000	60.936379 
3827.000000	60.904192 
3826.000000	60.874128 
3825.000000	60.848951 
3824.000000	60.831689 
3823.000000	60.825109 
3822.000000	60.830664 
3821.000000	60.848259 
3820.000000	60.875797 
3819.000000	60.909819 
3818.000000	60.946154 
3817.000000	60.980558 
3816.000000	61.009931 
3815.000000	61.032795 
3814.000000	61.049747 
3813.000000	61.062526 
3812.000000	61.073780 
3811.000000	61.086320 
3810.000000	61.102104 
3809.000000	61.121964 
3808.000000	61.144876 
3807.000000	61.168599 
3806.000000	61.189508 
3805.000000	61.204290 
3804.000000	61.209654 
3803.000000	61.203360 
3802.000000	61.184668 
3801.000000	61.154627 
3800.000000	61.116003 
3799.000000	61.072683 
3798.000000	61.029505 
3797.000000	60.991382 
3796.000000	60.962724 
3795.000000	60.946702 
3794.000000	60.944581 
3793.000000	60.955595 
3792.000000	60.976672 
3791.000000	61.003112 
3790.000000	61.028981 
3789.000000	61.048412 
3788.000000	61.056590 
3787.000000	61.051034 
3786.000000	61.031556 
3785.000000	61.000633 
3784.000000	60.962939 
3783.000000	60.924410 
3782.000000	60.890817 
3781.000000	60.866546 
3780.000000	60.853934 
3779.000000	60.853075 
3778.000000	60.861897 
3777.000000	60.877037 
3776.000000	60.894918 
3775.000000	60.912346 
3774.000000	60.927152 
3773.000000	60.938334 
3772.000000	60.945844 
3771.000000	60.950064 
3770.000000	60.951209 
3769.000000	60.949563 
3768.000000	60.945105 
3767.000000	60.938143 
3766.000000	60.929274 
3765.000000	60.919570 
3764.000000	60.910487 
3763.000000	60.903477 
3762.000000	60.899853 
3761.000000	60.900092 
3760.000000	60.903835 
3759.000000	60.909867 
3758.000000	60.916543 
3757.000000	60.922408 
3756.000000	60.926628 
3755.000000	60.929322 
3754.000000	60.931158 
3753.000000	60.933303 
3752.000000	60.936522 
3751.000000	60.940957 
3750.000000	60.945463 
3749.000000	60.947990 
3748.000000	60.945725 
3747.000000	60.935997 
3746.000000	60.916948 
3745.000000	60.888266 
3744.000000	60.851192 
3743.000000	60.808539 
3742.000000	60.764431 
3741.000000	60.723471 
3740.000000	60.689854 
3739.000000	60.666561 
3738.000000	60.654926 
3737.000000	60.654664 
3736.000000	60.663819 
3735.000000	60.679531 
3734.000000	60.698556 
3733.000000	60.717940 
3732.000000	60.735368 
3731.000000	60.749483 
3730.000000	60.759425 
3729.000000	60.764908 
3728.000000	60.765862 
3727.000000	60.761904 
3726.000000	60.752725 
3725.000000	60.737848 
3724.000000	60.717225 
3723.000000	60.691285 
3722.000000	60.661411 
3721.000000	60.629606 
3720.000000	60.598516 
3719.000000	60.570788 
3718.000000	60.548520 
3717.000000	60.532927 
3716.000000	60.524010 
3715.000000	60.520601 
3714.000000	60.520672 
3713.000000	60.522150 
3712.000000	60.523223 
3711.000000	60.522627 
3710.000000	60.520029 
3709.000000	60.515952 
3708.000000	60.511684 
3707.000000	60.508346 
3706.000000	60.507011 
3705.000000	60.508155 
3704.000000	60.511612 
3703.000000	60.516858 
3702.000000	60.522866 
3701.000000	60.528826 
3700.000000	60.533928 
3699.000000	60.537958 
3698.000000	60.541033 
3697.000000	60.543346 
3696.000000	60.544872 
3695.000000	60.545492 
3694.000000	60.544562 
3693.000000	60.541129 
3692.000000	60.534238 
3691.000000	60.523390 
3690.000000	60.508894 
3689.000000	60.491943 
3688.000000	60.474848 
3687.000000	60.460638 
3686.000000	60.452651 
3685.000000	60.453701 
3684.000000	60.465431 
3683.000000	60.487794 
3682.000000	60.518956 
3681.000000	60.555505 
3680.000000	60.592770 
3679.000000	60.625672 
3678.000000	60.649728 
3677.000000	60.661602 
3676.000000	60.659623 
3675.000000	60.643744 
3674.000000	60.615682 
3673.000000	60.578131 
3672.000000	60.534524 
3671.000000	60.488057 
3670.000000	60.441827 
3669.000000	60.398101 
3668.000000	60.358691 
3667.000000	60.324716 
3666.000000	60.296726 
3665.000000	60.274648 
3664.000000	60.258030 
3663.000000	60.245919 
3662.000000	60.236930 
3661.000000	60.229992 
3660.000000	60.224509 
3659.000000	60.220479 
3658.000000	60.218739 
3657.000000	60.220789 
3656.000000	60.228633 
3655.000000	60.243940 
3654.000000	60.267996 
3653.000000	60.300898 
3652.000000	60.341548 
3651.000000	60.387873 
3650.000000	60.436654 
3649.000000	60.484313 
3648.000000	60.527038 
3647.000000	60.561752 
3646.000000	60.585713 
3645.000000	60.597372 
3644.000000	60.595822 
3643.000000	60.581541 
3642.000000	60.555601 
3641.000000	60.519909 
3640.000000	60.476684 
3639.000000	60.429024 
3638.000000	60.379672 
3637.000000	60.331058 
3636.000000	60.284972 
3635.000000	60.242676 
3634.000000	60.204720 
3633.000000	60.171413 
3632.000000	60.142779 
3631.000000	60.119152 
3630.000000	60.101151 
3629.000000	60.089921 
3628.000000	60.086488 
3627.000000	60.091733 
3626.000000	60.106229 
3625.000000	60.130000 
3624.000000	60.161662 
3623.000000	60.198879 
3622.000000	60.238552 
3621.000000	60.277175 
3620.000000	60.310959 
3619.000000	60.337018 
3618.000000	60.353636 
3617.000000	60.360693 
3616.000000	60.359430 
3615.000000	60.352301 
3614.000000	60.342502 
3613.000000	60.333108 
3612.000000	60.326647 
3611.000000	60.324311 
3610.000000	60.326004 
3609.000000	60.330462 
3608.000000	60.336017 
3607.000000	60.340666 
3606.000000	60.342717 
3605.000000	60.341286 
3604.000000	60.336184 
3603.000000	60.327577 
3602.000000	60.315489 
3601.000000	60.299706 
3600.000000	60.279440 
3599.000000	60.253930 
3598.000000	60.222601 
3597.000000	60.185623 
3596.000000	60.144209 
3595.000000	60.101079 
3594.000000	60.059666 
3593.000000	60.023617 
3592.000000	59.995937 
3591.000000	59.978485 
3590.000000	59.971332 
3589.000000	59.972429 
3588.000000	59.978652 
3587.000000	59.986400 
3586.000000	59.992718 
3585.000000	59.995794 
3584.000000	59.995865 
3583.000000	59.994530 
3582.000000	59.994697 
3581.000000	59.999370 
3580.000000	60.010528 
3579.000000	60.028290 
3578.000000	60.050749 
3577.000000	60.074138 
3576.000000	60.093593 
3575.000000	60.104179 
3574.000000	60.101842 
3573.000000	60.084462 
3572.000000	60.052323 
3571.000000	60.008120 
3570.000000	59.956455 
3569.000000	59.902596 
3568.000000	59.851932 
3567.000000	59.808754 
3566.000000	59.776043 
3565.000000	59.755039 
3564.000000	59.745216 
3563.000000	59.744954 
3562.000000	59.752011 
3561.000000	59.764385 
3560.000000	59.780216 
3559.000000	59.798598 
3558.000000	59.819030 
3557.000000	59.841799 
3556.000000	59.867310 
3555.000000	59.895730 
3554.000000	59.926605 
3553.000000	59.958362 
3552.000000	59.988307 
3551.000000	60.012769 
3550.000000	60.027551 
3549.000000	60.028600 
3548.000000	60.012698 
3547.000000	59.978246 
3546.000000	59.925794 
3545.000000	59.858274 
3544.000000	59.780979 
3543.000000	59.700822 
3542.000000	59.625554 
3541.000000	59.562635 
3540.000000	59.518146 
3539.000000	59.495973 
3538.000000	59.497237 
3537.000000	59.519886 
3536.000000	59.559226 
3535.000000	59.608530 
3534.000000	59.660339 
3533.000000	59.707069 
3532.000000	59.742975 
3531.000000	59.764289 
3530.000000	59.770250 
3529.000000	59.762787 
3528.000000	59.746003 
3527.000000	59.725093 
3526.000000	59.704899 
3525.000000	59.688615 
3524.000000	59.677243 
3523.000000	59.669280 
3522.000000	59.661602 
3521.000000	59.650540 
3520.000000	59.633064 
3519.000000	59.607815 
3518.000000	59.575915 
3517.000000	59.540796 
3516.000000	59.507155 
3515.000000	59.480190 
3514.000000	59.463858 
3513.000000	59.460330 
3512.000000	59.469223 
3511.000000	59.488034 
3510.000000	59.512329 
3509.000000	59.537267 
3508.000000	59.558606 
3507.000000	59.573960 
3506.000000	59.582734 
3505.000000	59.586596 
3504.000000	59.588241 
3503.000000	59.590697 
3502.000000	59.596467 
3501.000000	59.606432 
3500.000000	59.619712 
3499.000000	59.633708 
3498.000000	59.644746 
3497.000000	59.648942 
3496.000000	59.643101 
3495.000000	59.625220 
3494.000000	59.595155 
3493.000000	59.554386 
3492.000000	59.506177 
3491.000000	59.454774 
3490.000000	59.404945 
3489.000000	59.361267 
3488.000000	59.327459 
3487.000000	59.305930 
3486.000000	59.297275 
3485.000000	59.300470 
3484.000000	59.313011 
3483.000000	59.331154 
3482.000000	59.351038 
3481.000000	59.368801 
3480.000000	59.381890 
3479.000000	59.389209 
3478.000000	59.391570 
3477.000000	59.390830 
3476.000000	59.389615 
3475.000000	59.390592 
3474.000000	59.395503 
3473.000000	59.404778 
3472.000000	59.417343 
3471.000000	59.430694 
3470.000000	59.441971 
3469.000000	59.448313 
3468.000000	59.447693 
3467.000000	59.439229 
3466.000000	59.423470 
3465.000000	59.401988 
3464.000000	59.377145 
3463.000000	59.351444 
3462.000000	59.327101 
3461.000000	59.305596 
3460.000000	59.287405 
3459.000000	59.272050 
3458.000000	59.258794 
3457.000000	59.246516 
3456.000000	59.233951 
3455.000000	59.220051 
3454.000000	59.204053 
3453.000000	59.185934 
3452.000000	59.166049 
3451.000000	59.145641 
3450.000000	59.125876 
3449.000000	59.108543 
3448.000000	59.095692 
3447.000000	59.089183 
3446.000000	59.090232 
3445.000000	59.099507 
3444.000000	59.116625 
3443.000000	59.140110 
3442.000000	59.167528 
3441.000000	59.195542 
3440.000000	59.220623 
3439.000000	59.239482 
3438.000000	59.249830 
3437.000000	59.250736 
3436.000000	59.243011 
3435.000000	59.229016 
3434.000000	59.212279 
3433.000000	59.197092 
3432.000000	59.187102 
3431.000000	59.185075 
3430.000000	59.191703 
3429.000000	59.205603 
3428.000000	59.223246 
3427.000000	59.239888 
3426.000000	59.250259 
3425.000000	59.249591 
3424.000000	59.234833 
3423.000000	59.205269 
3422.000000	59.162616 
3421.000000	59.110856 
3420.000000	59.055423 
3419.000000	59.002304 
3418.000000	58.956980 
3417.000000	58.923578 
3416.000000	58.904218 
3415.000000	58.899140 
3414.000000	58.906865 
3413.000000	58.924674 
3412.000000	58.949089 
3411.000000	58.976459 
3410.000000	59.003329 
3409.000000	59.026646 
3408.000000	59.043622 
3407.000000	59.052062 
3406.000000	59.050440 
3405.000000	59.038162 
3404.000000	59.015727 
3403.000000	58.984804 
3402.000000	58.948516 
3401.000000	58.910822 
3400.000000	58.876252 
3399.000000	58.848977 
3398.000000	58.832049 
3397.000000	58.826661 
3396.000000	58.832073 
3395.000000	58.845615 
3394.000000	58.863401 
3393.000000	58.881139 
3392.000000	58.894944 
3391.000000	58.902049 
3390.000000	58.901238 
3389.000000	58.892917 
3388.000000	58.878707 
3387.000000	58.860969 
3386.000000	58.842039 
3385.000000	58.824062 
3384.000000	58.808374 
3383.000000	58.795523 
3382.000000	58.784961 
3381.000000	58.775925 
3380.000000	58.767318 
3379.000000	58.758020 
3378.000000	58.747363 
3377.000000	58.734893 
3376.000000	58.720946 
3375.000000	58.706116 
3374.000000	58.691620 
3373.000000	58.678889 
3372.000000	58.669352 
3371.000000	58.664178 
3370.000000	58.663940 
3369.000000	58.668518 
3368.000000	58.677005 
3367.000000	58.687686 
3366.000000	58.698225 
3365.000000	58.706068 
3364.000000	58.708667 
3363.000000	58.704113 
3362.000000	58.691358 
3361.000000	58.670663 
3360.000000	58.644080 
3359.000000	58.615279 
3358.000000	58.588814 
3357.000000	58.569431 
3356.000000	58.561348 
3355.000000	58.567380 
3354.000000	58.588147 
3353.000000	58.621668 
3352.000000	58.663988 
3351.000000	58.709549 
3350.000000	58.752536 
3349.000000	58.787703 
3348.000000	58.811450 
3347.000000	58.822083 
3346.000000	58.820033 
3345.000000	58.807134 
3344.000000	58.786010 
3343.000000	58.759379 
3342.000000	58.729720 
3341.000000	58.698892 
3340.000000	58.668446 
3339.000000	58.639597 
3338.000000	58.613562 
3337.000000	58.591032 
3336.000000	58.572292 
3335.000000	58.556437 
3334.000000	58.541631 
3333.000000	58.525276 
3332.000000	58.504533 
3331.000000	58.477115 
3330.000000	58.441781 
3329.000000	58.399224 
3328.000000	58.352208 
3327.000000	58.304953 
3326.000000	58.262658 
3325.000000	58.229970 
3324.000000	58.210563 
3323.000000	58.205819 
3322.000000	58.215165 
3321.000000	58.236026 
3320.000000	58.264636 
3319.000000	58.296656 
3318.000000	58.328199 
3317.000000	58.356118 
3316.000000	58.378386 
3315.000000	58.393716 
3314.000000	58.401751 
3313.000000	58.402585 
3312.000000	58.396673 
3311.000000	58.384609 
3310.000000	58.366823 
3309.000000	58.343601 
3308.000000	58.315157 
3307.000000	58.281874 
3306.000000	58.244276 
3305.000000	58.203291 
3304.000000	58.160328 
3303.000000	58.117294 
3302.000000	58.076596 
3301.000000	58.041119 
3300.000000	58.013439 
3299.000000	57.996249 
3298.000000	57.991242 
3297.000000	57.999253 
3296.000000	58.019900 
3295.000000	58.051395 
3294.000000	58.090662 
3293.000000	58.133816 
3292.000000	58.176469 
3291.000000	58.214497 
3290.000000	58.244514 
3289.000000	58.264350 
3288.000000	58.273148 
3287.000000	58.271408 
3286.000000	58.260703 
3285.000000	58.243155 
3284.000000	58.221173 
3283.000000	58.196735 
3282.000000	58.171296 
3281.000000	58.145689 
3280.000000	58.120059 
3279.000000	58.093953 
3278.000000	58.066797 
3277.000000	58.037877 
3276.000000	58.007073 
3275.000000	57.974910 
3274.000000	57.942891 
3273.000000	57.913112 
3272.000000	57.888031 
3271.000000	57.869935 
3270.000000	57.860398 
3269.000000	57.859849 
3268.000000	57.867479 
3267.000000	57.881236 
3266.000000	57.898354 
3265.000000	57.915925 
3264.000000	57.931423 
3263.000000	57.943058 
3262.000000	57.950258 
3261.000000	57.953286 
3260.000000	57.953262 
3259.000000	57.951855 
3258.000000	57.950568 
3257.000000	57.950448 
3256.000000	57.951855 
3255.000000	57.954359 
3254.000000	57.956838 
3253.000000	57.957863 
3252.000000	57.955813 
3251.000000	57.949233 
3250.000000	57.937026 
3249.000000	57.918882 
3248.000000	57.895112 
3247.000000	57.866787 
3246.000000	57.835555 
3245.000000	57.803606 
3244.000000	57.773232 
3243.000000	57.746744 
3242.000000	57.726097 
3241.000000	57.712721 
3240.000000	57.707285 
3239.000000	57.709574 
3238.000000	57.718348 
3237.000000	57.731533 
3236.000000	57.746219 
3235.000000	57.759141 
3234.000000	57.767033 
3233.000000	57.767438 
3232.000000	57.758998 
3231.000000	57.742023 
3230.000000	57.718086 
3229.000000	57.690000 
3228.000000	57.660984 
3227.000000	57.634091 
3226.000000	57.611608 
3225.000000	57.594490 
3224.000000	57.582449 
3223.000000	57.574033 
3222.000000	57.567358 
3221.000000	57.560443 
3220.000000	57.552027 
3219.000000	57.541656 
3218.000000	57.529807 
3217.000000	57.517457 
3216.000000	57.505846 
3215.000000	57.496094 
3214.000000	57.488965 
3213.000000	57.484650 
3212.000000	57.482767 
3211.000000	57.482814 
3210.000000	57.483887 
3209.000000	57.485318 
3208.000000	57.486486 
3207.000000	57.486772 
3206.000000	57.486057 
3205.000000	57.484412 
3204.000000	57.482457 
3203.000000	57.480788 
3202.000000	57.480239 
3201.000000	57.481431 
3200.000000	57.484722 
3199.000000	57.489895 
3198.000000	57.496142 
3197.000000	57.502007 
3196.000000	57.505869 
3195.000000	57.506394 
3194.000000	57.502770 
3193.000000	57.495212 
3192.000000	57.485032 
3191.000000	57.474088 
3190.000000	57.464599 
3189.000000	57.458019 
3188.000000	57.455086 
3187.000000	57.455110 
3186.000000	57.456183 
3185.000000	57.455635 
3184.000000	57.450795 
3183.000000	57.439613 
3182.000000	57.421255 
3181.000000	57.396459 
3180.000000	57.367372 
3179.000000	57.336997 
3178.000000	57.308650 
3177.000000	57.285094 
3176.000000	57.267999 
3175.000000	57.257747 
3174.000000	57.253432 
3173.000000	57.253026 
3172.000000	57.254076 
3171.000000	57.253956 
3170.000000	57.250785 
3169.000000	57.243180 
3168.000000	57.230997 
3167.000000	57.215285 
3166.000000	57.198095 
3165.000000	57.182145 
3164.000000	57.170009 
3163.000000	57.164025 
3162.000000	57.165718 
3161.000000	57.175278 
3160.000000	57.191514 
3159.000000	57.212138 
3158.000000	57.234215 
3157.000000	57.254672 
3156.000000	57.270932 
3155.000000	57.281208 
3154.000000	57.284832 
3153.000000	57.282328 
3152.000000	57.274818 
3151.000000	57.263898 
3150.000000	57.250928 
3149.000000	57.237029 
3148.000000	57.222652 
3147.000000	57.207775 
3146.000000	57.191967 
3145.000000	57.174682 
3144.000000	57.155346 
3143.000000	57.133412 
3142.000000	57.108521 
3141.000000	57.080245 
3140.000000	57.048320 
3139.000000	57.012701 
3138.000000	56.973457 
3137.000000	56.931376 
3136.000000	56.887507 
3135.000000	56.843852 
3134.000000	56.802845 
3133.000000	56.767559 
3132.000000	56.741118 
3131.000000	56.726408 
3130.000000	56.725358 
3129.000000	56.738328 
3128.000000	56.763935 
3127.000000	56.798911 
3126.000000	56.838440 
3125.000000	56.876969 
3124.000000	56.909108 
3123.000000	56.930351 
3122.000000	56.937956 
3121.000000	56.930899 
3120.000000	56.910014 
3119.000000	56.877541 
3118.000000	56.836795 
3117.000000	56.791543 
3116.000000	56.745457 
3115.000000	56.702136 
3114.000000	56.664466 
3113.000000	56.634473 
3112.000000	56.613039 
3111.000000	56.600117 
3110.000000	56.594681 
3109.000000	56.594896 
3108.000000	56.598496 
3107.000000	56.603169 
3106.000000	56.607007 
3105.000000	56.608295 
3104.000000	56.606292 
3103.000000	56.600856 
3102.000000	56.592559 
3101.000000	56.582283 
3100.000000	56.571269 
3099.000000	56.560564 
3098.000000	56.551313 
3097.000000	56.544518 
3096.000000	56.540775 
3095.000000	56.540369 
3094.000000	56.543421 
3093.000000	56.549668 
3092.000000	56.558513 
3091.000000	56.568932 
3090.000000	56.579542 
3089.000000	56.588959 
3088.000000	56.595945 
3087.000000	56.599760 
3086.000000	56.600022 
3085.000000	56.597113 
3084.000000	56.591987 
3083.000000	56.585884 
3082.000000	56.580162 
3081.000000	56.575584 
3080.000000	56.572556 
3079.000000	56.570720 
3078.000000	56.569266 
3077.000000	56.566834 
3076.000000	56.562209 
3075.000000	56.554412 
3074.000000	56.542968 
3073.000000	56.527948 
3072.000000	56.509971 
3071.000000	56.489896 
3070.000000	56.468582 
3069.000000	56.446862 
3068.000000	56.425642 
3067.000000	56.405782 
3066.000000	56.388139 
3065.000000	56.373786 
3064.000000	56.363749 
3063.000000	56.358885 
3062.000000	56.359577 
3061.000000	56.365227 
3060.000000	56.374335 
3059.000000	56.384587 
3058.000000	56.393361 
3057.000000	56.397914 
3056.000000	56.396126 
3055.000000	56.387233 
3054.000000	56.371927 
3053.000000	56.352138 
3052.000000	56.330585 
3051.000000	56.310391 
3050.000000	56.294322 
3049.000000	56.284260 
3048.000000	56.280899 
3047.000000	56.283998 
3046.000000	56.292557 
3045.000000	56.305241 
3044.000000	56.320738 
3043.000000	56.337952 
3042.000000	56.356000 
3041.000000	56.374144 
3040.000000	56.391406 
3039.000000	56.406378 
3038.000000	56.417417 
3037.000000	56.422615 
3036.000000	56.419992 
3035.000000	56.407904 
3034.000000	56.385755 
3033.000000	56.353950 
3032.000000	56.314086 
3031.000000	56.268692 
3030.000000	56.220841 
3029.000000	56.173682 
3028.000000	56.130218 
3027.000000	56.092739 
3026.000000	56.062507 
3025.000000	56.039810 
3024.000000	56.024122 
3023.000000	56.014347 
3022.000000	56.008911 
3021.000000	56.006288 
3020.000000	56.004834 
3019.000000	56.003403 
3018.000000	56.000995 
3017.000000	55.997061 
3016.000000	55.991291 
3015.000000	55.983877 
3014.000000	55.975127 
3013.000000	55.966043 
3012.000000	55.957961 
3011.000000	55.952596 
3010.000000	55.951309 
3009.000000	55.955314 
3008.000000	55.964756 
3007.000000	55.978631 
3006.000000	55.994558 
3005.000000	56.009030 
3004.000000	56.017851 
3003.000000	56.017231 
3002.000000	56.004309 
3001.000000	55.978202 
3000.000000	55.940341 
2999.000000	55.894279 
2998.000000	55.845379 
2997.000000	55.799436 
2996.000000	55.761790 
2995.000000	55.736279 
2994.000000	55.724477 
2993.000000	55.725598 
2992.000000	55.736756 
2991.000000	55.753779 
2990.000000	55.772042 
2989.000000	55.787563 
2988.000000	55.797553 
2987.000000	55.800485 
2986.000000	55.796289 
2985.000000	55.785942 
2984.000000	55.770897 
2983.000000	55.752730 
2982.000000	55.732822 
2981.000000	55.712294 
2980.000000	55.691933 
2979.000000	55.672216 
2978.000000	55.653452 
2977.000000	55.635690 
2976.000000	55.618739 
2975.000000	55.602288 
2974.000000	55.585765 
2973.000000	55.568790 
2972.000000	55.550980 
2971.000000	55.532503 
2970.000000	55.513834 
2969.000000	55.495834 
2968.000000	55.479502 
2967.000000	55.465626 
2966.000000	55.454373 
2965.000000	55.445456 
2964.000000	55.437731 
2963.000000	55.429816 
2962.000000	55.420374 
2961.000000	55.408501 
2960.000000	55.394053 
2959.000000	55.377769 
2958.000000	55.361080 
2957.000000	55.345511 
2956.000000	55.332279 
2955.000000	55.321860 
2954.000000	55.313730 
2953.000000	55.306673 
2952.000000	55.298852 
2951.000000	55.288743 
2950.000000	55.275511 
2949.000000	55.259442 
2948.000000	55.241727 
2947.000000	55.224227 
2946.000000	55.208826 
2945.000000	55.196785 
2944.000000	55.188703 
2943.000000	55.184149 
2942.000000	55.181837 
2941.000000	55.180144 
2940.000000	55.177068 
2939.000000	55.170536 
2938.000000	55.158805 
2937.000000	55.140733 
2936.000000	55.116176 
2935.000000	55.086183 
2934.000000	55.053019 
2933.000000	55.019736 
2932.000000	54.989767 
2931.000000	54.966020 
2930.000000	54.950332 
2929.000000	54.943013 
2928.000000	54.942703 
2927.000000	54.946589 
2926.000000	54.951286 
2925.000000	54.953455 
2924.000000	54.950356 
2923.000000	54.940581 
2922.000000	54.924082 
2921.000000	54.902505 
2920.000000	54.878258 
2919.000000	54.854488 
2918.000000	54.834032 
2917.000000	54.819226 
2916.000000	54.811525 
2915.000000	54.811000 
2914.000000	54.816770 
2913.000000	54.826807 
2912.000000	54.838490 
2911.000000	54.848742 
2910.000000	54.854750 
2909.000000	54.854369 
2908.000000	54.846429 
2907.000000	54.831242 
2906.000000	54.810428 
2905.000000	54.786872 
2904.000000	54.764056 
2903.000000	54.745578 
2902.000000	54.734563 
2901.000000	54.732608 
2900.000000	54.739713 
2899.000000	54.754328 
2898.000000	54.773545 
2897.000000	54.793882 
2896.000000	54.811859 
2895.000000	54.824829 
2894.000000	54.831147 
2893.000000	54.830408 
2892.000000	54.823231 
2891.000000	54.810738 
2890.000000	54.794192 
2889.000000	54.774856 
2888.000000	54.753589 
2887.000000	54.731273 
2886.000000	54.708409 
2885.000000	54.685568 
2884.000000	54.663467 
2883.000000	54.643011 
2882.000000	54.625153 
2881.000000	54.610824 
2880.000000	54.600906 
2879.000000	54.595851 
2878.000000	54.595875 
2877.000000	54.600739 
2876.000000	54.609751 
2875.000000	54.621863 
2874.000000	54.635667 
2873.000000	54.649448 
2872.000000	54.661297 
2871.000000	54.669165 
2870.000000	54.671192 
2869.000000	54.665780 
2868.000000	54.652047 
2867.000000	54.629993 
2866.000000	54.600739 
2865.000000	54.566359 
2864.000000	54.529571 
2863.000000	54.493165 
2862.000000	54.459810 
2861.000000	54.431581 
2860.000000	54.409551 
2859.000000	54.393911 
2858.000000	54.383993 
2857.000000	54.378867 
2856.000000	54.377484 
2855.000000	54.379034 
2854.000000	54.382944 
2853.000000	54.388761 
2852.000000	54.396057 
2851.000000	54.403758 
2850.000000	54.410195 
2849.000000	54.413270 
2848.000000	54.410934 
2847.000000	54.401779 
2846.000000	54.385566 
2845.000000	54.363560 
2844.000000	54.338264 
2843.000000	54.312944 
2842.000000	54.290843 
2841.000000	54.274034 
2840.000000	54.263257 
2839.000000	54.257535 
2838.000000	54.254841 
2837.000000	54.252672 
2836.000000	54.248929 
2835.000000	54.242515 
2834.000000	54.233932 
2833.000000	54.224944 
2832.000000	54.217982 
2831.000000	54.215168 
2830.000000	54.218029 
2829.000000	54.226589 
2828.000000	54.240012 
2827.000000	54.256558 
2826.000000	54.274415 
2825.000000	54.292225 
2824.000000	54.309105 
2823.000000	54.324698 
2822.000000	54.338717 
2821.000000	54.350686 
2820.000000	54.359722 
2819.000000	54.364728 
2818.000000	54.364538 
2817.000000	54.358339 
2816.000000	54.346156 
2815.000000	54.328775 
2814.000000	54.308104 
2813.000000	54.286479 
2812.000000	54.266333 
2811.000000	54.249620 
2810.000000	54.237556 
2809.000000	54.230213 
2808.000000	54.226946 
2807.000000	54.226374 
2806.000000	54.226946 
2805.000000	54.226994 
2804.000000	54.225230 
2803.000000	54.220533 
2802.000000	54.211974 
2801.000000	54.198813 
2800.000000	54.180574 
2799.000000	54.157209 
2798.000000	54.128980 
2797.000000	54.096627 
2796.000000	54.061532 
2795.000000	54.025506 
2794.000000	53.990435 
2793.000000	53.958415 
2792.000000	53.931331 
2791.000000	53.910470 
2790.000000	53.896474 
2789.000000	53.889060 
2788.000000	53.887319 
2787.000000	53.889775 
2786.000000	53.894567 
2785.000000	53.899931 
2784.000000	53.904294 
2783.000000	53.906512 
2782.000000	53.905892 
2781.000000	53.902006 
2780.000000	53.894710 
2779.000000	53.883981 
2778.000000	53.869938 
2777.000000	53.852820 
2776.000000	53.832936 
2775.000000	53.810739 
2774.000000	53.786706 
2773.000000	53.761577 
2772.000000	53.736042 
2771.000000	53.710722 
2770.000000	53.686332 
2769.000000	53.663563 
2768.000000	53.643035 
2767.000000	53.625416 
2766.000000	53.611326 
2765.000000	53.601098 
2764.000000	53.595018 
2763.000000	53.592824 
2762.000000	53.593850 
2761.000000	53.597092 
2760.000000	53.601217 
2759.000000	53.604769 
2758.000000	53.606748 
2757.000000	53.606224 
2756.000000	53.602838 
2755.000000	53.596830 
2754.000000	53.588533 
2753.000000	53.578472 
2752.000000	53.567171 
2751.000000	53.554725 
2750.000000	53.541088 
2749.000000	53.526043 
2748.000000	53.509497 
2747.000000	53.491330 
2746.000000	53.471708 
2745.000000	53.451204 
2744.000000	53.430604 
2743.000000	53.410816 
2742.000000	53.392648 
2741.000000	53.376674 
2740.000000	53.363204 
2739.000000	53.352212 
2738.000000	53.343319 
2737.000000	53.335952 
2736.000000	53.329372 
2735.000000	53.322911 
2734.000000	53.315830 
2733.000000	53.307509 
2732.000000	53.297758 
2731.000000	53.286600 
2730.000000	53.274416 
2729.000000	53.261899 
2728.000000	53.249883 
2727.000000	53.239297 
2726.000000	53.230929 
2725.000000	53.224945 
2724.000000	53.221249 
2723.000000	53.219270 
2722.000000	53.218126 
2721.000000	53.216910 
2720.000000	53.214931 
2719.000000	53.211903 
2718.000000	53.207969 
2717.000000	53.203606 
2716.000000	53.199195 
2715.000000	53.194856 
2714.000000	53.190231 
2713.000000	53.184533 
2712.000000	53.176689 
2711.000000	53.165531 
2710.000000	53.150510 
2709.000000	53.131747 
2708.000000	53.110218 
2707.000000	53.087520 
2706.000000	53.065538 
2705.000000	53.045892 
2704.000000	53.029608 
2703.000000	53.016638 
2702.000000	53.005886 
2701.000000	52.995419 
2700.000000	52.982926 
2699.000000	52.966165 
2698.000000	52.943682 
2697.000000	52.914929 
2696.000000	52.880430 
2695.000000	52.841782 
2694.000000	52.801251 
2693.000000	52.761554 
2692.000000	52.725315 
2691.000000	52.694988 
2690.000000	52.672314 
2689.000000	52.658390 
2688.000000	52.653503 
2687.000000	52.657103 
2686.000000	52.667832 
2685.000000	52.683615 
2684.000000	52.701973 
2683.000000	52.719974 
2682.000000	52.734923 
2681.000000	52.744269 
2680.000000	52.746391 
2679.000000	52.740478 
2678.000000	52.726888 
2677.000000	52.706766 
2676.000000	52.682018 
2675.000000	52.654933 
2674.000000	52.627873 
2673.000000	52.602839 
2672.000000	52.581143 
2671.000000	52.563643 
2670.000000	52.550411 
2669.000000	52.540993 
2668.000000	52.534580 
2667.000000	52.530288 
2666.000000	52.527236 
2665.000000	52.524709 
2664.000000	52.522253 
2663.000000	52.519559 
2662.000000	52.516460 
2661.000000	52.512788 
2660.000000	52.508211 
2659.000000	52.502250 
2658.000000	52.494287 
2657.000000	52.483534 
2656.000000	52.469301 
2655.000000	52.451395 
2654.000000	52.429962 
2653.000000	52.405953 
2652.000000	52.380967 
2651.000000	52.357077 
2650.000000	52.336430 
2649.000000	52.320861 
2648.000000	52.311563 
2647.000000	52.308797 
2646.000000	52.311730 
2645.000000	52.318763 
2644.000000	52.327704 
2643.000000	52.336263 
2642.000000	52.342104 
2641.000000	52.343487 
2640.000000	52.339363 
2639.000000	52.329325 
2638.000000	52.313590 
2637.000000	52.292847 
2636.000000	52.268123 
2635.000000	52.240729 
2634.000000	52.212190 
2633.000000	52.184247 
2632.000000	52.158713 
2631.000000	52.137303 
2630.000000	52.121639 
2629.000000	52.112960 
2628.000000	52.111887 
2627.000000	52.118349 
2626.000000	52.131557 
2625.000000	52.150011 
2624.000000	52.171468 
2623.000000	52.193355 
2622.000000	52.213072 
2621.000000	52.228140 
2620.000000	52.236771 
2619.000000	52.238130 
2618.000000	52.232384 
2617.000000	52.220749 
2616.000000	52.205085 
2615.000000	52.187538 
2614.000000	52.169799 
2613.000000	52.153110 
2612.000000	52.137374 
2611.000000	52.121925 
2610.000000	52.105212 
2609.000000	52.085733 
2608.000000	52.062559 
2607.000000	52.035903 
2606.000000	52.007198 
2605.000000	51.978993 
2604.000000	51.954150 
2603.000000	51.935148 
2602.000000	51.923251 
2601.000000	51.918292 
2600.000000	51.918244 
2599.000000	51.920032 
2598.000000	51.920104 
2597.000000	51.915264 
2596.000000	51.903748 
2595.000000	51.885366 
2594.000000	51.861572 
2593.000000	51.835107 
2592.000000	51.809310 
2591.000000	51.787376 
2590.000000	51.771426 
2589.000000	51.762247 
2588.000000	51.759243 
2587.000000	51.760625 
2586.000000	51.763963 
2585.000000	51.766681 
2584.000000	51.766586 
2583.000000	51.762151 
2582.000000	51.752758 
2581.000000	51.738452 
2580.000000	51.719808 
2579.000000	51.698040 
2578.000000	51.674342 
2577.000000	51.650071 
2576.000000	51.626563 
2575.000000	51.605033 
2574.000000	51.586627 
2573.000000	51.572203 
2572.000000	51.562190 
2571.000000	51.556515 
2570.000000	51.554679 
2569.000000	51.555657 
2568.000000	51.558041 
2567.000000	51.560330 
2566.000000	51.561021 
2565.000000	51.558947 
2564.000000	51.553487 
2563.000000	51.544308 
2562.000000	51.531600 
2561.000000	51.515865 
2560.000000	51.497745 
2559.000000	51.478004 
2558.000000	51.457428 
2557.000000	51.436614 
2556.000000	51.416254 
2555.000000	51.397013 
2554.000000	51.379776 
2553.000000	51.365637 
2552.000000	51.355504 
2551.000000	51.350188 
2550.000000	51.349639 
2549.000000	51.353025 
2548.000000	51.358699 
2547.000000	51.364278 
2546.000000	51.367259 
2545.000000	51.365470 
2544.000000	51.357579 
2543.000000	51.343536 
2542.000000	51.324248 
2541.000000	51.301479 
2540.000000	51.277303 
2539.000000	51.253652 
2538.000000	51.232075 
2537.000000	51.213192 
2536.000000	51.197028 
2535.000000	51.182985 
2534.000000	51.170182 
2533.000000	51.157641 
2532.000000	51.144623 
2531.000000	51.130604 
2530.000000	51.115369 
2529.000000	51.099085 
2528.000000	51.082038 
2527.000000	51.064801 
2526.000000	51.047921 
2525.000000	51.032090 
2524.000000	51.018118 
2523.000000	51.006722 
2522.000000	50.998497 
2521.000000	50.993561 
2520.000000	50.991797 
2519.000000	50.992512 
2518.000000	50.994586 
2517.000000	50.996565 
2516.000000	50.996899 
2515.000000	50.994396 
2514.000000	50.988268 
2513.000000	50.978159 
2512.000000	50.964236 
2511.000000	50.946974 
2510.000000	50.926947 
2509.000000	50.904726 
2508.000000	50.880908 
2507.000000	50.856065 
2506.000000	50.830888 
2505.000000	50.806212 
2504.000000	50.783181 
2503.000000	50.762796 
2502.000000	50.746035 
2501.000000	50.733590 
2500.000000	50.725603 
2499.000000	50.721764 
2498.000000	50.721263 
2497.000000	50.722813 
2496.000000	50.724816 
2495.000000	50.725603 
2494.000000	50.723695 
2493.000000	50.717997 
2492.000000	50.708222 
2491.000000	50.694561 
2490.000000	50.678181 
2489.000000	50.660634 
2488.000000	50.643563 
2487.000000	50.628542 
2486.000000	50.616598 
2485.000000	50.608062 
2484.000000	50.602507 
2483.000000	50.599145 
2482.000000	50.596761 
2481.000000	50.594377 
2480.000000	50.591397 
2479.000000	50.587821 
2478.000000	50.584077 
2477.000000	50.580716 
2476.000000	50.577926 
2475.000000	50.575447 
2474.000000	50.572419 
2473.000000	50.567579 
2472.000000	50.559473 
2471.000000	50.546956 
2470.000000	50.529599 
2469.000000	50.507736 
2468.000000	50.482296 
2467.000000	50.454735 
2466.000000	50.426554 
2465.000000	50.399279 
2464.000000	50.374054 
2463.000000	50.351500 
2462.000000	50.331568 
2461.000000	50.313878 
2460.000000	50.297832 
2459.000000	50.282597 
2458.000000	50.267505 
2457.000000	50.251722 
2456.000000	50.234913 
2455.000000	50.216984 
2454.000000	50.198411 
2453.000000	50.179910 
2452.000000	50.162529 
2451.000000	50.147557 
2450.000000	50.136017 
2449.000000	50.128507 
2448.000000	50.125002 
2447.000000	50.124812 
2446.000000	50.126814 
2445.000000	50.129556 
2444.000000	50.131392 
2443.000000	50.130867 
2442.000000	50.126695 
2441.000000	50.117778 
2440.000000	50.103163 
2439.000000	50.082230 
2438.000000	50.054740 
2437.000000	50.021243 
2436.000000	49.983048 
2435.000000	49.942541 
2434.000000	49.902796 
2433.000000	49.867415 
2432.000000	49.839854 
2431.000000	49.822735 
2430.000000	49.817156 
2429.000000	49.822545 
2428.000000	49.836707 
2427.000000	49.856400 
2426.000000	49.877977 
2425.000000	49.898433 
2424.000000	49.915695 
2423.000000	49.929022 
2422.000000	49.938726 
2421.000000	49.945569 
2420.000000	49.950265 
2419.000000	49.952960 
2418.000000	49.952960 
2417.000000	49.948906 
2416.000000	49.939227 
2415.000000	49.922513 
2414.000000	49.898147 
2413.000000	49.866580 
2412.000000	49.829316 
2411.000000	49.788618 
2410.000000	49.747157 
2409.000000	49.707341 
2408.000000	49.671196 
2407.000000	49.640059 
2406.000000	49.614739 
2405.000000	49.595642 
2404.000000	49.582910 
2403.000000	49.576473 
2402.000000	49.576067 
2401.000000	49.580979 
2400.000000	49.590063 
2399.000000	49.601626 
2398.000000	49.613404 
2397.000000	49.622869 
2396.000000	49.627470 
2395.000000	49.625110 
2394.000000	49.614572 
2393.000000	49.595499 
2392.000000	49.568867 
2391.000000	49.536705 
2390.000000	49.501609 
2389.000000	49.466443 
2388.000000	49.433803 
2387.000000	49.405550 
2386.000000	49.382615 
2385.000000	49.365019 
2384.000000	49.352073 
2383.000000	49.342370 
2382.000000	49.334549 
2381.000000	49.327254 
2380.000000	49.319314 
2379.000000	49.310183 
2378.000000	49.299597 
2377.000000	49.287509 
2376.000000	49.273967 
2375.000000	49.258971 
2374.000000	49.242663 
2373.000000	49.225258 
2372.000000	49.207162 
2371.000000	49.188995 
2370.000000	49.171400 
2369.000000	49.155139 
2368.000000	49.140739 
2367.000000	49.128270 
2366.000000	49.117398 
2365.000000	49.107480 
2364.000000	49.097704 
2363.000000	49.087500 
2362.000000	49.076700 
2361.000000	49.065518 
2360.000000	49.054431 
2359.000000	49.044156 
2358.000000	49.035263 
2357.000000	49.027705 
2356.000000	49.020934 
2355.000000	49.013733 
2354.000000	49.004888 
2353.000000	48.993301 
2352.000000	48.978662 
2351.000000	48.961305 
2350.000000	48.942470 
2349.000000	48.923897 
2348.000000	48.907375 
2347.000000	48.894190 
2346.000000	48.884940 
2345.000000	48.879218 
2344.000000	48.875999 
2343.000000	48.873758 
2342.000000	48.870968 
2341.000000	48.866629 
2340.000000	48.860287 
2339.000000	48.852229 
2338.000000	48.843312 
2337.000000	48.834609 
2336.000000	48.827028 
2335.000000	48.821115 
2334.000000	48.816990 
2333.000000	48.814272 
2332.000000	48.812341 
2331.000000	48.810386 
2330.000000	48.807644 
2329.000000	48.803400 
2328.000000	48.797059 
2327.000000	48.788285 
2326.000000	48.776936 
2325.000000	48.762798 
2324.000000	48.746061 
2323.000000	48.726749 
2322.000000	48.705148 
2321.000000	48.681569 
2320.000000	48.656392 
2319.000000	48.630118 
2318.000000	48.603177 
2317.000000	48.576092 
2316.000000	48.549342 
2315.000000	48.523521 
2314.000000	48.499107 
2313.000000	48.476529 
2312.000000	48.456048 
2311.000000	48.437952 
2310.000000	48.422551 
2309.000000	48.409938 
2308.000000	48.400115 
2307.000000	48.393154 
2306.000000	48.389148 
2305.000000	48.388051 
2304.000000	48.389506 
2303.000000	48.393058 
2302.000000	48.398065 
2301.000000	48.403549 
2300.000000	48.408389 
2299.000000	48.411417 
2298.000000	48.411703 
2297.000000	48.408651 
2296.000000	48.402190 
2295.000000	48.392581 
2294.000000	48.380398 
2293.000000	48.366665 
2292.000000	48.352360 
2291.000000	48.338437 
2290.000000	48.325419 
2289.000000	48.313689 
2288.000000	48.302960 
2287.000000	48.292589 
2286.000000	48.281502 
2285.000000	48.268461 
2284.000000	48.252177 
2283.000000	48.231434 
2282.000000	48.205590 
2281.000000	48.174619 
2280.000000	48.139119 
2279.000000	48.100447 
2278.000000	48.060560 
2277.000000	48.021697 
2276.000000	47.986006 
2275.000000	47.955369 
2274.000000	47.931051 
2273.000000	47.913455 
2272.000000	47.902274 
2271.000000	47.896552 
2270.000000	47.894859 
2269.000000	47.895741 
2268.000000	47.897672 
2267.000000	47.899699 
2266.000000	47.900915 
2265.000000	47.901058 
2264.000000	47.900056 
2263.000000	47.898125 
2262.000000	47.895479 
2261.000000	47.892379 
2260.000000	47.888922 
2259.000000	47.885036 
2258.000000	47.880530 
2257.000000	47.874903 
2256.000000	47.867631 
2255.000000	47.858095 
2254.000000	47.845768 
2253.000000	47.830295 
2252.000000	47.811675 
2251.000000	47.790288 
2250.000000	47.766971 
2249.000000	47.742795 
2248.000000	47.719049 
2247.000000	47.697091 
2246.000000	47.678041 
2245.000000	47.662734 
2244.000000	47.651386 
2243.000000	47.643876 
2242.000000	47.639632 
2241.000000	47.637867 
2240.000000	47.637653 
2239.000000	47.637867 
2238.000000	47.637605 
2237.000000	47.635793 
2236.000000	47.631812 
2235.000000	47.624945 
2234.000000	47.614860 
2233.000000	47.601699 
2232.000000	47.585964 
2231.000000	47.568511 
2230.000000	47.550296 
2229.000000	47.532176 
2228.000000	47.514700 
2227.000000	47.497916 
2226.000000	47.481584 
2225.000000	47.465372 
2224.000000	47.448825 
2223.000000	47.431874 
2222.000000	47.414708 
2221.000000	47.398114 
2220.000000	47.382974 
2219.000000	47.370100 
2218.000000	47.359895 
2217.000000	47.352075 
2216.000000	47.345709 
2215.000000	47.339367 
2214.000000	47.331333 
2213.000000	47.320151 
2212.000000	47.305035 
2211.000000	47.286009 
2210.000000	47.263813 
2209.000000	47.239923 
2208.000000	47.215962 
2207.000000	47.193622 
2206.000000	47.174334 
2205.000000	47.158741 
2204.000000	47.146677 
2203.000000	47.137331 
2202.000000	47.129321 
2201.000000	47.120952 
2200.000000	47.110533 
2199.000000	47.096800 
2198.000000	47.079181 
2197.000000	47.058081 
2196.000000	47.034716 
2195.000000	47.010779 
2194.000000	46.988010 
2193.000000	46.968007 
2192.000000	46.951866 
2191.000000	46.939635 
2190.000000	46.930980 
2189.000000	46.924972 
2188.000000	46.920466 
2187.000000	46.916484 
2186.000000	46.912384 
2185.000000	46.907973 
2184.000000	46.903395 
2183.000000	46.898889 
2182.000000	46.894478 
2181.000000	46.889710 
2180.000000	46.883368 
2179.000000	46.873831 
2178.000000	46.859335 
2177.000000	46.838450 
2176.000000	46.810936 
2175.000000	46.778011 
2174.000000	46.742510 
2173.000000	46.708369 
2172.000000	46.680045 
2171.000000	46.661448 
2170.000000	46.655011 
2169.000000	46.661257 
2168.000000	46.678543 
2167.000000	46.703624 
2166.000000	46.732258 
2165.000000	46.760249 
2164.000000	46.784067 
2163.000000	46.801757 
2162.000000	46.812701 
2161.000000	46.817517 
2160.000000	46.817350 
2159.000000	46.813249 
2158.000000	46.805953 
2157.000000	46.795368 
2156.000000	46.781206 
2155.000000	46.762752 
2154.000000	46.739935 
2153.000000	46.712946 
2152.000000	46.682763 
2151.000000	46.650600 
2150.000000	46.617984 
2149.000000	46.586155 
2148.000000	46.555900 
2147.000000	46.527457 
2146.000000	46.500539 
2145.000000	46.474337 
2144.000000	46.447968 
2143.000000	46.420574 
2142.000000	46.391725 
2141.000000	46.361207 
2140.000000	46.329522 
2139.000000	46.297359 
2138.000000	46.265912 
2137.000000	46.236467 
2136.000000	46.210265 
2135.000000	46.188235 
2134.000000	46.170806 
2133.000000	46.157741 
2132.000000	46.148228 
2131.000000	46.140670 
2130.000000	46.133446 
2129.000000	46.125102 
2128.000000	46.114778 
2127.000000	46.102404 
2126.000000	46.088814 
2125.000000	46.075296 
2124.000000	46.063280 
2123.000000	46.053957 
2122.000000	46.047711 
2121.000000	46.044111 
2120.000000	46.041989 
2119.000000	46.039676 
2118.000000	46.035599 
2117.000000	46.028447 
2116.000000	46.017789 
2115.000000	46.004009 
2114.000000	45.988249 
2113.000000	45.972061 
2112.000000	45.956873 
2111.000000	45.943760 
2110.000000	45.933198 
2109.000000	45.925021 
2108.000000	45.918607 
2107.000000	45.913076 
2106.000000	45.907592 
2105.000000	45.901441 
2104.000000	45.894312 
2103.000000	45.886349 
2102.000000	45.877861 
2101.000000	45.869278 
2100.000000	45.860815 
2099.000000	45.852684 
2098.000000	45.845150 
2097.000000	45.838284 
2096.000000	45.832180 
2095.000000	45.826721 
2094.000000	45.821714 
2093.000000	45.816826 
2092.000000	45.811200 
2091.000000	45.803594 
2090.000000	45.792388 
2089.000000	45.775890 
2088.000000	45.752835 
2087.000000	45.722651 
2086.000000	45.685791 
2085.000000	45.644021 
2084.000000	45.600175 
2083.000000	45.557713 
2082.000000	45.520305 
2081.000000	45.490932 
2080.000000	45.471334 
2079.000000	45.461893 
2078.000000	45.461058 
2077.000000	45.465970 
2076.000000	45.472645 
2075.000000	45.477008 
2074.000000	45.475292 
2073.000000	45.464801 
2072.000000	45.444583 
2071.000000	45.415258 
2070.000000	45.379400 
2069.000000	45.340561 
2068.000000	45.303130 
2067.000000	45.271396 
2066.000000	45.249009 
2065.000000	45.238280 
2064.000000	45.239830 
2063.000000	45.252537 
2062.000000	45.273709 
2061.000000	45.299506 
2060.000000	45.325732 
2059.000000	45.348310 
2058.000000	45.363879 
2057.000000	45.370244 
2056.000000	45.366334 
2055.000000	45.352244 
2054.000000	45.329046 
2053.000000	45.298528 
2052.000000	45.262861 
2051.000000	45.224237 
2050.000000	45.185232 
2049.000000	45.147824 
2048.000000	45.113611 
2047.000000	45.083498 
2046.000000	45.057892 
2045.000000	45.036458 
2044.000000	45.018482 
2043.000000	45.002865 
2042.000000	44.988417 
2041.000000	44.974279 
2040.000000	44.959878 
2039.000000	44.945144 
2038.000000	44.930434 
2037.000000	44.916296 
2036.000000	44.903159 
2035.000000	44.891381 
2034.000000	44.881010 
2033.000000	44.871664 
2032.000000	44.862818 
2031.000000	44.853782 
2030.000000	44.843935 
2029.000000	44.832730 
2028.000000	44.820046 
2027.000000	44.805860 
2026.000000	44.790673 
2025.000000	44.775271 
2024.000000	44.760847 
2023.000000	44.748592 
2022.000000	44.739580 
2021.000000	44.734477 
2020.000000	44.733285 
2019.000000	44.735193 
2018.000000	44.738602 
2017.000000	44.741344 
2016.000000	44.741058 
2015.000000	44.735765 
2014.000000	44.724249 
2013.000000	44.706296 
2012.000000	44.682836 
2011.000000	44.655799 
2010.000000	44.627523 
2009.000000	44.600582 
2008.000000	44.577026 
2007.000000	44.558310 
2006.000000	44.545030 
2005.000000	44.537067 
2004.000000	44.533729 
2003.000000	44.533920 
2002.000000	44.536352 
2001.000000	44.539380 
2000.000000	44.541358 
1999.000000	44.540667 
1998.000000	44.535827 
1997.000000	44.525551 
1996.000000	44.509243 
1995.000000	44.486951 
1994.000000	44.459557 
1993.000000	44.428730 
1992.000000	44.396662 
1991.000000	44.365692 
1990.000000	44.337797 
1989.000000	44.314265 
1988.000000	44.295454 
1987.000000	44.280838 
1986.000000	44.269156 
1985.000000	44.258928 
1984.000000	44.248771 
1983.000000	44.237565 
1982.000000	44.224882 
1981.000000	44.210815 
1980.000000	44.195914 
1979.000000	44.180846 
1978.000000	44.166398 
1977.000000	44.153237 
1976.000000	44.141769 
1975.000000	44.132232 
1974.000000	44.124412 
1973.000000	44.118142 
1972.000000	44.113206 
1971.000000	44.109272 
1970.000000	44.106101 
1969.000000	44.103217 
1968.000000	44.099926 
1967.000000	44.095563 
1966.000000	44.089150 
1965.000000	44.079732 
1964.000000	44.066452 
1963.000000	44.048738 
1962.000000	44.026589 
1961.000000	44.000601 
1960.000000	43.972039 
1959.000000	43.942666 
1958.000000	43.914556 
1957.000000	43.889760 
1956.000000	43.869972 
1955.000000	43.856334 
1954.000000	43.849062 
1953.000000	43.847608 
1952.000000	43.850874 
1951.000000	43.857312 
1950.000000	43.865251 
1949.000000	43.873095 
1948.000000	43.879508 
1947.000000	43.883299 
1946.000000	43.883800 
1945.000000	43.880367 
1944.000000	43.872690 
1943.000000	43.860459 
1942.000000	43.843650 
1941.000000	43.822407 
1940.000000	43.797302 
1939.000000	43.768978 
1938.000000	43.738436 
1937.000000	43.706822 
1936.000000	43.675589 
1935.000000	43.646073 
1934.000000	43.619513 
1933.000000	43.596839 
1932.000000	43.578672 
1931.000000	43.565225 
1930.000000	43.556237 
1929.000000	43.551015 
1928.000000	43.548440 
1927.000000	43.547177 
1926.000000	43.545818 
1925.000000	43.543004 
1924.000000	43.537616 
1923.000000	43.529057 
1922.000000	43.517327 
1921.000000	43.502974 
1920.000000	43.486881 
1919.000000	43.470311 
1918.000000	43.454265 
1917.000000	43.439674 
1916.000000	43.426585 
1915.000000	43.414640 
1914.000000	43.402671 
1913.000000	43.389296 
1912.000000	43.372917 
1911.000000	43.352317 
1910.000000	43.326902 
1909.000000	43.296909 
1908.000000	43.263387 
1907.000000	43.228125 
1906.000000	43.193316 
1905.000000	43.161082 
1904.000000	43.133091 
1903.000000	43.110466 
1902.000000	43.093538 
1901.000000	43.082046 
1900.000000	43.075156 
1899.000000	43.072056 
1898.000000	43.071842 
1897.000000	43.074107 
1896.000000	43.078422 
1895.000000	43.084692 
1894.000000	43.092846 
1893.000000	43.102526 
1892.000000	43.113064 
1891.000000	43.123316 
1890.000000	43.131709 
1889.000000	43.136310 
1888.000000	43.135547 
1887.000000	43.128132 
1886.000000	43.113613 
1885.000000	43.092417 
1884.000000	43.065977 
1883.000000	43.036317 
1882.000000	43.005824 
1881.000000	42.976617 
1880.000000	42.950439 
1879.000000	42.928290 
1878.000000	42.910337 
1877.000000	42.896056 
1876.000000	42.884516 
1875.000000	42.874646 
1874.000000	42.865514 
1873.000000	42.856335 
1872.000000	42.846679 
1871.000000	42.836189 
1870.000000	42.824888 
1869.000000	42.812609 
1868.000000	42.799305 
1867.000000	42.785191 
1866.000000	42.770433 
1865.000000	42.755436 
1864.000000	42.740607 
1863.000000	42.726373 
1862.000000	42.712712 
1861.000000	42.699360 
1860.000000	42.685723 
1859.000000	42.671132 
1858.000000	42.654943 
1857.000000	42.636919 
1856.000000	42.617225 
1855.000000	42.596530 
1854.000000	42.575716 
1853.000000	42.555880 
1852.000000	42.537546 
1851.000000	42.520737 
1850.000000	42.504906 
1849.000000	42.488884 
1848.000000	42.471385 
1847.000000	42.451262 
1846.000000	42.427968 
1845.000000	42.401766 
1844.000000	42.373728 
1843.000000	42.345523 
1842.000000	42.319011 
1841.000000	42.296028 
1840.000000	42.277789 
1839.000000	42.265057 
1838.000000	42.257857 
1837.000000	42.255735 
1836.000000	42.257809 
1835.000000	42.263102 
1834.000000	42.270636 
1833.000000	42.279458 
1832.000000	42.288661 
1831.000000	42.297434 
1830.000000	42.304897 
1829.000000	42.310285 
1828.000000	42.312765 
1827.000000	42.311692 
1826.000000	42.306756 
1825.000000	42.297816 
1824.000000	42.285060 
1823.000000	42.268896 
1822.000000	42.249965 
1821.000000	42.228865 
1820.000000	42.206001 
1819.000000	42.181968 
1818.000000	42.157244 
1817.000000	42.132425 
1816.000000	42.108154 
1815.000000	42.085266 
1814.000000	42.064690 
1813.000000	42.047142 
1812.000000	42.033267 
1811.000000	42.023277 
1810.000000	42.017006 
1809.000000	42.013716 
1808.000000	42.012500 
1807.000000	42.012286 
1806.000000	42.011952 
1805.000000	42.010474 
1804.000000	42.007064 
1803.000000	42.001128 
1802.000000	41.992330 
1801.000000	41.980433 
1800.000000	41.965341 
1799.000000	41.947031 
1798.000000	41.925740 
1797.000000	41.902041 
1796.000000	41.876626 
1795.000000	41.850423 
1794.000000	41.824460 
1793.000000	41.799616 
1792.000000	41.776418 
1791.000000	41.755080 
1790.000000	41.735363 
1789.000000	41.716718 
1788.000000	41.698312 
1787.000000	41.679549 
1786.000000	41.659832 
1785.000000	41.639351 
1784.000000	41.618442 
1783.000000	41.598248 
1782.000000	41.580009 
1781.000000	41.565275 
1780.000000	41.555213 
1779.000000	41.550564 
1778.000000	41.551136 
1777.000000	41.555809 
1776.000000	41.562676 
1775.000000	41.569209 
1774.000000	41.572666 
1773.000000	41.570615 
1772.000000	41.561388 
1771.000000	41.544437 
1770.000000	41.520333 
1769.000000	41.490888 
1768.000000	41.458582 
1767.000000	41.426181 
1766.000000	41.396164 
1765.000000	41.370296 
1764.000000	41.349363 
1763.000000	41.333293 
1762.000000	41.320896 
1761.000000	41.310596 
1760.000000	41.300463 
1759.000000	41.288638 
1758.000000	41.273736 
1757.000000	41.254639 
1756.000000	41.231369 
1755.000000	41.204357 
1754.000000	41.175270 
1753.000000	41.146039 
1752.000000	41.118979 
1751.000000	41.096162 
1750.000000	41.079092 
1749.000000	41.068506 
1748.000000	41.064000 
1747.000000	41.064333 
1746.000000	41.067433 
1745.000000	41.070866 
1744.000000	41.072297 
1743.000000	41.069793 
1742.000000	41.062188 
1741.000000	41.049098 
1740.000000	41.030907 
1739.000000	41.008567 
1738.000000	40.983462 
1737.000000	40.956950 
1736.000000	40.930151 
1735.000000	40.903878 
1734.000000	40.878653 
1733.000000	40.854811 
1732.000000	40.832495 
1731.000000	40.811610 
1730.000000	40.792322 
1729.000000	40.774822 
1728.000000	40.759491 
1727.000000	40.746808 
1726.000000	40.737056 
1725.000000	40.730381 
1724.000000	40.726447 
1723.000000	40.724539 
1722.000000	40.723514 
1721.000000	40.722012 
1720.000000	40.718603 
1719.000000	40.712141 
1718.000000	40.702128 
1717.000000	40.688586 
1716.000000	40.672206 
1715.000000	40.654063 
1714.000000	40.635538 
1713.000000	40.618157 
1712.000000	40.603327 
1711.000000	40.592074 
1710.000000	40.585017 
1709.000000	40.582418 
1708.000000	40.584087 
1707.000000	40.589547 
1706.000000	40.597844 
1705.000000	40.607738 
1704.000000	40.617656 
1703.000000	40.625786 
1702.000000	40.630269 
1701.000000	40.629386 
1700.000000	40.621972 
1699.000000	40.607547 
1698.000000	40.586614 
1697.000000	40.560770 
1696.000000	40.532374 
1695.000000	40.504288 
1694.000000	40.479397 
1693.000000	40.460085 
1692.000000	40.447640 
1691.000000	40.442180 
1690.000000	40.442276 
1689.000000	40.445661 
1688.000000	40.449380 
1687.000000	40.450620 
1686.000000	40.447235 
1685.000000	40.438127 
1684.000000	40.423488 
1683.000000	40.404319 
1682.000000	40.382170 
1681.000000	40.358400 
1680.000000	40.334057 
1679.000000	40.309405 
1678.000000	40.284156 
1677.000000	40.257763 
1676.000000	40.229701 
1675.000000	40.200090 
1674.000000	40.169787 
1673.000000	40.140104 
1672.000000	40.112519 
1671.000000	40.088510 
1670.000000	40.068817 
1669.000000	40.053606 
1668.000000	40.041875 
1667.000000	40.032267 
1666.000000	40.023279 
1665.000000	40.013694 
1664.000000	40.002942 
1663.000000	39.991021 
1662.000000	39.978623 
1661.000000	39.966702 
1660.000000	39.956092 
1659.000000	39.947319 
1658.000000	39.940571 
1657.000000	39.935708 
1656.000000	39.932322 
1655.000000	39.930129 
1654.000000	39.929008 
1653.000000	39.929032 
1652.000000	39.930176 
1651.000000	39.932346 
1650.000000	39.934968 
1649.000000	39.937019 
1648.000000	39.937114 
1647.000000	39.933776 
1646.000000	39.925479 
1645.000000	39.911603 
1644.000000	39.891910 
1643.000000	39.867067 
1642.000000	39.838051 
1641.000000	39.806365 
1640.000000	39.773297 
1639.000000	39.739823 
1638.000000	39.706540 
1637.000000	39.673709 
1636.000000	39.641499 
1635.000000	39.610123 
1634.000000	39.580035 
1633.000000	39.552021 
1632.000000	39.527058 
1631.000000	39.506149 
1630.000000	39.489889 
1629.000000	39.478373 
1628.000000	39.471101 
1627.000000	39.467048 
1626.000000	39.464735 
1625.000000	39.462566 
1624.000000	39.459061 
1623.000000	39.453268 
1622.000000	39.444613 
1621.000000	39.433050 
1620.000000	39.419198 
1619.000000	39.403748 
1618.000000	39.387607 
1617.000000	39.371562 
1616.000000	39.356255 
1615.000000	39.342069 
1614.000000	39.329171 
1613.000000	39.317512 
1612.000000	39.307022 
1611.000000	39.297533 
1610.000000	39.288926 
1609.000000	39.281010 
1608.000000	39.273405 
1607.000000	39.265632 
1606.000000	39.256978 
1605.000000	39.246559 
1604.000000	39.233326 
1603.000000	39.216446 
1602.000000	39.195442 
1601.000000	39.170360 
1600.000000	39.141893 
1599.000000	39.111614 
1598.000000	39.081335 
1597.000000	39.053058 
1596.000000	39.028310 
1595.000000	39.008283 
1594.000000	38.993048 
1593.000000	38.982033 
1592.000000	38.973951 
1591.000000	38.967299 
1590.000000	38.960599 
1589.000000	38.952946 
1588.000000	38.943958 
1587.000000	38.933730 
1586.000000	38.922691 
1585.000000	38.911223 
1584.000000	38.899397 
1583.000000	38.886904 
1582.000000	38.873052 
1581.000000	38.856959 
1580.000000	38.837790 
1579.000000	38.815307 
1578.000000	38.789916 
1577.000000	38.762736 
1576.000000	38.735389 
1575.000000	38.709855 
1574.000000	38.688039 
1573.000000	38.671803 
1572.000000	38.662219 
1571.000000	38.659811 
1570.000000	38.664412 
1569.000000	38.675069 
1568.000000	38.690400 
1567.000000	38.708496 
1566.000000	38.726997 
1565.000000	38.743448 
1564.000000	38.755464 
1563.000000	38.761019 
1562.000000	38.758730 
1561.000000	38.748168 
1560.000000	38.729810 
1559.000000	38.705158 
1558.000000	38.676428 
1557.000000	38.646054 
1556.000000	38.616466 
1555.000000	38.589334 
1554.000000	38.565421 
1553.000000	38.544559 
1552.000000	38.525819 
1551.000000	38.507580 
1550.000000	38.488197 
1549.000000	38.466453 
1548.000000	38.441991 
1547.000000	38.415408 
1546.000000	38.388299 
1545.000000	38.362765 
1544.000000	38.341069 
1543.000000	38.324809 
1542.000000	38.314509 
1541.000000	38.309526 
1540.000000	38.307929 
1539.000000	38.306999 
1538.000000	38.303756 
1537.000000	38.295578 
1536.000000	38.280797 
1535.000000	38.259196 
1534.000000	38.231897 
1533.000000	38.201045 
1532.000000	38.169622 
1531.000000	38.140749 
1530.000000	38.117098 
1529.000000	38.100457 
1528.000000	38.091421 
1527.000000	38.089466 
1526.000000	38.093137 
1525.000000	38.100409 
1524.000000	38.108777 
1523.000000	38.116216 
1522.000000	38.121128 
1521.000000	38.122606 
1520.000000	38.120532 
1519.000000	38.115525 
1518.000000	38.108491 
1517.000000	38.100600 
1516.000000	38.092970 
1515.000000	38.086152 
1514.000000	38.080501 
1513.000000	38.075613 
1512.000000	38.070750 
1511.000000	38.064742 
1510.000000	38.056683 
1509.000000	38.045740 
1508.000000	38.031554 
1507.000000	38.014197 
1506.000000	37.994194 
1505.000000	37.972092 
1504.000000	37.948274 
1503.000000	37.922787 
1502.000000	37.895488 
1501.000000	37.866139 
1500.000000	37.834763 
1499.000000	37.801933 
1498.000000	37.768697 
1497.000000	37.736368 
1496.000000	37.706279 
1495.000000	37.679290 
1494.000000	37.655448 
1493.000000	37.634015 
1492.000000	37.613606 
1491.000000	37.592434 
1490.000000	37.569046 
1489.000000	37.542629 
1488.000000	37.513542 
1487.000000	37.482976 
1486.000000	37.453055 
1485.000000	37.426280 
1484.000000	37.405180 
1483.000000	37.391304 
1482.000000	37.385368 
1481.000000	37.387013 
1480.000000	37.394905 
1479.000000	37.407040 
1478.000000	37.420916 
1477.000000	37.434101 
1476.000000	37.444329 
1475.000000	37.450003 
1474.000000	37.450170 
1473.000000	37.444686 
1472.000000	37.434291 
1471.000000	37.420487 
1470.000000	37.404870 
1469.000000	37.389135 
1468.000000	37.374663 
1467.000000	37.362456 
1466.000000	37.352919 
1465.000000	37.345814 
1464.000000	37.340450 
1463.000000	37.335658 
1462.000000	37.329840 
1461.000000	37.321281 
1460.000000	37.308287 
1459.000000	37.289595 
1458.000000	37.264823 
1457.000000	37.234640 
1456.000000	37.200689 
1455.000000	37.165522 
1454.000000	37.132024 
1453.000000	37.102866 
1452.000000	37.079858 
1451.000000	37.063765 
1450.000000	37.054038 
1449.000000	37.049150 
1448.000000	37.046909 
1447.000000	37.045407 
1446.000000	37.043452 
1445.000000	37.040758 
1444.000000	37.037968 
1443.000000	37.036275 
1442.000000	37.036824 
1441.000000	37.040162 
1440.000000	37.045741 
1439.000000	37.052106 
1438.000000	37.056922 
1437.000000	37.057638 
1436.000000	37.051796 
1435.000000	37.037849 
1434.000000	37.015175 
1433.000000	36.984300 
1432.000000	36.946845 
1431.000000	36.905241 
1430.000000	36.862277 
1429.000000	36.820840 
1428.000000	36.783313 
1427.000000	36.751461 
1426.000000	36.726307 
1425.000000	36.707925 
1424.000000	36.695671 
1423.000000	36.688327 
1422.000000	36.684656 
1421.000000	36.683487 
1420.000000	36.684155 
1419.000000	36.686182 
1418.000000	36.689519 
1417.000000	36.694145 
1416.000000	36.699700 
1415.000000	36.705231 
1414.000000	36.709022 
1413.000000	36.708784 
1412.000000	36.702132 
1411.000000	36.687111 
1410.000000	36.662817 
1409.000000	36.629605 
1408.000000	36.589384 
1407.000000	36.545276 
1406.000000	36.500835 
1405.000000	36.459589 
1404.000000	36.424088 
1403.000000	36.395788 
1402.000000	36.374497 
1401.000000	36.359286 
1400.000000	36.348509 
1399.000000	36.340761 
1398.000000	36.335158 
1397.000000	36.331653 
1396.000000	36.330652 
1395.000000	36.332821 
1394.000000	36.338400 
1393.000000	36.347126 
1392.000000	36.357617 
1391.000000	36.367964 
1390.000000	36.375832 
1389.000000	36.379170 
1388.000000	36.376452 
1387.000000	36.367106 
1386.000000	36.351490 
1385.000000	36.330699 
1384.000000	36.306238 
1383.000000	36.279702 
1382.000000	36.252450 
1381.000000	36.225557 
1380.000000	36.199665 
1379.000000	36.175441 
1378.000000	36.153388 
1377.000000	36.134052 
1376.000000	36.117744 
1375.000000	36.104893 
1374.000000	36.095523 
1373.000000	36.089086 
1372.000000	36.084675 
1371.000000	36.081027 
1370.000000	36.076998 
1369.000000	36.071681 
1368.000000	36.064672 
1367.000000	36.056089 
1366.000000	36.046338 
1365.000000	36.036086 
1364.000000	36.025571 
1363.000000	36.014771 
1362.000000	36.003160 
1361.000000	35.990142 
1360.000000	35.975074 
1359.000000	35.957670 
1358.000000	35.938191 
1357.000000	35.917377 
1356.000000	35.896396 
1355.000000	35.876655 
1354.000000	35.859441 
1353.000000	35.845851 
1352.000000	35.836338 
1351.000000	35.830664 
1350.000000	35.828065 
1349.000000	35.827207 
1348.000000	35.826683 
1347.000000	35.824942 
1346.000000	35.820722 
1345.000000	35.813212 
1344.000000	35.802078 
1343.000000	35.787510 
1342.000000	35.769939 
1341.000000	35.750007 
1340.000000	35.728549 
1339.000000	35.706210 
1338.000000	35.683512 
1337.000000	35.660696 
1336.000000	35.637974 
1335.000000	35.615658 
1334.000000	35.594153 
1333.000000	35.573959 
1332.000000	35.555672 
1331.000000	35.539650 
1330.000000	35.525918 
1329.000000	35.514116 
1328.000000	35.503435 
1327.000000	35.492801 
1326.000000	35.481357 
1325.000000	35.468292 
1324.000000	35.453438 
1323.000000	35.437035 
1322.000000	35.419750 
1321.000000	35.402560 
1320.000000	35.386347 
1319.000000	35.371756 
1318.000000	35.359048 
1317.000000	35.348153 
1316.000000	35.338687 
1315.000000	35.330128 
1314.000000	35.322022 
1313.000000	35.313892 
1312.000000	35.305404 
1311.000000	35.296344 
1310.000000	35.286593 
1309.000000	35.275912 
1308.000000	35.264015 
1307.000000	35.250592 
1306.000000	35.235476 
1305.000000	35.218691 
1304.000000	35.200524 
1303.000000	35.181570 
1302.000000	35.162425 
1301.000000	35.143876 
1300.000000	35.126447 
1299.000000	35.110497 
1298.000000	35.095906 
1297.000000	35.082554 
1296.000000	35.070419 
1295.000000	35.059475 
1294.000000	35.049939 
1293.000000	35.041952 
1292.000000	35.035443 
1291.000000	35.029935 
1290.000000	35.024380 
1289.000000	35.017204 
1288.000000	35.006451 
1287.000000	34.990549 
1286.000000	34.968662 
1285.000000	34.941053 
1284.000000	34.909272 
1283.000000	34.876108 
1282.000000	34.844803 
1281.000000	34.818482 
1280.000000	34.799385 
1279.000000	34.788298 
1278.000000	34.784555 
1277.000000	34.785985 
1276.000000	34.789633 
1275.000000	34.792351 
1274.000000	34.791398 
1273.000000	34.784889 
1272.000000	34.772133 
1271.000000	34.753155 
1270.000000	34.729003 
1269.000000	34.700751 
1268.000000	34.669685 
1267.000000	34.637188 
1266.000000	34.604740 
1265.000000	34.574127 
1264.000000	34.547281 
1263.000000	34.526181 
1262.000000	34.512424 
1261.000000	34.506797 
1260.000000	34.508991 
1259.000000	34.517145 
1258.000000	34.528589 
1257.000000	34.540104 
1256.000000	34.548807 
1255.000000	34.552717 
1254.000000	34.551095 
1253.000000	34.544324 
1252.000000	34.533739 
1251.000000	34.521031 
1250.000000	34.507513 
1249.000000	34.493827 
1248.000000	34.479904 
1247.000000	34.465146 
1246.000000	34.448885 
1245.000000	34.430789 
1244.000000	34.411358 
1243.000000	34.391570 
1242.000000	34.372949 
1241.000000	34.356856 
1240.000000	34.343957 
1239.000000	34.333753 
1238.000000	34.324574 
1237.000000	34.313774 
1236.000000	34.298515 
1235.000000	34.276437 
1234.000000	34.246349 
1233.000000	34.208703 
1232.000000	34.165501 
1231.000000	34.120035 
1230.000000	34.076189 
1229.000000	34.037542 
1228.000000	34.006667 
1227.000000	33.984827 
1226.000000	33.972048 
1225.000000	33.966970 
1224.000000	33.967518 
1223.000000	33.971667 
1222.000000	33.977818 
1221.000000	33.984613 
1220.000000	33.991408 
1219.000000	33.997774 
1218.000000	34.003424 
1217.000000	34.007787 
1216.000000	34.010076 
1215.000000	34.009337 
1214.000000	34.004569 
1213.000000	33.995151 
1212.000000	33.981037 
1211.000000	33.962821 
1210.000000	33.941626 
1209.000000	33.919143 
1208.000000	33.896827 
1207.000000	33.875918 
1206.000000	33.857059 
1205.000000	33.840441 
1204.000000	33.825612 
1203.000000	33.812022 
1202.000000	33.799028 
1201.000000	33.786082 
1200.000000	33.772945 
1199.000000	33.759522 
1198.000000	33.745789 
1197.000000	33.731746 
1196.000000	33.717322 
1195.000000	33.702492 
1194.000000	33.687138 
1193.000000	33.671188 
1192.000000	33.654522 
1191.000000	33.637166 
1190.000000	33.619165 
1189.000000	33.600783 
1188.000000	33.582139 
1187.000000	33.563709 
1186.000000	33.546113 
1185.000000	33.530139 
1184.000000	33.516645 
1183.000000	33.506250 
1182.000000	33.499431 
1181.000000	33.495974 
1180.000000	33.495092 
1179.000000	33.495283 
1178.000000	33.494639 
1177.000000	33.491110 
1176.000000	33.483028 
1175.000000	33.469486 
1174.000000	33.450245 
1173.000000	33.426022 
1172.000000	33.398008 
1171.000000	33.367538 
1170.000000	33.336019 
1169.000000	33.304619 
1168.000000	33.274507 
1167.000000	33.246588 
1166.000000	33.221793 
1165.000000	33.201122 
1164.000000	33.185648 
1163.000000	33.176350 
1162.000000	33.173918 
1161.000000	33.178353 
1160.000000	33.188915 
1159.000000	33.204054 
1158.000000	33.221459 
1157.000000	33.238434 
1156.000000	33.252096 
1155.000000	33.260035 
1154.000000	33.260345 
1153.000000	33.252167 
1152.000000	33.235526 
1151.000000	33.211445 
1150.000000	33.181738 
1149.000000	33.148527 
1148.000000	33.114171 
1147.000000	33.080816 
1146.000000	33.050036 
1145.000000	33.022594 
1144.000000	32.998538 
1143.000000	32.977294 
1142.000000	32.957816 
1141.000000	32.939195 
1140.000000	32.920694 
1139.000000	32.902336 
1138.000000	32.884526 
1137.000000	32.868385 
1136.000000	32.855033 
1135.000000	32.845520 
1134.000000	32.840132 
1133.000000	32.838487 
1132.000000	32.839250 
1131.000000	32.840585 
1130.000000	32.840323 
1129.000000	32.836771 
1128.000000	32.828903 
1127.000000	32.816600 
1126.000000	32.800865 
1125.000000	32.783365 
1124.000000	32.766032 
1123.000000	32.750773 
1122.000000	32.738757 
1121.000000	32.730317 
1120.000000	32.724881 
1119.000000	32.721138 
1118.000000	32.717347 
1117.000000	32.711863 
1116.000000	32.703566 
1115.000000	32.691931 
1114.000000	32.677268 
1113.000000	32.660412 
1112.000000	32.642459 
1111.000000	32.624435 
1110.000000	32.606935 
1109.000000	32.590126 
1108.000000	32.573461 
1107.000000	32.556223 
1106.000000	32.537579 
1105.000000	32.517075 
1104.000000	32.495069 
1103.000000	32.472681 
1102.000000	32.451796 
1101.000000	32.434487 
1100.000000	32.422471 
1099.000000	32.416701 
1098.000000	32.416868 
1097.000000	32.421422 
1096.000000	32.427716 
1095.000000	32.432961 
1094.000000	32.434463 
1093.000000	32.430267 
1092.000000	32.419633 
1091.000000	32.402753 
1090.000000	32.380747 
1089.000000	32.355189 
1088.000000	32.327699 
1087.000000	32.299828 
1086.000000	32.272958 
1085.000000	32.248187 
1084.000000	32.226729 
1083.000000	32.209849 
1082.000000	32.198905 
1081.000000	32.194542 
1080.000000	32.196569 
1079.000000	32.203650 
1078.000000	32.213306 
1077.000000	32.222318 
1076.000000	32.227230 
1075.000000	32.225155 
1074.000000	32.214593 
1073.000000	32.195520 
1072.000000	32.169461 
1071.000000	32.138824 
1070.000000	32.106423 
1069.000000	32.074761 
1068.000000	32.045459 
1067.000000	32.019114 
1066.000000	31.995463 
1065.000000	31.973433 
1064.000000	31.952047 
1063.000000	31.930327 
1062.000000	31.907725 
1061.000000	31.884050 
1060.000000	31.859755 
1059.000000	31.835150 
1058.000000	31.811046 
1057.000000	31.788277 
1056.000000	31.768202 
1055.000000	31.752347 
1054.000000	31.742215 
1053.000000	31.739306 
1052.000000	31.744241 
1051.000000	31.756734 
1050.000000	31.775045 
1049.000000	31.796193 
1048.000000	31.816244 
1047.000000	31.830954 
1046.000000	31.836724 
1045.000000	31.831264 
1044.000000	31.813931 
1043.000000	31.786060 
1042.000000	31.750559 
1041.000000	31.711220 
1040.000000	31.671977 
1039.000000	31.636118 
1038.000000	31.605386 
1037.000000	31.579995 
1036.000000	31.558680 
1035.000000	31.539273 
1034.000000	31.519484 
1033.000000	31.497383 
1032.000000	31.471800 
1031.000000	31.442880 
1030.000000	31.411480 
1029.000000	31.379365 
1028.000000	31.348419 
1027.000000	31.320524 
1026.000000	31.297278 
1025.000000	31.279706 
1024.000000	31.268262 
1023.000000	31.262850 
1022.000000	31.262779 
1021.000000	31.266880 
1020.000000	31.273555 
1019.000000	31.281328 
1018.000000	31.288814 
1017.000000	31.295132 
1016.000000	31.299734 
1015.000000	31.302595 
1014.000000	31.304001 
1013.000000	31.304216 
1012.000000	31.303143 
1011.000000	31.300020 
1010.000000	31.293416 
1009.000000	31.281828 
1008.000000	31.263875 
1007.000000	31.239104 
1006.000000	31.208109 
1005.000000	31.173181 
1004.000000	31.137514 
1003.000000	31.104588 
1002.000000	31.077337 
1001.000000	31.057429 
1000.000000	31.044936 
999.000000	 31.038212 
998.000000	 31.034517 
997.000000	 31.030726 
996.000000	 31.024050 
995.000000	 31.012582 
994.000000	 30.995750 
993.000000	 30.973768 
992.000000	 30.947852 
991.000000	 30.919480 
990.000000	 30.890130 
989.000000	 30.860877 
988.000000	 30.832862 
987.000000	 30.807328 
986.000000	 30.785512 
985.000000	 30.768680 
984.000000	 30.757761 
983.000000	 30.753374 
982.000000	 30.754756 
981.000000	 30.760216 
980.000000	 30.767297 
979.000000	 30.773591 
978.000000	 30.776834 
977.000000	 30.775904 
976.000000	 30.770707 
975.000000	 30.762314 
974.000000	 30.752444 
973.000000	 30.742931 
972.000000	 30.734992 
971.000000	 30.728578 
970.000000	 30.722856 
969.000000	 30.715727 
968.000000	 30.704689 
967.000000	 30.687332 
966.000000	 30.662322 
965.000000	 30.629420 
964.000000	 30.589652 
963.000000	 30.545139 
962.000000	 30.498623 
961.000000	 30.452513 
960.000000	 30.408358 
959.000000	 30.366611 
958.000000	 30.326414 
957.000000	 30.285978 
956.000000	 30.243349 
955.000000	 30.196809 
954.000000	 30.145764 
953.000000	 30.091404 
952.000000	 30.036830 
951.000000	 29.986023 
950.000000	 29.943633 
949.000000	 29.913640 
948.000000	 29.898643 
947.000000	 29.898786 
946.000000	 29.912185 
945.000000	 29.934954 
944.000000	 29.962635 
943.000000	 29.990339 
942.000000	 30.014848 
941.000000	 30.034303 
940.000000	 30.049180 
939.000000	 30.061268 
938.000000	 30.073285 
937.000000	 30.087804 
936.000000	 30.106186 
935.000000	 30.127906 
934.000000	 30.150365 
933.000000	 30.169439 
932.000000	 30.180191 
931.000000	 30.177855 
930.000000	 30.158543 
929.000000	 30.120062 
928.000000	 30.062699 
927.000000	 29.989242 
926.000000	 29.904723 
925.000000	 29.815745 
924.000000	 29.729580 
923.000000	 29.653000 
922.000000	 29.591202 
921.000000	 29.547190 
920.000000	 29.521489 
919.000000	 29.512548 
918.000000	 29.516983 
917.000000	 29.530596 
916.000000	 29.549241 
915.000000	 29.569244 
914.000000	 29.587268 
913.000000	 29.600334 
912.000000	 29.605627 
911.000000	 29.600334 
910.000000	 29.581880 
909.000000	 29.548621 
908.000000	 29.500126 
907.000000	 29.438686 
906.000000	 29.369115 
905.000000	 29.298567 
904.000000	 29.235124 
903.000000	 29.186034 
902.000000	 29.156041 
901.000000	 29.145312 
900.000000	 29.149651 
899.000000	 29.161691 
898.000000	 29.173278 
897.000000	 29.176616 
896.000000	 29.167437 
895.000000	 29.145836 
894.000000	 29.116654 
893.000000	 29.087853 
892.000000	 29.068803 
891.000000	 29.067015 
890.000000	 29.086804 
889.000000	 29.127812 
888.000000	 29.184818 
887.000000	 29.249286 
886.000000	 29.310894 
885.000000	 29.360246 
884.000000	 29.390597 
883.000000	 29.399394 
882.000000	 29.387974 
881.000000	 29.361057 
880.000000	 29.325008 
879.000000	 29.285860 
878.000000	 29.247856 
877.000000	 29.212403 
876.000000	 29.177117 
875.000000	 29.136562 
874.000000	 29.084134 
873.000000	 29.014134 
872.000000	 28.923106 
871.000000	 28.811597 
870.000000	 28.684759 
869.000000	 28.552007 
868.000000	 28.425002 
867.000000	 28.315877 
866.000000	 28.234195 
865.000000	 28.185606 
864.000000	 28.170537 
863.000000	 28.184509 
862.000000	 28.218507 
861.000000	 28.262114 
860.000000	 28.305172 
859.000000	 28.340530 
858.000000	 28.363680 
857.000000	 28.374695 
856.000000	 28.376650 
855.000000	 28.374600 
854.000000	 28.373241 
853.000000	 28.376722 
852.000000	 28.387427 
851.000000	 28.406167 
850.000000	 28.432297 
849.000000	 28.464174 
848.000000	 28.499913 
847.000000	 28.537702 
846.000000	 28.576087 
845.000000	 28.613352 
844.000000	 28.647613 
843.000000	 28.677320 
842.000000	 28.700947 
841.000000	 28.717112 
840.000000	 28.724384 
839.000000	 28.723120 
838.000000	 28.713560 
837.000000	 28.696036 
836.000000	 28.669905 
835.000000	 28.634858 
834.000000	 28.589391 
833.000000	 28.531932 
832.000000	 28.461289 
831.000000	 28.377485 
830.000000	 28.282880 
829.000000	 28.182864 
828.000000	 28.084659 
827.000000	 27.996110 
826.000000	 27.924394 
825.000000	 27.874708 
824.000000	 27.848434 
823.000000	 27.842712 
822.000000	 27.852010 
821.000000	 27.869534 
820.000000	 27.888631 
819.000000	 27.904939 
818.000000	 27.917075 
817.000000	 27.927398 
816.000000	 27.939939 
815.000000	 27.959918 
814.000000	 27.992391 
813.000000	 28.040337 
812.000000	 28.104090 
811.000000	 28.179740 
810.000000	 28.260564 
809.000000	 28.336691 
808.000000	 28.398156 
807.000000	 28.435182 
806.000000	 28.441357 
805.000000	 28.413486 
804.000000	 28.353381 
803.000000	 28.265786 
802.000000	 28.157758 
801.000000	 28.036880 
800.000000	 27.910804 
799.000000	 27.785682 
798.000000	 27.666068 
797.000000	 27.555441 
796.000000	 27.456665 
795.000000	 27.371788 
794.000000	 27.302265 
793.000000	 27.248454 
792.000000	 27.209806 
791.000000	 27.183961 
790.000000	 27.167510 
789.000000	 27.155494 
788.000000	 27.143073 
787.000000	 27.126312 
786.000000	 27.103376 
785.000000	 27.074241 
784.000000	 27.041220 
783.000000	 27.007937 
782.000000	 26.978611 
781.000000	 26.955938 
780.000000	 26.941370 
779.000000	 26.934742 
778.000000	 26.934623 
777.000000	 26.938462 
776.000000	 26.944017 
775.000000	 26.950144 
774.000000	 26.956796 
773.000000	 26.964712 
772.000000	 26.975011 
771.000000	 26.988101 
770.000000	 27.003693 
769.000000	 27.020502 
768.000000	 27.035927 
767.000000	 27.046751 
766.000000	 27.050352 
765.000000	 27.045440 
764.000000	 27.032327 
763.000000	 27.012777 
762.000000	 26.989889 
761.000000	 26.966595 
760.000000	 26.944947 
759.000000	 26.924991 
758.000000	 26.905298 
757.000000	 26.882600 
756.000000	 26.853466 
755.000000	 26.814651 
754.000000	 26.764607 
753.000000	 26.703691 
752.000000	 26.634216 
751.000000	 26.560115 
750.000000	 26.485705 
749.000000	 26.415300 
748.000000	 26.352262 
747.000000	 26.298856 
746.000000	 26.255965 
745.000000	 26.223540 
744.000000	 26.200914 
743.000000	 26.186633 
742.000000	 26.178717 
741.000000	 26.174211 
740.000000	 26.169633 
739.000000	 26.160740 
738.000000	 26.143503 
737.000000	 26.115202 
736.000000	 26.075148 
735.000000	 26.025128 
734.000000	 25.969243 
733.000000	 25.913095 
732.000000	 25.862479 
731.000000	 25.822138 
730.000000	 25.794267 
729.000000	 25.778222 
728.000000	 25.770592 
727.000000	 25.766491 
726.000000	 25.760602 
725.000000	 25.748610 
724.000000	 25.728273 
723.000000	 25.699830 
722.000000	 25.665521 
721.000000	 25.628614 
720.000000	 25.592708 
719.000000	 25.560426 
718.000000	 25.533413 
717.000000	 25.511765 
716.000000	 25.494670 
715.000000	 25.480699 
714.000000	 25.467777 
713.000000	 25.453686 
712.000000	 25.436019 
711.000000	 25.412678 
710.000000	 25.382304 
709.000000	 25.344824 
708.000000	 25.301480 
707.000000	 25.255107 
706.000000	 25.209641 
705.000000	 25.169444 
704.000000	 25.138282 
703.000000	 25.118517 
702.000000	 25.110101 
701.000000	 25.110840 
700.000000	 25.116467 
699.000000	 25.122046 
698.000000	 25.122928 
697.000000	 25.116014 
696.000000	 25.100493 
695.000000	 25.077271 
694.000000	 25.048685 
693.000000	 25.017476 
692.000000	 24.985647 
691.000000	 24.954342 
690.000000	 24.923586 
689.000000	 24.892520 
688.000000	 24.860215 
687.000000	 24.825811 
686.000000	 24.788856 
685.000000	 24.749445 
684.000000	 24.708390 
683.000000	 24.666786 
682.000000	 24.626040 
681.000000	 24.587392 
680.000000	 24.551749 
679.000000	 24.519658 
678.000000	 24.490928 
677.000000	 24.464917 
676.000000	 24.440479 
675.000000	 24.416255 
674.000000	 24.391055 
673.000000	 24.363803 
672.000000	 24.334430 
671.000000	 24.303793 
670.000000	 24.273538 
669.000000	 24.245834 
668.000000	 24.222445 
667.000000	 24.204254 
666.000000	 24.190640 
665.000000	 24.179482 
664.000000	 24.167656 
663.000000	 24.151992 
662.000000	 24.129962 
661.000000	 24.100399 
660.000000	 24.063849 
659.000000	 24.022531 
658.000000	 23.979687 
657.000000	 23.938989 
656.000000	 23.903703 
655.000000	 23.875951 
654.000000	 23.856663 
653.000000	 23.845052 
652.000000	 23.839211 
651.000000	 23.835921 
650.000000	 23.831391 
649.000000	 23.821401 
648.000000	 23.802018 
647.000000	 23.770332 
646.000000	 23.724722 
645.000000	 23.666048 
644.000000	 23.597645 
643.000000	 23.525071 
642.000000	 23.455286 
641.000000	 23.394966 
640.000000	 23.348951 
639.000000	 23.318886 
638.000000	 23.303031 
637.000000	 23.296284 
636.000000	 23.291635 
635.000000	 23.282265 
634.000000	 23.263454 
633.000000	 23.234152 
632.000000	 23.197102 
631.000000	 23.157882 
630.000000	 23.123049 
629.000000	 23.097968 
628.000000	 23.084950 
627.000000	 23.082399 
626.000000	 23.085236 
625.000000	 23.086786 
624.000000	 23.080372 
623.000000	 23.062062 
622.000000	 23.030877 
621.000000	 22.989392 
620.000000	 22.942376 
619.000000	 22.894883 
618.000000	 22.851395 
617.000000	 22.814130 
616.000000	 22.783446 
615.000000	 22.757840 
614.000000	 22.736072 
613.000000	 22.718214 
612.000000	 22.705674 
611.000000	 22.701168 
610.000000	 22.706747 
609.000000	 22.722864 
608.000000	 22.746682 
607.000000	 22.772192 
606.000000	 22.791337 
605.000000	 22.795724 
604.000000	 22.779297 
603.000000	 22.739696 
602.000000	 22.678780 
601.000000	 22.602200 
600.000000	 22.517728 
599.000000	 22.433638 
598.000000	 22.356963 
597.000000	 22.292542 
596.000000	 22.242474 
595.000000	 22.206330 
594.000000	 22.182416 
593.000000	 22.167706 
592.000000	 22.158908 
591.000000	 22.152256 
590.000000	 22.143721 
589.000000	 22.128915 
588.000000	 22.102761 
587.000000	 22.060799 
586.000000	 21.999549 
585.000000	 21.918201 
584.000000	 21.818900 
583.000000	 21.707606 
582.000000	 21.593308 
581.000000	 21.486616 
580.000000	 21.397709 
579.000000	 21.335220 
578.000000	 21.304273 
577.000000	 21.305346 
576.000000	 21.333837 
575.000000	 21.380805 
574.000000	 21.434497 
573.000000	 21.482014 
572.000000	 21.511983 
571.000000	 21.516609 
570.000000	 21.492981 
569.000000	 21.443057 
568.000000	 21.373105 
567.000000	 21.291494 
566.000000	 21.207141 
565.000000	 21.128177 
564.000000	 21.060276 
563.000000	 21.006488 
562.000000	 20.967006 
561.000000	 20.940685 
560.000000	 20.924472 
559.000000	 20.915031 
558.000000	 20.907926 
557.000000	 20.898509 
556.000000	 20.881652 
555.000000	 20.852351 
554.000000	 20.806121 
553.000000	 20.740079 
552.000000	 20.654320 
551.000000	 20.552587 
550.000000	 20.441937 
549.000000	 20.331358 
548.000000	 20.229864 
547.000000	 20.144438 
546.000000	 20.078444 
545.000000	 20.031189 
544.000000	 19.998311 
543.000000	 19.973778 
542.000000	 19.951176 
541.000000	 19.926404 
540.000000	 19.898223 
539.000000	 19.868946 
538.000000	 19.842338 
537.000000	 19.823122 
536.000000	 19.814515 
535.000000	 19.817399 
534.000000	 19.829773 
533.000000	 19.846606 
532.000000	 19.861435 
531.000000	 19.866824 
530.000000	 19.856548 
529.000000	 19.825291 
528.000000	 19.769716 
527.000000	 19.688081 
526.000000	 19.580650 
525.000000	 19.450449 
524.000000	 19.303369 
523.000000	 19.148278 
522.000000	 18.996191 
521.000000	 18.859219 
520.000000	 18.748545 
519.000000	 18.672394 
518.000000	 18.634200 
517.000000	 18.631887 
516.000000	 18.658137 
515.000000	 18.701529 
514.000000	 18.749213 
513.000000	 18.788433 
512.000000	 18.809533 
511.000000	 18.806409 
510.000000	 18.778204 
509.000000	 18.728613 
508.000000	 18.664216 
507.000000	 18.592381 
506.000000	 18.519234 
505.000000	 18.448662 
504.000000	 18.381404 
503.000000	 18.316125 
502.000000	 18.250203 
501.000000	 18.181753 
500.000000	 18.110132 
499.000000	 18.036627 
498.000000	 17.962980 
497.000000	 17.890715 
496.000000	 17.820382 
495.000000	 17.751502 
494.000000	 17.682027 
493.000000	 17.609596 
492.000000	 17.533731 
491.000000	 17.456007 
490.000000	 17.379689 
489.000000	 17.308759 
488.000000	 17.247843 
487.000000	 17.198944 
486.000000	 17.160320 
485.000000	 17.126107 
484.000000	 17.087936 
483.000000	 17.036724 
482.000000	 16.965031 
481.000000	 16.869711 
480.000000	 16.753363 
479.000000	 16.623687 
478.000000	 16.491413 
477.000000	 16.368222 
476.000000	 16.263294 
475.000000	 16.183614 
474.000000	 16.132736 
473.000000	 16.111230 
472.000000	 16.117310 
471.000000	 16.147971 
470.000000	 16.200184 
469.000000	 16.270422 
468.000000	 16.355419 
467.000000	 16.451096 
466.000000	 16.553020 
465.000000	 16.656303 
464.000000	 16.756010 
463.000000	 16.846776 
462.000000	 16.924428 
461.000000	 16.986227 
460.000000	 17.032313 
459.000000	 17.066192 
458.000000	 17.094063 
457.000000	 17.124199 
456.000000	 17.163777 
455.000000	 17.219281 
454.000000	 17.290759 
453.000000	 17.373871 
452.000000	 17.455816 
451.000000	 17.519497 
450.000000	 17.544078 
449.000000	 17.511034 
448.000000	 17.407488 
447.000000	 17.231011 
446.000000	 16.991376 
445.000000	 16.710138 
444.000000	 16.418457 
443.000000	 16.151499 
442.000000	 15.941309 
441.000000	 15.810489 
440.000000	 15.770030 
439.000000	 15.816187 
438.000000	 15.931749 
437.000000	 16.088771 
436.000000	 16.254115 
435.000000	 16.394972 
434.000000	 16.484856 
433.000000	 16.507077 
432.000000	 16.453576 
431.000000	 16.327500 
430.000000	 16.142249 
429.000000	 15.916919 
428.000000	 15.670752 
427.000000	 15.421986 
426.000000	 15.186786 
425.000000	 14.977502 
424.000000	 14.804172 
423.000000	 14.672398 
422.000000	 14.585471 
421.000000	 14.538550 
420.000000	 14.518952 
419.000000	 14.506626 
418.000000	 14.477324 
417.000000	 14.406895 
416.000000	 14.277195 
415.000000	 14.077472 
414.000000	 13.810515 
413.000000	 13.489961 
412.000000	 13.144016 
411.000000	 12.813210 
410.000000	 12.548208 
409.000000	 12.388491 
408.000000	 12.369465 
407.000000	 12.517309 
406.000000	 12.847709 
405.000000	 13.361620 
404.000000	 14.040565 
403.000000	 14.853429 
402.000000	 15.744495 
401.000000	 16.624212 
400.000000	 17.399668 
399.000000	 17.990708 
398.000000	 18.349957 
397.000000	 18.466544 
396.000000	 18.384838 
395.000000	 18.204355 
394.000000	 18.025970 
393.000000	 17.921090 
392.000000	 17.923688 
391.000000	 18.029212 
390.000000	 18.155527 
389.000000	 18.182873 
388.000000	 18.018579 
387.000000	 17.644333 
386.000000	 17.150735 
385.000000	 16.723990 
384.000000	 16.600632 
383.000000	 17.000317 
382.000000	 18.032169 
381.000000	 19.676995 
380.000000	 21.767187 
379.000000	 24.055671 
378.000000	 26.248264 
377.000000	 28.131937 
376.000000	 29.622602 
375.000000	 30.806636 
374.000000	 31.904888 
373.000000	 33.204150 
372.000000	 34.961056 
371.000000	 37.307143 
370.000000	 40.177106 

