PE IR       SPECTRUM    SPECTRUM    ASCII       PEDS        1.60        
  -1
C-996E~1.ASC
17/05/02
11:18:12.00
17/05/02
11:18:12.00
tln
$C-4040-8_t0006$<tbV0>[-12.5,-13.0,8.0,0.0,22,1,0]
370.000000
64









2002,4.07    
MIRTGS : RIGHTBACK : INTERNAL 2
MIR : ON : INTERNAL 2
OPTKBR

0.200000
8
8.000000
FILLER
RATIO
SPECTRUM
UNLOCKED 256

DOUBLE
64
COMBINED
1
0
0


1.000000
RATIO


1
0
TRUE
51149
0
LEFT NOT FITTED RIGHT NOT FITTED 0
NONE
NONE
15600
12.000000
4.427000
51148
TRUE
1 0 8 72 0 0 0 0 

15798.010000






#HDR
-1
-1
#GR
CM-1
%T
0.00002384185791015625
0.0
7800.000000
-1.000000
7431
8
74.138903
24.307107
#DATA
7800.000000	70.313882 
7799.000000	68.104267 
7798.000000	66.053366 
7797.000000	64.161968 
7796.000000	62.471580 
7795.000000	61.070585 
7794.000000	60.062408 
7793.000000	59.526109 
7792.000000	59.513330 
7791.000000	60.018396 
7790.000000	60.974383 
7789.000000	62.248182 
7788.000000	63.659095 
7787.000000	64.995598 
7786.000000	66.041302 
7785.000000	66.608333 
7784.000000	66.557478 
7783.000000	65.833663 
7782.000000	64.474916 
7781.000000	62.619137 
7780.000000	60.471892 
7779.000000	58.294105 
7778.000000	56.343460 
7777.000000	54.863357 
7776.000000	54.054188 
7775.000000	54.038238 
7774.000000	54.844117 
7773.000000	56.395936 
7772.000000	58.518600 
7771.000000	60.972452 
7770.000000	63.484549 
7769.000000	65.801715 
7768.000000	67.718458 
7767.000000	69.124174 
7766.000000	70.006179 
7765.000000	70.418167 
7764.000000	70.450258 
7763.000000	70.208644 
7762.000000	69.789838 
7761.000000	69.273996 
7760.000000	68.718266 
7759.000000	68.189382 
7758.000000	67.746877 
7757.000000	67.455744 
7756.000000	67.358899 
7755.000000	67.474579 
7754.000000	67.773175 
7753.000000	68.190145 
7752.000000	68.614578 
7751.000000	68.918013 
7750.000000	68.963766 
7749.000000	68.632054 
7748.000000	67.853236 
7747.000000	66.625070 
7746.000000	65.026879 
7745.000000	63.199210 
7744.000000	61.343717 
7743.000000	59.682130 
7742.000000	58.430838 
7741.000000	57.760190 
7740.000000	57.763671 
7739.000000	58.438467 
7738.000000	59.698629 
7737.000000	61.393618 
7736.000000	63.321971 
7735.000000	65.270447 
7734.000000	67.058134 
7733.000000	68.557929 
7732.000000	69.700503 
7731.000000	70.468640 
7730.000000	70.881724 
7729.000000	70.975565 
7728.000000	70.786905 
7727.000000	70.348930 
7726.000000	69.701147 
7725.000000	68.894481 
7724.000000	68.013143 
7723.000000	67.163610 
7722.000000	66.474270 
7721.000000	66.066980 
7720.000000	66.038775 
7719.000000	66.430878 
7718.000000	67.214822 
7717.000000	68.292498 
7716.000000	69.514012 
7715.000000	70.700764 
7714.000000	71.678042 
7713.000000	72.312903 
7712.000000	72.537398 
7711.000000	72.345948 
7710.000000	71.786236 
7709.000000	70.947551 
7708.000000	69.932436 
7707.000000	68.835949 
7706.000000	67.724418 
7705.000000	66.638612 
7704.000000	65.589332 
7703.000000	64.578104 
7702.000000	63.603234 
7701.000000	62.668085 
7700.000000	61.793112 
7699.000000	61.006736 
7698.000000	60.354828 
7697.000000	59.871792 
7696.000000	59.595870 
7695.000000	59.543848 
7694.000000	59.724044 
7693.000000	60.119771 
7692.000000	60.702991 
7691.000000	61.427068 
7690.000000	62.241029 
7689.000000	63.085556 
7688.000000	63.914322 
7687.000000	64.694333 
7686.000000	65.411639 
7685.000000	66.066098 
7684.000000	66.667151 
7683.000000	67.226147 
7682.000000	67.747426 
7681.000000	68.227696 
7680.000000	68.663382 
7679.000000	69.053649 
7678.000000	69.411492 
7677.000000	69.759178 
7676.000000	70.123910 
7675.000000	70.529079 
7674.000000	70.994281 
7673.000000	71.521162 
7672.000000	72.094011 
7671.000000	72.674441 
7670.000000	73.220491 
7669.000000	73.677730 
7668.000000	73.998618 
7667.000000	74.138903 
7666.000000	74.074006 
7665.000000	73.794603 
7664.000000	73.312759 
7663.000000	72.660088 
7662.000000	71.886515 
7661.000000	71.058440 
7660.000000	70.252990 
7659.000000	69.547200 
7658.000000	69.007563 
7657.000000	68.676424 
7656.000000	68.565964 
7655.000000	68.649888 
7654.000000	68.871617 
7653.000000	69.160079 
7652.000000	69.446325 
7651.000000	69.670295 
7650.000000	69.795298 
7649.000000	69.815874 
7648.000000	69.750881 
7647.000000	69.625854 
7646.000000	69.465613 
7645.000000	69.288635 
7644.000000	69.097709 
7643.000000	68.885850 
7642.000000	68.635725 
7641.000000	68.331503 
7640.000000	67.964887 
7639.000000	67.543578 
7638.000000	67.092585 
7637.000000	66.647934 
7636.000000	66.257047 
7635.000000	65.963697 
7634.000000	65.812563 
7633.000000	65.837812 
7632.000000	66.061949 
7631.000000	66.487503 
7630.000000	67.093372 
7629.000000	67.829513 
7628.000000	68.619203 
7627.000000	69.362044 
7626.000000	69.942951 
7625.000000	70.248270 
7624.000000	70.185661 
7623.000000	69.705414 
7622.000000	68.810653 
7621.000000	67.570090 
7620.000000	66.106605 
7619.000000	64.589262 
7618.000000	63.205409 
7617.000000	62.132835 
7616.000000	61.508417 
7615.000000	61.406159 
7614.000000	61.828422 
7613.000000	62.701225 
7612.000000	63.892054 
7611.000000	65.227532 
7610.000000	66.520118 
7609.000000	67.602181 
7608.000000	68.348169 
7607.000000	68.691468 
7606.000000	68.622446 
7605.000000	68.192672 
7604.000000	67.496752 
7603.000000	66.647171 
7602.000000	65.750861 
7601.000000	64.896845 
7600.000000	64.145278 
7599.000000	63.531041 
7598.000000	63.064932 
7597.000000	62.747550 
7596.000000	62.570309 
7595.000000	62.519669 
7594.000000	62.576651 
7593.000000	62.707471 
7592.000000	62.872385 
7591.000000	63.023066 
7590.000000	63.116168 
7589.000000	63.111710 
7588.000000	62.992811 
7587.000000	62.754964 
7586.000000	62.432432 
7585.000000	62.082791 
7584.000000	61.797428 
7583.000000	61.678671 
7582.000000	61.827087 
7581.000000	62.314724 
7580.000000	63.167572 
7579.000000	64.355945 
7578.000000	65.781188 
7577.000000	67.289805 
7576.000000	68.706107 
7575.000000	69.867706 
7574.000000	70.658707 
7573.000000	71.032357 
7572.000000	71.021103 
7571.000000	70.718216 
7570.000000	70.262098 
7569.000000	69.786381 
7568.000000	69.387030 
7567.000000	69.095134 
7566.000000	68.884611 
7565.000000	68.684601 
7564.000000	68.417072 
7563.000000	68.028020 
7562.000000	67.519330 
7561.000000	66.948604 
7560.000000	66.421866 
7559.000000	66.052651 
7558.000000	65.925645 
7557.000000	66.060042 
7556.000000	66.396832 
7555.000000	66.804265 
7554.000000	67.109489 
7553.000000	67.146396 
7552.000000	66.803574 
7551.000000	66.055846 
7550.000000	64.974856 
7549.000000	63.709974 
7548.000000	62.452626 
7547.000000	61.384320 
7546.000000	60.636496 
7545.000000	60.273718 
7544.000000	60.284066 
7543.000000	60.593724 
7542.000000	61.089396 
7541.000000	61.651539 
7540.000000	62.179517 
7539.000000	62.600851 
7538.000000	62.885785 
7537.000000	63.031339 
7536.000000	63.061118 
7535.000000	63.007998 
7534.000000	62.901663 
7533.000000	62.757015 
7532.000000	62.573456 
7531.000000	62.346458 
7530.000000	62.066626 
7529.000000	61.731886 
7528.000000	61.352562 
7527.000000	60.957336 
7526.000000	60.585498 
7525.000000	60.278844 
7524.000000	60.074543 
7523.000000	59.995818 
7522.000000	60.044646 
7521.000000	60.199904 
7520.000000	60.423207 
7519.000000	60.667181 
7518.000000	60.880517 
7517.000000	61.021828 
7516.000000	61.070442 
7515.000000	61.031484 
7514.000000	60.925459 
7513.000000	60.789632 
7512.000000	60.663533 
7511.000000	60.587501 
7510.000000	60.595321 
7509.000000	60.710191 
7508.000000	60.939455 
7507.000000	61.276698 
7506.000000	61.706089 
7505.000000	62.202095 
7504.000000	62.734198 
7503.000000	63.267922 
7502.000000	63.767266 
7501.000000	64.199566 
7500.000000	64.539241 
7499.000000	64.770388 
7498.000000	64.887785 
7497.000000	64.905595 
7496.000000	64.856314 
7495.000000	64.790749 
7494.000000	64.768838 
7493.000000	64.855098 
7492.000000	65.100646 
7491.000000	65.531945 
7490.000000	66.134977 
7489.000000	66.856813 
7488.000000	67.605972 
7487.000000	68.270754 
7486.000000	68.738794 
7485.000000	68.918395 
7484.000000	68.763422 
7483.000000	68.286657 
7482.000000	67.559647 
7481.000000	66.697025 
7480.000000	65.835571 
7479.000000	65.106844 
7478.000000	64.611029 
7477.000000	64.398646 
7476.000000	64.468669 
7475.000000	64.778351 
7474.000000	65.257191 
7473.000000	65.826439 
7472.000000	66.418051 
7471.000000	66.985988 
7470.000000	67.505264 
7469.000000	67.965221 
7468.000000	68.368005 
7467.000000	68.717408 
7466.000000	69.014549 
7465.000000	69.251370 
7464.000000	69.415330 
7463.000000	69.487595 
7462.000000	69.457650 
7461.000000	69.318532 
7460.000000	69.074130 
7459.000000	68.732333 
7458.000000	68.308520 
7457.000000	67.819023 
7456.000000	67.283082 
7455.000000	66.720509 
7454.000000	66.150069 
7453.000000	65.594506 
7452.000000	65.081858 
7451.000000	64.643359 
7450.000000	64.309525 
7449.000000	64.102983 
7448.000000	64.031100 
7447.000000	64.082527 
7446.000000	64.225888 
7445.000000	64.413666 
7444.000000	64.589381 
7443.000000	64.701271 
7442.000000	64.712595 
7441.000000	64.616298 
7440.000000	64.437723 
7439.000000	64.228725 
7438.000000	64.055967 
7437.000000	63.989782 
7436.000000	64.083623 
7435.000000	64.362168 
7434.000000	64.809107 
7433.000000	65.371608 
7432.000000	65.966296 
7431.000000	66.499137 
7430.000000	66.883111 
7429.000000	67.058253 
7428.000000	67.001938 
7427.000000	66.732478 
7426.000000	66.301679 
7425.000000	65.779161 
7424.000000	65.239048 
7423.000000	64.746642 
7422.000000	64.346790 
7421.000000	64.061236 
7420.000000	63.890457 
7419.000000	63.824033 
7418.000000	63.842272 
7417.000000	63.924241 
7416.000000	64.048457 
7415.000000	64.194965 
7414.000000	64.343643 
7413.000000	64.475083 
7412.000000	64.570927 
7411.000000	64.616894 
7410.000000	64.610481 
7409.000000	64.559078 
7408.000000	64.482879 
7407.000000	64.403676 
7406.000000	64.338254 
7405.000000	64.290022 
7404.000000	64.245653 
7403.000000	64.180612 
7402.000000	64.068818 
7401.000000	63.892364 
7400.000000	63.652014 
7399.000000	63.367319 
7398.000000	63.073587 
7397.000000	62.812590 
7396.000000	62.620663 
7395.000000	62.519764 
7394.000000	62.509322 
7393.000000	62.570500 
7392.000000	62.672090 
7391.000000	62.778711 
7390.000000	62.859630 
7389.000000	62.897109 
7388.000000	62.889146 
7387.000000	62.847375 
7386.000000	62.792086 
7385.000000	62.743520 
7384.000000	62.715673 
7383.000000	62.717890 
7382.000000	62.750887 
7381.000000	62.807917 
7380.000000	62.875270 
7379.000000	62.935209 
7378.000000	62.971615 
7377.000000	62.968850 
7376.000000	62.923574 
7375.000000	62.841820 
7374.000000	62.747168 
7373.000000	62.676882 
7372.000000	62.674760 
7371.000000	62.779927 
7370.000000	63.015127 
7369.000000	63.381910 
7368.000000	63.851594 
7367.000000	64.369368 
7366.000000	64.864683 
7365.000000	65.267419 
7364.000000	65.522336 
7363.000000	65.601468 
7362.000000	65.508008 
7361.000000	65.273451 
7360.000000	64.939785 
7359.000000	64.546537 
7358.000000	64.117527 
7357.000000	63.658285 
7356.000000	63.161134 
7355.000000	62.616491 
7354.000000	62.028908 
7353.000000	61.425161 
7352.000000	60.850214 
7351.000000	60.366868 
7350.000000	60.034322 
7349.000000	59.905171 
7348.000000	60.006046 
7347.000000	60.338044 
7346.000000	60.869383 
7345.000000	61.545968 
7344.000000	62.296915 
7343.000000	63.049221 
7342.000000	63.734102 
7341.000000	64.301896 
7340.000000	64.725899 
7339.000000	65.001487 
7338.000000	65.139222 
7337.000000	65.162754 
7336.000000	65.102672 
7335.000000	64.988303 
7334.000000	64.844465 
7333.000000	64.692234 
7332.000000	64.550781 
7331.000000	64.438271 
7330.000000	64.374065 
7329.000000	64.380002 
7328.000000	64.476370 
7327.000000	64.680504 
7326.000000	64.997935 
7325.000000	65.410780 
7324.000000	65.881705 
7323.000000	66.358852 
7322.000000	66.787242 
7321.000000	67.120504 
7320.000000	67.328596 
7319.000000	67.413210 
7318.000000	67.389631 
7317.000000	67.284703 
7316.000000	67.115974 
7315.000000	66.889715 
7314.000000	66.591811 
7313.000000	66.199016 
7312.000000	65.685224 
7311.000000	65.038585 
7310.000000	64.271521 
7309.000000	63.428783 
7308.000000	62.576580 
7307.000000	61.792135 
7306.000000	61.144399 
7305.000000	60.681843 
7304.000000	60.419583 
7303.000000	60.344171 
7302.000000	60.423302 
7301.000000	60.622143 
7300.000000	60.913467 
7299.000000	61.286759 
7298.000000	61.742210 
7297.000000	62.287735 
7296.000000	62.916254 
7295.000000	63.607811 
7294.000000	64.324474 
7293.000000	65.015816 
7292.000000	65.626645 
7291.000000	66.107702 
7290.000000	66.432309 
7289.000000	66.594123 
7288.000000	66.613268 
7287.000000	66.522669 
7286.000000	66.361641 
7285.000000	66.165757 
7284.000000	65.964674 
7283.000000	65.775418 
7282.000000	65.604829 
7281.000000	65.456557 
7280.000000	65.338325 
7279.000000	65.255975 
7278.000000	65.215253 
7277.000000	65.220499 
7276.000000	65.272712 
7275.000000	65.370059 
7274.000000	65.504026 
7273.000000	65.662455 
7272.000000	65.823483 
7271.000000	65.960073 
7270.000000	66.036581 
7269.000000	66.011190 
7268.000000	65.845751 
7267.000000	65.515136 
7266.000000	65.019035 
7265.000000	64.382743 
7264.000000	63.663554 
7263.000000	62.941288 
7262.000000	62.308907 
7261.000000	61.851620 
7260.000000	61.635136 
7259.000000	61.689782 
7258.000000	62.008643 
7257.000000	62.546348 
7256.000000	63.235473 
7255.000000	63.998031 
7254.000000	64.761781 
7253.000000	65.468811 
7252.000000	66.074633 
7251.000000	66.545510 
7250.000000	66.853785 
7249.000000	66.973471 
7248.000000	66.882133 
7247.000000	66.563701 
7246.000000	66.019105 
7245.000000	65.270972 
7244.000000	64.371442 
7243.000000	63.398003 
7242.000000	62.445569 
7241.000000	61.614060 
7240.000000	60.990762 
7239.000000	60.639500 
7238.000000	60.585665 
7237.000000	60.819602 
7236.000000	61.295914 
7235.000000	61.948275 
7234.000000	62.696862 
7233.000000	63.466095 
7232.000000	64.187002 
7231.000000	64.812922 
7230.000000	65.315508 
7229.000000	65.690350 
7228.000000	65.947890 
7227.000000	66.111898 
7226.000000	66.209530 
7225.000000	66.263532 
7224.000000	66.285276 
7223.000000	66.269659 
7222.000000	66.196036 
7221.000000	66.038179 
7220.000000	65.772056 
7219.000000	65.384817 
7218.000000	64.883422 
7217.000000	64.298343 
7216.000000	63.681435 
7215.000000	63.098120 
7214.000000	62.614536 
7213.000000	62.279248 
7212.000000	62.118005 
7211.000000	62.128257 
7210.000000	62.283420 
7209.000000	62.535142 
7208.000000	62.832188 
7207.000000	63.129806 
7206.000000	63.400363 
7205.000000	63.632893 
7204.000000	63.832116 
7203.000000	64.006996 
7202.000000	64.167809 
7201.000000	64.318418 
7200.000000	64.450144 
7199.000000	64.542031 
7198.000000	64.565038 
7197.000000	64.490389 
7196.000000	64.296364 
7195.000000	63.976955 
7194.000000	63.544464 
7193.000000	63.032054 
7192.000000	62.487912 
7191.000000	61.971020 
7190.000000	61.539125 
7189.000000	61.243319 
7188.000000	61.117792 
7187.000000	61.178183 
7186.000000	61.417770 
7185.000000	61.811470 
7184.000000	62.319326 
7183.000000	62.892961 
7182.000000	63.478755 
7181.000000	64.026689 
7180.000000	64.493680 
7179.000000	64.847922 
7178.000000	65.068602 
7177.000000	65.149354 
7176.000000	65.096545 
7175.000000	64.931654 
7174.000000	64.689302 
7173.000000	64.412212 
7172.000000	64.145922 
7171.000000	63.929510 
7170.000000	63.789844 
7169.000000	63.737416 
7168.000000	63.765931 
7167.000000	63.855290 
7166.000000	63.976883 
7165.000000	64.100861 
7164.000000	64.202070 
7163.000000	64.262127 
7162.000000	64.273262 
7161.000000	64.234876 
7160.000000	64.155411 
7159.000000	64.045667 
7158.000000	63.920998 
7157.000000	63.798069 
7156.000000	63.693690 
7155.000000	63.624882 
7154.000000	63.603091 
7153.000000	63.635063 
7152.000000	63.716292 
7151.000000	63.832187 
7150.000000	63.958787 
7149.000000	64.064908 
7148.000000	64.126396 
7147.000000	64.132189 
7146.000000	64.088940 
7145.000000	64.018964 
7144.000000	63.953948 
7143.000000	63.925576 
7142.000000	63.954639 
7141.000000	64.044690 
7140.000000	64.182019 
7139.000000	64.337992 
7138.000000	64.480638 
7137.000000	64.580011 
7136.000000	64.614462 
7135.000000	64.575290 
7134.000000	64.466428 
7133.000000	64.304757 
7132.000000	64.112043 
7131.000000	63.915061 
7130.000000	63.739562 
7129.000000	63.608217 
7128.000000	63.538479 
7127.000000	63.539123 
7126.000000	63.613009 
7125.000000	63.750505 
7124.000000	63.931751 
7123.000000	64.127111 
7122.000000	64.301252 
7121.000000	64.421319 
7120.000000	64.463114 
7119.000000	64.416503 
7118.000000	64.287328 
7117.000000	64.094066 
7116.000000	63.863730 
7115.000000	63.624119 
7114.000000	63.400220 
7113.000000	63.212323 
7112.000000	63.076519 
7111.000000	63.005542 
7110.000000	63.010215 
7109.000000	63.098406 
7108.000000	63.275241 
7107.000000	63.537096 
7106.000000	63.873982 
7105.000000	64.268684 
7104.000000	64.697861 
7103.000000	65.130686 
7102.000000	65.535140 
7101.000000	65.883517 
7100.000000	66.153645 
7099.000000	66.333031 
7098.000000	66.417527 
7097.000000	66.412067 
7096.000000	66.328382 
7095.000000	66.185283 
7094.000000	66.003799 
7093.000000	65.805864 
7092.000000	65.612053 
7091.000000	65.440917 
7090.000000	65.304660 
7089.000000	65.209293 
7088.000000	65.153169 
7087.000000	65.129137 
7086.000000	65.127897 
7085.000000	65.139484 
7084.000000	65.157985 
7083.000000	65.177583 
7082.000000	65.192198 
7081.000000	65.189361 
7080.000000	65.153789 
7079.000000	65.062832 
7078.000000	64.889836 
7077.000000	64.610815 
7076.000000	64.211010 
7075.000000	63.694667 
7074.000000	63.087368 
7073.000000	62.439060 
7072.000000	61.812257 
7071.000000	61.279439 
7070.000000	60.909318 
7069.000000	60.752129 
7068.000000	60.825896 
7067.000000	61.115002 
7066.000000	61.571764 
7065.000000	62.124323 
7064.000000	62.690234 
7063.000000	63.191771 
7062.000000	63.570022 
7061.000000	63.794469 
7060.000000	63.867020 
7059.000000	63.814425 
7058.000000	63.682556 
7057.000000	63.524961 
7056.000000	63.393568 
7055.000000	63.332509 
7054.000000	63.369512 
7053.000000	63.520860 
7052.000000	63.781642 
7051.000000	64.133834 
7050.000000	64.540123 
7049.000000	64.956426 
7048.000000	65.328431 
7047.000000	65.600824 
7046.000000	65.724134 
7045.000000	65.664029 
7044.000000	65.408444 
7043.000000	64.971089 
7042.000000	64.392662 
7041.000000	63.735103 
7040.000000	63.073635 
7039.000000	62.484359 
7038.000000	62.034511 
7037.000000	61.772036 
7036.000000	61.720108 
7035.000000	61.874461 
7034.000000	62.206172 
7033.000000	62.667012 
7032.000000	63.193535 
7031.000000	63.718795 
7030.000000	64.175772 
7029.000000	64.513564 
7028.000000	64.701509 
7027.000000	64.738893 
7026.000000	64.651155 
7025.000000	64.485764 
7024.000000	64.303946 
7023.000000	64.161753 
7022.000000	64.105319 
7021.000000	64.149665 
7020.000000	64.284539 
7019.000000	64.465785 
7018.000000	64.631843 
7017.000000	64.714145 
7016.000000	64.657378 
7015.000000	64.432382 
7014.000000	64.044022 
7013.000000	63.533878 
7012.000000	62.969255 
7011.000000	62.436795 
7010.000000	62.023138 
7009.000000	61.803317 
7008.000000	61.824464 
7007.000000	62.103915 
7006.000000	62.623214 
7005.000000	63.325810 
7004.000000	64.127039 
7003.000000	64.925599 
7002.000000	65.623974 
7001.000000	66.145944 
7000.000000	66.448903 
6999.000000	66.529035 
6998.000000	66.414761 
6997.000000	66.159534 
6996.000000	65.821123 
6995.000000	65.449833 
6994.000000	65.077114 
6993.000000	64.718461 
6992.000000	64.374494 
6991.000000	64.044547 
6990.000000	63.732862 
6989.000000	63.456654 
6988.000000	63.245129 
6987.000000	63.132405 
6986.000000	63.150835 
6985.000000	63.318729 
6984.000000	63.634896 
6983.000000	64.073634 
6982.000000	64.595532 
6981.000000	65.154123 
6980.000000	65.707635 
6979.000000	66.224336 
6978.000000	66.685700 
6977.000000	67.082905 
6976.000000	67.412185 
6975.000000	67.667651 
6974.000000	67.841577 
6973.000000	67.919754 
6972.000000	67.890954 
6971.000000	67.744803 
6970.000000	67.484617 
6969.000000	67.122602 
6968.000000	66.687321 
6967.000000	66.213870 
6966.000000	65.741157 
6965.000000	65.304183 
6964.000000	64.930963 
6963.000000	64.637446 
6962.000000	64.426589 
6961.000000	64.291000 
6960.000000	64.217543 
6959.000000	64.188122 
6958.000000	64.182949 
6957.000000	64.181876 
6956.000000	64.166378 
6955.000000	64.120125 
6954.000000	64.030647 
6953.000000	63.890576 
6952.000000	63.699746 
6951.000000	63.466286 
6950.000000	63.208174 
6949.000000	62.947320 
6948.000000	62.711262 
6947.000000	62.529993 
6946.000000	62.433600 
6945.000000	62.443566 
6944.000000	62.572097 
6943.000000	62.819409 
6942.000000	63.172698 
6941.000000	63.605260 
6940.000000	64.080739 
6939.000000	64.556479 
6938.000000	64.990329 
6937.000000	65.345716 
6936.000000	65.597462 
6935.000000	65.732979 
6934.000000	65.757250 
6933.000000	65.691471 
6932.000000	65.568709 
6931.000000	65.427184 
6930.000000	65.305399 
6929.000000	65.236043 
6928.000000	65.237355 
6927.000000	65.310716 
6926.000000	65.441465 
6925.000000	65.602970 
6924.000000	65.763545 
6923.000000	65.893244 
6922.000000	65.970039 
6921.000000	65.983223 
6920.000000	65.933012 
6919.000000	65.829086 
6918.000000	65.686297 
6917.000000	65.520668 
6916.000000	65.346121 
6915.000000	65.172171 
6914.000000	65.005922 
6913.000000	64.850759 
6912.000000	64.709830 
6911.000000	64.585447 
6910.000000	64.479088 
6909.000000	64.393949 
6908.000000	64.334344 
6907.000000	64.305210 
6906.000000	64.307236 
6905.000000	64.343047 
6904.000000	64.415717 
6903.000000	64.526462 
6902.000000	64.672183 
6901.000000	64.842915 
6900.000000	65.021252 
6899.000000	65.183138 
6898.000000	65.302300 
6897.000000	65.355634 
6896.000000	65.329194 
6895.000000	65.224361 
6894.000000	65.057802 
6893.000000	64.858055 
6892.000000	64.659547 
6891.000000	64.494800 
6890.000000	64.387869 
6889.000000	64.351797 
6888.000000	64.384675 
6887.000000	64.475178 
6886.000000	64.600586 
6885.000000	64.733242 
6884.000000	64.843130 
6883.000000	64.905166 
6882.000000	64.899706 
6881.000000	64.814209 
6880.000000	64.646482 
6879.000000	64.403510 
6878.000000	64.103507 
6877.000000	63.773345 
6876.000000	63.446402 
6875.000000	63.157892 
6874.000000	62.940120 
6873.000000	62.817597 
6872.000000	62.802410 
6871.000000	62.892675 
6870.000000	63.074588 
6869.000000	63.324642 
6868.000000	63.612723 
6867.000000	63.906908 
6866.000000	64.174842 
6865.000000	64.390754 
6864.000000	64.534115 
6863.000000	64.598250 
6862.000000	64.588117 
6861.000000	64.523458 
6860.000000	64.437007 
6859.000000	64.365315 
6858.000000	64.342498 
6857.000000	64.389395 
6856.000000	64.512586 
6855.000000	64.697098 
6854.000000	64.912390 
6853.000000	65.116190 
6852.000000	65.265655 
6851.000000	65.327477 
6850.000000	65.286684 
6849.000000	65.148854 
6848.000000	64.938187 
6847.000000	64.691185 
6846.000000	64.447665 
6845.000000	64.241719 
6844.000000	64.095258 
6843.000000	64.015960 
6842.000000	63.998413 
6841.000000	64.029335 
6840.000000	64.092969 
6839.000000	64.174818 
6838.000000	64.267301 
6837.000000	64.365601 
6836.000000	64.472651 
6835.000000	64.594650 
6834.000000	64.739871 
6833.000000	64.913463 
6832.000000	65.114641 
6831.000000	65.337705 
6830.000000	65.566539 
6829.000000	65.779638 
6828.000000	65.948534 
6827.000000	66.045904 
6826.000000	66.047883 
6825.000000	65.941739 
6824.000000	65.726613 
6823.000000	65.416002 
6822.000000	65.036511 
6821.000000	64.624547 
6820.000000	64.219832 
6819.000000	63.859105 
6818.000000	63.569426 
6817.000000	63.364839 
6816.000000	63.244557 
6815.000000	63.196444 
6814.000000	63.200473 
6813.000000	63.236379 
6812.000000	63.287615 
6811.000000	63.345575 
6810.000000	63.407278 
6809.000000	63.474106 
6808.000000	63.547396 
6807.000000	63.624072 
6806.000000	63.692069 
6805.000000	63.733625 
6804.000000	63.728046 
6803.000000	63.659858 
6802.000000	63.523530 
6801.000000	63.330268 
6800.000000	63.107538 
6799.000000	62.895298 
6798.000000	62.737250 
6797.000000	62.670564 
6796.000000	62.716293 
6795.000000	62.872815 
6794.000000	63.115429 
6793.000000	63.401722 
6792.000000	63.681197 
6791.000000	63.908505 
6790.000000	64.052534 
6789.000000	64.099860 
6788.000000	64.054846 
6787.000000	63.937640 
6786.000000	63.774991 
6785.000000	63.590407 
6784.000000	63.398218 
6783.000000	63.203835 
6782.000000	63.004088 
6781.000000	62.794160 
6780.000000	62.572503 
6779.000000	62.345504 
6778.000000	62.129211 
6777.000000	61.948037 
6776.000000	61.827945 
6775.000000	61.786508 
6774.000000	61.829876 
6773.000000	61.948442 
6772.000000	62.118387 
6771.000000	62.305307 
6770.000000	62.472987 
6769.000000	62.590622 
6768.000000	62.641835 
6767.000000	62.627768 
6766.000000	62.567591 
6765.000000	62.492895 
6764.000000	62.441611 
6763.000000	62.447905 
6762.000000	62.534570 
6761.000000	62.706947 
6760.000000	62.953281 
6759.000000	63.245725 
6758.000000	63.550066 
6757.000000	63.828825 
6756.000000	64.052700 
6755.000000	64.199066 
6754.000000	64.254522 
6753.000000	64.212369 
6752.000000	64.073348 
6751.000000	63.842701 
6750.000000	63.529491 
6749.000000	63.148474 
6748.000000	62.722539 
6747.000000	62.282276 
6746.000000	61.864781 
6745.000000	61.510157 
6744.000000	61.256313 
6743.000000	61.131381 
6742.000000	61.147522 
6741.000000	61.298108 
6740.000000	61.557555 
6739.000000	61.886548 
6738.000000	62.239003 
6737.000000	62.569952 
6736.000000	62.843966 
6735.000000	63.039755 
6734.000000	63.153314 
6733.000000	63.195824 
6732.000000	63.189768 
6731.000000	63.161349 
6730.000000	63.134455 
6729.000000	63.129544 
6728.000000	63.156294 
6727.000000	63.216328 
6726.000000	63.300132 
6725.000000	63.393855 
6724.000000	63.480067 
6723.000000	63.543558 
6722.000000	63.574504 
6721.000000	63.568592 
6720.000000	63.531708 
6719.000000	63.477206 
6718.000000	63.425326 
6717.000000	63.397526 
6716.000000	63.413357 
6715.000000	63.485860 
6714.000000	63.617277 
6713.000000	63.798451 
6712.000000	64.010357 
6711.000000	64.229369 
6710.000000	64.431715 
6709.000000	64.600849 
6708.000000	64.732885 
6707.000000	64.838814 
6706.000000	64.940977 
6705.000000	65.067195 
6704.000000	65.244174 
6703.000000	65.487170 
6702.000000	65.796780 
6701.000000	66.153049 
6700.000000	66.521453 
6699.000000	66.855525 
6698.000000	67.112874 
6697.000000	67.257189 
6696.000000	67.270016 
6695.000000	67.148876 
6694.000000	66.911411 
6693.000000	66.583991 
6692.000000	66.198587 
6691.000000	65.782117 
6690.000000	65.355038 
6689.000000	64.927577 
6688.000000	64.504361 
6687.000000	64.086556 
6686.000000	63.678193 
6685.000000	63.288664 
6684.000000	62.935352 
6683.000000	62.639093 
6682.000000	62.422275 
6681.000000	62.302947 
6680.000000	62.293004 
6679.000000	62.391114 
6678.000000	62.586116 
6677.000000	62.857460 
6676.000000	63.181042 
6675.000000	63.529038 
6674.000000	63.876914 
6673.000000	64.203906 
6672.000000	64.496445 
6671.000000	64.745759 
6670.000000	64.948534 
6669.000000	65.105581 
6668.000000	65.218853 
6667.000000	65.292286 
6666.000000	65.328097 
6665.000000	65.331149 
6664.000000	65.303397 
6663.000000	65.247893 
6662.000000	65.164852 
6661.000000	65.054488 
6660.000000	64.918828 
6659.000000	64.764595 
6658.000000	64.603281 
6657.000000	64.450550 
6656.000000	64.326763 
6655.000000	64.252567 
6654.000000	64.240956 
6653.000000	64.294505 
6652.000000	64.403247 
6651.000000	64.547824 
6650.000000	64.701676 
6649.000000	64.840316 
6648.000000	64.946317 
6647.000000	65.014505 
6646.000000	65.054774 
6645.000000	65.084290 
6644.000000	65.121769 
6643.000000	65.176939 
6642.000000	65.247631 
6641.000000	65.315866 
6640.000000	65.352201 
6639.000000	65.325021 
6638.000000	65.212082 
6637.000000	65.008449 
6636.000000	64.732289 
6635.000000	64.419388 
6634.000000	64.115500 
6633.000000	63.864612 
6632.000000	63.698434 
6631.000000	63.631963 
6630.000000	63.661885 
6629.000000	63.772082 
6628.000000	63.939309 
6627.000000	64.140963 
6626.000000	64.358258 
6625.000000	64.579415 
6624.000000	64.796066 
6623.000000	64.997172 
6622.000000	65.167284 
6621.000000	65.284490 
6620.000000	65.325474 
6619.000000	65.271234 
6618.000000	65.114879 
6617.000000	64.865756 
6616.000000	64.552474 
6615.000000	64.221048 
6614.000000	63.925528 
6613.000000	63.715982 
6612.000000	63.629245 
6611.000000	63.681769 
6610.000000	63.865041 
6609.000000	64.149260 
6608.000000	64.486455 
6607.000000	64.821004 
6606.000000	65.099906 
6605.000000	65.283393 
6604.000000	65.351629 
6603.000000	65.307736 
6602.000000	65.177869 
6601.000000	65.004897 
6600.000000	64.839839 
6599.000000	64.730095 
6598.000000	64.713478 
6597.000000	64.806485 
6596.000000	65.006542 
6595.000000	65.285420 
6594.000000	65.599513 
6593.000000	65.891408 
6592.000000	66.103148 
6591.000000	66.184496 
6590.000000	66.101384 
6589.000000	65.845584 
6588.000000	65.434432 
6587.000000	64.912772 
6586.000000	64.343404 
6585.000000	63.798594 
6584.000000	63.346385 
6583.000000	63.040184 
6582.000000	62.910723 
6581.000000	62.961506 
6580.000000	63.170766 
6579.000000	63.497281 
6578.000000	63.889503 
6577.000000	64.295578 
6576.000000	64.672017 
6575.000000	64.986848 
6574.000000	65.222001 
6573.000000	65.372872 
6572.000000	65.444874 
6571.000000	65.449309 
6570.000000	65.399408 
6569.000000	65.309214 
6568.000000	65.190815 
6567.000000	65.059423 
6566.000000	64.928531 
6565.000000	64.812040 
6564.000000	64.720654 
6563.000000	64.662575 
6562.000000	64.641261 
6561.000000	64.656329 
6560.000000	64.702844 
6559.000000	64.770841 
6558.000000	64.849424 
6557.000000	64.927840 
6556.000000	64.998340 
6555.000000	65.056562 
6554.000000	65.101885 
6553.000000	65.135669 
6552.000000	65.161442 
6551.000000	65.183281 
6550.000000	65.202927 
6549.000000	65.219402 
6548.000000	65.229463 
6547.000000	65.229082 
6546.000000	65.215420 
6545.000000	65.189385 
6544.000000	65.154957 
6543.000000	65.120863 
6542.000000	65.101051 
6541.000000	65.110492 
6540.000000	65.162229 
6539.000000	65.260767 
6538.000000	65.401029 
6537.000000	65.565085 
6536.000000	65.726017 
6535.000000	65.851306 
6534.000000	65.910625 
6533.000000	65.882086 
6532.000000	65.759706 
6531.000000	65.552687 
6530.000000	65.282440 
6529.000000	64.980101 
6528.000000	64.679908 
6527.000000	64.413952 
6526.000000	64.206981 
6525.000000	64.074540 
6524.000000	64.021873 
6523.000000	64.045834 
6522.000000	64.137077 
6521.000000	64.281225 
6520.000000	64.461207 
6519.000000	64.658665 
6518.000000	64.855289 
6517.000000	65.032505 
6516.000000	65.173172 
6515.000000	65.262794 
6514.000000	65.291190 
6513.000000	65.253973 
6512.000000	65.154123 
6511.000000	64.999961 
6510.000000	64.808535 
6509.000000	64.601635 
6508.000000	64.408111 
6507.000000	64.260029 
6506.000000	64.188766 
6505.000000	64.220213 
6504.000000	64.367628 
6503.000000	64.628648 
6502.000000	64.981484 
6501.000000	65.386724 
6500.000000	65.794825 
6499.000000	66.155052 
6498.000000	66.424798 
6497.000000	66.577291 
6496.000000	66.605710 
6495.000000	66.522622 
6494.000000	66.356062 
6493.000000	66.141819 
6492.000000	65.915083 
6491.000000	65.703725 
6490.000000	65.526247 
6489.000000	65.391016 
6488.000000	65.300965 
6487.000000	65.254902 
6486.000000	65.252876 
6485.000000	65.294051 
6484.000000	65.375542 
6483.000000	65.491080 
6482.000000	65.627098 
6481.000000	65.766406 
6480.000000	65.889286 
6479.000000	65.977215 
6478.000000	66.018390 
6477.000000	66.005516 
6476.000000	65.937972 
6475.000000	65.817904 
6474.000000	65.650033 
6473.000000	65.439176 
6472.000000	65.190792 
6471.000000	64.911556 
6470.000000	64.610838 
6469.000000	64.304375 
6468.000000	64.014315 
6467.000000	63.765287 
6466.000000	63.581204 
6465.000000	63.480567 
6464.000000	63.473653 
6463.000000	63.556766 
6462.000000	63.715910 
6461.000000	63.929080 
6460.000000	64.172339 
6459.000000	64.424443 
6458.000000	64.669585 
6457.000000	64.895510 
6456.000000	65.094923 
6455.000000	65.261197 
6454.000000	65.389871 
6453.000000	65.477943 
6452.000000	65.524101 
6451.000000	65.532159 
6450.000000	65.507197 
6449.000000	65.458011 
6448.000000	65.392279 
6447.000000	65.317869 
6446.000000	65.238308 
6445.000000	65.153956 
6444.000000	65.062141 
6443.000000	64.959955 
6442.000000	64.844489 
6441.000000	64.715027 
6440.000000	64.575505 
6439.000000	64.434146 
6438.000000	64.299249 
6437.000000	64.178657 
6436.000000	64.077711 
6435.000000	64.000177 
6434.000000	63.948035 
6433.000000	63.922619 
6432.000000	63.925075 
6431.000000	63.955569 
6430.000000	64.011788 
6429.000000	64.088797 
6428.000000	64.175748 
6427.000000	64.260983 
6426.000000	64.333438 
6425.000000	64.386057 
6424.000000	64.416885 
6423.000000	64.429664 
6422.000000	64.432191 
6421.000000	64.433741 
6420.000000	64.441299 
6419.000000	64.459967 
6418.000000	64.491748 
6417.000000	64.537501 
6416.000000	64.597749 
6415.000000	64.675116 
6414.000000	64.774036 
6413.000000	64.899587 
6412.000000	65.054368 
6411.000000	65.235447 
6410.000000	65.432143 
6409.000000	65.625619 
6408.000000	65.791988 
6407.000000	65.907454 
6406.000000	65.954422 
6405.000000	65.928101 
6404.000000	65.837335 
6403.000000	65.703392 
6402.000000	65.555071 
6401.000000	65.423297 
6400.000000	65.333008 
6399.000000	65.299296 
6398.000000	65.322542 
6397.000000	65.391683 
6396.000000	65.484309 
6395.000000	65.574431 
6394.000000	65.636420 
6393.000000	65.651082 
6392.000000	65.609359 
6391.000000	65.513515 
6390.000000	65.374898 
6389.000000	65.210080 
6388.000000	65.035605 
6387.000000	64.863848 
6386.000000	64.700531 
6385.000000	64.545369 
6384.000000	64.394855 
6383.000000	64.246439 
6382.000000	64.100170 
6381.000000	63.962221 
6380.000000	63.845038 
6379.000000	63.766002 
6378.000000	63.740181 
6377.000000	63.778877 
6376.000000	63.884210 
6375.000000	64.048719 
6374.000000	64.254975 
6373.000000	64.479327 
6372.000000	64.695358 
6371.000000	64.879250 
6370.000000	65.014600 
6369.000000	65.093302 
6368.000000	65.114569 
6367.000000	65.085840 
6366.000000	65.020275 
6365.000000	64.934682 
6364.000000	64.846396 
6363.000000	64.771842 
6362.000000	64.724516 
6361.000000	64.711165 
6360.000000	64.730930 
6359.000000	64.774274 
6358.000000	64.825034 
6357.000000	64.862799 
6356.000000	64.868187 
6355.000000	64.825868 
6354.000000	64.730191 
6353.000000	64.586496 
6352.000000	64.412403 
6351.000000	64.232349 
6350.000000	64.075350 
6349.000000	63.968420 
6348.000000	63.932609 
6347.000000	63.976860 
6346.000000	64.099264 
6345.000000	64.287304 
6344.000000	64.521765 
6343.000000	64.779281 
6342.000000	65.038681 
6341.000000	65.282917 
6340.000000	65.502166 
6339.000000	65.692162 
6338.000000	65.854215 
6337.000000	65.991878 
6336.000000	66.108798 
6335.000000	66.206121 
6334.000000	66.280198 
6333.000000	66.322445 
6332.000000	66.320991 
6331.000000	66.262912 
6330.000000	66.137599 
6329.000000	65.939426 
6328.000000	65.671706 
6327.000000	65.346574 
6326.000000	64.984345 
6325.000000	64.610004 
6324.000000	64.250349 
6323.000000	63.928985 
6322.000000	63.661813 
6321.000000	63.456368 
6320.000000	63.310551 
6319.000000	63.217473 
6318.000000	63.164663 
6317.000000	63.143491 
6316.000000	63.148188 
6315.000000	63.180851 
6314.000000	63.246703 
6313.000000	63.353037 
6312.000000	63.502407 
6311.000000	63.690257 
6310.000000	63.902258 
6309.000000	64.113903 
6308.000000	64.294099 
6307.000000	64.412164 
6306.000000	64.445328 
6305.000000	64.384531 
6304.000000	64.237856 
6303.000000	64.030194 
6302.000000	63.798499 
6301.000000	63.584041 
6300.000000	63.423705 
6299.000000	63.342046 
6298.000000	63.347792 
6297.000000	63.433003 
6296.000000	63.578844 
6295.000000	63.759398 
6294.000000	63.952469 
6293.000000	64.143300 
6292.000000	64.329552 
6291.000000	64.517259 
6290.000000	64.718174 
6289.000000	64.942908 
6288.000000	65.193700 
6287.000000	65.459847 
6286.000000	65.718531 
6285.000000	65.940332 
6284.000000	66.095471 
6283.000000	66.162967 
6282.000000	66.136097 
6281.000000	66.025614 
6280.000000	65.855717 
6279.000000	65.658593 
6278.000000	65.465307 
6277.000000	65.298700 
6276.000000	65.170860 
6275.000000	65.081477 
6274.000000	65.021562 
6273.000000	64.977335 
6272.000000	64.936780 
6271.000000	64.892745 
6270.000000	64.844083 
6269.000000	64.795851 
6268.000000	64.753484 
6267.000000	64.723515 
6266.000000	64.707088 
6265.000000	64.704179 
6264.000000	64.712333 
6263.000000	64.730334 
6262.000000	64.758706 
6261.000000	64.800739 
6260.000000	64.861941 
6259.000000	64.946818 
6258.000000	65.055513 
6257.000000	65.183997 
6256.000000	65.323877 
6255.000000	65.461850 
6254.000000	65.581727 
6253.000000	65.667176 
6252.000000	65.704965 
6251.000000	65.686655 
6250.000000	65.610456 
6249.000000	65.481495 
6248.000000	65.311360 
6247.000000	65.117883 
6246.000000	64.921545 
6245.000000	64.742422 
6244.000000	64.596486 
6243.000000	64.494442 
6242.000000	64.440178 
6241.000000	64.429664 
6240.000000	64.454650 
6239.000000	64.502882 
6238.000000	64.564394 
6237.000000	64.633059 
6236.000000	64.707064 
6235.000000	64.788293 
6234.000000	64.876317 
6233.000000	64.965415 
6232.000000	65.041923 
6231.000000	65.085768 
6230.000000	65.074682 
6229.000000	64.990520 
6228.000000	64.827084 
6227.000000	64.594364 
6226.000000	64.319086 
6225.000000	64.040398 
6224.000000	63.801527 
6223.000000	63.640069 
6222.000000	63.579344 
6221.000000	63.622975 
6220.000000	63.754224 
6219.000000	63.940691 
6218.000000	64.143419 
6217.000000	64.325404 
6216.000000	64.459228 
6215.000000	64.531588 
6214.000000	64.541363 
6213.000000	64.499545 
6212.000000	64.420700 
6211.000000	64.322900 
6210.000000	64.221620 
6209.000000	64.130806 
6208.000000	64.063310 
6207.000000	64.029645 
6206.000000	64.038705 
6205.000000	64.095377 
6204.000000	64.200782 
6203.000000	64.349246 
6202.000000	64.528107 
6201.000000	64.719486 
6200.000000	64.902710 
6199.000000	65.058827 
6198.000000	65.173506 
6197.000000	65.241336 
6196.000000	65.264940 
6195.000000	65.252161 
6194.000000	65.212082 
6193.000000	65.152525 
6192.000000	65.076971 
6191.000000	64.984655 
6190.000000	64.871764 
6189.000000	64.735627 
6188.000000	64.577054 
6187.000000	64.403581 
6186.000000	64.229798 
6185.000000	64.072537 
6184.000000	63.952064 
6183.000000	63.886928 
6182.000000	63.891530 
6181.000000	63.970112 
6180.000000	64.118289 
6179.000000	64.322423 
6178.000000	64.562702 
6177.000000	64.815044 
6176.000000	65.057110 
6175.000000	65.271043 
6174.000000	65.446543 
6173.000000	65.580582 
6172.000000	65.677928 
6171.000000	65.747523 
6170.000000	65.800380 
6169.000000	65.844941 
6168.000000	65.884542 
6167.000000	65.915131 
6166.000000	65.928578 
6165.000000	65.913534 
6164.000000	65.860390 
6163.000000	65.762758 
6162.000000	65.622878 
6161.000000	65.448522 
6160.000000	65.252757 
6159.000000	65.049433 
6158.000000	64.850926 
6157.000000	64.664769 
6156.000000	64.493322 
6155.000000	64.334201 
6154.000000	64.183330 
6153.000000	64.036488 
6152.000000	63.891363 
6151.000000	63.749146 
6150.000000	63.613581 
6149.000000	63.491344 
6148.000000	63.389348 
6147.000000	63.314175 
6146.000000	63.269424 
6145.000000	63.259363 
6144.000000	63.288497 
6143.000000	63.361597 
6142.000000	63.482189 
6141.000000	63.651680 
6140.000000	63.866496 
6139.000000	64.116311 
6138.000000	64.383244 
6137.000000	64.643859 
6136.000000	64.871764 
6135.000000	65.042710 
6134.000000	65.138816 
6133.000000	65.151906 
6132.000000	65.085887 
6131.000000	64.956974 
6130.000000	64.790487 
6129.000000	64.616680 
6128.000000	64.464545 
6127.000000	64.359211 
6126.000000	64.313912 
6125.000000	64.329624 
6124.000000	64.394283 
6123.000000	64.488172 
6122.000000	64.586973 
6121.000000	64.667749 
6120.000000	64.714837 
6119.000000	64.722752 
6118.000000	64.698338 
6117.000000	64.657831 
6116.000000	64.622807 
6115.000000	64.613389 
6114.000000	64.642477 
6113.000000	64.711332 
6112.000000	64.809060 
6111.000000	64.915251 
6110.000000	65.006875 
6109.000000	65.063691 
6108.000000	65.074133 
6107.000000	65.037560 
6106.000000	64.964199 
6105.000000	64.871859 
6104.000000	64.778828 
6103.000000	64.701056 
6102.000000	64.648413 
6101.000000	64.623904 
6100.000000	64.624547 
6099.000000	64.643430 
6098.000000	64.673137 
6097.000000	64.707112 
6096.000000	64.741635 
6095.000000	64.774632 
6094.000000	64.805102 
6093.000000	64.831209 
6092.000000	64.849305 
6091.000000	64.855003 
6090.000000	64.843964 
6089.000000	64.813780 
6088.000000	64.765024 
6087.000000	64.702439 
6086.000000	64.633655 
6085.000000	64.567375 
6084.000000	64.511179 
6083.000000	64.468979 
6082.000000	64.440774 
6081.000000	64.422559 
6080.000000	64.408969 
6079.000000	64.394688 
6078.000000	64.377284 
6077.000000	64.358305 
6076.000000	64.342665 
6075.000000	64.337325 
6074.000000	64.347457 
6073.000000	64.374852 
6072.000000	64.414453 
6071.000000	64.454174 
6070.000000	64.477944 
6069.000000	64.469408 
6068.000000	64.417695 
6067.000000	64.321088 
6066.000000	64.188718 
6065.000000	64.039206 
6064.000000	63.895463 
6063.000000	63.779211 
6062.000000	63.704681 
6061.000000	63.675570 
6060.000000	63.684797 
6059.000000	63.717699 
6058.000000	63.757252 
6057.000000	63.789892 
6056.000000	63.807964 
6055.000000	63.812875 
6054.000000	63.813018 
6053.000000	63.821864 
6052.000000	63.851165 
6051.000000	63.908553 
6050.000000	63.994503 
6049.000000	64.102029 
6048.000000	64.219093 
6047.000000	64.330744 
6046.000000	64.424037 
6045.000000	64.489674 
6044.000000	64.524459 
6043.000000	64.530158 
6042.000000	64.511799 
6041.000000	64.476585 
6040.000000	64.432144 
6039.000000	64.384508 
6038.000000	64.337539 
6037.000000	64.292669 
6036.000000	64.250421 
6035.000000	64.210796 
6034.000000	64.175581 
6033.000000	64.149475 
6032.000000	64.140772 
6031.000000	64.160108 
6030.000000	64.218282 
6029.000000	64.321613 
6028.000000	64.470148 
6027.000000	64.656352 
6026.000000	64.865088 
6025.000000	65.076446 
6024.000000	65.268254 
6023.000000	65.421843 
6022.000000	65.522861 
6021.000000	65.564465 
6020.000000	65.545535 
6019.000000	65.472126 
6018.000000	65.352416 
6017.000000	65.196132 
6016.000000	65.011858 
6015.000000	64.808154 
6014.000000	64.592361 
6013.000000	64.372777 
6012.000000	64.157676 
6011.000000	63.956570 
6010.000000	63.777542 
6009.000000	63.627290 
6008.000000	63.508844 
6007.000000	63.422822 
6006.000000	63.368344 
6005.000000	63.345718 
6004.000000	63.355708 
6003.000000	63.401770 
6002.000000	63.487744 
6001.000000	63.617229 
6000.000000	63.788580 
5999.000000	63.995504 
5998.000000	64.225196 
5997.000000	64.461326 
5996.000000	64.684724 
5995.000000	64.878487 
5994.000000	65.030884 
5993.000000	65.137648 
5992.000000	65.202474 
5991.000000	65.235376 
5990.000000	65.250635 
5989.000000	65.261840 
5988.000000	65.279650 
5987.000000	65.308690 
5986.000000	65.348172 
5985.000000	65.392398 
5984.000000	65.434122 
5983.000000	65.465331 
5982.000000	65.480089 
5981.000000	65.475416 
5980.000000	65.451765 
5979.000000	65.412259 
5978.000000	65.361452 
5977.000000	65.304422 
5976.000000	65.245389 
5975.000000	65.186381 
5974.000000	65.127801 
5973.000000	65.069437 
5972.000000	65.012073 
5971.000000	64.958405 
5970.000000	64.913368 
5969.000000	64.883303 
5968.000000	64.873886 
5967.000000	64.889025 
5966.000000	64.927840 
5965.000000	64.983439 
5964.000000	65.043735 
5963.000000	65.094280 
5962.000000	65.120100 
5961.000000	65.109348 
5960.000000	65.055441 
5959.000000	64.959001 
5958.000000	64.826416 
5957.000000	64.668369 
5956.000000	64.496707 
5955.000000	64.322400 
5954.000000	64.153695 
5953.000000	63.996911 
5952.000000	63.857293 
5951.000000	63.741087 
5950.000000	63.656139 
5949.000000	63.611936 
5948.000000	63.617014 
5947.000000	63.677096 
5946.000000	63.791203 
5945.000000	63.951253 
5944.000000	64.139890 
5943.000000	64.335346 
5942.000000	64.514064 
5941.000000	64.656877 
5940.000000	64.752006 
5939.000000	64.797902 
5938.000000	64.803099 
5937.000000	64.782309 
5936.000000	64.752650 
5935.000000	64.727854 
5934.000000	64.715528 
5933.000000	64.715671 
5932.000000	64.722752 
5931.000000	64.728069 
5930.000000	64.723992 
5929.000000	64.706516 
5928.000000	64.677381 
5927.000000	64.642715 
5926.000000	64.611840 
5925.000000	64.593482 
5924.000000	64.594149 
5923.000000	64.616346 
5922.000000	64.659118 
5921.000000	64.718437 
5920.000000	64.789533 
5919.000000	64.868807 
5918.000000	64.954185 
5917.000000	65.045046 
5916.000000	65.140557 
5915.000000	65.238761 
5914.000000	65.334796 
5913.000000	65.421581 
5912.000000	65.489220 
5911.000000	65.528512 
5910.000000	65.530943 
5909.000000	65.492534 
5908.000000	65.413141 
5907.000000	65.297961 
5906.000000	65.155863 
5905.000000	64.998865 
5904.000000	64.839363 
5903.000000	64.688730 
5902.000000	64.555811 
5901.000000	64.446282 
5900.000000	64.362597 
5899.000000	64.304494 
5898.000000	64.269518 
5897.000000	64.254450 
5896.000000	64.255142 
5895.000000	64.268183 
5894.000000	64.290452 
5893.000000	64.320397 
5892.000000	64.356112 
5891.000000	64.397168 
5890.000000	64.443445 
5889.000000	64.496135 
5888.000000	64.555382 
5887.000000	64.621710 
5886.000000	64.695644 
5885.000000	64.776754 
5884.000000	64.863824 
5883.000000	64.953017 
5882.000000	65.038752 
5881.000000	65.112709 
5880.000000	65.165805 
5879.000000	65.189170 
5878.000000	65.176653 
5877.000000	65.126490 
5876.000000	65.042591 
5875.000000	64.935255 
5874.000000	64.819574 
5873.000000	64.713954 
5872.000000	64.636349 
5871.000000	64.600348 
5870.000000	64.611506 
5869.000000	64.667439 
5868.000000	64.756560 
5867.000000	64.859318 
5866.000000	64.952206 
5865.000000	65.012764 
5864.000000	65.025019 
5863.000000	64.981627 
5862.000000	64.887475 
5861.000000	64.757108 
5860.000000	64.613199 
5859.000000	64.481592 
5858.000000	64.385390 
5857.000000	64.340424 
5856.000000	64.350938 
5855.000000	64.410638 
5854.000000	64.502358 
5853.000000	64.603233 
5852.000000	64.688611 
5851.000000	64.737844 
5850.000000	64.737892 
5849.000000	64.685702 
5848.000000	64.588785 
5847.000000	64.463615 
5846.000000	64.331865 
5845.000000	64.216208 
5844.000000	64.138221 
5843.000000	64.114689 
5842.000000	64.155507 
5841.000000	64.262127 
5840.000000	64.428210 
5839.000000	64.639735 
5838.000000	64.877700 
5837.000000	65.119695 
5836.000000	65.342378 
5835.000000	65.524196 
5834.000000	65.648460 
5833.000000	65.704941 
5832.000000	65.690231 
5831.000000	65.609335 
5830.000000	65.475225 
5829.000000	65.307068 
5828.000000	65.128135 
5827.000000	64.962148 
5826.000000	64.831686 
5825.000000	64.751935 
5824.000000	64.729571 
5823.000000	64.759588 
5822.000000	64.827322 
5821.000000	64.908909 
5820.000000	64.976596 
5819.000000	65.003132 
5818.000000	64.968013 
5817.000000	64.861249 
5816.000000	64.686965 
5815.000000	64.462256 
5814.000000	64.215683 
5813.000000	63.980460 
5812.000000	63.789772 
5811.000000	63.669848 
5810.000000	63.636493 
5809.000000	63.693475 
5808.000000	63.832426 
5807.000000	64.034366 
5806.000000	64.274668 
5805.000000	64.527702 
5804.000000	64.770245 
5803.000000	64.981961 
5802.000000	65.149497 
5801.000000	65.265154 
5800.000000	65.328001 
5799.000000	65.341734 
5798.000000	65.314149 
5797.000000	65.255236 
5796.000000	65.177464 
5795.000000	65.095090 
5794.000000	65.021324 
5793.000000	64.967226 
5792.000000	64.941382 
5791.000000	64.948821 
5790.000000	64.990282 
5789.000000	65.061831 
5788.000000	65.156149 
5787.000000	65.262913 
5786.000000	65.370845 
5785.000000	65.468120 
5784.000000	65.544700 
5783.000000	65.591502 
5782.000000	65.600943 
5781.000000	65.567684 
5780.000000	65.490221 
5779.000000	65.371441 
5778.000000	65.219593 
5777.000000	65.047788 
5776.000000	64.872360 
5775.000000	64.711380 
5774.000000	64.582681 
5773.000000	64.500045 
5772.000000	64.469909 
5771.000000	64.492774 
5770.000000	64.563632 
5769.000000	64.673089 
5768.000000	64.809036 
5767.000000	64.959454 
5766.000000	65.113639 
5765.000000	65.262103 
5764.000000	65.396738 
5763.000000	65.509653 
5762.000000	65.594029 
5761.000000	65.644526 
5760.000000	65.659046 
5759.000000	65.640974 
5758.000000	65.598273 
5757.000000	65.545439 
5756.000000	65.497064 
5755.000000	65.466475 
5754.000000	65.458989 
5753.000000	65.472149 
5752.000000	65.493750 
5751.000000	65.505528 
5750.000000	65.487575 
5749.000000	65.425205 
5748.000000	65.312576 
5747.000000	65.155458 
5746.000000	64.970302 
5745.000000	64.780616 
5744.000000	64.611268 
5743.000000	64.481925 
5742.000000	64.403176 
5741.000000	64.374303 
5740.000000	64.385342 
5739.000000	64.420962 
5738.000000	64.464378 
5737.000000	64.502120 
5736.000000	64.526677 
5735.000000	64.538025 
5734.000000	64.539361 
5733.000000	64.537048 
5732.000000	64.538359 
5731.000000	64.550161 
5730.000000	64.576292 
5729.000000	64.618206 
5728.000000	64.675569 
5727.000000	64.746403 
5726.000000	64.828181 
5725.000000	64.917278 
5724.000000	65.009355 
5723.000000	65.098953 
5722.000000	65.180468 
5721.000000	65.247464 
5720.000000	65.293836 
5719.000000	65.314030 
5718.000000	65.305280 
5717.000000	65.266275 
5716.000000	65.197801 
5715.000000	65.103244 
5714.000000	64.988923 
5713.000000	64.862513 
5712.000000	64.732027 
5711.000000	64.605569 
5710.000000	64.489698 
5709.000000	64.387273 
5708.000000	64.297175 
5707.000000	64.213895 
5706.000000	64.130163 
5705.000000	64.038705 
5704.000000	63.936281 
5703.000000	63.823652 
5702.000000	63.707995 
5701.000000	63.600492 
5700.000000	63.514971 
5699.000000	63.462758 
5698.000000	63.450980 
5697.000000	63.478517 
5696.000000	63.538265 
5695.000000	63.616347 
5694.000000	63.699102 
5693.000000	63.775539 
5692.000000	63.841485 
5691.000000	63.899445 
5690.000000	63.957643 
5689.000000	64.025998 
5688.000000	64.111876 
5687.000000	64.216327 
5686.000000	64.332866 
5685.000000	64.447927 
5684.000000	64.545297 
5683.000000	64.609980 
5682.000000	64.631175 
5681.000000	64.605140 
5680.000000	64.536643 
5679.000000	64.437556 
5678.000000	64.323306 
5677.000000	64.210009 
5676.000000	64.111590 
5675.000000	64.037656 
5674.000000	63.992929 
5673.000000	63.977146 
5672.000000	63.987588 
5671.000000	64.019060 
5670.000000	64.065575 
5669.000000	64.120626 
5668.000000	64.177203 
5667.000000	64.228796 
5666.000000	64.268541 
5665.000000	64.291405 
5664.000000	64.294004 
5663.000000	64.276647 
5662.000000	64.243412 
5661.000000	64.201951 
5660.000000	64.161944 
5659.000000	64.134240 
5658.000000	64.128518 
5657.000000	64.150905 
5656.000000	64.202213 
5655.000000	64.277577 
5654.000000	64.367079 
5653.000000	64.457845 
5652.000000	64.536643 
5651.000000	64.592957 
5650.000000	64.620542 
5649.000000	64.618945 
5648.000000	64.592409 
5647.000000	64.547967 
5646.000000	64.493465 
5645.000000	64.435839 
5644.000000	64.380097 
5643.000000	64.329123 
5642.000000	64.284443 
5641.000000	64.247369 
5640.000000	64.219403 
5639.000000	64.203071 
5638.000000	64.200639 
5637.000000	64.213466 
5636.000000	64.240717 
5635.000000	64.278602 
5634.000000	64.320898 
5633.000000	64.359974 
5632.000000	64.388751 
5631.000000	64.402508 
5630.000000	64.400768 
5629.000000	64.387941 
5628.000000	64.372253 
5627.000000	64.363622 
5626.000000	64.371442 
5625.000000	64.401745 
5624.000000	64.456439 
5623.000000	64.531302 
5622.000000	64.618301 
5621.000000	64.705371 
5620.000000	64.779210 
5619.000000	64.827060 
5618.000000	64.839768 
5617.000000	64.813303 
5616.000000	64.749145 
5615.000000	64.654970 
5614.000000	64.542722 
5613.000000	64.427304 
5612.000000	64.323949 
5611.000000	64.246010 
5610.000000	64.202523 
5609.000000	64.198660 
5608.000000	64.235806 
5607.000000	64.311075 
5606.000000	64.417886 
5605.000000	64.547371 
5604.000000	64.689302 
5603.000000	64.831900 
5602.000000	64.963245 
5601.000000	65.071582 
5600.000000	65.147805 
5599.000000	65.186285 
5598.000000	65.187311 
5597.000000	65.157890 
5596.000000	65.111255 
5595.000000	65.065884 
5594.000000	65.040755 
5593.000000	65.052771 
5592.000000	65.110492 
5591.000000	65.213942 
5590.000000	65.351581 
5589.000000	65.505194 
5588.000000	65.650057 
5587.000000	65.762376 
5586.000000	65.820789 
5585.000000	65.811610 
5584.000000	65.729212 
5583.000000	65.577721 
5582.000000	65.368485 
5581.000000	65.118169 
5580.000000	64.846825 
5579.000000	64.575767 
5578.000000	64.325451 
5577.000000	64.113926 
5576.000000	63.955521 
5575.000000	63.859844 
5574.000000	63.830661 
5573.000000	63.865756 
5572.000000	63.955831 
5571.000000	64.086532 
5570.000000	64.239764 
5569.000000	64.396762 
5568.000000	64.539003 
5567.000000	64.651441 
5566.000000	64.722943 
5565.000000	64.748334 
5564.000000	64.726877 
5563.000000	64.664006 
5562.000000	64.569926 
5561.000000	64.459013 
5560.000000	64.348316 
5559.000000	64.254593 
5558.000000	64.192771 
5557.000000	64.172482 
5556.000000	64.197158 
5555.000000	64.262962 
5554.000000	64.359879 
5553.000000	64.473724 
5552.000000	64.588975 
5551.000000	64.692068 
5550.000000	64.773821 
5549.000000	64.831876 
5548.000000	64.870572 
5547.000000	64.898848 
5546.000000	64.927363 
5545.000000	64.966630 
5544.000000	65.023159 
5543.000000	65.098309 
5542.000000	65.186595 
5541.000000	65.278387 
5540.000000	65.360569 
5539.000000	65.421032 
5538.000000	65.449881 
5537.000000	65.441918 
5536.000000	65.397524 
5535.000000	65.322899 
5534.000000	65.228748 
5533.000000	65.128040 
5532.000000	65.034079 
5531.000000	64.958214 
5530.000000	64.908170 
5529.000000	64.887428 
5528.000000	64.894652 
5527.000000	64.924597 
5526.000000	64.969134 
5525.000000	65.018987 
5524.000000	65.065646 
5523.000000	65.102839 
5522.000000	65.127062 
5521.000000	65.137696 
5520.000000	65.136957 
5519.000000	65.128564 
5518.000000	65.116262 
5517.000000	65.102052 
5516.000000	65.085697 
5515.000000	65.064620 
5514.000000	65.035057 
5513.000000	64.993786 
5512.000000	64.940118 
5511.000000	64.877223 
5510.000000	64.812016 
5509.000000	64.754056 
5508.000000	64.713835 
5507.000000	64.699554 
5506.000000	64.714670 
5505.000000	64.756488 
5504.000000	64.816594 
5503.000000	64.882278 
5502.000000	64.939808 
5501.000000	64.976906 
5500.000000	64.985585 
5499.000000	64.963626 
5498.000000	64.914703 
5497.000000	64.847302 
5496.000000	64.772558 
5495.000000	64.701581 
5494.000000	64.643335 
5493.000000	64.604496 
5492.000000	64.588522 
5491.000000	64.596462 
5490.000000	64.626789 
5489.000000	64.675569 
5488.000000	64.736962 
5487.000000	64.803719 
5486.000000	64.867711 
5485.000000	64.919829 
5484.000000	64.952135 
5483.000000	64.958643 
5482.000000	64.937138 
5481.000000	64.889097 
5480.000000	64.820384 
5479.000000	64.740657 
5478.000000	64.661288 
5477.000000	64.593625 
5476.000000	64.546251 
5475.000000	64.524245 
5474.000000	64.526176 
5473.000000	64.545106 
5472.000000	64.568781 
5471.000000	64.583063 
5470.000000	64.574217 
5469.000000	64.532709 
5468.000000	64.455246 
5467.000000	64.346742 
5466.000000	64.220285 
5465.000000	64.095425 
5464.000000	63.994407 
5463.000000	63.937926 
5462.000000	63.941264 
5461.000000	64.010500 
5460.000000	64.141011 
5459.000000	64.317822 
5458.000000	64.518523 
5457.000000	64.717864 
5456.000000	64.891147 
5455.000000	65.020513 
5454.000000	65.096783 
5453.000000	65.121746 
5452.000000	65.105676 
5451.000000	65.065217 
5450.000000	65.018725 
5449.000000	64.982318 
5448.000000	64.967489 
5447.000000	64.978241 
5446.000000	65.012192 
5445.000000	65.061521 
5444.000000	65.116477 
5443.000000	65.166783 
5442.000000	65.204215 
5441.000000	65.223026 
5440.000000	65.220355 
5439.000000	65.196084 
5438.000000	65.152144 
5437.000000	65.091085 
5436.000000	65.015792 
5435.000000	64.929819 
5434.000000	64.836955 
5433.000000	64.741897 
5432.000000	64.649701 
5431.000000	64.565277 
5430.000000	64.493203 
5429.000000	64.436602 
5428.000000	64.397716 
5427.000000	64.377045 
5426.000000	64.374208 
5425.000000	64.387106 
5424.000000	64.413332 
5423.000000	64.450335 
5422.000000	64.495158 
5421.000000	64.544367 
5420.000000	64.593601 
5419.000000	64.637517 
5418.000000	64.670062 
5417.000000	64.685177 
5416.000000	64.676523 
5415.000000	64.638447 
5414.000000	64.567613 
5413.000000	64.463996 
5412.000000	64.331245 
5411.000000	64.176774 
5410.000000	64.010858 
5409.000000	63.845753 
5408.000000	63.694381 
5407.000000	63.568902 
5406.000000	63.477945 
5405.000000	63.426947 
5404.000000	63.417100 
5403.000000	63.446688 
5402.000000	63.510441 
5401.000000	63.602018 
5400.000000	63.712692 
5399.000000	63.834452 
5398.000000	63.959288 
5397.000000	64.080953 
5396.000000	64.193081 
5395.000000	64.291667 
5394.000000	64.374160 
5393.000000	64.440584 
5392.000000	64.492607 
5391.000000	64.534568 
5390.000000	64.572310 
5389.000000	64.612460 
5388.000000	64.660310 
5387.000000	64.718890 
5386.000000	64.786839 
5385.000000	64.857339 
5384.000000	64.917993 
5383.000000	64.953494 
5382.000000	64.948272 
5381.000000	64.889526 
5380.000000	64.771747 
5379.000000	64.598655 
5378.000000	64.385533 
5377.000000	64.156007 
5376.000000	63.940238 
5375.000000	63.768720 
5374.000000	63.667440 
5373.000000	63.651847 
5372.000000	63.724899 
5371.000000	63.875913 
5370.000000	64.083933 
5369.000000	64.321875 
5368.000000	64.561533 
5367.000000	64.777421 
5366.000000	64.951658 
5365.000000	65.075063 
5364.000000	65.146803 
5363.000000	65.171480 
5362.000000	65.158724 
5361.000000	65.120077 
5360.000000	65.067887 
5359.000000	65.013122 
5358.000000	64.964795 
5357.000000	64.928245 
5356.000000	64.906144 
5355.000000	64.897584 
5354.000000	64.898419 
5353.000000	64.902615 
5352.000000	64.902615 
5351.000000	64.893174 
5350.000000	64.872694 
5349.000000	64.845204 
5348.000000	64.819288 
5347.000000	64.806103 
5346.000000	64.816117 
5345.000000	64.855217 
5344.000000	64.923310 
5343.000000	65.011525 
5342.000000	65.104174 
5341.000000	65.181183 
5340.000000	65.223002 
5339.000000	65.215516 
5338.000000	65.154027 
5337.000000	65.044927 
5336.000000	64.904308 
5335.000000	64.756250 
5334.000000	64.627385 
5333.000000	64.541602 
5332.000000	64.514279 
5331.000000	64.550757 
5330.000000	64.643812 
5329.000000	64.775490 
5328.000000	64.919757 
5327.000000	65.047359 
5326.000000	65.132212 
5325.000000	65.154886 
5324.000000	65.108823 
5323.000000	65.000629 
5322.000000	64.849948 
5321.000000	64.684820 
5320.000000	64.534997 
5319.000000	64.426755 
5318.000000	64.374947 
5317.000000	64.381814 
5316.000000	64.435100 
5315.000000	64.511609 
5314.000000	64.585304 
5313.000000	64.634060 
5312.000000	64.647364 
5311.000000	64.628529 
5310.000000	64.593172 
5309.000000	64.563202 
5308.000000	64.558506 
5307.000000	64.589309 
5306.000000	64.650559 
5305.000000	64.722299 
5304.000000	64.775800 
5303.000000	64.781761 
5302.000000	64.721465 
5301.000000	64.591765 
5300.000000	64.406800 
5299.000000	64.193797 
5298.000000	63.984560 
5297.000000	63.807654 
5296.000000	63.680124 
5295.000000	63.606214 
5294.000000	63.574790 
5293.000000	63.569974 
5292.000000	63.577580 
5291.000000	63.592791 
5290.000000	63.623714 
5289.000000	63.686394 
5288.000000	63.797020 
5287.000000	63.964486 
5286.000000	64.184093 
5285.000000	64.433336 
5284.000000	64.673829 
5283.000000	64.861321 
5282.000000	64.956760 
5281.000000	64.935207 
5280.000000	64.793515 
5279.000000	64.552021 
5278.000000	64.250540 
5277.000000	63.941693 
5276.000000	63.677573 
5275.000000	63.500118 
5274.000000	63.428926 
5273.000000	63.458895 
5272.000000	63.559746 
5271.000000	63.684678 
5270.000000	63.782382 
5269.000000	63.808393 
5268.000000	63.740420 
5267.000000	63.577461 
5266.000000	63.348984 
5265.000000	63.102102 
5264.000000	62.898087 
5263.000000	62.792420 
5262.000000	62.828755 
5261.000000	63.027667 
5260.000000	63.383460 
5259.000000	63.865399 
5258.000000	64.424729 
5257.000000	65.005588 
5256.000000	65.552043 
5255.000000	66.017508 
5254.000000	66.366934 
5253.000000	66.579604 
5252.000000	66.648459 
5251.000000	66.578841 
5250.000000	66.388177 
5249.000000	66.102385 
5248.000000	65.758085 
5247.000000	65.394473 
5246.000000	65.050911 
5245.000000	64.757275 
5244.000000	64.535927 
5243.000000	64.392709 
5242.000000	64.317774 
5241.000000	64.287304 
5240.000000	64.270687 
5239.000000	64.237046 
5238.000000	64.161252 
5237.000000	64.030647 
5236.000000	63.844943 
5235.000000	63.617300 
5234.000000	63.367271 
5233.000000	63.119125 
5232.000000	62.893867 
5231.000000	62.708926 
5230.000000	62.575244 
5229.000000	62.497997 
5228.000000	62.476897 
5227.000000	62.508916 
5226.000000	62.589979 
5225.000000	62.711358 
5224.000000	62.861299 
5223.000000	63.027620 
5222.000000	63.199973 
5221.000000	63.368034 
5220.000000	63.525128 
5219.000000	63.669204 
5218.000000	63.803291 
5217.000000	63.934135 
5216.000000	64.069628 
5215.000000	64.214301 
5214.000000	64.368724 
5213.000000	64.530515 
5212.000000	64.693737 
5211.000000	64.850163 
5210.000000	64.992117 
5209.000000	65.117859 
5208.000000	65.227127 
5207.000000	65.322208 
5206.000000	65.403628 
5205.000000	65.470790 
5204.000000	65.517807 
5203.000000	65.534830 
5202.000000	65.510392 
5201.000000	65.435647 
5200.000000	65.306043 
5199.000000	65.123891 
5198.000000	64.898848 
5197.000000	64.646267 
5196.000000	64.383435 
5195.000000	64.126658 
5194.000000	63.886404 
5193.000000	63.668417 
5192.000000	63.474702 
5191.000000	63.307714 
5190.000000	63.169717 
5189.000000	63.068366 
5188.000000	63.014507 
5187.000000	63.023066 
5186.000000	63.104081 
5185.000000	63.263726 
5184.000000	63.498568 
5183.000000	63.796186 
5182.000000	64.133620 
5181.000000	64.481735 
5180.000000	64.809441 
5179.000000	65.088629 
5178.000000	65.298748 
5177.000000	65.428853 
5176.000000	65.478515 
5175.000000	65.456056 
5174.000000	65.376067 
5173.000000	65.255260 
5172.000000	65.109372 
5171.000000	64.951324 
5170.000000	64.790225 
5169.000000	64.631819 
5168.000000	64.479541 
5167.000000	64.336705 
5166.000000	64.207625 
5165.000000	64.097142 
5164.000000	64.011025 
5163.000000	63.954377 
5162.000000	63.931012 
5161.000000	63.938879 
5160.000000	63.973236 
5159.000000	64.024114 
5158.000000	64.082145 
5157.000000	64.138746 
5156.000000	64.190530 
5155.000000	64.238190 
5154.000000	64.287710 
5153.000000	64.347434 
5152.000000	64.424753 
5151.000000	64.522552 
5150.000000	64.637851 
5149.000000	64.762091 
5148.000000	64.880657 
5147.000000	64.976048 
5146.000000	65.031170 
5145.000000	65.033245 
5144.000000	64.976406 
5143.000000	64.863586 
5142.000000	64.705395 
5141.000000	64.519143 
5140.000000	64.326810 
5139.000000	64.151334 
5138.000000	64.013051 
5137.000000	63.925695 
5136.000000	63.896131 
5135.000000	63.921618 
5134.000000	63.990116 
5133.000000	64.083409 
5132.000000	64.179253 
5131.000000	64.258623 
5130.000000	64.307975 
5129.000000	64.323377 
5128.000000	64.309573 
5127.000000	64.277887 
5126.000000	64.241480 
5125.000000	64.211320 
5124.000000	64.192128 
5123.000000	64.183235 
5122.000000	64.179849 
5121.000000	64.176130 
5120.000000	64.168381 
5119.000000	64.157605 
5118.000000	64.150047 
5117.000000	64.154648 
5116.000000	64.180231 
5115.000000	64.232397 
5114.000000	64.311194 
5113.000000	64.410161 
5112.000000	64.517474 
5111.000000	64.618706 
5110.000000	64.700317 
5109.000000	64.753890 
5108.000000	64.776682 
5107.000000	64.771175 
5106.000000	64.743947 
5105.000000	64.703655 
5104.000000	64.659023 
5103.000000	64.617347 
5102.000000	64.583373 
5101.000000	64.560556 
5100.000000	64.549231 
5099.000000	64.548492 
5098.000000	64.554619 
5097.000000	64.562678 
5096.000000	64.566206 
5095.000000	64.558696 
5094.000000	64.534497 
5093.000000	64.490032 
5092.000000	64.424180 
5091.000000	64.338946 
5090.000000	64.239788 
5089.000000	64.135265 
5088.000000	64.036059 
5087.000000	63.953542 
5086.000000	63.897609 
5085.000000	63.875031 
5084.000000	63.887596 
5083.000000	63.932228 
5082.000000	64.000487 
5081.000000	64.081382 
5080.000000	64.162421 
5079.000000	64.233398 
5078.000000	64.286875 
5077.000000	64.320611 
5076.000000	64.337348 
5075.000000	64.343357 
5074.000000	64.346361 
5073.000000	64.352869 
5072.000000	64.366102 
5071.000000	64.385581 
5070.000000	64.407300 
5069.000000	64.426398 
5068.000000	64.439558 
5067.000000	64.446592 
5066.000000	64.451313 
5065.000000	64.460086 
5064.000000	64.479923 
5063.000000	64.515805 
5062.000000	64.568686 
5061.000000	64.634895 
5060.000000	64.706802 
5059.000000	64.775609 
5058.000000	64.833688 
5057.000000	64.876055 
5056.000000	64.901781 
5055.000000	64.914846 
5054.000000	64.921617 
5053.000000	64.928960 
5052.000000	64.941334 
5051.000000	64.960145 
5050.000000	64.981961 
5049.000000	65.000844 
5048.000000	65.008068 
5047.000000	64.995884 
5046.000000	64.958310 
5045.000000	64.893794 
5044.000000	64.804720 
5043.000000	64.697098 
5042.000000	64.579701 
5041.000000	64.462113 
5040.000000	64.353585 
5039.000000	64.261579 
5038.000000	64.191174 
5037.000000	64.144825 
5036.000000	64.122247 
5035.000000	64.121460 
5034.000000	64.139533 
5033.000000	64.173769 
5032.000000	64.221668 
5031.000000	64.281606 
5030.000000	64.352297 
5029.000000	64.432716 
5028.000000	64.520931 
5027.000000	64.613866 
5026.000000	64.707255 
5025.000000	64.794945 
5024.000000	64.869976 
5023.000000	64.924812 
5022.000000	64.953446 
5021.000000	64.952182 
5020.000000	64.921164 
5019.000000	64.864802 
5018.000000	64.791727 
5017.000000	64.713454 
5016.000000	64.642548 
5015.000000	64.590144 
5014.000000	64.563989 
5013.000000	64.566516 
5012.000000	64.594817 
5011.000000	64.640569 
5010.000000	64.692687 
5009.000000	64.739918 
5008.000000	64.773845 
5007.000000	64.790868 
5006.000000	64.792943 
5005.000000	64.786934 
5004.000000	64.782023 
5003.000000	64.786887 
5002.000000	64.806389 
5001.000000	64.840269 
5000.000000	64.882373 
4999.000000	64.923000 
4998.000000	64.950656 
4997.000000	64.956283 
4996.000000	64.934706 
4995.000000	64.886975 
4994.000000	64.818954 
4993.000000	64.740061 
4992.000000	64.660334 
4991.000000	64.587950 
4990.000000	64.527726 
4989.000000	64.480161 
4988.000000	64.443063 
4987.000000	64.413094 
4986.000000	64.388084 
4985.000000	64.368271 
4984.000000	64.355611 
4983.000000	64.353275 
4982.000000	64.363741 
4981.000000	64.387798 
4980.000000	64.423966 
4979.000000	64.468526 
4978.000000	64.516544 
4977.000000	64.563155 
4976.000000	64.604663 
4975.000000	64.639544 
4974.000000	64.668345 
4973.000000	64.693069 
4972.000000	64.716720 
4971.000000	64.741754 
4970.000000	64.769363 
4969.000000	64.798784 
4968.000000	64.827966 
4967.000000	64.853119 
4966.000000	64.870405 
4965.000000	64.876365 
4964.000000	64.869165 
4963.000000	64.848971 
4962.000000	64.818263 
4961.000000	64.781999 
4960.000000	64.746880 
4959.000000	64.720129 
4958.000000	64.708232 
4957.000000	64.714813 
4956.000000	64.739561 
4955.000000	64.778161 
4954.000000	64.823436 
4953.000000	64.867424 
4952.000000	64.903354 
4951.000000	64.927816 
4950.000000	64.940929 
4949.000000	64.945936 
4948.000000	64.947128 
4947.000000	64.948225 
4946.000000	64.950823 
4945.000000	64.953756 
4944.000000	64.953231 
4943.000000	64.944505 
4942.000000	64.923238 
4941.000000	64.887523 
4940.000000	64.838218 
4939.000000	64.779663 
4938.000000	64.717817 
4937.000000	64.658784 
4936.000000	64.607286 
4935.000000	64.565324 
4934.000000	64.532589 
4933.000000	64.507150 
4932.000000	64.486742 
4931.000000	64.469861 
4930.000000	64.456510 
4929.000000	64.448213 
4928.000000	64.447188 
4927.000000	64.455747 
4926.000000	64.475560 
4925.000000	64.506959 
4924.000000	64.549016 
4923.000000	64.599251 
4922.000000	64.653730 
4921.000000	64.707732 
4920.000000	64.756608 
4919.000000	64.796566 
4918.000000	64.825272 
4917.000000	64.842629 
4916.000000	64.850521 
4915.000000	64.852762 
4914.000000	64.854431 
4913.000000	64.860248 
4912.000000	64.874005 
4911.000000	64.896941 
4910.000000	64.928245 
4909.000000	64.964342 
4908.000000	65.000009 
4907.000000	65.029191 
4906.000000	65.046644 
4905.000000	65.048694 
4904.000000	65.034413 
4903.000000	65.005040 
4902.000000	64.963865 
4901.000000	64.915585 
4900.000000	64.865875 
4899.000000	64.820981 
4898.000000	64.787316 
4897.000000	64.770674 
4896.000000	64.775848 
4895.000000	64.806246 
4894.000000	64.862585 
4893.000000	64.942312 
4892.000000	65.038871 
4891.000000	65.142560 
4890.000000	65.241050 
4889.000000	65.321063 
4888.000000	65.370607 
4887.000000	65.381717 
4886.000000	65.351223 
4885.000000	65.281867 
4884.000000	65.181183 
4883.000000	65.060353 
4882.000000	64.932084 
4881.000000	64.808654 
4880.000000	64.700436 
4879.000000	64.615249 
4878.000000	64.557671 
4877.000000	64.529204 
4876.000000	64.527845 
4875.000000	64.549016 
4874.000000	64.585399 
4873.000000	64.628171 
4872.000000	64.667749 
4871.000000	64.695787 
4870.000000	64.706254 
4869.000000	64.696812 
4868.000000	64.668750 
4867.000000	64.626407 
4866.000000	64.576888 
4865.000000	64.527177 
4864.000000	64.482426 
4863.000000	64.444589 
4862.000000	64.412379 
4861.000000	64.381957 
4860.000000	64.349174 
4859.000000	64.310908 
4858.000000	64.266514 
4857.000000	64.218187 
4856.000000	64.170408 
4855.000000	64.128565 
4854.000000	64.096713 
4853.000000	64.077043 
4852.000000	64.068627 
4851.000000	64.068603 
4850.000000	64.073181 
4849.000000	64.078617 
4848.000000	64.082574 
4847.000000	64.085125 
4846.000000	64.088845 
4845.000000	64.097809 
4844.000000	64.116621 
4843.000000	64.148998 
4842.000000	64.196825 
4841.000000	64.259433 
4840.000000	64.333415 
4839.000000	64.413380 
4838.000000	64.492535 
4837.000000	64.564013 
4836.000000	64.621448 
4835.000000	64.660358 
4834.000000	64.678215 
4833.000000	64.674830 
4832.000000	64.652442 
4831.000000	64.615774 
4830.000000	64.570832 
4829.000000	64.524221 
4828.000000	64.481949 
4827.000000	64.449071 
4826.000000	64.428281 
4825.000000	64.419794 
4824.000000	64.421701 
4823.000000	64.430952 
4822.000000	64.444136 
4821.000000	64.458441 
4820.000000	64.472723 
4819.000000	64.487648 
4818.000000	64.505338 
4817.000000	64.528203 
4816.000000	64.557981 
4815.000000	64.594125 
4814.000000	64.633464 
4813.000000	64.670324 
4812.000000	64.697527 
4811.000000	64.708042 
4810.000000	64.697623 
4809.000000	64.665675 
4808.000000	64.615821 
4807.000000	64.555454 
4806.000000	64.494276 
4805.000000	64.442133 
4804.000000	64.406418 
4803.000000	64.391255 
4802.000000	64.396810 
4801.000000	64.420032 
4800.000000	64.455628 
4799.000000	64.497804 
4798.000000	64.541220 
4797.000000	64.582419 
4796.000000	64.619922 
4795.000000	64.653968 
4794.000000	64.685392 
4793.000000	64.715528 
4792.000000	64.745044 
4791.000000	64.774179 
4790.000000	64.802217 
4789.000000	64.828133 
4788.000000	64.850020 
4787.000000	64.866375 
4786.000000	64.875340 
4785.000000	64.875364 
4784.000000	64.864873 
4783.000000	64.843463 
4782.000000	64.811205 
4781.000000	64.769721 
4780.000000	64.721322 
4779.000000	64.669203 
4778.000000	64.617061 
4777.000000	64.568448 
4776.000000	64.526820 
4775.000000	64.494681 
4774.000000	64.474463 
4773.000000	64.467740 
4772.000000	64.475822 
4771.000000	64.499282 
4770.000000	64.537763 
4769.000000	64.589643 
4768.000000	64.651608 
4767.000000	64.718723 
4766.000000	64.784049 
4765.000000	64.839410 
4764.000000	64.876699 
4763.000000	64.889121 
4762.000000	64.872431 
4761.000000	64.825940 
4760.000000	64.753127 
4759.000000	64.661455 
4758.000000	64.560914 
4757.000000	64.462733 
4756.000000	64.377713 
4755.000000	64.314436 
4754.000000	64.278197 
4753.000000	64.270496 
4752.000000	64.289045 
4751.000000	64.328694 
4750.000000	64.382290 
4749.000000	64.442062 
4748.000000	64.500498 
4747.000000	64.551520 
4746.000000	64.590597 
4745.000000	64.615345 
4744.000000	64.625000 
4743.000000	64.620637 
4742.000000	64.604640 
4741.000000	64.580082 
4740.000000	64.550256 
4739.000000	64.518475 
4738.000000	64.487314 
4737.000000	64.458203 
4736.000000	64.431309 
4735.000000	64.405560 
4734.000000	64.379262 
4733.000000	64.350700 
4732.000000	64.318895 
4731.000000	64.284157 
4730.000000	64.248418 
4729.000000	64.214253 
4728.000000	64.184880 
4727.000000	64.163494 
4726.000000	64.152336 
4725.000000	64.151716 
4724.000000	64.160037 
4723.000000	64.174413 
4722.000000	64.190840 
4721.000000	64.204978 
4720.000000	64.213323 
4719.000000	64.213252 
4718.000000	64.204716 
4717.000000	64.189696 
4716.000000	64.172291 
4715.000000	64.157271 
4714.000000	64.150023 
4713.000000	64.155340 
4712.000000	64.176273 
4711.000000	64.213395 
4710.000000	64.264512 
4709.000000	64.325284 
4708.000000	64.389801 
4707.000000	64.452219 
4706.000000	64.507603 
4705.000000	64.553308 
4704.000000	64.589619 
4703.000000	64.619135 
4702.000000	64.645910 
4701.000000	64.673900 
4700.000000	64.706254 
4699.000000	64.743328 
4698.000000	64.782977 
4697.000000	64.820098 
4696.000000	64.849042 
4695.000000	64.863586 
4694.000000	64.859294 
4693.000000	64.833760 
4692.000000	64.787888 
4691.000000	64.725208 
4690.000000	64.651751 
4689.000000	64.574170 
4688.000000	64.498949 
4687.000000	64.431524 
4686.000000	64.375758 
4685.000000	64.333820 
4684.000000	64.306426 
4683.000000	64.293241 
4682.000000	64.293622 
4681.000000	64.306187 
4680.000000	64.329648 
4679.000000	64.362454 
4678.000000	64.403367 
4677.000000	64.450097 
4676.000000	64.500331 
4675.000000	64.551591 
4674.000000	64.601492 
4673.000000	64.647507 
4672.000000	64.687490 
4671.000000	64.720511 
4670.000000	64.745974 
4669.000000	64.763927 
4668.000000	64.773869 
4667.000000	64.775037 
4666.000000	64.766430 
4665.000000	64.747262 
4664.000000	64.717388 
4663.000000	64.678192 
4662.000000	64.632892 
4661.000000	64.586710 
4660.000000	64.545321 
4659.000000	64.513707 
4658.000000	64.495229 
4657.000000	64.490914 
4656.000000	64.498805 
4655.000000	64.514803 
4654.000000	64.533758 
4653.000000	64.550757 
4652.000000	64.562511 
4651.000000	64.567422 
4650.000000	64.565491 
4649.000000	64.556908 
4648.000000	64.541697 
4647.000000	64.518499 
4646.000000	64.484286 
4645.000000	64.435911 
4644.000000	64.371442 
4643.000000	64.291810 
4642.000000	64.201736 
4641.000000	64.109802 
4640.000000	64.026808 
4639.000000	63.964486 
4638.000000	63.932394 
4637.000000	63.936495 
4636.000000	63.977026 
4635.000000	64.049386 
4634.000000	64.144611 
4633.000000	64.251160 
4632.000000	64.356708 
4631.000000	64.450359 
4630.000000	64.523649 
4629.000000	64.571166 
4628.000000	64.590215 
4627.000000	64.580774 
4626.000000	64.544606 
4625.000000	64.484953 
4624.000000	64.405560 
4623.000000	64.311623 
4622.000000	64.208579 
4621.000000	64.102125 
4620.000000	63.998031 
4619.000000	63.901782 
4618.000000	63.819265 
4617.000000	63.755393 
4616.000000	63.715720 
4615.000000	63.704586 
4614.000000	63.725972 
4613.000000	63.781070 
4612.000000	63.868999 
4611.000000	63.985300 
4610.000000	64.122605 
4609.000000	64.270639 
4608.000000	64.417672 
4607.000000	64.552044 
4606.000000	64.663505 
4605.000000	64.744567 
4604.000000	64.791655 
4603.000000	64.805221 
4602.000000	64.789891 
4601.000000	64.753174 
4600.000000	64.704155 
4599.000000	64.651894 
4598.000000	64.604592 
4597.000000	64.568328 
4596.000000	64.546990 
4595.000000	64.542055 
4594.000000	64.553046 
4593.000000	64.578485 
4592.000000	64.615893 
4591.000000	64.662790 
4590.000000	64.716553 
4589.000000	64.774751 
4588.000000	64.834666 
4587.000000	64.893579 
4586.000000	64.948058 
4585.000000	64.994883 
4584.000000	65.031242 
4583.000000	65.055346 
4582.000000	65.066719 
4581.000000	65.066242 
4580.000000	65.056300 
4579.000000	65.039944 
4578.000000	65.020442 
4577.000000	65.000057 
4576.000000	64.979839 
4575.000000	64.960622 
4574.000000	64.943003 
4573.000000	64.927554 
4572.000000	64.914822 
4571.000000	64.905929 
4570.000000	64.901685 
4569.000000	64.902234 
4568.000000	64.906477 
4567.000000	64.911556 
4566.000000	64.913535 
4565.000000	64.907789 
4564.000000	64.890813 
4563.000000	64.860725 
4562.000000	64.818978 
4561.000000	64.769482 
4560.000000	64.719367 
4559.000000	64.677143 
4558.000000	64.651465 
4557.000000	64.648437 
4556.000000	64.671206 
4555.000000	64.719152 
4554.000000	64.787459 
4553.000000	64.867830 
4552.000000	64.949560 
4551.000000	65.021300 
4550.000000	65.072560 
4549.000000	65.095615 
4548.000000	65.086770 
4547.000000	65.047216 
4546.000000	64.982867 
4545.000000	64.903235 
4544.000000	64.819812 
4543.000000	64.743542 
4542.000000	64.683747 
4541.000000	64.645671 
4540.000000	64.630532 
4539.000000	64.635014 
4538.000000	64.653205 
4537.000000	64.677190 
4536.000000	64.698839 
4535.000000	64.711070 
4534.000000	64.709067 
4533.000000	64.691138 
4532.000000	64.658093 
4531.000000	64.613270 
4530.000000	64.561367 
4529.000000	64.507555 
4528.000000	64.456462 
4527.000000	64.411854 
4526.000000	64.376258 
4525.000000	64.351010 
4524.000000	64.336299 
4523.000000	64.331340 
4522.000000	64.334678 
4521.000000	64.344167 
4520.000000	64.357638 
4519.000000	64.372181 
4518.000000	64.385461 
4517.000000	64.395594 
4516.000000	64.402508 
4515.000000	64.407634 
4514.000000	64.414381 
4513.000000	64.426922 
4512.000000	64.449715 
4511.000000	64.486765 
4510.000000	64.539766 
4509.000000	64.607429 
4508.000000	64.685440 
4507.000000	64.767098 
4506.000000	64.844584 
4505.000000	64.910745 
4504.000000	64.960312 
4503.000000	64.991331 
4502.000000	65.004992 
4501.000000	65.005326 
4500.000000	64.997577 
4499.000000	64.987039 
4498.000000	64.977169 
4497.000000	64.968705 
4496.000000	64.960098 
4495.000000	64.948225 
4494.000000	64.929771 
4493.000000	64.902830 
4492.000000	64.867734 
4491.000000	64.827823 
4490.000000	64.788627 
4489.000000	64.756917 
4488.000000	64.738726 
4487.000000	64.738225 
4486.000000	64.757132 
4485.000000	64.793992 
4484.000000	64.844465 
4483.000000	64.902305 
4482.000000	64.960336 
4481.000000	65.011811 
4480.000000	65.051221 
4479.000000	65.075063 
4478.000000	65.081930 
4477.000000	65.072727 
4476.000000	65.050220 
4475.000000	65.018773 
4474.000000	64.983582 
4473.000000	64.949679 
4472.000000	64.921426 
4471.000000	64.901161 
4470.000000	64.889049 
4469.000000	64.883351 
4468.000000	64.881014 
4467.000000	64.878702 
4466.000000	64.873623 
4465.000000	64.864468 
4464.000000	64.851284 
4463.000000	64.834666 
4462.000000	64.815449 
4461.000000	64.793515 
4460.000000	64.768457 
4459.000000	64.739274 
4458.000000	64.706373 
4457.000000	64.670920 
4456.000000	64.636993 
4455.000000	64.610815 
4454.000000	64.599943 
4453.000000	64.611554 
4452.000000	64.650392 
4451.000000	64.716506 
4450.000000	64.805197 
4449.000000	64.906764 
4448.000000	65.010142 
4447.000000	65.105438 
4446.000000	65.186142 
4445.000000	65.250539 
4444.000000	65.299677 
4443.000000	65.335988 
4442.000000	65.362620 
4441.000000	65.382337 
4440.000000	65.395188 
4439.000000	65.398764 
4438.000000	65.395140 
4437.000000	65.388059 
4436.000000	65.377831 
4435.000000	65.362524 
4434.000000	65.339922 
4433.000000	65.307807 
4432.000000	65.265989 
4431.000000	65.216684 
4430.000000	65.161681 
4429.000000	65.105390 
4428.000000	65.057730 
4427.000000	65.028429 
4426.000000	65.021181 
4425.000000	65.035676 
4424.000000	65.073442 
4423.000000	65.126991 
4422.000000	65.172457 
4421.000000	65.193104 
4420.000000	65.188837 
4419.000000	65.167593 
4418.000000	65.144371 
4417.000000	65.137219 
4416.000000	65.164756 
4415.000000	65.248894 
4414.000000	65.416216 
4413.000000	65.708255 
4412.000000	66.170358 
4411.000000	66.857481 
4410.000000	67.799139 
4409.000000	68.971943 
4408.000000	70.284843 
4407.000000	71.585345 
4406.000000	72.684383 
4405.000000	73.404097 
4404.000000	73.606848 
4403.000000	73.266005 
4402.000000	72.420310 
4401.000000	71.190285 
4400.000000	69.692087 
4399.000000	68.035674 
4398.000000	66.248989 
4397.000000	64.289331 
4396.000000	62.061166 
4395.000000	59.470820 
4394.000000	56.493377 
4393.000000	53.216505 
4392.000000	49.866414 
4391.000000	46.776056 
4390.000000	44.331431 
4389.000000	42.882132 
4388.000000	42.650246 
4387.000000	43.672180 
4386.000000	45.786046 
4385.000000	48.670315 
4384.000000	51.904082 
4383.000000	55.069756 
4382.000000	57.830619 
4381.000000	59.999489 
4380.000000	61.533999 
4379.000000	62.530303 
4378.000000	63.153147 
4377.000000	63.585638 
4376.000000	63.968706 
4375.000000	64.369845 
4374.000000	64.802145 
4373.000000	65.214872 
4372.000000	65.569567 
4371.000000	65.818881 
4370.000000	65.952014 
4369.000000	65.977215 
4368.000000	65.929436 
4367.000000	65.846133 
4366.000000	65.751242 
4365.000000	65.662455 
4364.000000	65.591430 
4363.000000	65.538024 
4362.000000	65.494275 
4361.000000	65.456533 
4360.000000	65.428590 
4359.000000	65.412664 
4358.000000	65.409851 
4357.000000	65.420341 
4356.000000	65.442037 
4355.000000	65.470528 
4354.000000	65.499782 
4353.000000	65.518712 
4352.000000	65.516185 
4351.000000	65.495038 
4350.000000	65.461635 
4349.000000	65.413975 
4348.000000	65.349459 
4347.000000	65.268826 
4346.000000	65.173816 
4345.000000	65.066695 
4344.000000	64.952969 
4343.000000	64.841699 
4342.000000	64.743995 
4341.000000	64.669728 
4340.000000	64.628100 
4339.000000	64.625883 
4338.000000	64.664340 
4337.000000	64.738249 
4336.000000	64.836621 
4335.000000	64.944338 
4334.000000	65.044856 
4333.000000	65.123486 
4332.000000	65.170049 
4331.000000	65.180563 
4330.000000	65.157771 
4329.000000	65.109920 
4328.000000	65.048193 
4327.000000	64.984059 
4326.000000	64.927363 
4325.000000	64.884543 
4324.000000	64.858818 
4323.000000	64.849972 
4322.000000	64.856529 
4321.000000	64.875483 
4320.000000	64.903640 
4319.000000	64.937543 
4318.000000	64.973402 
4317.000000	65.007328 
4316.000000	65.034961 
4315.000000	65.052151 
4314.000000	65.055656 
4313.000000	65.042996 
4312.000000	65.012931 
4311.000000	64.966201 
4310.000000	64.905810 
4309.000000	64.836311 
4308.000000	64.763402 
4307.000000	64.693427 
4306.000000	64.632344 
4305.000000	64.585137 
4304.000000	64.555001 
4303.000000	64.542579 
4302.000000	64.546108 
4301.000000	64.562153 
4300.000000	64.586329 
4299.000000	64.613318 
4298.000000	64.638304 
4297.000000	64.657735 
4296.000000	64.669752 
4295.000000	64.674067 
4294.000000	64.671635 
4293.000000	64.663338 
4292.000000	64.650177 
4291.000000	64.632701 
4290.000000	64.611959 
4289.000000	64.589285 
4288.000000	64.567184 
4287.000000	64.549303 
4286.000000	64.539933 
4285.000000	64.543175 
4284.000000	64.561533 
4283.000000	64.595103 
4282.000000	64.641261 
4281.000000	64.694786 
4280.000000	64.748954 
4279.000000	64.796423 
4278.000000	64.830565 
4277.000000	64.846467 
4276.000000	64.841866 
4275.000000	64.817094 
4274.000000	64.774894 
4273.000000	64.719748 
4272.000000	64.657187 
4271.000000	64.593052 
4270.000000	64.532756 
4269.000000	64.481186 
4268.000000	64.442110 
4267.000000	64.418458 
4266.000000	64.412593 
4265.000000	64.425635 
4264.000000	64.456772 
4263.000000	64.503526 
4262.000000	64.561653 
4261.000000	64.625310 
4260.000000	64.687442 
4259.000000	64.740967 
4258.000000	64.779448 
4257.000000	64.798760 
4256.000000	64.797496 
4255.000000	64.777374 
4254.000000	64.742779 
4253.000000	64.699649 
4252.000000	64.654350 
4251.000000	64.612174 
4250.000000	64.576292 
4249.000000	64.547848 
4248.000000	64.526128 
4247.000000	64.510059 
4246.000000	64.498448 
4245.000000	64.491438 
4244.000000	64.489126 
4243.000000	64.491462 
4242.000000	64.496994 
4241.000000	64.502310 
4240.000000	64.502358 
4239.000000	64.490675 
4238.000000	64.462065 
4237.000000	64.413523 
4236.000000	64.346885 
4235.000000	64.268851 
4234.000000	64.190435 
4233.000000	64.124464 
4232.000000	64.082670 
4231.000000	64.073038 
4230.000000	64.097380 
4229.000000	64.150619 
4228.000000	64.222264 
4227.000000	64.298963 
4226.000000	64.367699 
4225.000000	64.418888 
4224.000000	64.447784 
4223.000000	64.455389 
4222.000000	64.446973 
4221.000000	64.430618 
4220.000000	64.414381 
4219.000000	64.404535 
4218.000000	64.405179 
4217.000000	64.416694 
4216.000000	64.437413 
4215.000000	64.463210 
4214.000000	64.490151 
4213.000000	64.513754 
4212.000000	64.530372 
4211.000000	64.536404 
4210.000000	64.528822 
4209.000000	64.505243 
4208.000000	64.464211 
4207.000000	64.406418 
4206.000000	64.334988 
4205.000000	64.255928 
4204.000000	64.177584 
4203.000000	64.109873 
4202.000000	64.062595 
4201.000000	64.043283 
4200.000000	64.055490 
4199.000000	64.097690 
4198.000000	64.163398 
4197.000000	64.242434 
4196.000000	64.323067 
4195.000000	64.393949 
4194.000000	64.446902 
4193.000000	64.478468 
4192.000000	64.490175 
4191.000000	64.487481 
4190.000000	64.477419 
4189.000000	64.467048 
4188.000000	64.460587 
4187.000000	64.459061 
4186.000000	64.459633 
4185.000000	64.457774 
4184.000000	64.448451 
4183.000000	64.428496 
4182.000000	64.398074 
4181.000000	64.361429 
4180.000000	64.325928 
4179.000000	64.300346 
4178.000000	64.292192 
4177.000000	64.305686 
4176.000000	64.340496 
4175.000000	64.391613 
4174.000000	64.450478 
4173.000000	64.507246 
4172.000000	64.553260 
4171.000000	64.582943 
4170.000000	64.594388 
4169.000000	64.589524 
4168.000000	64.573097 
4167.000000	64.551019 
4166.000000	64.529323 
4165.000000	64.511942 
4164.000000	64.501023 
4163.000000	64.495325 
4162.000000	64.491796 
4161.000000	64.485359 
4160.000000	64.470934 
4159.000000	64.444231 
4158.000000	64.403057 
4157.000000	64.348125 
4156.000000	64.282870 
4155.000000	64.213132 
4154.000000	64.145874 
4153.000000	64.087748 
4152.000000	64.043879 
4151.000000	64.016532 
4150.000000	64.004731 
4149.000000	64.004921 
4148.000000	64.012098 
4147.000000	64.021515 
4146.000000	64.030051 
4145.000000	64.036870 
4144.000000	64.043521 
4143.000000	64.052772 
4142.000000	64.067530 
4141.000000	64.088892 
4140.000000	64.116144 
4139.000000	64.146947 
4138.000000	64.177966 
4137.000000	64.206480 
4136.000000	64.230537 
4135.000000	64.249324 
4134.000000	64.262747 
4133.000000	64.271402 
4132.000000	64.275550 
4131.000000	64.274740 
4130.000000	64.268064 
4129.000000	64.254498 
4128.000000	64.234209 
4127.000000	64.209175 
4126.000000	64.183306 
4125.000000	64.162182 
4124.000000	64.151430 
4123.000000	64.155507 
4122.000000	64.176106 
4121.000000	64.211511 
4120.000000	64.256405 
4119.000000	64.303278 
4118.000000	64.343857 
4117.000000	64.371061 
4116.000000	64.380717 
4115.000000	64.372515 
4114.000000	64.349436 
4113.000000	64.317369 
4112.000000	64.283800 
4111.000000	64.256191 
4110.000000	64.240837 
4109.000000	64.240956 
4108.000000	64.257144 
4107.000000	64.286327 
4106.000000	64.323687 
4105.000000	64.362215 
4104.000000	64.394760 
4103.000000	64.414644 
4102.000000	64.416980 
4101.000000	64.399528 
4100.000000	64.362835 
4099.000000	64.310479 
4098.000000	64.248442 
4097.000000	64.183783 
4096.000000	64.123535 
4095.000000	64.073109 
4094.000000	64.035916 
4093.000000	64.011955 
4092.000000	63.998532 
4091.000000	63.990783 
4090.000000	63.983178 
4089.000000	63.970708 
4088.000000	63.950467 
4087.000000	63.921737 
4086.000000	63.886642 
4085.000000	63.849449 
4084.000000	63.815951 
4083.000000	63.791584 
4082.000000	63.780903 
4081.000000	63.786387 
4080.000000	63.808465 
4079.000000	63.845467 
4078.000000	63.894057 
4077.000000	63.949632 
4076.000000	64.007258 
4075.000000	64.061975 
4074.000000	64.110183 
4073.000000	64.149641 
4072.000000	64.179897 
4071.000000	64.201712 
4070.000000	64.217138 
4069.000000	64.229083 
4068.000000	64.240455 
4067.000000	64.253711 
4066.000000	64.269924 
4065.000000	64.288616 
4064.000000	64.308118 
4063.000000	64.325904 
4062.000000	64.339041 
4061.000000	64.344954 
4060.000000	64.342093 
4059.000000	64.330577 
4058.000000	64.311909 
4057.000000	64.289069 
4056.000000	64.265680 
4055.000000	64.245724 
4054.000000	64.233040 
4053.000000	64.230442 
4052.000000	64.239454 
4051.000000	64.259386 
4050.000000	64.287710 
4049.000000	64.319729 
4048.000000	64.349246 
4047.000000	64.369654 
4046.000000	64.375400 
4045.000000	64.362955 
4044.000000	64.331483 
4043.000000	64.283680 
4042.000000	64.225435 
4041.000000	64.164710 
4040.000000	64.110040 
4039.000000	64.068889 
4038.000000	64.046454 
4037.000000	64.044451 
4036.000000	64.061093 
4035.000000	64.091420 
4034.000000	64.128589 
4033.000000	64.165139 
4032.000000	64.194655 
4031.000000	64.212512 
4030.000000	64.216732 
4029.000000	64.207696 
4028.000000	64.187836 
4027.000000	64.160513 
4026.000000	64.129519 
4025.000000	64.098334 
4024.000000	64.069104 
4023.000000	64.042830 
4022.000000	64.019417 
4021.000000	63.998150 
4020.000000	63.978290 
4019.000000	63.959527 
4018.000000	63.942480 
4017.000000	63.928151 
4016.000000	63.918256 
4015.000000	63.914442 
4014.000000	63.918113 
4013.000000	63.929653 
4012.000000	63.948631 
4011.000000	63.973808 
4010.000000	64.003419 
4009.000000	64.035463 
4008.000000	64.067912 
4007.000000	64.098858 
4006.000000	64.126801 
4005.000000	64.150524 
4004.000000	64.169144 
4003.000000	64.182162 
4002.000000	64.189481 
4001.000000	64.191365 
4000.000000	64.189195 
3999.000000	64.184594 
3998.000000	64.179849 
3997.000000	64.176750 
3996.000000	64.176583 
3995.000000	64.179396 
3994.000000	64.184236 
3993.000000	64.189195 
3992.000000	64.192008 
3991.000000	64.190840 
3990.000000	64.184975 
3989.000000	64.175009 
3988.000000	64.162755 
3987.000000	64.150738 
3986.000000	64.141535 
3985.000000	64.137125 
3984.000000	64.138364 
3983.000000	64.144659 
3982.000000	64.154267 
3981.000000	64.164757 
3980.000000	64.173746 
3979.000000	64.179158 
3978.000000	64.180016 
3977.000000	64.176487 
3976.000000	64.169716 
3975.000000	64.161133 
3974.000000	64.152479 
3973.000000	64.144825 
3972.000000	64.138889 
3971.000000	64.134836 
3970.000000	64.132475 
3969.000000	64.131498 
3968.000000	64.132022 
3967.000000	64.134407 
3966.000000	64.139437 
3965.000000	64.147973 
3964.000000	64.160490 
3963.000000	64.177107 
3962.000000	64.196729 
3961.000000	64.217305 
3960.000000	64.235925 
3959.000000	64.249396 
3958.000000	64.255189 
3957.000000	64.251923 
3956.000000	64.239668 
3955.000000	64.220046 
3954.000000	64.195513 
3953.000000	64.169096 
3952.000000	64.143633 
3951.000000	64.121270 
3950.000000	64.103651 
3949.000000	64.091873 
3948.000000	64.086604 
3947.000000	64.088225 
3946.000000	64.096856 
3945.000000	64.112257 
3944.000000	64.133214 
3943.000000	64.158201 
3942.000000	64.184832 
3941.000000	64.210939 
3940.000000	64.234256 
3939.000000	64.253377 
3938.000000	64.267945 
3937.000000	64.278459 
3936.000000	64.286327 
3935.000000	64.292597 
3934.000000	64.297437 
3933.000000	64.299798 
3932.000000	64.297604 
3931.000000	64.288425 
3930.000000	64.270281 
3929.000000	64.242482 
3928.000000	64.206433 
3927.000000	64.165306 
3926.000000	64.123535 
3925.000000	64.085984 
3924.000000	64.056658 
3923.000000	64.038157 
3922.000000	64.030981 
3921.000000	64.033961 
3920.000000	64.044046 
3919.000000	64.057064 
3918.000000	64.068508 
3917.000000	64.074230 
3916.000000	64.071655 
3915.000000	64.059567 
3914.000000	64.039230 
3913.000000	64.013242 
3912.000000	63.986182 
3911.000000	63.963508 
3910.000000	63.950681 
3909.000000	63.952040 
3908.000000	63.969922 
3907.000000	64.004015 
3906.000000	64.051151 
3905.000000	64.105725 
3904.000000	64.160776 
3903.000000	64.209151 
3902.000000	64.244961 
3901.000000	64.264583 
3900.000000	64.267086 
3899.000000	64.254140 
3898.000000	64.229607 
3897.000000	64.198827 
3896.000000	64.167833 
3895.000000	64.141964 
3894.000000	64.126062 
3893.000000	64.122629 
3892.000000	64.132165 
3891.000000	64.152407 
3890.000000	64.179444 
3889.000000	64.207696 
3888.000000	64.231133 
3887.000000	64.244604 
3886.000000	64.244461 
3885.000000	64.229679 
3884.000000	64.201903 
3883.000000	64.165568 
3882.000000	64.126515 
3881.000000	64.091110 
3880.000000	64.064884 
3879.000000	64.051461 
3878.000000	64.051961 
3877.000000	64.064788 
3876.000000	64.086222 
3875.000000	64.111399 
3874.000000	64.135408 
3873.000000	64.154148 
3872.000000	64.165043 
3871.000000	64.167094 
3870.000000	64.160799 
3869.000000	64.147734 
3868.000000	64.129996 
3867.000000	64.109826 
3866.000000	64.089035 
3865.000000	64.069008 
3864.000000	64.050626 
3863.000000	64.034724 
3862.000000	64.022135 
3861.000000	64.013457 
3860.000000	64.009213 
3859.000000	64.009380 
3858.000000	64.013457 
3857.000000	64.020037 
3856.000000	64.027333 
3855.000000	64.033031 
3854.000000	64.035511 
3853.000000	64.034128 
3852.000000	64.029860 
3851.000000	64.024925 
3850.000000	64.022707 
3849.000000	64.026927 
3848.000000	64.040517 
3847.000000	64.064741 
3846.000000	64.098668 
3845.000000	64.139151 
3844.000000	64.181375 
3843.000000	64.219856 
3842.000000	64.249968 
3841.000000	64.268946 
3840.000000	64.276361 
3839.000000	64.274024 
3838.000000	64.265394 
3837.000000	64.254736 
3836.000000	64.245843 
3835.000000	64.241409 
3834.000000	64.242744 
3833.000000	64.249420 
3832.000000	64.260363 
3831.000000	64.273452 
3830.000000	64.286637 
3829.000000	64.297461 
3828.000000	64.303994 
3827.000000	64.304327 
3826.000000	64.296984 
3825.000000	64.280939 
3824.000000	64.256119 
3823.000000	64.223408 
3822.000000	64.184784 
3821.000000	64.143323 
3820.000000	64.102625 
3819.000000	64.066100 
3818.000000	64.036345 
3817.000000	64.014554 
3816.000000	64.000296 
3815.000000	63.991856 
3814.000000	63.987135 
3813.000000	63.983702 
3812.000000	63.980007 
3811.000000	63.975715 
3810.000000	63.971805 
3809.000000	63.969516 
3808.000000	63.970518 
3807.000000	63.975882 
3806.000000	63.985824 
3805.000000	63.999390 
3804.000000	64.014720 
3803.000000	64.029240 
3802.000000	64.040613 
3801.000000	64.047336 
3800.000000	64.049196 
3799.000000	64.047098 
3798.000000	64.043211 
3797.000000	64.040207 
3796.000000	64.040756 
3795.000000	64.046835 
3794.000000	64.059329 
3793.000000	64.077663 
3792.000000	64.100003 
3791.000000	64.123415 
3790.000000	64.144563 
3789.000000	64.160442 
3788.000000	64.168596 
3787.000000	64.167761 
3786.000000	64.157843 
3785.000000	64.139842 
3784.000000	64.115476 
3783.000000	64.086985 
3782.000000	64.056682 
3781.000000	64.027023 
3780.000000	64.000368 
3779.000000	63.979172 
3778.000000	63.965773 
3777.000000	63.962101 
3776.000000	63.969373 
3775.000000	63.987731 
3774.000000	64.015960 
3773.000000	64.051318 
3772.000000	64.089846 
3771.000000	64.126992 
3770.000000	64.158177 
3769.000000	64.179921 
3768.000000	64.190435 
3767.000000	64.189839 
3766.000000	64.179992 
3765.000000	64.163827 
3764.000000	64.144372 
3763.000000	64.124155 
3762.000000	64.104533 
3761.000000	64.085674 
3760.000000	64.066815 
3759.000000	64.046883 
3758.000000	64.025020 
3757.000000	64.001488 
3756.000000	63.977599 
3755.000000	63.955402 
3754.000000	63.937520 
3753.000000	63.926196 
3752.000000	63.923096 
3751.000000	63.928627 
3750.000000	63.941907 
3749.000000	63.960719 
3748.000000	63.982367 
3747.000000	64.003729 
3746.000000	64.022040 
3745.000000	64.035201 
3744.000000	64.041948 
3743.000000	64.041829 
3742.000000	64.035272 
3741.000000	64.023613 
3740.000000	64.008808 
3739.000000	63.993048 
3738.000000	63.978743 
3737.000000	63.968014 
3736.000000	63.962411 
3735.000000	63.962459 
3734.000000	63.967490 
3733.000000	63.975644 
3732.000000	63.984298 
3731.000000	63.990426 
3730.000000	63.991475 
3729.000000	63.985729 
3728.000000	63.973069 
3727.000000	63.954734 
3726.000000	63.933324 
3725.000000	63.911867 
3724.000000	63.893389 
3723.000000	63.880133 
3722.000000	63.872909 
3721.000000	63.871216 
3720.000000	63.873434 
3719.000000	63.877296 
3718.000000	63.880681 
3717.000000	63.882064 
3716.000000	63.880896 
3715.000000	63.877844 
3714.000000	63.874578 
3713.000000	63.873147 
3712.000000	63.875317 
3711.000000	63.882374 
3710.000000	63.894462 
3709.000000	63.910865 
3708.000000	63.929629 
3707.000000	63.948202 
3706.000000	63.963699 
3705.000000	63.973593 
3704.000000	63.976216 
3703.000000	63.971114 
3702.000000	63.959360 
3701.000000	63.943028 
3700.000000	63.925218 
3699.000000	63.909220 
3698.000000	63.897776 
3697.000000	63.892912 
3696.000000	63.895297 
3695.000000	63.904500 
3694.000000	63.919067 
3693.000000	63.936901 
3692.000000	63.955664 
3691.000000	63.973021 
3690.000000	63.986968 
3689.000000	63.995981 
3688.000000	63.999080 
3687.000000	63.995742 
3686.000000	63.986134 
3685.000000	63.971161 
3684.000000	63.952326 
3683.000000	63.931632 
3682.000000	63.911581 
3681.000000	63.894605 
3680.000000	63.882303 
3679.000000	63.875293 
3678.000000	63.872933 
3677.000000	63.873600 
3676.000000	63.875246 
3675.000000	63.876056 
3674.000000	63.874769 
3673.000000	63.870906 
3672.000000	63.865089 
3671.000000	63.858580 
3670.000000	63.852572 
3669.000000	63.847994 
3668.000000	63.845252 
3667.000000	63.844060 
3666.000000	63.843607 
3665.000000	63.843083 
3664.000000	63.841843 
3663.000000	63.839888 
3662.000000	63.837766 
3661.000000	63.836598 
3660.000000	63.837981 
3659.000000	63.843464 
3658.000000	63.854241 
3657.000000	63.871097 
3656.000000	63.894200 
3655.000000	63.923025 
3654.000000	63.956403 
3653.000000	63.992118 
3652.000000	64.027166 
3651.000000	64.058113 
3650.000000	64.081668 
3649.000000	64.094805 
3648.000000	64.095592 
3647.000000	64.083981 
3646.000000	64.061260 
3645.000000	64.030408 
3644.000000	63.995099 
3643.000000	63.959264 
3642.000000	63.926005 
3641.000000	63.897705 
3640.000000	63.874983 
3639.000000	63.857316 
3638.000000	63.842940 
3637.000000	63.829922 
3636.000000	63.816499 
3635.000000	63.801550 
3634.000000	63.784909 
3633.000000	63.767266 
3632.000000	63.749933 
3631.000000	63.734602 
3630.000000	63.722825 
3629.000000	63.715958 
3628.000000	63.714957 
3627.000000	63.720321 
3626.000000	63.732266 
3625.000000	63.750505 
3624.000000	63.774418 
3623.000000	63.802909 
3622.000000	63.834643 
3621.000000	63.867712 
3620.000000	63.899588 
3619.000000	63.927173 
3618.000000	63.947439 
3617.000000	63.957357 
3616.000000	63.954424 
3615.000000	63.937282 
3614.000000	63.906073 
3613.000000	63.862848 
3612.000000	63.811469 
3611.000000	63.757205 
3610.000000	63.706064 
3609.000000	63.664054 
3608.000000	63.636350 
3607.000000	63.626241 
3606.000000	63.634610 
3605.000000	63.659906 
3604.000000	63.698482 
3603.000000	63.745260 
3602.000000	63.794660 
3601.000000	63.841438 
3600.000000	63.881421 
3599.000000	63.911890 
3598.000000	63.931488 
3597.000000	63.940072 
3596.000000	63.937950 
3595.000000	63.925981 
3594.000000	63.904690 
3593.000000	63.874793 
3592.000000	63.836741 
3591.000000	63.791537 
3590.000000	63.740706 
3589.000000	63.686704 
3588.000000	63.632678 
3587.000000	63.582491 
3586.000000	63.540339 
3585.000000	63.509821 
3584.000000	63.493871 
3583.000000	63.493895 
3582.000000	63.509821 
3581.000000	63.539838 
3580.000000	63.580632 
3579.000000	63.627862 
3578.000000	63.676691 
3577.000000	63.722372 
3576.000000	63.760876 
3575.000000	63.789439 
3574.000000	63.806700 
3573.000000	63.812708 
3572.000000	63.808870 
3571.000000	63.797354 
3570.000000	63.780879 
3569.000000	63.761997 
3568.000000	63.743185 
3567.000000	63.726234 
3566.000000	63.712382 
3565.000000	63.702178 
3564.000000	63.695549 
3563.000000	63.692164 
3562.000000	63.691473 
3561.000000	63.693237 
3560.000000	63.697099 
3559.000000	63.702869 
3558.000000	63.710570 
3557.000000	63.719987 
3556.000000	63.730382 
3555.000000	63.740324 
3554.000000	63.748049 
3553.000000	63.751339 
3552.000000	63.748168 
3551.000000	63.737058 
3550.000000	63.717555 
3549.000000	63.690924 
3548.000000	63.659858 
3547.000000	63.628053 
3546.000000	63.599443 
3545.000000	63.577556 
3544.000000	63.564562 
3543.000000	63.560628 
3542.000000	63.564205 
3541.000000	63.572502 
3540.000000	63.582372 
3539.000000	63.591051 
3538.000000	63.597178 
3537.000000	63.600921 
3536.000000	63.603949 
3535.000000	63.608741 
3534.000000	63.617706 
3533.000000	63.632011 
3532.000000	63.651418 
3531.000000	63.674211 
3530.000000	63.696980 
3529.000000	63.715648 
3528.000000	63.726043 
3527.000000	63.725185 
3526.000000	63.711524 
3525.000000	63.685250 
3524.000000	63.648080 
3523.000000	63.602972 
3522.000000	63.553524 
3521.000000	63.503479 
3520.000000	63.456678 
3519.000000	63.416314 
3518.000000	63.385057 
3517.000000	63.364553 
3516.000000	63.355422 
3515.000000	63.356995 
3514.000000	63.367104 
3513.000000	63.382697 
3512.000000	63.399505 
3511.000000	63.414144 
3510.000000	63.423824 
3509.000000	63.428330 
3508.000000	63.429284 
3507.000000	63.430809 
3506.000000	63.438558 
3505.000000	63.458037 
3504.000000	63.493037 
3503.000000	63.544034 
3502.000000	63.607549 
3501.000000	63.676548 
3500.000000	63.741636 
3499.000000	63.793516 
3498.000000	63.825082 
3497.000000	63.833475 
3496.000000	63.820648 
3495.000000	63.792943 
3494.000000	63.759469 
3493.000000	63.729810 
3492.000000	63.711380 
3491.000000	63.708114 
3490.000000	63.719177 
3489.000000	63.740539 
3488.000000	63.765478 
3487.000000	63.787364 
3486.000000	63.800549 
3485.000000	63.802385 
3484.000000	63.792920 
3483.000000	63.774394 
3482.000000	63.750362 
3481.000000	63.723921 
3480.000000	63.697671 
3479.000000	63.673257 
3478.000000	63.651371 
3477.000000	63.632297 
3476.000000	63.616132 
3475.000000	63.603591 
3474.000000	63.595247 
3473.000000	63.591575 
3472.000000	63.592481 
3471.000000	63.596987 
3470.000000	63.603329 
3469.000000	63.609147 
3468.000000	63.612055 
3467.000000	63.610243 
3466.000000	63.602900 
3465.000000	63.590383 
3464.000000	63.574075 
3463.000000	63.556170 
3462.000000	63.539195 
3461.000000	63.525438 
3460.000000	63.516497 
3459.000000	63.512897 
3458.000000	63.514804 
3457.000000	63.520669 
3456.000000	63.528394 
3455.000000	63.534522 
3454.000000	63.535332 
3453.000000	63.526773 
3452.000000	63.505578 
3451.000000	63.469982 
3450.000000	63.420200 
3449.000000	63.359022 
3448.000000	63.291549 
3447.000000	63.224935 
3446.000000	63.167023 
3445.000000	63.125205 
3444.000000	63.105130 
3443.000000	63.109874 
3442.000000	63.139009 
3441.000000	63.189077 
3440.000000	63.254141 
3439.000000	63.326835 
3438.000000	63.399767 
3437.000000	63.466334 
3436.000000	63.521838 
3435.000000	63.563585 
3434.000000	63.591003 
3433.000000	63.605356 
3432.000000	63.608980 
3431.000000	63.605070 
3430.000000	63.596582 
3429.000000	63.586401 
3428.000000	63.576340 
3427.000000	63.567996 
3426.000000	63.561582 
3425.000000	63.556623 
3424.000000	63.551807 
3423.000000	63.545608 
3422.000000	63.536548 
3421.000000	63.523483 
3420.000000	63.506269 
3419.000000	63.485860 
3418.000000	63.464236 
3417.000000	63.444113 
3416.000000	63.428592 
3415.000000	63.420367 
3414.000000	63.421487 
3413.000000	63.432717 
3412.000000	63.453483 
3411.000000	63.481593 
3410.000000	63.514018 
3409.000000	63.546824 
3408.000000	63.575792 
3407.000000	63.596916 
3406.000000	63.607048 
3405.000000	63.604521 
3404.000000	63.588571 
3403.000000	63.560318 
3402.000000	63.522624 
3401.000000	63.479852 
3400.000000	63.437318 
3399.000000	63.400602 
3398.000000	63.374686 
3397.000000	63.363075 
3396.000000	63.367462 
3395.000000	63.386964 
3394.000000	63.418388 
3393.000000	63.456559 
3392.000000	63.495326 
3391.000000	63.528037 
3390.000000	63.549017 
3389.000000	63.554191 
3388.000000	63.541841 
3387.000000	63.513088 
3386.000000	63.471627 
3385.000000	63.423347 
3384.000000	63.374948 
3383.000000	63.333106 
3382.000000	63.302946 
3381.000000	63.287401 
3380.000000	63.286495 
3379.000000	63.297557 
3378.000000	63.315796 
3377.000000	63.335299 
3376.000000	63.350749 
3375.000000	63.358116 
3374.000000	63.355922 
3373.000000	63.344907 
3372.000000	63.328313 
3371.000000	63.310384 
3370.000000	63.295602 
3369.000000	63.287663 
3368.000000	63.288402 
3367.000000	63.297677 
3366.000000	63.313317 
3365.000000	63.332056 
3364.000000	63.349866 
3363.000000	63.362979 
3362.000000	63.368391 
3361.000000	63.364386 
3360.000000	63.350987 
3359.000000	63.329958 
3358.000000	63.304162 
3357.000000	63.277220 
3356.000000	63.253021 
3355.000000	63.234901 
3354.000000	63.225412 
3353.000000	63.225555 
3352.000000	63.234901 
3351.000000	63.251352 
3350.000000	63.272118 
3349.000000	63.293647 
3348.000000	63.312411 
3347.000000	63.325405 
3346.000000	63.330626 
3345.000000	63.327336 
3344.000000	63.316082 
3343.000000	63.298535 
3342.000000	63.277125 
3341.000000	63.254666 
3340.000000	63.233733 
3339.000000	63.216280 
3338.000000	63.203668 
3337.000000	63.196158 
3336.000000	63.193058 
3335.000000	63.192677 
3334.000000	63.192796 
3333.000000	63.190722 
3332.000000	63.183951 
3331.000000	63.170170 
3330.000000	63.148188 
3329.000000	63.118171 
3328.000000	63.082003 
3327.000000	63.042926 
3326.000000	63.005208 
3325.000000	62.973117 
3324.000000	62.950587 
3323.000000	62.940073 
3322.000000	62.942504 
3321.000000	62.956833 
3320.000000	62.980914 
3319.000000	63.011670 
3318.000000	63.046097 
3317.000000	63.081693 
3316.000000	63.116812 
3315.000000	63.150525 
3314.000000	63.182497 
3313.000000	63.212394 
3312.000000	63.239717 
3311.000000	63.263583 
3310.000000	63.282966 
3309.000000	63.296818 
3308.000000	63.304638 
3307.000000	63.306522 
3306.000000	63.303112 
3305.000000	63.295340 
3304.000000	63.283944 
3303.000000	63.269519 
3302.000000	63.252329 
3301.000000	63.232445 
3300.000000	63.209986 
3299.000000	63.185548 
3298.000000	63.160514 
3297.000000	63.137221 
3296.000000	63.118457 
3295.000000	63.107109 
3294.000000	63.105320 
3293.000000	63.114142 
3292.000000	63.132977 
3291.000000	63.159823 
3290.000000	63.191056 
3289.000000	63.222408 
3288.000000	63.249731 
3287.000000	63.269758 
3286.000000	63.280296 
3285.000000	63.280558 
3284.000000	63.271093 
3283.000000	63.253235 
3282.000000	63.228845 
3281.000000	63.199782 
3280.000000	63.167357 
3279.000000	63.132548 
3278.000000	63.095903 
3277.000000	63.057565 
3276.000000	63.017821 
3275.000000	62.977218 
3274.000000	62.936735 
3273.000000	62.897515 
3272.000000	62.861132 
3271.000000	62.828969 
3270.000000	62.802433 
3269.000000	62.782359 
3268.000000	62.769865 
3267.000000	62.765502 
3266.000000	62.770390 
3265.000000	62.785196 
3264.000000	62.810683 
3263.000000	62.846803 
3262.000000	62.892699 
3261.000000	62.946009 
3260.000000	63.003301 
3259.000000	63.060188 
3258.000000	63.111805 
3257.000000	63.153576 
3256.000000	63.182067 
3255.000000	63.195657 
3254.000000	63.194608 
3253.000000	63.181185 
3252.000000	63.158822 
3251.000000	63.131499 
3250.000000	63.103055 
3249.000000	63.076615 
3248.000000	63.054203 
3247.000000	63.036513 
3246.000000	63.023877 
3245.000000	63.015842 
3244.000000	63.011717 
3243.000000	63.010764 
3242.000000	63.012361 
3241.000000	63.016128 
3240.000000	63.021445 
3239.000000	63.027572 
3238.000000	63.033628 
3237.000000	63.038396 
3236.000000	63.040399 
3235.000000	63.038039 
3234.000000	63.030052 
3233.000000	63.015675 
3232.000000	62.995100 
3231.000000	62.969446 
3230.000000	62.940621 
3229.000000	62.911176 
3228.000000	62.883710 
3227.000000	62.860250 
3226.000000	62.841892 
3225.000000	62.828683 
3224.000000	62.819838 
3223.000000	62.813615 
3222.000000	62.808346 
3221.000000	62.802624 
3220.000000	62.796044 
3219.000000	62.789106 
3218.000000	62.783384 
3217.000000	62.780690 
3216.000000	62.782979 
3215.000000	62.791442 
3214.000000	62.806248 
3213.000000	62.826538 
3212.000000	62.850284 
3211.000000	62.875151 
3210.000000	62.898683 
3209.000000	62.919020 
3208.000000	62.935018 
3207.000000	62.946510 
3206.000000	62.954163 
3205.000000	62.959074 
3204.000000	62.962412 
3203.000000	62.965083 
3202.000000	62.967276 
3201.000000	62.968540 
3200.000000	62.968015 
3199.000000	62.964892 
3198.000000	62.958621 
3197.000000	62.949395 
3196.000000	62.938094 
3195.000000	62.926125 
3194.000000	62.914896 
3193.000000	62.905669 
3192.000000	62.898921 
3191.000000	62.894630 
3190.000000	62.892365 
3189.000000	62.891674 
3188.000000	62.892270 
3187.000000	62.893962 
3186.000000	62.896776 
3185.000000	62.900710 
3184.000000	62.905263 
3183.000000	62.909722 
3182.000000	62.912797 
3181.000000	62.913417 
3180.000000	62.910842 
3179.000000	62.905383 
3178.000000	62.898468 
3177.000000	62.892293 
3176.000000	62.889456 
3175.000000	62.891936 
3174.000000	62.900114 
3173.000000	62.912583 
3172.000000	62.926077 
3171.000000	62.936258 
3170.000000	62.938785 
3169.000000	62.930369 
3168.000000	62.909841 
3167.000000	62.878346 
3166.000000	62.839150 
3165.000000	62.796616 
3164.000000	62.755441 
3163.000000	62.719631 
3162.000000	62.691950 
3161.000000	62.673401 
3160.000000	62.663912 
3159.000000	62.662553 
3158.000000	62.668323 
3157.000000	62.680196 
3156.000000	62.697577 
3155.000000	62.719869 
3154.000000	62.746644 
3153.000000	62.776827 
3152.000000	62.809014 
3151.000000	62.841415 
3150.000000	62.872385 
3149.000000	62.900495 
3148.000000	62.924814 
3147.000000	62.944912 
3146.000000	62.960624 
3145.000000	62.971735 
3144.000000	62.977528 
3143.000000	62.976908 
3142.000000	62.968516 
3141.000000	62.951087 
3140.000000	62.924242 
3139.000000	62.888646 
3138.000000	62.846446 
3137.000000	62.801051 
3136.000000	62.756657 
3135.000000	62.717342 
3134.000000	62.686419 
3133.000000	62.665724 
3132.000000	62.655186 
3131.000000	62.653255 
3130.000000	62.657308 
3129.000000	62.664508 
3128.000000	62.672448 
3127.000000	62.679791 
3126.000000	62.685942 
3125.000000	62.691307 
3124.000000	62.696433 
3123.000000	62.701869 
3122.000000	62.707471 
3121.000000	62.712836 
3120.000000	62.717223 
3119.000000	62.720108 
3118.000000	62.721157 
3117.000000	62.720346 
3116.000000	62.717676 
3115.000000	62.712955 
3114.000000	62.705707 
3113.000000	62.695002 
3112.000000	62.679839 
3111.000000	62.659430 
3110.000000	62.633872 
3109.000000	62.604427 
3108.000000	62.573742 
3107.000000	62.545394 
3106.000000	62.523365 
3105.000000	62.510728 
3104.000000	62.509346 
3103.000000	62.519025 
3102.000000	62.537741 
3101.000000	62.561702 
3100.000000	62.586688 
3099.000000	62.608814 
3098.000000	62.625527 
3097.000000	62.635850 
3096.000000	62.640762 
3095.000000	62.642240 
3094.000000	62.643194 
3093.000000	62.646389 
3092.000000	62.653708 
3091.000000	62.665605 
3090.000000	62.681388 
3089.000000	62.699222 
3088.000000	62.716722 
3087.000000	62.731409 
3086.000000	62.741327 
3085.000000	62.745499 
3084.000000	62.743878 
3083.000000	62.737298 
3082.000000	62.727093 
3081.000000	62.714815 
3080.000000	62.702298 
3079.000000	62.691140 
3078.000000	62.682437 
3077.000000	62.677121 
3076.000000	62.676119 
3075.000000	62.679910 
3074.000000	62.688732 
3073.000000	62.702274 
3072.000000	62.719774 
3071.000000	62.739682 
3070.000000	62.759804 
3069.000000	62.777233 
3068.000000	62.788939 
3067.000000	62.792038 
3066.000000	62.784600 
3065.000000	62.765908 
3064.000000	62.736749 
3063.000000	62.699317 
3062.000000	62.656927 
3061.000000	62.613272 
3060.000000	62.572121 
3059.000000	62.536430 
3058.000000	62.508201 
3057.000000	62.488198 
3056.000000	62.476372 
3055.000000	62.472176 
3054.000000	62.475037 
3053.000000	62.484288 
3052.000000	62.499594 
3051.000000	62.520575 
3050.000000	62.546753 
3049.000000	62.576699 
3048.000000	62.608528 
3047.000000	62.639474 
3046.000000	62.666392 
3045.000000	62.686395 
3044.000000	62.697410 
3043.000000	62.698841 
3042.000000	62.691497 
3041.000000	62.677812 
3040.000000	62.660837 
3039.000000	62.643766 
3038.000000	62.629222 
3037.000000	62.618660 
3036.000000	62.612295 
3035.000000	62.609338 
3034.000000	62.608647 
3033.000000	62.608861 
3032.000000	62.608981 
3031.000000	62.608551 
3030.000000	62.607502 
3029.000000	62.606120 
3028.000000	62.604618 
3027.000000	62.602829 
3026.000000	62.600278 
3025.000000	62.596249 
3024.000000	62.589979 
3023.000000	62.580871 
3022.000000	62.568807 
3021.000000	62.554383 
3020.000000	62.538719 
3019.000000	62.523603 
3018.000000	62.510657 
3017.000000	62.501525 
3016.000000	62.497472 
3015.000000	62.499260 
3014.000000	62.506866 
3013.000000	62.519574 
3012.000000	62.536215 
3011.000000	62.555193 
3010.000000	62.574768 
3009.000000	62.593269 
3008.000000	62.609243 
3007.000000	62.621760 
3006.000000	62.630200 
3005.000000	62.634301 
3004.000000	62.633824 
3003.000000	62.628817 
3002.000000	62.619328 
3001.000000	62.605738 
3000.000000	62.588453 
2999.000000	62.568211 
2998.000000	62.545919 
2997.000000	62.522816 
2996.000000	62.499856 
2995.000000	62.477898 
2994.000000	62.457585 
2993.000000	62.439227 
2992.000000	62.422966 
2991.000000	62.408614 
2990.000000	62.396192 
2989.000000	62.385964 
2988.000000	62.378334 
2987.000000	62.373805 
2986.000000	62.372708 
2985.000000	62.375020 
2984.000000	62.380337 
2983.000000	62.387609 
2982.000000	62.395548 
2981.000000	62.402772 
2980.000000	62.408161 
2979.000000	62.410974 
2978.000000	62.410855 
2977.000000	62.407875 
2976.000000	62.402224 
2975.000000	62.394094 
2974.000000	62.383556 
2973.000000	62.370729 
2972.000000	62.355756 
2971.000000	62.338948 
2970.000000	62.321162 
2969.000000	62.303352 
2968.000000	62.286925 
2967.000000	62.272834 
2966.000000	62.261509 
2965.000000	62.252521 
2964.000000	62.244677 
2963.000000	62.236356 
2962.000000	62.225914 
2961.000000	62.212252 
2960.000000	62.195253 
2959.000000	62.175893 
2958.000000	62.156009 
2957.000000	62.137913 
2956.000000	62.123727 
2955.000000	62.114787 
2954.000000	62.111425 
2953.000000	62.112689 
2952.000000	62.116789 
2951.000000	62.121748 
2950.000000	62.125849 
2949.000000	62.127900 
2948.000000	62.127566 
2947.000000	62.125039 
2946.000000	62.121295 
2945.000000	62.116956 
2944.000000	62.112903 
2943.000000	62.109923 
2942.000000	62.108516 
2941.000000	62.109351 
2940.000000	62.112426 
2939.000000	62.116956 
2938.000000	62.121391 
2937.000000	62.123608 
2936.000000	62.121486 
2935.000000	62.113332 
2934.000000	62.098765 
2933.000000	62.078976 
2932.000000	62.056469 
2931.000000	62.034273 
2930.000000	62.015485 
2929.000000	62.002348 
2928.000000	61.995816 
2927.000000	61.995124 
2926.000000	61.998200 
2925.000000	62.002229 
2924.000000	62.004065 
2923.000000	62.001371 
2922.000000	61.992859 
2921.000000	61.978673 
2920.000000	61.960387 
2919.000000	61.940550 
2918.000000	61.921977 
2917.000000	61.907458 
2916.000000	61.898899 
2915.000000	61.897277 
2914.000000	61.902403 
2913.000000	61.913084 
2912.000000	61.927342 
2911.000000	61.943125 
2910.000000	61.958384 
2909.000000	61.972165 
2908.000000	61.984300 
2907.000000	61.995673 
2906.000000	62.007665 
2905.000000	62.021541 
2904.000000	62.038064 
2903.000000	62.056803 
2902.000000	62.076282 
2901.000000	62.094068 
2900.000000	62.107348 
2899.000000	62.113714 
2898.000000	62.112021 
2897.000000	62.102603 
2896.000000	62.087416 
2895.000000	62.069654 
2894.000000	62.052822 
2893.000000	62.040162 
2892.000000	62.033796 
2891.000000	62.034106 
2890.000000	62.039828 
2889.000000	62.048864 
2888.000000	62.058377 
2887.000000	62.065839 
2886.000000	62.069201 
2885.000000	62.067365 
2884.000000	62.060165 
2883.000000	62.048077 
2882.000000	62.032318 
2881.000000	62.014460 
2880.000000	61.996531 
2879.000000	61.980581 
2878.000000	61.968731 
2877.000000	61.962628 
2876.000000	61.963391 
2875.000000	61.971139 
2874.000000	61.985039 
2873.000000	62.003111 
2872.000000	62.022495 
2871.000000	62.039947 
2870.000000	62.052583 
2869.000000	62.058091 
2868.000000	62.055420 
2867.000000	62.044525 
2866.000000	62.026214 
2865.000000	62.001824 
2864.000000	61.972951 
2863.000000	61.940956 
2862.000000	61.907148 
2861.000000	61.872887 
2860.000000	61.839723 
2859.000000	61.809372 
2858.000000	61.783838 
2857.000000	61.765217 
2856.000000	61.755108 
2855.000000	61.754727 
2854.000000	61.764335 
2853.000000	61.783337 
2852.000000	61.810016 
2851.000000	61.841964 
2850.000000	61.876201 
2849.000000	61.909818 
2848.000000	61.940121 
2847.000000	61.964869 
2846.000000	61.982631 
2845.000000	61.992740 
2844.000000	61.995387 
2843.000000	61.991620 
2842.000000	61.982941 
2841.000000	61.971378 
2840.000000	61.958885 
2839.000000	61.947035 
2838.000000	61.936664 
2837.000000	61.927962 
2836.000000	61.920523 
2835.000000	61.913514 
2834.000000	61.906290 
2833.000000	61.898756 
2832.000000	61.891365 
2831.000000	61.885070 
2830.000000	61.881184 
2829.000000	61.880803 
2828.000000	61.884498 
2827.000000	61.891841 
2826.000000	61.901473 
2825.000000	61.911249 
2824.000000	61.918950 
2823.000000	61.922526 
2822.000000	61.920762 
2821.000000	61.913490 
2820.000000	61.901521 
2819.000000	61.886668 
2818.000000	61.870789 
2817.000000	61.855578 
2816.000000	61.842179 
2815.000000	61.831331 
2814.000000	61.823081 
2813.000000	61.817145 
2812.000000	61.813163 
2811.000000	61.810970 
2810.000000	61.810541 
2809.000000	61.812090 
2808.000000	61.815571 
2807.000000	61.820888 
2806.000000	61.827540 
2805.000000	61.834836 
2804.000000	61.841869 
2803.000000	61.847901 
2802.000000	61.852407 
2801.000000	61.855435 
2800.000000	61.857485 
2799.000000	61.859345 
2798.000000	61.861824 
2797.000000	61.865592 
2796.000000	61.870837 
2795.000000	61.877250 
2794.000000	61.884069 
2793.000000	61.890316 
2792.000000	61.894869 
2791.000000	61.896967 
2790.000000	61.896347 
2789.000000	61.893224 
2788.000000	61.888241 
2787.000000	61.882495 
2786.000000	61.877036 
2785.000000	61.872839 
2784.000000	61.870503 
2783.000000	61.870336 
2782.000000	61.872124 
2781.000000	61.875200 
2780.000000	61.878561 
2779.000000	61.881089 
2778.000000	61.881542 
2777.000000	61.878919 
2776.000000	61.872458 
2775.000000	61.861968 
2774.000000	61.847758 
2773.000000	61.830568 
2772.000000	61.811494 
2771.000000	61.791801 
2770.000000	61.772894 
2769.000000	61.756038 
2768.000000	61.742138 
2767.000000	61.731839 
2766.000000	61.725330 
2765.000000	61.722540 
2764.000000	61.723041 
2763.000000	61.726164 
2762.000000	61.731052 
2761.000000	61.736774 
2760.000000	61.742281 
2759.000000	61.746597 
2758.000000	61.748695 
2757.000000	61.747956 
2756.000000	61.743950 
2755.000000	61.736607 
2754.000000	61.726379 
2753.000000	61.714172 
2752.000000	61.701154 
2751.000000	61.688756 
2750.000000	61.678409 
2749.000000	61.671519 
2748.000000	61.669015 
2747.000000	61.671423 
2746.000000	61.678838 
2745.000000	61.690759 
2744.000000	61.706376 
2743.000000	61.724472 
2742.000000	61.743521 
2741.000000	61.761951 
2740.000000	61.778211 
2739.000000	61.790943 
2738.000000	61.799120 
2737.000000	61.802411 
2736.000000	61.800861 
2735.000000	61.795139 
2734.000000	61.786055 
2733.000000	61.774969 
2732.000000	61.763048 
2731.000000	61.751437 
2730.000000	61.740660 
2729.000000	61.730957 
2728.000000	61.721920 
2727.000000	61.712861 
2726.000000	61.702847 
2725.000000	61.690735 
2724.000000	61.675930 
2723.000000	61.658334 
2722.000000	61.638903 
2721.000000	61.619067 
2720.000000	61.601066 
2719.000000	61.587429 
2718.000000	61.580371 
2717.000000	61.581230 
2716.000000	61.589980 
2715.000000	61.605167 
2714.000000	61.624026 
2713.000000	61.642885 
2712.000000	61.658143 
2711.000000	61.667275 
2710.000000	61.669063 
2709.000000	61.664319 
2708.000000	61.655473 
2707.000000	61.646151 
2706.000000	61.640071 
2705.000000	61.640167 
2704.000000	61.647868 
2703.000000	61.662459 
2702.000000	61.681556 
2701.000000	61.701154 
2700.000000	61.716938 
2699.000000	61.724734 
2698.000000	61.721682 
2697.000000	61.706686 
2696.000000	61.680245 
2695.000000	61.644530 
2694.000000	61.602783 
2693.000000	61.558842 
2692.000000	61.516332 
2691.000000	61.478567 
2690.000000	61.447930 
2689.000000	61.425709 
2688.000000	61.412382 
2687.000000	61.407232 
2686.000000	61.408805 
2685.000000	61.415266 
2684.000000	61.424779 
2683.000000	61.435413 
2682.000000	61.445426 
2681.000000	61.453747 
2680.000000	61.459851 
2679.000000	61.463451 
2678.000000	61.464786 
2677.000000	61.464238 
2676.000000	61.462593 
2675.000000	61.460614 
2674.000000	61.459279 
2673.000000	61.459565 
2672.000000	61.462235 
2671.000000	61.467933 
2670.000000	61.476802 
2669.000000	61.488342 
2668.000000	61.501431 
2667.000000	61.514377 
2666.000000	61.524987 
2665.000000	61.531233 
2664.000000	61.531376 
2663.000000	61.524486 
2662.000000	61.510562 
2661.000000	61.490225 
2660.000000	61.464977 
2659.000000	61.436605 
2658.000000	61.406803 
2657.000000	61.376953 
2656.000000	61.348056 
2655.000000	61.320877 
2654.000000	61.296129 
2653.000000	61.274528 
2652.000000	61.256885 
2651.000000	61.244201 
2650.000000	61.237168 
2649.000000	61.236262 
2648.000000	61.241030 
2647.000000	61.250686 
2646.000000	61.263608 
2645.000000	61.278200 
2644.000000	61.292743 
2643.000000	61.305880 
2642.000000	61.316871 
2641.000000	61.325216 
2640.000000	61.330842 
2639.000000	61.333608 
2638.000000	61.333274 
2637.000000	61.329531 
2636.000000	61.322045 
2635.000000	61.310982 
2634.000000	61.297202 
2633.000000	61.282300 
2632.000000	61.268568 
2631.000000	61.258411 
2630.000000	61.253857 
2629.000000	61.255908 
2628.000000	61.264514 
2627.000000	61.278319 
2626.000000	61.295104 
2625.000000	61.312413 
2624.000000	61.328053 
2623.000000	61.340522 
2622.000000	61.349058 
2621.000000	61.353898 
2620.000000	61.355543 
2619.000000	61.354541 
2618.000000	61.351323 
2617.000000	61.345887 
2616.000000	61.338162 
2615.000000	61.328196 
2614.000000	61.316323 
2613.000000	61.303377 
2612.000000	61.290550 
2611.000000	61.279177 
2610.000000	61.270141 
2609.000000	61.263823 
2608.000000	61.260104 
2607.000000	61.258268 
2606.000000	61.257505 
2605.000000	61.257052 
2604.000000	61.256337 
2603.000000	61.254978 
2602.000000	61.252760 
2601.000000	61.249470 
2600.000000	61.244821 
2599.000000	61.238408 
2598.000000	61.229705 
2597.000000	61.218333 
2596.000000	61.204361 
2595.000000	61.188316 
2594.000000	61.171340 
2593.000000	61.154985 
2592.000000	61.141085 
2591.000000	61.131143 
2590.000000	61.126089 
2589.000000	61.126089 
2588.000000	61.130428 
2587.000000	61.137580 
2586.000000	61.145782 
2585.000000	61.153101 
2584.000000	61.157917 
2583.000000	61.159014 
2582.000000	61.155962 
2581.000000	61.149048 
2580.000000	61.139154 
2579.000000	61.127543 
2578.000000	61.115550 
2577.000000	61.104369 
2576.000000	61.094737 
2575.000000	61.086821 
2574.000000	61.080312 
2573.000000	61.074614 
2572.000000	61.069107 
2571.000000	61.063170 
2570.000000	61.056685 
2569.000000	61.049795 
2568.000000	61.043429 
2567.000000	61.038589 
2566.000000	61.036562 
2565.000000	61.038327 
2564.000000	61.044621 
2563.000000	61.055636 
2562.000000	61.071038 
2561.000000	61.089992 
2560.000000	61.111140 
2559.000000	61.133050 
2558.000000	61.153984 
2557.000000	61.172103 
2556.000000	61.185693 
2555.000000	61.193299 
2554.000000	61.194014 
2553.000000	61.187648 
2552.000000	61.174702 
2551.000000	61.156535 
2550.000000	61.134743 
2549.000000	61.110901 
2548.000000	61.086320 
2547.000000	61.061930 
2546.000000	61.038303 
2545.000000	61.015772 
2544.000000	60.994672 
2543.000000	60.975289 
2542.000000	60.957956 
2541.000000	60.942935 
2540.000000	60.930228 
2539.000000	60.919833 
2538.000000	60.911750 
2537.000000	60.906076 
2536.000000	60.902881 
2535.000000	60.902309 
2534.000000	60.904574 
2533.000000	60.909748 
2532.000000	60.917544 
2531.000000	60.927391 
2530.000000	60.938549 
2529.000000	60.950112 
2528.000000	60.961151 
2527.000000	60.971212 
2526.000000	60.980081 
2525.000000	60.988116 
2524.000000	60.995841 
2523.000000	61.003756 
2522.000000	61.012148 
2521.000000	61.020827 
2520.000000	61.029195 
2519.000000	61.036276 
2518.000000	61.040806 
2517.000000	61.041879 
2516.000000	61.038756 
2515.000000	61.031365 
2514.000000	61.019945 
2513.000000	61.005115 
2512.000000	60.987663 
2511.000000	60.968327 
2510.000000	60.947728 
2509.000000	60.926651 
2508.000000	60.905861 
2507.000000	60.886216 
2506.000000	60.868692 
2505.000000	60.854434 
2504.000000	60.844302 
2503.000000	60.838866 
2502.000000	60.837960 
2501.000000	60.840725 
2500.000000	60.845780 
2499.000000	60.851502 
2498.000000	60.856366 
2497.000000	60.859179 
2496.000000	60.859417 
2495.000000	60.857272 
2494.000000	60.853314 
2493.000000	60.848236 
2492.000000	60.842537 
2491.000000	60.836291 
2490.000000	60.829138 
2489.000000	60.820531 
2488.000000	60.810017 
2487.000000	60.797548 
2486.000000	60.784006 
2485.000000	60.770726 
2484.000000	60.759449 
2483.000000	60.751962 
2482.000000	60.749387 
2481.000000	60.752010 
2480.000000	60.759067 
2479.000000	60.768866 
2478.000000	60.779166 
2477.000000	60.787701 
2476.000000	60.792469 
2475.000000	60.792422 
2474.000000	60.787487 
2473.000000	60.778427 
2472.000000	60.766577 
2471.000000	60.753512 
2470.000000	60.740685 
2469.000000	60.729146 
2468.000000	60.719299 
2467.000000	60.711145 
2466.000000	60.704445 
2465.000000	60.698771 
2464.000000	60.694074 
2463.000000	60.690522 
2462.000000	60.688662 
2461.000000	60.689258 
2460.000000	60.693168 
2459.000000	60.700750 
2458.000000	60.711836 
2457.000000	60.725355 
2456.000000	60.739493 
2455.000000	60.751771 
2454.000000	60.759758 
2453.000000	60.761594 
2452.000000	60.756444 
2451.000000	60.744810 
2450.000000	60.728383 
2449.000000	60.709714 
2448.000000	60.691618 
2447.000000	60.676598 
2446.000000	60.666441 
2445.000000	60.661864 
2444.000000	60.662508 
2443.000000	60.667252 
2442.000000	60.674571 
2441.000000	60.683035 
2440.000000	60.691428 
2439.000000	60.698747 
2438.000000	60.704302 
2437.000000	60.707545 
2436.000000	60.707998 
2435.000000	60.705184 
2434.000000	60.698795 
2433.000000	60.688662 
2432.000000	60.675287 
2431.000000	60.659241 
2430.000000	60.641455 
2429.000000	60.622763 
2428.000000	60.603952 
2427.000000	60.585856 
2426.000000	60.569190 
2425.000000	60.554957 
2424.000000	60.544133 
2423.000000	60.537910 
2422.000000	60.537409 
2421.000000	60.543131 
2420.000000	60.554790 
2419.000000	60.571002 
2418.000000	60.589146 
2417.000000	60.605788 
2416.000000	60.617303 
2415.000000	60.620474 
2414.000000	60.613346 
2413.000000	60.595655 
2412.000000	60.569238 
2411.000000	60.537433 
2410.000000	60.504531 
2409.000000	60.474848 
2408.000000	60.452008 
2407.000000	60.438060 
2406.000000	60.433268 
2405.000000	60.436534 
2404.000000	60.445666 
2403.000000	60.457825 
2402.000000	60.470628 
2401.000000	60.482144 
2400.000000	60.491490 
2399.000000	60.498309 
2398.000000	60.502791 
2397.000000	60.505270 
2396.000000	60.505795 
2395.000000	60.504031 
2394.000000	60.499262 
2393.000000	60.490775 
2392.000000	60.477876 
2391.000000	60.460376 
2390.000000	60.438609 
2389.000000	60.413765 
2388.000000	60.387444 
2387.000000	60.361742 
2386.000000	60.338783 
2385.000000	60.320401 
2384.000000	60.307979 
2383.000000	60.302138 
2382.000000	60.302734 
2381.000000	60.308957 
2380.000000	60.319328 
2379.000000	60.332012 
2378.000000	60.345172 
2377.000000	60.357260 
2376.000000	60.367059 
2375.000000	60.373878 
2374.000000	60.377621 
2373.000000	60.378861 
2372.000000	60.378336 
2371.000000	60.376811 
2370.000000	60.374832 
2369.000000	60.372424 
2368.000000	60.369420 
2367.000000	60.365104 
2366.000000	60.358786 
2365.000000	60.349798 
2364.000000	60.338044 
2363.000000	60.323977 
2362.000000	60.308766 
2361.000000	60.294222 
2360.000000	60.282301 
2359.000000	60.274863 
2358.000000	60.273098 
2357.000000	60.277295 
2356.000000	60.286569 
2355.000000	60.299229 
2354.000000	60.313057 
2353.000000	60.325741 
2352.000000	60.335445 
2351.000000	60.341095 
2350.000000	60.342717 
2349.000000	60.341238 
2348.000000	60.338187 
2347.000000	60.335206 
2346.000000	60.333323 
2345.000000	60.332989 
2344.000000	60.333728 
2343.000000	60.334277 
2342.000000	60.332989 
2341.000000	60.328435 
2340.000000	60.319542 
2339.000000	60.306000 
2338.000000	60.288381 
2337.000000	60.267949 
2336.000000	60.246205 
2335.000000	60.224771 
2334.000000	60.205149 
2333.000000	60.188698 
2332.000000	60.176467 
2331.000000	60.169267 
2330.000000	60.167717 
2329.000000	60.171866 
2328.000000	60.181450 
2327.000000	60.195493 
2326.000000	60.212230 
2325.000000	60.229325 
2324.000000	60.244131 
2323.000000	60.254192 
2322.000000	60.257577 
2321.000000	60.253596 
2320.000000	60.242772 
2319.000000	60.226583 
2318.000000	60.207390 
2317.000000	60.187625 
2316.000000	60.169291 
2315.000000	60.153388 
2314.000000	60.139775 
2313.000000	60.127282 
2312.000000	60.114169 
2311.000000	60.098886 
2310.000000	60.080432 
2309.000000	60.058832 
2308.000000	60.035276 
2307.000000	60.011911 
2306.000000	59.991431 
2305.000000	59.976363 
2304.000000	59.968662 
2303.000000	59.968996 
2302.000000	59.976816 
2301.000000	59.990549 
2300.000000	60.007905 
2299.000000	60.026311 
2298.000000	60.043358 
2297.000000	60.057234 
2296.000000	60.066890 
2295.000000	60.071802 
2294.000000	60.072374 
2293.000000	60.069274 
2292.000000	60.063338 
2291.000000	60.055828 
2290.000000	60.047864 
2289.000000	60.040593 
2288.000000	60.034823 
2287.000000	60.030984 
2286.000000	60.028934 
2285.000000	60.028100 
2284.000000	60.027360 
2283.000000	60.025310 
2282.000000	60.020518 
2281.000000	60.012078 
2280.000000	59.999847 
2279.000000	59.984683 
2278.000000	59.968423 
2277.000000	59.953618 
2276.000000	59.943032 
2275.000000	59.938931 
2274.000000	59.942841 
2273.000000	59.954690 
2272.000000	59.973216 
2271.000000	59.995675 
2270.000000	60.018563 
2269.000000	60.038089 
2268.000000	60.050940 
2267.000000	60.055065 
2266.000000	60.049510 
2265.000000	60.035157 
2264.000000	60.014319 
2263.000000	59.990262 
2262.000000	59.966564 
2261.000000	59.946370 
2260.000000	59.931707 
2259.000000	59.923195 
2258.000000	59.920001 
2257.000000	59.920120 
2256.000000	59.921026 
2255.000000	59.920191 
2254.000000	59.915900 
2253.000000	59.907531 
2252.000000	59.895730 
2251.000000	59.882068 
2250.000000	59.868431 
2249.000000	59.856724 
2248.000000	59.848093 
2247.000000	59.842824 
2246.000000	59.840154 
2245.000000	59.838914 
2244.000000	59.837579 
2243.000000	59.834957 
2242.000000	59.830498 
2241.000000	59.824299 
2240.000000	59.817075 
2239.000000	59.809780 
2238.000000	59.803342 
2237.000000	59.798574 
2236.000000	59.795713 
2235.000000	59.794449 
2234.000000	59.793925 
2233.000000	59.793114 
2232.000000	59.790921 
2231.000000	59.786558 
2230.000000	59.779453 
2229.000000	59.769439 
2228.000000	59.756875 
2227.000000	59.742403 
2226.000000	59.726762 
2225.000000	59.710741 
2224.000000	59.694910 
2223.000000	59.679865 
2222.000000	59.665989 
2221.000000	59.653472 
2220.000000	59.642648 
2219.000000	59.633827 
2218.000000	59.627127 
2217.000000	59.622788 
2216.000000	59.620761 
2215.000000	59.620785 
2214.000000	59.622287 
2213.000000	59.624242 
2212.000000	59.625363 
2211.000000	59.624361 
2210.000000	59.620165 
2209.000000	59.612250 
2208.000000	59.600687 
2207.000000	59.586238 
2206.000000	59.570240 
2205.000000	59.554433 
2204.000000	59.540414 
2203.000000	59.529519 
2202.000000	59.522438 
2201.000000	59.519290 
2200.000000	59.519529 
2199.000000	59.522128 
2198.000000	59.525918 
2197.000000	59.529805 
2196.000000	59.533214 
2195.000000	59.536004 
2194.000000	59.538531 
2193.000000	59.541726 
2192.000000	59.546422 
2191.000000	59.553170 
2190.000000	59.561920 
2189.000000	59.572029 
2188.000000	59.582161 
2187.000000	59.590625 
2186.000000	59.595727 
2185.000000	59.596037 
2184.000000	59.590959 
2183.000000	59.580755 
2182.000000	59.566664 
2181.000000	59.550428 
2180.000000	59.534072 
2179.000000	59.519624 
2178.000000	59.508609 
2177.000000	59.501862 
2176.000000	59.499478 
2175.000000	59.501004 
2174.000000	59.505581 
2173.000000	59.512162 
2172.000000	59.519743 
2171.000000	59.527850 
2170.000000	59.536194 
2169.000000	59.544825 
2168.000000	59.554004 
2167.000000	59.563922 
2166.000000	59.574723 
2165.000000	59.585928 
2164.000000	59.596776 
2163.000000	59.605860 
2162.000000	59.611725 
2161.000000	59.612894 
2160.000000	59.608316 
2159.000000	59.597301 
2158.000000	59.580159 
2157.000000	59.557890 
2156.000000	59.532165 
2155.000000	59.504842 
2154.000000	59.477567 
2153.000000	59.451723 
2152.000000	59.428191 
2151.000000	59.407138 
2150.000000	59.388422 
2149.000000	59.371685 
2148.000000	59.356546 
2147.000000	59.342908 
2146.000000	59.330987 
2145.000000	59.321069 
2144.000000	59.313654 
2143.000000	59.308815 
2142.000000	59.306597 
2141.000000	59.306550 
2140.000000	59.308242 
2139.000000	59.311008 
2138.000000	59.314322 
2137.000000	59.318017 
2136.000000	59.322237 
2135.000000	59.327220 
2134.000000	59.333157 
2133.000000	59.339904 
2132.000000	59.346818 
2131.000000	59.352731 
2130.000000	59.355783 
2129.000000	59.354066 
2128.000000	59.345912 
2127.000000	59.330320 
2126.000000	59.307432 
2125.000000	59.278607 
2124.000000	59.246516 
2123.000000	59.214591 
2122.000000	59.186625 
2121.000000	59.165859 
2120.000000	59.154605 
2119.000000	59.153723 
2118.000000	59.162592 
2117.000000	59.179353 
2116.000000	59.201097 
2115.000000	59.224796 
2114.000000	59.247422 
2113.000000	59.266662 
2112.000000	59.281182 
2111.000000	59.290504 
2110.000000	59.295058 
2109.000000	59.295845 
2108.000000	59.294080 
2107.000000	59.290647 
2106.000000	59.286189 
2105.000000	59.280633 
2104.000000	59.273505 
2103.000000	59.263873 
2102.000000	59.250903 
2101.000000	59.234070 
2100.000000	59.213638 
2099.000000	59.190773 
2098.000000	59.167408 
2097.000000	59.145927 
2096.000000	59.128665 
2095.000000	59.117197 
2094.000000	59.111952 
2093.000000	59.112024 
2092.000000	59.115338 
2091.000000	59.119200 
2090.000000	59.121108 
2089.000000	59.119439 
2088.000000	59.113979 
2087.000000	59.105658 
2086.000000	59.096384 
2085.000000	59.088230 
2084.000000	59.082674 
2083.000000	59.080052 
2082.000000	59.079360 
2081.000000	59.078431 
2080.000000	59.074735 
2079.000000	59.066247 
2078.000000	59.052324 
2077.000000	59.033870 
2076.000000	59.013485 
2075.000000	58.994626 
2074.000000	58.980965 
2073.000000	58.975005 
2072.000000	58.977746 
2071.000000	58.988428 
2070.000000	59.004473 
2069.000000	59.022307 
2068.000000	59.038019 
2067.000000	59.048342 
2066.000000	59.051108 
2065.000000	59.045886 
2064.000000	59.033846 
2063.000000	59.017515 
2062.000000	59.000229 
2061.000000	58.985424 
2060.000000	58.975934 
2059.000000	58.973455 
2058.000000	58.978366 
2057.000000	58.989572 
2056.000000	59.004950 
2055.000000	59.021544 
2054.000000	59.036183 
2053.000000	59.046125 
2052.000000	59.049773 
2051.000000	59.046554 
2050.000000	59.037065 
2049.000000	59.022760 
2048.000000	59.005427 
2047.000000	58.986663 
2046.000000	58.967709 
2045.000000	58.949184 
2044.000000	58.931255 
2043.000000	58.913946 
2042.000000	58.897423 
2041.000000	58.881950 
2040.000000	58.868050 
2039.000000	58.856177 
2038.000000	58.846616 
2037.000000	58.839392 
2036.000000	58.834195 
2035.000000	58.830356 
2034.000000	58.827137 
2033.000000	58.823728 
2032.000000	58.819699 
2031.000000	58.814954 
2030.000000	58.809638 
2029.000000	58.804011 
2028.000000	58.798289 
2027.000000	58.792304 
2026.000000	58.785581 
2025.000000	58.777546 
2024.000000	58.767557 
2023.000000	58.755302 
2022.000000	58.741021 
2021.000000	58.725714 
2020.000000	58.710956 
2019.000000	58.698511 
2018.000000	58.690118 
2017.000000	58.686923 
2016.000000	58.689165 
2015.000000	58.696079 
2014.000000	58.706068 
2013.000000	58.716893 
2012.000000	58.726310 
2011.000000	58.732533 
2010.000000	58.734536 
2009.000000	58.732366 
2008.000000	58.726978 
2007.000000	58.719801 
2006.000000	58.712506 
2005.000000	58.706378 
2004.000000	58.702135 
2003.000000	58.699822 
2002.000000	58.698892 
2001.000000	58.698487 
2000.000000	58.697891 
1999.000000	58.696508 
1998.000000	58.694219 
1997.000000	58.691310 
1996.000000	58.688139 
1995.000000	58.685135 
1994.000000	58.682513 
1993.000000	58.680367 
1992.000000	58.678483 
1991.000000	58.676576 
1990.000000	58.674311 
1989.000000	58.671545 
1988.000000	58.668351 
1987.000000	58.664917 
1986.000000	58.661484 
1985.000000	58.658146 
1984.000000	58.654952 
1983.000000	58.651709 
1982.000000	58.647966 
1981.000000	58.643364 
1980.000000	58.637452 
1979.000000	58.630323 
1978.000000	58.622312 
1977.000000	58.614182 
1976.000000	58.606791 
1975.000000	58.600831 
1974.000000	58.596706 
1973.000000	58.594322 
1972.000000	58.592867 
1971.000000	58.591294 
1970.000000	58.588337 
1969.000000	58.582973 
1968.000000	58.574700 
1967.000000	58.563995 
1966.000000	58.552169 
1965.000000	58.541107 
1964.000000	58.532857 
1963.000000	58.529233 
1962.000000	58.531284 
1961.000000	58.539032 
1960.000000	58.551454 
1959.000000	58.566617 
1958.000000	58.582139 
1957.000000	58.595514 
1956.000000	58.604550 
1955.000000	58.607649 
1954.000000	58.604073 
1953.000000	58.594131 
1952.000000	58.578968 
1951.000000	58.560276 
1950.000000	58.540415 
1949.000000	58.521580 
1948.000000	58.505702 
1947.000000	58.493733 
1946.000000	58.485913 
1945.000000	58.481454 
1944.000000	58.478713 
1943.000000	58.475685 
1942.000000	58.470368 
1941.000000	58.461642 
1940.000000	58.449101 
1939.000000	58.433580 
1938.000000	58.416676 
1937.000000	58.400654 
1936.000000	58.387684 
1935.000000	58.379435 
1934.000000	58.376550 
1933.000000	58.378887 
1932.000000	58.385562 
1931.000000	58.395338 
1930.000000	58.406853 
1929.000000	58.418965 
1928.000000	58.430910 
1927.000000	58.441925 
1926.000000	58.451390 
1925.000000	58.458566 
1924.000000	58.462643 
1923.000000	58.462953 
1922.000000	58.459115 
1921.000000	58.451223 
1920.000000	58.440113 
1919.000000	58.427500 
1918.000000	58.415555 
1917.000000	58.406424 
1916.000000	58.401536 
1915.000000	58.401560 
1914.000000	58.405733 
1913.000000	58.412241 
1912.000000	58.418416 
1911.000000	58.421301 
1910.000000	58.418607 
1909.000000	58.409118 
1908.000000	58.393001 
1907.000000	58.371829 
1906.000000	58.347964 
1905.000000	58.324098 
1904.000000	58.302402 
1903.000000	58.284306 
1902.000000	58.270072 
1901.000000	58.259177 
1900.000000	58.250570 
1899.000000	58.243298 
1898.000000	58.236980 
1897.000000	58.232140 
1896.000000	58.229923 
1895.000000	58.231711 
1894.000000	58.238649 
1893.000000	58.251070 
1892.000000	58.268022 
1891.000000	58.287262 
1890.000000	58.305788 
1889.000000	58.320164 
1888.000000	58.327603 
1887.000000	58.326101 
1886.000000	58.315515 
1885.000000	58.297038 
1884.000000	58.273220 
1883.000000	58.247256 
1882.000000	58.222270 
1881.000000	58.200836 
1880.000000	58.184552 
1879.000000	58.173799 
1878.000000	58.168005 
1877.000000	58.166074 
1876.000000	58.166694 
1875.000000	58.168530 
1874.000000	58.170676 
1873.000000	58.172535 
1872.000000	58.173894 
1871.000000	58.174681 
1870.000000	58.175158 
1869.000000	58.175611 
1868.000000	58.176302 
1867.000000	58.177638 
1866.000000	58.179736 
1865.000000	58.182573 
1864.000000	58.185625 
1863.000000	58.188152 
1862.000000	58.188652 
1861.000000	58.185410 
1860.000000	58.176708 
1859.000000	58.161187 
1858.000000	58.138442 
1857.000000	58.109068 
1856.000000	58.074998 
1855.000000	58.039164 
1854.000000	58.005309 
1853.000000	57.977104 
1852.000000	57.957458 
1851.000000	57.947993 
1850.000000	57.948541 
1849.000000	57.957458 
1848.000000	57.971572 
1847.000000	57.986974 
1846.000000	57.999777 
1845.000000	58.006954 
1844.000000	58.007001 
1843.000000	57.999992 
1842.000000	57.987689 
1841.000000	57.972693 
1840.000000	57.957839 
1839.000000	57.945418 
1838.000000	57.936716 
1837.000000	57.931685 
1836.000000	57.929229 
1835.000000	57.927727 
1834.000000	57.925486 
1833.000000	57.921433 
1832.000000	57.915306 
1831.000000	57.907772 
1830.000000	57.900118 
1829.000000	57.893824 
1828.000000	57.890129 
1827.000000	57.889723 
1826.000000	57.892537 
1825.000000	57.897996 
1824.000000	57.905173 
1823.000000	57.913136 
1822.000000	57.921051 
1821.000000	57.928228 
1820.000000	57.934165 
1819.000000	57.938313 
1818.000000	57.940053 
1817.000000	57.938861 
1816.000000	57.934451 
1815.000000	57.926845 
1814.000000	57.916355 
1813.000000	57.903933 
1812.000000	57.890582 
1811.000000	57.877635 
1810.000000	57.865905 
1809.000000	57.856106 
1808.000000	57.848477 
1807.000000	57.842803 
1806.000000	57.838630 
1805.000000	57.835388 
1804.000000	57.832384 
1803.000000	57.829165 
1802.000000	57.825255 
1801.000000	57.820391 
1800.000000	57.814121 
1799.000000	57.805943 
1798.000000	57.795405 
1797.000000	57.782173 
1796.000000	57.766103 
1795.000000	57.747554 
1794.000000	57.727313 
1793.000000	57.706642 
1792.000000	57.686996 
1791.000000	57.669806 
1790.000000	57.656335 
1789.000000	57.647371 
1788.000000	57.643079 
1787.000000	57.643032 
1786.000000	57.646059 
1785.000000	57.650876 
1784.000000	57.655906 
1783.000000	57.660007 
1782.000000	57.662320 
1781.000000	57.662749 
1780.000000	57.661724 
1779.000000	57.659912 
1778.000000	57.658004 
1777.000000	57.656383 
1776.000000	57.655143 
1775.000000	57.653880 
1774.000000	57.651948 
1773.000000	57.648634 
1772.000000	57.643461 
1771.000000	57.636165 
1770.000000	57.626938 
1769.000000	57.616090 
1768.000000	57.604122 
1767.000000	57.591295 
1766.000000	57.577705 
1765.000000	57.563281 
1764.000000	57.547712 
1763.000000	57.531046 
1762.000000	57.513403 
1761.000000	57.495355 
1760.000000	57.477879 
1759.000000	57.461953 
1758.000000	57.448339 
1757.000000	57.437467 
1756.000000	57.429337 
1755.000000	57.423567 
1754.000000	57.419681 
1753.000000	57.417130 
1752.000000	57.415485 
1751.000000	57.414555 
1750.000000	57.414197 
1749.000000	57.414317 
1748.000000	57.414627 
1747.000000	57.414603 
1746.000000	57.413482 
1745.000000	57.410407 
1744.000000	57.404518 
1743.000000	57.395219 
1742.000000	57.382130 
1741.000000	57.365417 
1740.000000	57.345628 
1739.000000	57.323598 
1738.000000	57.300519 
1737.000000	57.277631 
1736.000000	57.256150 
1735.000000	57.236957 
1734.000000	57.220864 
1733.000000	57.208061 
1732.000000	57.198023 
1731.000000	57.189750 
1730.000000	57.181668 
1729.000000	57.172226 
1728.000000	57.160186 
1727.000000	57.145285 
1726.000000	57.128119 
1725.000000	57.110524 
1724.000000	57.095193 
1723.000000	57.085180 
1722.000000	57.083129 
1721.000000	57.090759 
1720.000000	57.108378 
1719.000000	57.134532 
1718.000000	57.166361 
1717.000000	57.200169 
1716.000000	57.232165 
1715.000000	57.259082 
1714.000000	57.278966 
1713.000000	57.291293 
1712.000000	57.296991 
1711.000000	57.298111 
1710.000000	57.297253 
1709.000000	57.297086 
1708.000000	57.299447 
1707.000000	57.305455 
1706.000000	57.314968 
1705.000000	57.326889 
1704.000000	57.339096 
1703.000000	57.349419 
1702.000000	57.355666 
1701.000000	57.356452 
1700.000000	57.351326 
1699.000000	57.340884 
1698.000000	57.326722 
1697.000000	57.310795 
1696.000000	57.295036 
1695.000000	57.281136 
1694.000000	57.269716 
1693.000000	57.260680 
1692.000000	57.253050 
1691.000000	57.245421 
1690.000000	57.236409 
1689.000000	57.225131 
1688.000000	57.211256 
1687.000000	57.195210 
1686.000000	57.178211 
1685.000000	57.161855 
1684.000000	57.147526 
1683.000000	57.136178 
1682.000000	57.128286 
1681.000000	57.123708 
1680.000000	57.121610 
1679.000000	57.120847 
1678.000000	57.120084 
1677.000000	57.118296 
1676.000000	57.114791 
1675.000000	57.109522 
1674.000000	57.103133 
1673.000000	57.096934 
1672.000000	57.092523 
1671.000000	57.091474 
1670.000000	57.095146 
1669.000000	57.103991 
1668.000000	57.117748 
1667.000000	57.135009 
1666.000000	57.153677 
1665.000000	57.170987 
1664.000000	57.184362 
1663.000000	57.191491 
1662.000000	57.190918 
1661.000000	57.182121 
1660.000000	57.165598 
1659.000000	57.142567 
1658.000000	57.114624 
1657.000000	57.083606 
1656.000000	57.051253 
1655.000000	57.019233 
1654.000000	56.989049 
1653.000000	56.962037 
1652.000000	56.939482 
1651.000000	56.922316 
1650.000000	56.911206 
1649.000000	56.906151 
1648.000000	56.906771 
1647.000000	56.912016 
1646.000000	56.920695 
1645.000000	56.931257 
1644.000000	56.942248 
1643.000000	56.952571 
1642.000000	56.961369 
1641.000000	56.968092 
1640.000000	56.972336 
1639.000000	56.973862 
1638.000000	56.972432 
1637.000000	56.967592 
1636.000000	56.959199 
1635.000000	56.947469 
1634.000000	56.932973 
1633.000000	56.916809 
1632.000000	56.900501 
1631.000000	56.885743 
1630.000000	56.874036 
1629.000000	56.866526 
1628.000000	56.863641 
1627.000000	56.864976 
1626.000000	56.869649 
1625.000000	56.876206 
1624.000000	56.883215 
1623.000000	56.889295 
1622.000000	56.893491 
1621.000000	56.895351 
1620.000000	56.894898 
1619.000000	56.892466 
1618.000000	56.888461 
1617.000000	56.883049 
1616.000000	56.876182 
1615.000000	56.867218 
1614.000000	56.855511 
1613.000000	56.840181 
1612.000000	56.820702 
1611.000000	56.796860 
1610.000000	56.769227 
1609.000000	56.739068 
1608.000000	56.708121 
1607.000000	56.678414 
1606.000000	56.651854 
1605.000000	56.630063 
1604.000000	56.614184 
1603.000000	56.604647 
1602.000000	56.601214 
1601.000000	56.603002 
1600.000000	56.608772 
1599.000000	56.616926 
1598.000000	56.625866 
1597.000000	56.633996 
1596.000000	56.640028 
1595.000000	56.642842 
1594.000000	56.641840 
1593.000000	56.636667 
1592.000000	56.627607 
1591.000000	56.615281 
1590.000000	56.600952 
1589.000000	56.586384 
1588.000000	56.573677 
1587.000000	56.564855 
1586.000000	56.561589 
1585.000000	56.564617 
1584.000000	56.573510 
1583.000000	56.586670 
1582.000000	56.601595 
1581.000000	56.615138 
1580.000000	56.624484 
1579.000000	56.627511 
1578.000000	56.623339 
1577.000000	56.612396 
1576.000000	56.596374 
1575.000000	56.577754 
1574.000000	56.559062 
1573.000000	56.542325 
1572.000000	56.528830 
1571.000000	56.518721 
1570.000000	56.511402 
1569.000000	56.505608 
1568.000000	56.499910 
1567.000000	56.493330 
1566.000000	56.485581 
1565.000000	56.476950 
1564.000000	56.468009 
1563.000000	56.459403 
1562.000000	56.451463 
1561.000000	56.444048 
1560.000000	56.436371 
1559.000000	56.427574 
1558.000000	56.416988 
1557.000000	56.404519 
1556.000000	56.390786 
1555.000000	56.376862 
1554.000000	56.363821 
1553.000000	56.352519 
1552.000000	56.343245 
1551.000000	56.335997 
1550.000000	56.330585 
1549.000000	56.326842 
1548.000000	56.324696 
1547.000000	56.324338 
1546.000000	56.325912 
1545.000000	56.329464 
1544.000000	56.334447 
1543.000000	56.339669 
1542.000000	56.343507 
1541.000000	56.344151 
1540.000000	56.340098 
1539.000000	56.330442 
1538.000000	56.315064 
1537.000000	56.294941 
1536.000000	56.271672 
1535.000000	56.247329 
1534.000000	56.223893 
1533.000000	56.202816 
1532.000000	56.185150 
1531.000000	56.171298 
1530.000000	56.161236 
1529.000000	56.154727 
1528.000000	56.151175 
1527.000000	56.149744 
1526.000000	56.149339 
1525.000000	56.148695 
1524.000000	56.146407 
1523.000000	56.141376 
1522.000000	56.133031 
1521.000000	56.121587 
1520.000000	56.108093 
1519.000000	56.094360 
1518.000000	56.082749 
1517.000000	56.075572 
1516.000000	56.074905 
1515.000000	56.081795 
1514.000000	56.096053 
1513.000000	56.116104 
1512.000000	56.139159 
1511.000000	56.161570 
1510.000000	56.179499 
1509.000000	56.189560 
1508.000000	56.189608 
1507.000000	56.179094 
1506.000000	56.159234 
1505.000000	56.132888 
1504.000000	56.103849 
1503.000000	56.076455 
1502.000000	56.054735 
1501.000000	56.041622 
1500.000000	56.038451 
1499.000000	56.045031 
1498.000000	56.059741 
1497.000000	56.079912 
1496.000000	56.102347 
1495.000000	56.123828 
1494.000000	56.141448 
1493.000000	56.152868 
1492.000000	56.156492 
1491.000000	56.151413 
1490.000000	56.137537 
1489.000000	56.115269 
1488.000000	56.085705 
1487.000000	56.050729 
1486.000000	56.012678 
1485.000000	55.974340 
1484.000000	55.938291 
1483.000000	55.906844 
1482.000000	55.881524 
1481.000000	55.862832 
1480.000000	55.850505 
1479.000000	55.843329 
1478.000000	55.840110 
1477.000000	55.840015 
1476.000000	55.842876 
1475.000000	55.849123 
1474.000000	55.859518 
1473.000000	55.874657 
1472.000000	55.894422 
1471.000000	55.917620 
1470.000000	55.942010 
1469.000000	55.964541 
1468.000000	55.982351 
1467.000000	55.993342 
1466.000000	55.997037 
1465.000000	55.994486 
1464.000000	55.988216 
1463.000000	55.981349 
1462.000000	55.977082 
1461.000000	55.977463 
1460.000000	55.983114 
1459.000000	55.992913 
1458.000000	56.004548 
1457.000000	56.015276 
1456.000000	56.022882 
1455.000000	56.025743 
1454.000000	56.023526 
1453.000000	56.016659 
1452.000000	56.006336 
1451.000000	55.993580 
1450.000000	55.978775 
1449.000000	55.961775 
1448.000000	55.942058 
1447.000000	55.919432 
1446.000000	55.894470 
1445.000000	55.868673 
1444.000000	55.844569 
1443.000000	55.825090 
1442.000000	55.812716 
1441.000000	55.808472 
1440.000000	55.811619 
1439.000000	55.819797 
1438.000000	55.829310 
1437.000000	55.835843 
1436.000000	55.835676 
1435.000000	55.826377 
1434.000000	55.807542 
1433.000000	55.780386 
1432.000000	55.748009 
1431.000000	55.714035 
1430.000000	55.682444 
1429.000000	55.656695 
1428.000000	55.639243 
1427.000000	55.631327 
1426.000000	55.632901 
1425.000000	55.642938 
1424.000000	55.659341 
1423.000000	55.679750 
1422.000000	55.701327 
1421.000000	55.721259 
1420.000000	55.737161 
1419.000000	55.747294 
1418.000000	55.750775 
1417.000000	55.747532 
1416.000000	55.737924 
1415.000000	55.722522 
1414.000000	55.702018 
1413.000000	55.676841 
1412.000000	55.647349 
1411.000000	55.614066 
1410.000000	55.577874 
1409.000000	55.540561 
1408.000000	55.504751 
1407.000000	55.473589 
1406.000000	55.450510 
1405.000000	55.438423 
1404.000000	55.438828 
1403.000000	55.451464 
1402.000000	55.473995 
1401.000000	55.502557 
1400.000000	55.532240 
1399.000000	55.558371 
1398.000000	55.577206 
1397.000000	55.586504 
1396.000000	55.585598 
1395.000000	55.575442 
1394.000000	55.557918 
1393.000000	55.535578 
1392.000000	55.511069 
1391.000000	55.486559 
1390.000000	55.463743 
1389.000000	55.443763 
1388.000000	55.427217 
1387.000000	55.414271 
1386.000000	55.404996 
1385.000000	55.399274 
1384.000000	55.397295 
1383.000000	55.399227 
1382.000000	55.405235 
1381.000000	55.415296 
1380.000000	55.428981 
1379.000000	55.445599 
1378.000000	55.463957 
1377.000000	55.482196 
1376.000000	55.498504 
1375.000000	55.511069 
1374.000000	55.518722 
1373.000000	55.521130 
1372.000000	55.518889 
1371.000000	55.513596 
1370.000000	55.507135 
1369.000000	55.501532 
1368.000000	55.498003 
1367.000000	55.496716 
1366.000000	55.496883 
1365.000000	55.497050 
1364.000000	55.495476 
1363.000000	55.490660 
1362.000000	55.481719 
1361.000000	55.468821 
1360.000000	55.453062 
1359.000000	55.436277 
1358.000000	55.420422 
1357.000000	55.407238 
1356.000000	55.397820 
1355.000000	55.392742 
1354.000000	55.391764 
1353.000000	55.394124 
1352.000000	55.398941 
1351.000000	55.405378 
1350.000000	55.412721 
1349.000000	55.420255 
1348.000000	55.427479 
1347.000000	55.433654 
1346.000000	55.438232 
1345.000000	55.440235 
1344.000000	55.438590 
1343.000000	55.431985 
1342.000000	55.419421 
1341.000000	55.399990 
1340.000000	55.373454 
1339.000000	55.340600 
1338.000000	55.303478 
1337.000000	55.265283 
1336.000000	55.229759 
1335.000000	55.200600 
1334.000000	55.180788 
1333.000000	55.171585 
1332.000000	55.172681 
1331.000000	55.181884 
1330.000000	55.196022 
1329.000000	55.211424 
1328.000000	55.224919 
1327.000000	55.234193 
1326.000000	55.238366 
1325.000000	55.237841 
1324.000000	55.233740 
1323.000000	55.227446 
1322.000000	55.219984 
1321.000000	55.211758 
1320.000000	55.202341 
1319.000000	55.190968 
1318.000000	55.176615 
1317.000000	55.158662 
1316.000000	55.137038 
1315.000000	55.112504 
1314.000000	55.086302 
1313.000000	55.059862 
1312.000000	55.034685 
1311.000000	55.012178 
1310.000000	54.993438 
1309.000000	54.979228 
1308.000000	54.969716 
1307.000000	54.964733 
1306.000000	54.963731 
1305.000000	54.965972 
1304.000000	54.970264 
1303.000000	54.975271 
1302.000000	54.979658 
1301.000000	54.982089 
1300.000000	54.981660 
1299.000000	54.977846 
1298.000000	54.970765 
1297.000000	54.960942 
1296.000000	54.949688 
1295.000000	54.938268 
1294.000000	54.928016 
1293.000000	54.919362 
1292.000000	54.911923 
1291.000000	54.904246 
1290.000000	54.894518 
1289.000000	54.880619 
1288.000000	54.860997 
1287.000000	54.835414 
1286.000000	54.805135 
1285.000000	54.772973 
1284.000000	54.742789 
1283.000000	54.718661 
1282.000000	54.704022 
1281.000000	54.700708 
1280.000000	54.708528 
1279.000000	54.725265 
1278.000000	54.747343 
1277.000000	54.770278 
1276.000000	54.789733 
1275.000000	54.802417 
1274.000000	54.806685 
1273.000000	54.802393 
1272.000000	54.790949 
1271.000000	54.774498 
1270.000000	54.755520 
1269.000000	54.736161 
1268.000000	54.718208 
1267.000000	54.702830 
1266.000000	54.690694 
1265.000000	54.682207 
1264.000000	54.677510 
1263.000000	54.676818 
1262.000000	54.679965 
1261.000000	54.686355 
1260.000000	54.694843 
1259.000000	54.703736 
1258.000000	54.710888 
1257.000000	54.714059 
1256.000000	54.711532 
1255.000000	54.702401 
1254.000000	54.687190 
1253.000000	54.667472 
1252.000000	54.645967 
1251.000000	54.625654 
1250.000000	54.609012 
1249.000000	54.597449 
1248.000000	54.590988 
1247.000000	54.588127 
1246.000000	54.586601 
1245.000000	54.583859 
1244.000000	54.577803 
1243.000000	54.567599 
1242.000000	54.553532 
1241.000000	54.537367 
1240.000000	54.521465 
1239.000000	54.508447 
1238.000000	54.500174 
1237.000000	54.497528 
1236.000000	54.500389 
1235.000000	54.507493 
1234.000000	54.517030 
1233.000000	54.527068 
1232.000000	54.535984 
1231.000000	54.542803 
1230.000000	54.547095 
1229.000000	54.549098 
1228.000000	54.549288 
1227.000000	54.548430 
1226.000000	54.547357 
1225.000000	54.546689 
1224.000000	54.546809 
1223.000000	54.547643 
1222.000000	54.548835 
1221.000000	54.549598 
1220.000000	54.548954 
1219.000000	54.546022 
1218.000000	54.540133 
1217.000000	54.531240 
1216.000000	54.519987 
1215.000000	54.507493 
1214.000000	54.495310 
1213.000000	54.485011 
1212.000000	54.477834 
1211.000000	54.474329 
1210.000000	54.474163 
1209.000000	54.476284 
1208.000000	54.479098 
1207.000000	54.480981 
1206.000000	54.480600 
1205.000000	54.477357 
1204.000000	54.471302 
1203.000000	54.463076 
1202.000000	54.453539 
1201.000000	54.443359 
1200.000000	54.432892 
1199.000000	54.422044 
1198.000000	54.410338 
1197.000000	54.396891 
1196.000000	54.380917 
1195.000000	54.362034 
1194.000000	54.340386 
1193.000000	54.316854 
1192.000000	54.293179 
1191.000000	54.271554 
1190.000000	54.254221 
1189.000000	54.243016 
1188.000000	54.238891 
1187.000000	54.241824 
1186.000000	54.250431 
1185.000000	54.262447 
1184.000000	54.274940 
1183.000000	54.285216 
1182.000000	54.291176 
1181.000000	54.292011 
1180.000000	54.288029 
1179.000000	54.280734 
1178.000000	54.272460 
1177.000000	54.265570 
1176.000000	54.261898 
1175.000000	54.262208 
1174.000000	54.265928 
1173.000000	54.271554 
1172.000000	54.277014 
1171.000000	54.280209 
1170.000000	54.279518 
1169.000000	54.274058 
1168.000000	54.263925 
1167.000000	54.249882 
1166.000000	54.233241 
1165.000000	54.215502 
1164.000000	54.198026 
1163.000000	54.181885 
1162.000000	54.167604 
1161.000000	54.155302 
1160.000000	54.144883 
1159.000000	54.136180 
1158.000000	54.129457 
1157.000000	54.125428 
1156.000000	54.125237 
1155.000000	54.130125 
1154.000000	54.140830 
1153.000000	54.157209 
1152.000000	54.177570 
1151.000000	54.198741 
1150.000000	54.216456 
1149.000000	54.225993 
1148.000000	54.223346 
1147.000000	54.206132 
1146.000000	54.174447 
1145.000000	54.130935 
1144.000000	54.080677 
1143.000000	54.029965 
1142.000000	53.985023 
1141.000000	53.950786 
1140.000000	53.929781 
1139.000000	53.921914 
1138.000000	53.924703 
1137.000000	53.934264 
1136.000000	53.946161 
1135.000000	53.956675 
1134.000000	53.963112 
1133.000000	53.964471 
1132.000000	53.961014 
1131.000000	53.954267 
1130.000000	53.945732 
1129.000000	53.936958 
1128.000000	53.929018 
1127.000000	53.922319 
1126.000000	53.916668 
1125.000000	53.911399 
1124.000000	53.905963 
1123.000000	53.899693 
1122.000000	53.892230 
1121.000000	53.883337 
1120.000000	53.873014 
1119.000000	53.861689 
1118.000000	53.849959 
1117.000000	53.838491 
1116.000000	53.827643 
1115.000000	53.817462 
1114.000000	53.807377 
1113.000000	53.796267 
1112.000000	53.783106 
1111.000000	53.767180 
1110.000000	53.749084 
1109.000000	53.730440 
1108.000000	53.714323 
1107.000000	53.704285 
1106.000000	53.703904 
1105.000000	53.715515 
1104.000000	53.740143 
1103.000000	53.776788 
1102.000000	53.822684 
1101.000000	53.873658 
1100.000000	53.924942 
1099.000000	53.972005 
1098.000000	54.011344 
1097.000000	54.040694 
1096.000000	54.059314 
1095.000000	54.067635 
1094.000000	54.066848 
1093.000000	54.058432 
1092.000000	54.043602 
1091.000000	54.023122 
1090.000000	53.997373 
1089.000000	53.966379 
1088.000000	53.929829 
1087.000000	53.887653 
1086.000000	53.840231 
1085.000000	53.788757 
1084.000000	53.735423 
1083.000000	53.683495 
1082.000000	53.636646 
1081.000000	53.598499 
1080.000000	53.571891 
1079.000000	53.558468 
1078.000000	53.557682 
1077.000000	53.567481 
1076.000000	53.584241 
1075.000000	53.603696 
1074.000000	53.621602 
1073.000000	53.634405 
1072.000000	53.639531 
1071.000000	53.635740 
1070.000000	53.622937 
1069.000000	53.602051 
1068.000000	53.574705 
1067.000000	53.542733 
1066.000000	53.507971 
1065.000000	53.472375 
1064.000000	53.437709 
1063.000000	53.405809 
1062.000000	53.378272 
1061.000000	53.356647 
1060.000000	53.341913 
1059.000000	53.334546 
1058.000000	53.334045 
1057.000000	53.338742 
1056.000000	53.346109 
1055.000000	53.352952 
1054.000000	53.356313 
1053.000000	53.353548 
1052.000000	53.343510 
1051.000000	53.326630 
1050.000000	53.305292 
1049.000000	53.282976 
1048.000000	53.264045 
1047.000000	53.252673 
1046.000000	53.251981 
1045.000000	53.263521 
1044.000000	53.286719 
1043.000000	53.319072 
1042.000000	53.356695 
1041.000000	53.395128 
1040.000000	53.430056 
1039.000000	53.457856 
1038.000000	53.476071 
1037.000000	53.483414 
1036.000000	53.479957 
1035.000000	53.466629 
1034.000000	53.445172 
1033.000000	53.417801 
1032.000000	53.387236 
1031.000000	53.356456 
1030.000000	53.328156 
1029.000000	53.304624 
1028.000000	53.287720 
1027.000000	53.278231 
1026.000000	53.276205 
1025.000000	53.280544 
1024.000000	53.289198 
1023.000000	53.299665 
1022.000000	53.309512 
1021.000000	53.316593 
1020.000000	53.319168 
1019.000000	53.316211 
1018.000000	53.307580 
1017.000000	53.293704 
1016.000000	53.275513 
1015.000000	53.254199 
1014.000000	53.231096 
1013.000000	53.207421 
1012.000000	53.184223 
1011.000000	53.162121 
1010.000000	53.141498 
1009.000000	53.122138 
1008.000000	53.104043 
1007.000000	53.087353 
1006.000000	53.073000 
1005.000000	53.062462 
1004.000000	53.057456 
1003.000000	53.059983 
1002.000000	53.071045 
1001.000000	53.090667 
1000.000000	53.116583 
999.000000	 53.144669 
998.000000	 53.169012 
997.000000	 53.183126 
996.000000	 53.181171 
995.000000	 53.159403 
994.000000	 53.117084 
993.000000	 53.056907 
992.000000	 52.984786 
991.000000	 52.908635 
990.000000	 52.837014 
989.000000	 52.777194 
988.000000	 52.734303 
987.000000	 52.710556 
986.000000	 52.705240 
985.000000	 52.715325 
984.000000	 52.736163 
983.000000	 52.762651 
982.000000	 52.789974 
981.000000	 52.814340 
980.000000	 52.832984 
979.000000	 52.844429 
978.000000	 52.848124 
977.000000	 52.844524 
976.000000	 52.834534 
975.000000	 52.819514 
974.000000	 52.801394 
973.000000	 52.782225 
972.000000	 52.763986 
971.000000	 52.748107 
970.000000	 52.735471 
969.000000	 52.726006 
968.000000	 52.719092 
967.000000	 52.713179 
966.000000	 52.706718 
965.000000	 52.698135 
964.000000	 52.686429 
963.000000	 52.671289 
962.000000	 52.653264 
961.000000	 52.633595 
960.000000	 52.613925 
959.000000	 52.595806 
958.000000	 52.580547 
957.000000	 52.568531 
956.000000	 52.559304 
955.000000	 52.551889 
954.000000	 52.545285 
953.000000	 52.539110 
952.000000	 52.533745 
951.000000	 52.530622 
950.000000	 52.531743 
949.000000	 52.538871 
948.000000	 52.552628 
947.000000	 52.572226 
946.000000	 52.595138 
945.000000	 52.617049 
944.000000	 52.633023 
943.000000	 52.638840 
942.000000	 52.632045 
941.000000	 52.612829 
940.000000	 52.583956 
939.000000	 52.550435 
938.000000	 52.517700 
937.000000	 52.490115 
936.000000	 52.469754 
935.000000	 52.456259 
934.000000	 52.446818 
933.000000	 52.437567 
932.000000	 52.424883 
931.000000	 52.406811 
930.000000	 52.383613 
929.000000	 52.358078 
928.000000	 52.334308 
927.000000	 52.317094 
926.000000	 52.310276 
925.000000	 52.316212 
924.000000	 52.335309 
923.000000	 52.366352 
922.000000	 52.407050 
921.000000	 52.454590 
920.000000	 52.505826 
919.000000	 52.557826 
918.000000	 52.607536 
917.000000	 52.652168 
916.000000	 52.688193 
915.000000	 52.712821 
914.000000	 52.724623 
913.000000	 52.723908 
912.000000	 52.713179 
911.000000	 52.696418 
910.000000	 52.678680 
909.000000	 52.664399 
908.000000	 52.656507 
907.000000	 52.655315 
906.000000	 52.658867 
905.000000	 52.663350 
904.000000	 52.664446 
903.000000	 52.659201 
902.000000	 52.647089 
901.000000	 52.630519 
900.000000	 52.614116 
899.000000	 52.603721 
898.000000	 52.604007 
897.000000	 52.617263 
896.000000	 52.641606 
895.000000	 52.671432 
894.000000	 52.697467 
893.000000	 52.709937 
892.000000	 52.699518 
891.000000	 52.660226 
890.000000	 52.590298 
889.000000	 52.492547 
888.000000	 52.374482 
887.000000	 52.247071 
886.000000	 52.122426 
885.000000	 52.011990 
884.000000	 51.923751 
883.000000	 51.861143 
882.000000	 51.822710 
881.000000	 51.803183 
880.000000	 51.794791 
879.000000	 51.789402 
878.000000	 51.780056 
877.000000	 51.762294 
876.000000	 51.735019 
875.000000	 51.700639 
874.000000	 51.663017 
873.000000	 51.626944 
872.000000	 51.597094 
871.000000	 51.577425 
870.000000	 51.570510 
869.000000	 51.577186 
868.000000	 51.596879 
867.000000	 51.626992 
866.000000	 51.663827 
865.000000	 51.701951 
864.000000	 51.734185 
863.000000	 51.754093 
862.000000	 51.755404 
861.000000	 51.736521 
860.000000	 51.700353 
859.000000	 51.655936 
858.000000	 51.617002 
857.000000	 51.598310 
856.000000	 51.612234 
855.000000	 51.664209 
854.000000	 51.751494 
853.000000	 51.860451 
852.000000	 51.969122 
851.000000	 52.051806 
850.000000	 52.085542 
849.000000	 52.055025 
848.000000	 51.957106 
847.000000	 51.801681 
846.000000	 51.610302 
845.000000	 51.411175 
844.000000	 51.233148 
843.000000	 51.099681 
842.000000	 51.024293 
841.000000	 51.009678 
840.000000	 51.047110 
839.000000	 51.121091 
838.000000	 51.211571 
837.000000	 51.298785 
836.000000	 51.366853 
835.000000	 51.404500 
834.000000	 51.408338 
833.000000	 51.380348 
832.000000	 51.329469 
831.000000	 51.267075 
830.000000	 51.207423 
829.000000	 51.164412 
828.000000	 51.149773 
827.000000	 51.171231 
826.000000	 51.230478 
825.000000	 51.323127 
824.000000	 51.438832 
823.000000	 51.563215 
822.000000	 51.680684 
821.000000	 51.776981 
820.000000	 51.841640 
819.000000	 51.869392 
818.000000	 51.860260 
817.000000	 51.818919 
816.000000	 51.752829 
815.000000	 51.670980 
814.000000	 51.582384 
813.000000	 51.495432 
812.000000	 51.418519 
811.000000	 51.358389 
810.000000	 51.320195 
809.000000	 51.306247 
808.000000	 51.316308 
807.000000	 51.346683 
806.000000	 51.390910 
805.000000	 51.440334 
804.000000	 51.484823 
803.000000	 51.515388 
802.000000	 51.525330 
801.000000	 51.512050 
800.000000	 51.477241 
799.000000	 51.426434 
798.000000	 51.367640 
797.000000	 51.309299 
796.000000	 51.258301 
795.000000	 51.218557 
794.000000	 51.190161 
793.000000	 51.169514 
792.000000	 51.150822 
791.000000	 51.128292 
790.000000	 51.097750 
789.000000	 51.057505 
788.000000	 51.008939 
787.000000	 50.955486 
786.000000	 50.902271 
785.000000	 50.853824 
784.000000	 50.813961 
783.000000	 50.784325 
782.000000	 50.765085 
781.000000	 50.755429 
780.000000	 50.753903 
779.000000	 50.758886 
778.000000	 50.769329 
777.000000	 50.784111 
776.000000	 50.803017 
775.000000	 50.826025 
774.000000	 50.852799 
773.000000	 50.882172 
772.000000	 50.912046 
771.000000	 50.939488 
770.000000	 50.960803 
769.000000	 50.972270 
768.000000	 50.970959 
767.000000	 50.955533 
766.000000	 50.927138 
765.000000	 50.889658 
764.000000	 50.849318 
763.000000	 50.813531 
762.000000	 50.789976 
761.000000	 50.784587 
760.000000	 50.800395 
759.000000	 50.836372 
758.000000	 50.887966 
757.000000	 50.947380 
756.000000	 51.005816 
755.000000	 51.054406 
754.000000	 51.086640 
753.000000	 51.098346 
752.000000	 51.087880 
751.000000	 51.055812 
750.000000	 51.004409 
749.000000	 50.936937 
748.000000	 50.857281 
747.000000	 50.769782 
746.000000	 50.679159 
745.000000	 50.591087 
744.000000	 50.511908 
743.000000	 50.447654 
742.000000	 50.403189 
741.000000	 50.381350 
740.000000	 50.382423 
739.000000	 50.403046 
738.000000	 50.436949 
737.000000	 50.476598 
736.000000	 50.514602 
735.000000	 50.544500 
734.000000	 50.562477 
733.000000	 50.567364 
732.000000	 50.560760 
731.000000	 50.545740 
730.000000	 50.526428 
729.000000	 50.506758 
728.000000	 50.489950 
727.000000	 50.478577 
726.000000	 50.473451 
725.000000	 50.474500 
724.000000	 50.479817 
723.000000	 50.486898 
722.000000	 50.491762 
721.000000	 50.490021 
720.000000	 50.477266 
719.000000	 50.450181 
718.000000	 50.407028 
717.000000	 50.348210 
716.000000	 50.276732 
715.000000	 50.197768 
714.000000	 50.116872 
713.000000	 50.038909 
712.000000	 49.967098 
711.000000	 49.902558 
710.000000	 49.844169 
709.000000	 49.789571 
708.000000	 49.736070 
707.000000	 49.682426 
706.000000	 49.628877 
705.000000	 49.577927 
704.000000	 49.532723 
703.000000	 49.497294 
702.000000	 49.474239 
701.000000	 49.465131 
700.000000	 49.468994 
699.000000	 49.483251 
698.000000	 49.504256 
697.000000	 49.528145 
696.000000	 49.551677 
695.000000	 49.572849 
694.000000	 49.590468 
693.000000	 49.604439 
692.000000	 49.614763 
691.000000	 49.621987 
690.000000	 49.626827 
689.000000	 49.630284 
688.000000	 49.633455 
687.000000	 49.637627 
686.000000	 49.643850 
685.000000	 49.652838 
684.000000	 49.664425 
683.000000	 49.677681 
682.000000	 49.690961 
681.000000	 49.702143 
680.000000	 49.709415 
679.000000	 49.711370 
678.000000	 49.707603 
677.000000	 49.699187 
676.000000	 49.688100 
675.000000	 49.676918 
674.000000	 49.668216 
673.000000	 49.663782 
672.000000	 49.664235 
671.000000	 49.668931 
670.000000	 49.675726 
669.000000	 49.681901 
668.000000	 49.683856 
667.000000	 49.678444 
666.000000	 49.662804 
665.000000	 49.635601 
664.000000	 49.596714 
663.000000	 49.547481 
662.000000	 49.490332 
661.000000	 49.428248 
660.000000	 49.363780 
659.000000	 49.298596 
658.000000	 49.233341 
657.000000	 49.167895 
656.000000	 49.101758 
655.000000	 49.035048 
654.000000	 48.968744 
653.000000	 48.905110 
652.000000	 48.847723 
651.000000	 48.800373 
650.000000	 48.765563 
649.000000	 48.743963 
648.000000	 48.733377 
647.000000	 48.729419 
646.000000	 48.725485 
645.000000	 48.715877 
644.000000	 48.696517 
643.000000	 48.667287 
642.000000	 48.631668 
641.000000	 48.596692 
640.000000	 48.570680 
639.000000	 48.561573 
638.000000	 48.574161 
637.000000	 48.609828 
636.000000	 48.665738 
635.000000	 48.736119 
634.000000	 48.813509 
633.000000	 48.890542 
632.000000	 48.961138 
631.000000	 49.021458 
630.000000	 49.069762 
629.000000	 49.105429 
628.000000	 49.128174 
627.000000	 49.137973 
626.000000	 49.133944 
625.000000	 49.115085 
624.000000	 49.080467 
623.000000	 49.031281 
622.000000	 48.970246 
621.000000	 48.902058 
620.000000	 48.832631 
619.000000	 48.768520 
618.000000	 48.715424 
617.000000	 48.677277 
616.000000	 48.655271 
615.000000	 48.647427 
614.000000	 48.649573 
613.000000	 48.656558 
612.000000	 48.663067 
611.000000	 48.664546 
610.000000	 48.658490 
609.000000	 48.644733 
608.000000	 48.624897 
607.000000	 48.601365 
606.000000	 48.577117 
605.000000	 48.554563 
604.000000	 48.534846 
603.000000	 48.517584 
602.000000	 48.501229 
601.000000	 48.484039 
600.000000	 48.464584 
599.000000	 48.442840 
598.000000	 48.421025 
597.000000	 48.403096 
596.000000	 48.394370 
595.000000	 48.398709 
594.000000	 48.417401 
593.000000	 48.447132 
592.000000	 48.480796 
591.000000	 48.507547 
590.000000	 48.515796 
589.000000	 48.495054 
588.000000	 48.439717 
587.000000	 48.349332 
586.000000	 48.229432 
585.000000	 48.089718 
584.000000	 47.941946 
583.000000	 47.797799 
582.000000	 47.666764 
581.000000	 47.554707 
580.000000	 47.463870 
579.000000	 47.393894 
578.000000	 47.343277 
577.000000	 47.310543 
576.000000	 47.295403 
575.000000	 47.298955 
574.000000	 47.323346 
573.000000	 47.369480 
572.000000	 47.436451 
571.000000	 47.519779 
570.000000	 47.612285 
569.000000	 47.704315 
568.000000	 47.786045 
567.000000	 47.850155 
566.000000	 47.892093 
565.000000	 47.912454 
564.000000	 47.914028 
563.000000	 47.901606 
562.000000	 47.878408 
561.000000	 47.846245 
560.000000	 47.803759 
559.000000	 47.748112 
558.000000	 47.676110 
557.000000	 47.586774 
556.000000	 47.482442 
555.000000	 47.369813 
554.000000	 47.258257 
553.000000	 47.158503 
552.000000	 47.079086 
551.000000	 47.024679 
550.000000	 46.994733 
549.000000	 46.984124 
548.000000	 46.984338 
547.000000	 46.986293 
546.000000	 46.982526 
545.000000	 46.969318 
544.000000	 46.947216 
543.000000	 46.920895 
542.000000	 46.895503 
541.000000	 46.876645 
540.000000	 46.868228 
539.000000	 46.871662 
538.000000	 46.885204 
537.000000	 46.904754 
536.000000	 46.926093 
535.000000	 46.944403 
534.000000	 46.955728 
533.000000	 46.956157 
532.000000	 46.942710 
531.000000	 46.912741 
530.000000	 46.864151 
529.000000	 46.796226 
528.000000	 46.710014 
527.000000	 46.609497 
526.000000	 46.501421 
525.000000	 46.394944 
524.000000	 46.299910 
523.000000	 46.225190 
522.000000	 46.176075 
521.000000	 46.152949 
520.000000	 46.150469 
519.000000	 46.159172 
518.000000	 46.166753 
517.000000	 46.160817 
516.000000	 46.131253 
515.000000	 46.072769 
514.000000	 45.985269 
513.000000	 45.873379 
512.000000	 45.745372 
511.000000	 45.610737 
510.000000	 45.479273 
509.000000	 45.359086 
508.000000	 45.256328 
507.000000	 45.174932 
506.000000	 45.116543 
505.000000	 45.081067 
504.000000	 45.066070 
503.000000	 45.067262 
502.000000	 45.078206 
501.000000	 45.090699 
500.000000	 45.095586 
499.000000	 45.084118 
498.000000	 45.049905 
497.000000	 44.990706 
496.000000	 44.909286 
495.000000	 44.813656 
494.000000	 44.716262 
493.000000	 44.631910 
492.000000	 44.574022 
491.000000	 44.552302 
490.000000	 44.570946 
489.000000	 44.627285 
488.000000	 44.712543 
487.000000	 44.813251 
486.000000	 44.913768 
485.000000	 44.999647 
484.000000	 45.059585 
483.000000	 45.088171 
482.000000	 45.085740 
481.000000	 45.058226 
480.000000	 45.015120 
479.000000	 44.966530 
478.000000	 44.920945 
477.000000	 44.883441 
476.000000	 44.855570 
475.000000	 44.835519 
474.000000	 44.819808 
473.000000	 44.804167 
472.000000	 44.784903 
471.000000	 44.758176 
470.000000	 44.719982 
469.000000	 44.665241 
468.000000	 44.588637 
467.000000	 44.485354 
466.000000	 44.352912 
465.000000	 44.192719 
464.000000	 44.011354 
463.000000	 43.820166 
462.000000	 43.634152 
461.000000	 43.468618 
460.000000	 43.337035 
459.000000	 43.249058 
458.000000	 43.207430 
457.000000	 43.207240 
456.000000	 43.236374 
455.000000	 43.277502 
454.000000	 43.311882 
453.000000	 43.322658 
452.000000	 43.298888 
451.000000	 43.237018 
450.000000	 43.141674 
449.000000	 43.023872 
448.000000	 42.897415 
447.000000	 42.774915 
446.000000	 42.665934 
445.000000	 42.575407 
444.000000	 42.502808 
443.000000	 42.443633 
442.000000	 42.394113 
441.000000	 42.352223 
440.000000	 42.317962 
439.000000	 42.291998 
438.000000	 42.274999 
437.000000	 42.264270 
436.000000	 42.251634 
435.000000	 42.224788 
434.000000	 42.165565 
433.000000	 42.060041 
432.000000	 41.905069 
431.000000	 41.711831 
430.000000	 41.501069 
429.000000	 41.304445 
428.000000	 41.160583 
427.000000	 41.101884 
426.000000	 41.141748 
425.000000	 41.276693 
424.000000	 41.488432 
423.000000	 41.744279 
422.000000	 42.002105 
421.000000	 42.227506 
420.000000	 42.402386 
419.000000	 42.525100 
418.000000	 42.608833 
417.000000	 42.681336 
416.000000	 42.774415 
415.000000	 42.920589 
414.000000	 43.139910 
413.000000	 43.426895 
412.000000	 43.746018 
411.000000	 44.059491 
410.000000	 44.316458 
409.000000	 44.454932 
408.000000	 44.408845 
407.000000	 44.146943 
406.000000	 43.650555 
405.000000	 42.917227 
404.000000	 41.954827 
403.000000	 40.790772 
402.000000	 39.461469 
401.000000	 38.012695 
400.000000	 36.497616 
399.000000	 35.007977 
398.000000	 33.606147 
397.000000	 32.304501 
396.000000	 31.087756 
395.000000	 29.925656 
394.000000	 28.788590 
393.000000	 27.664017 
392.000000	 26.578068 
391.000000	 25.599694 
390.000000	 24.821829 
389.000000	 24.365711 
388.000000	 24.307107 
387.000000	 24.710369 
386.000000	 25.686979 
385.000000	 27.375745 
384.000000	 29.942488 
383.000000	 33.482050 
382.000000	 37.936139 
381.000000	 43.059825 
380.000000	 48.348236 
379.000000	 53.224062 
378.000000	 57.122707 
377.000000	 59.709954 
376.000000	 61.021041 
375.000000	 61.424684 
374.000000	 61.465072 
373.000000	 61.816525 
372.000000	 63.016390 
371.000000	 65.518021 
370.000000	 69.656848 

