PE IR       SPECTRUM    SPECTRUM    ASCII       PEDS        1.60        
  -1
C-996F~1.ASC
17/05/02
11:08:49.00
17/05/02
11:08:49.00
tln
$C-4040-8_t0004$<tbV0>[-2.5,-13.0,8.0,0.0,22,1,0]
370.000000
64









2002,4.07    
MIRTGS : RIGHTBACK : INTERNAL 2
MIR : ON : INTERNAL 2
OPTKBR

0.200000
8
8.000000
FILLER
RATIO
SPECTRUM
UNLOCKED 256

DOUBLE
64
COMBINED
1
0
0


1.000000
RATIO


1
0
TRUE
51149
0
LEFT NOT FITTED RIGHT NOT FITTED 0
NONE
NONE
15600
12.000000
4.427000
51148
TRUE
1 0 8 72 0 0 0 0 

15798.010000






#HDR
-1
-1
#GR
CM-1
%T
0.00002384185791015625
0.0
7800.000000
-1.000000
7431
8
85.371708
37.120890
#DATA
7800.000000	69.649624 
7799.000000	68.068075 
7798.000000	66.911792 
7797.000000	66.193628 
7796.000000	65.901064 
7795.000000	65.996026 
7794.000000	66.410660 
7793.000000	67.045998 
7792.000000	67.789196 
7791.000000	68.524575 
7790.000000	69.152188 
7789.000000	69.598579 
7788.000000	69.833087 
7787.000000	69.856882 
7786.000000	69.698286 
7785.000000	69.384503 
7784.000000	68.936300 
7783.000000	68.346333 
7782.000000	67.587924 
7781.000000	66.622662 
7780.000000	65.420603 
7779.000000	63.990902 
7778.000000	62.391400 
7777.000000	60.746836 
7776.000000	59.229993 
7775.000000	58.037686 
7774.000000	57.346510 
7773.000000	57.267951 
7772.000000	57.805657 
7771.000000	58.863019 
7770.000000	60.253643 
7769.000000	61.753392 
7768.000000	63.142561 
7767.000000	64.272546 
7766.000000	65.091180 
7765.000000	65.643668 
7764.000000	66.044473 
7763.000000	66.439604 
7762.000000	66.954278 
7761.000000	67.656278 
7760.000000	68.531799 
7759.000000	69.499778 
7758.000000	70.428633 
7757.000000	71.195197 
7756.000000	71.702837 
7755.000000	71.915936 
7754.000000	71.854805 
7753.000000	71.591305 
7752.000000	71.218967 
7751.000000	70.821118 
7750.000000	70.456337 
7749.000000	70.154595 
7748.000000	69.911551 
7747.000000	69.715309 
7746.000000	69.538164 
7745.000000	69.353222 
7744.000000	69.143533 
7743.000000	68.905329 
7742.000000	68.661379 
7741.000000	68.453383 
7740.000000	68.344831 
7739.000000	68.402123 
7738.000000	68.688964 
7737.000000	69.241738 
7736.000000	70.055198 
7735.000000	71.064972 
7734.000000	72.153401 
7733.000000	73.153972 
7732.000000	73.883652 
7731.000000	74.166202 
7730.000000	73.877930 
7729.000000	72.960472 
7728.000000	71.442985 
7727.000000	69.428443 
7726.000000	67.076134 
7725.000000	64.578914 
7724.000000	62.126016 
7723.000000	59.895467 
7722.000000	58.041048 
7721.000000	56.676006 
7720.000000	55.875134 
7719.000000	55.650281 
7718.000000	55.947732 
7717.000000	56.650042 
7716.000000	57.579708 
7715.000000	58.549070 
7714.000000	59.383606 
7713.000000	59.973263 
7712.000000	60.284042 
7711.000000	60.374522 
7710.000000	60.367393 
7709.000000	60.423660 
7708.000000	60.686135 
7707.000000	61.229062 
7706.000000	62.028813 
7705.000000	62.972903 
7704.000000	63.883686 
7703.000000	64.573788 
7702.000000	64.892506 
7701.000000	64.779853 
7700.000000	64.272356 
7699.000000	63.489007 
7698.000000	62.600636 
7697.000000	61.777210 
7696.000000	61.155319 
7695.000000	60.811758 
7694.000000	60.748028 
7693.000000	60.919976 
7692.000000	61.228060 
7691.000000	61.549711 
7690.000000	61.769151 
7689.000000	61.802291 
7688.000000	61.625599 
7687.000000	61.274147 
7686.000000	60.853123 
7685.000000	60.509037 
7684.000000	60.404491 
7683.000000	60.675954 
7682.000000	61.405467 
7681.000000	62.595295 
7680.000000	64.167356 
7679.000000	65.973877 
7678.000000	67.824339 
7677.000000	69.521832 
7676.000000	70.909571 
7675.000000	71.887111 
7674.000000	72.428727 
7673.000000	72.563099 
7672.000000	72.360396 
7671.000000	71.897363 
7670.000000	71.241736 
7669.000000	70.438933 
7668.000000	69.527244 
7667.000000	68.537068 
7666.000000	67.521166 
7665.000000	66.544079 
7664.000000	65.683579 
7663.000000	65.025782 
7662.000000	64.642453 
7661.000000	64.602303 
7660.000000	64.952063 
7659.000000	65.713715 
7658.000000	66.869211 
7657.000000	68.361282 
7656.000000	70.088005 
7655.000000	71.902871 
7654.000000	73.627495 
7653.000000	75.072360 
7652.000000	76.065945 
7651.000000	76.487183 
7650.000000	76.287603 
7649.000000	75.507330 
7648.000000	74.266004 
7647.000000	72.746896 
7646.000000	71.157789 
7645.000000	69.710612 
7644.000000	68.567085 
7643.000000	67.824554 
7642.000000	67.494845 
7641.000000	67.525434 
7640.000000	67.806935 
7639.000000	68.211245 
7638.000000	68.610858 
7637.000000	68.902420 
7636.000000	69.019079 
7635.000000	68.929433 
7634.000000	68.634915 
7633.000000	68.154263 
7632.000000	67.525339 
7631.000000	66.795206 
7630.000000	66.028046 
7629.000000	65.300011 
7628.000000	64.699149 
7627.000000	64.310812 
7626.000000	64.207553 
7625.000000	64.427423 
7624.000000	64.953708 
7623.000000	65.713071 
7622.000000	66.588330 
7621.000000	67.437481 
7620.000000	68.117380 
7619.000000	68.515992 
7618.000000	68.569993 
7617.000000	68.280959 
7616.000000	67.712712 
7615.000000	66.973781 
7614.000000	66.185712 
7613.000000	65.463018 
7612.000000	64.898562 
7611.000000	64.538836 
7610.000000	64.383244 
7609.000000	64.393377 
7608.000000	64.513850 
7607.000000	64.686655 
7606.000000	64.868283 
7605.000000	65.034055 
7604.000000	65.177154 
7603.000000	65.301394 
7602.000000	65.411043 
7601.000000	65.501165 
7600.000000	65.555071 
7599.000000	65.546679 
7598.000000	65.450620 
7597.000000	65.254616 
7596.000000	64.969515 
7595.000000	64.629197 
7594.000000	64.291977 
7593.000000	64.025926 
7592.000000	63.901281 
7591.000000	63.971948 
7590.000000	64.267873 
7589.000000	64.783525 
7588.000000	65.483093 
7587.000000	66.306185 
7586.000000	67.179822 
7585.000000	68.030691 
7584.000000	68.796682 
7583.000000	69.433784 
7582.000000	69.918894 
7581.000000	70.249247 
7580.000000	70.432853 
7579.000000	70.483398 
7578.000000	70.412731 
7577.000000	70.230150 
7576.000000	69.945430 
7575.000000	69.573068 
7574.000000	69.136452 
7573.000000	68.668866 
7572.000000	68.211603 
7571.000000	67.809009 
7570.000000	67.498898 
7569.000000	67.307615 
7568.000000	67.247056 
7567.000000	67.313003 
7566.000000	67.480874 
7565.000000	67.717123 
7564.000000	67.983055 
7563.000000	68.247747 
7562.000000	68.488693 
7561.000000	68.699002 
7560.000000	68.885421 
7559.000000	69.059443 
7558.000000	69.233202 
7557.000000	69.402694 
7556.000000	69.550776 
7555.000000	69.634652 
7554.000000	69.597291 
7553.000000	69.379353 
7552.000000	68.939805 
7551.000000	68.272376 
7550.000000	67.415452 
7549.000000	66.455268 
7548.000000	65.509605 
7547.000000	64.710140 
7546.000000	64.167022 
7545.000000	63.934803 
7544.000000	63.995456 
7543.000000	64.258003 
7542.000000	64.583325 
7541.000000	64.815115 
7540.000000	64.829063 
7539.000000	64.559602 
7538.000000	64.026165 
7537.000000	63.323807 
7536.000000	62.599062 
7535.000000	62.005257 
7534.000000	61.660122 
7533.000000	61.612296 
7532.000000	61.826729 
7531.000000	62.197351 
7530.000000	62.577891 
7529.000000	62.825536 
7528.000000	62.843728 
7527.000000	62.608075 
7526.000000	62.176179 
7525.000000	61.666917 
7524.000000	61.233973 
7523.000000	61.019825 
7522.000000	61.131882 
7521.000000	61.612439 
7520.000000	62.438344 
7519.000000	63.521599 
7518.000000	64.730763 
7517.000000	65.912055 
7516.000000	66.920232 
7515.000000	67.639899 
7514.000000	67.994546 
7513.000000	67.960929 
7512.000000	67.567181 
7511.000000	66.887736 
7510.000000	66.027307 
7509.000000	65.104508 
7508.000000	64.239978 
7507.000000	63.533449 
7506.000000	63.059210 
7505.000000	62.850856 
7504.000000	62.907433 
7503.000000	63.192176 
7502.000000	63.644719 
7501.000000	64.191341 
7500.000000	64.756155 
7499.000000	65.272521 
7498.000000	65.688967 
7497.000000	65.967988 
7496.000000	66.084718 
7495.000000	66.027975 
7494.000000	65.799951 
7493.000000	65.417361 
7492.000000	64.912605 
7491.000000	64.334106 
7490.000000	63.743734 
7489.000000	63.214874 
7488.000000	62.819623 
7487.000000	62.619018 
7486.000000	62.647724 
7485.000000	62.903547 
7484.000000	63.347005 
7483.000000	63.909316 
7482.000000	64.503669 
7481.000000	65.041279 
7480.000000	65.446925 
7479.000000	65.669798 
7478.000000	65.690803 
7477.000000	65.523910 
7476.000000	65.204000 
7475.000000	64.776039 
7474.000000	64.284062 
7473.000000	63.765692 
7472.000000	63.246059 
7471.000000	62.741541 
7470.000000	62.262701 
7469.000000	61.821675 
7468.000000	61.440873 
7467.000000	61.155080 
7466.000000	61.001348 
7465.000000	61.012506 
7464.000000	61.207270 
7463.000000	61.584019 
7462.000000	62.111997 
7461.000000	62.738275 
7460.000000	63.393759 
7459.000000	64.008665 
7458.000000	64.526009 
7457.000000	64.911317 
7456.000000	65.153932 
7455.000000	65.267181 
7454.000000	65.282678 
7453.000000	65.238189 
7452.000000	65.169548 
7451.000000	65.099644 
7450.000000	65.040683 
7449.000000	64.988183 
7448.000000	64.932703 
7447.000000	64.857316 
7446.000000	64.751315 
7445.000000	64.602184 
7444.000000	64.400672 
7443.000000	64.139938 
7442.000000	63.817930 
7441.000000	63.436031 
7440.000000	63.000488 
7439.000000	62.526345 
7438.000000	62.037587 
7437.000000	61.560201 
7436.000000	61.122822 
7435.000000	60.752558 
7434.000000	60.475635 
7433.000000	60.310220 
7432.000000	60.268878 
7431.000000	60.354804 
7430.000000	60.562610 
7429.000000	60.874986 
7428.000000	61.265373 
7427.000000	61.690258 
7426.000000	62.105870 
7425.000000	62.471199 
7424.000000	62.760591 
7423.000000	62.961483 
7422.000000	63.084816 
7421.000000	63.161087 
7420.000000	63.231444 
7419.000000	63.337635 
7418.000000	63.506865 
7417.000000	63.745188 
7416.000000	64.032983 
7415.000000	64.332199 
7414.000000	64.597964 
7413.000000	64.795088 
7412.000000	64.912605 
7411.000000	64.971685 
7410.000000	65.022897 
7409.000000	65.133929 
7408.000000	65.373253 
7407.000000	65.786075 
7406.000000	66.382741 
7405.000000	67.123675 
7404.000000	67.931175 
7403.000000	68.694305 
7402.000000	69.299697 
7401.000000	69.647169 
7400.000000	69.679307 
7399.000000	69.384527 
7398.000000	68.800783 
7397.000000	68.004608 
7396.000000	67.097115 
7395.000000	66.181278 
7394.000000	65.346622 
7393.000000	64.653730 
7392.000000	64.133191 
7391.000000	63.783645 
7390.000000	63.583207 
7389.000000	63.497304 
7388.000000	63.490533 
7387.000000	63.537764 
7386.000000	63.627004 
7385.000000	63.754010 
7384.000000	63.914775 
7383.000000	64.100003 
7382.000000	64.288091 
7381.000000	64.437770 
7380.000000	64.497852 
7379.000000	64.419817 
7378.000000	64.174604 
7377.000000	63.759207 
7376.000000	63.210105 
7375.000000	62.598013 
7374.000000	62.021327 
7373.000000	61.580967 
7372.000000	61.366367 
7371.000000	61.434531 
7370.000000	61.798214 
7369.000000	62.422466 
7368.000000	63.230824 
7367.000000	64.119267 
7366.000000	64.978957 
7365.000000	65.717506 
7364.000000	66.271066 
7363.000000	66.609096 
7362.000000	66.738390 
7361.000000	66.693758 
7360.000000	66.515731 
7359.000000	66.236066 
7358.000000	65.874886 
7357.000000	65.437126 
7356.000000	64.920520 
7355.000000	64.321160 
7354.000000	63.652014 
7353.000000	62.941122 
7352.000000	62.226986 
7351.000000	61.556077 
7350.000000	60.967922 
7349.000000	60.497760 
7348.000000	60.165977 
7347.000000	59.984898 
7346.000000	59.950995 
7345.000000	60.056471 
7344.000000	60.285401 
7343.000000	60.621905 
7342.000000	61.039447 
7341.000000	61.515951 
7340.000000	62.027573 
7339.000000	62.556695 
7338.000000	63.084721 
7337.000000	63.602042 
7336.000000	64.105534 
7335.000000	64.593148 
7334.000000	65.059995 
7333.000000	65.499329 
7332.000000	65.903615 
7331.000000	66.263270 
7330.000000	66.571927 
7329.000000	66.836714 
7328.000000	67.075896 
7327.000000	67.324185 
7326.000000	67.614603 
7325.000000	67.969846 
7324.000000	68.384051 
7323.000000	68.827009 
7322.000000	69.237709 
7321.000000	69.540810 
7320.000000	69.658231 
7319.000000	69.541311 
7318.000000	69.170093 
7317.000000	68.565487 
7316.000000	67.779111 
7315.000000	66.889381 
7314.000000	65.976595 
7313.000000	65.109467 
7312.000000	64.332604 
7311.000000	63.664984 
7310.000000	63.103103 
7309.000000	62.632393 
7308.000000	62.232923 
7307.000000	61.888980 
7306.000000	61.589860 
7305.000000	61.332416 
7304.000000	61.109781 
7303.000000	60.913801 
7302.000000	60.737156 
7301.000000	60.577917 
7300.000000	60.437250 
7299.000000	60.323929 
7298.000000	60.252332 
7297.000000	60.240697 
7296.000000	60.298848 
7295.000000	60.431170 
7294.000000	60.630226 
7293.000000	60.883903 
7292.000000	61.170053 
7291.000000	61.471033 
7290.000000	61.775660 
7289.000000	62.083244 
7288.000000	62.400245 
7287.000000	62.736320 
7286.000000	63.096904 
7285.000000	63.479375 
7284.000000	63.871693 
7283.000000	64.250612 
7282.000000	64.585351 
7281.000000	64.848661 
7280.000000	65.024900 
7279.000000	65.105390 
7278.000000	65.090465 
7277.000000	64.989066 
7276.000000	64.816784 
7275.000000	64.593911 
7274.000000	64.341783 
7273.000000	64.085531 
7272.000000	63.846206 
7271.000000	63.641571 
7270.000000	63.477492 
7269.000000	63.351726 
7268.000000	63.248586 
7267.000000	63.142728 
7266.000000	63.004684 
7265.000000	62.808489 
7264.000000	62.540221 
7263.000000	62.197971 
7262.000000	61.801362 
7261.000000	61.384940 
7260.000000	60.997533 
7259.000000	60.689520 
7258.000000	60.505151 
7257.000000	60.469961 
7256.000000	60.588741 
7255.000000	60.843896 
7254.000000	61.196398 
7253.000000	61.592435 
7252.000000	61.975026 
7251.000000	62.293815 
7250.000000	62.509822 
7249.000000	62.601327 
7248.000000	62.563300 
7247.000000	62.408232 
7246.000000	62.160801 
7245.000000	61.857223 
7244.000000	61.538624 
7243.000000	61.250591 
7242.000000	61.037349 
7241.000000	60.940575 
7240.000000	60.992360 
7239.000000	61.213827 
7238.000000	61.609673 
7237.000000	62.167644 
7236.000000	62.856554 
7235.000000	63.629293 
7234.000000	64.428472 
7233.000000	65.190029 
7232.000000	65.852379 
7231.000000	66.360616 
7230.000000	66.676402 
7229.000000	66.776537 
7228.000000	66.656637 
7227.000000	66.334509 
7226.000000	65.850186 
7225.000000	65.263223 
7224.000000	64.645695 
7223.000000	64.075708 
7222.000000	63.623309 
7221.000000	63.341259 
7220.000000	63.252782 
7219.000000	63.344788 
7218.000000	63.571739 
7217.000000	63.865256 
7216.000000	64.152050 
7215.000000	64.366102 
7214.000000	64.467883 
7213.000000	64.447283 
7212.000000	64.326977 
7211.000000	64.150047 
7210.000000	63.968992 
7209.000000	63.827157 
7208.000000	63.750767 
7207.000000	63.743066 
7206.000000	63.788104 
7205.000000	63.859033 
7204.000000	63.930845 
7203.000000	63.990449 
7202.000000	64.042282 
7201.000000	64.107966 
7200.000000	64.212417 
7199.000000	64.372396 
7198.000000	64.585757 
7197.000000	64.827251 
7196.000000	65.049338 
7195.000000	65.194177 
7194.000000	65.212821 
7193.000000	65.079379 
7192.000000	64.804053 
7191.000000	64.430356 
7190.000000	64.023184 
7189.000000	63.654136 
7188.000000	63.379979 
7187.000000	63.235187 
7186.000000	63.223075 
7185.000000	63.325095 
7184.000000	63.506197 
7183.000000	63.734602 
7182.000000	63.992857 
7181.000000	64.282083 
7180.000000	64.616680 
7179.000000	65.015006 
7178.000000	65.485024 
7177.000000	66.014456 
7176.000000	66.566109 
7175.000000	67.080616 
7174.000000	67.488694 
7173.000000	67.725014 
7172.000000	67.745828 
7171.000000	67.534470 
7170.000000	67.107415 
7169.000000	66.508388 
7168.000000	65.801239 
7167.000000	65.059924 
7166.000000	64.355874 
7165.000000	63.751959 
7164.000000	63.290452 
7163.000000	62.992811 
7162.000000	62.853956 
7161.000000	62.848830 
7160.000000	62.934899 
7159.000000	63.057041 
7158.000000	63.162374 
7157.000000	63.201785 
7156.000000	63.148927 
7155.000000	62.997579 
7154.000000	62.770056 
7153.000000	62.506198 
7152.000000	62.257122 
7151.000000	62.070369 
7150.000000	61.979842 
7149.000000	61.997652 
7148.000000	62.112545 
7147.000000	62.294435 
7146.000000	62.501645 
7145.000000	62.692022 
7144.000000	62.829947 
7143.000000	62.894511 
7142.000000	62.877464 
7141.000000	62.786054 
7140.000000	62.641763 
7139.000000	62.477540 
7138.000000	62.332177 
7137.000000	62.243151 
7136.000000	62.242293 
7135.000000	62.345385 
7134.000000	62.554979 
7133.000000	62.850451 
7132.000000	63.188505 
7131.000000	63.512635 
7130.000000	63.761830 
7129.000000	63.891053 
7128.000000	63.876533 
7127.000000	63.733196 
7126.000000	63.509845 
7125.000000	63.282847 
7124.000000	63.136100 
7123.000000	63.141775 
7122.000000	63.343310 
7121.000000	63.738751 
7120.000000	64.280629 
7119.000000	64.885354 
7118.000000	65.453767 
7117.000000	65.887689 
7116.000000	66.111922 
7115.000000	66.086792 
7114.000000	65.814924 
7113.000000	65.336418 
7112.000000	64.719676 
7111.000000	64.042997 
7110.000000	63.382458 
7109.000000	62.803363 
7108.000000	62.352418 
7107.000000	62.057590 
7106.000000	61.927914 
7105.000000	61.958551 
7104.000000	62.134623 
7103.000000	62.429213 
7102.000000	62.814688 
7101.000000	63.258028 
7100.000000	63.732409 
7099.000000	64.208006 
7098.000000	64.666557 
7097.000000	65.096545 
7096.000000	65.496969 
7095.000000	65.871524 
7094.000000	66.227388 
7093.000000	66.570615 
7092.000000	66.901373 
7091.000000	67.212462 
7090.000000	67.486953 
7089.000000	67.700386 
7088.000000	67.825531 
7087.000000	67.837285 
7086.000000	67.719960 
7085.000000	67.469859 
7084.000000	67.098498 
7083.000000	66.630601 
7082.000000	66.100978 
7081.000000	65.550112 
7080.000000	65.021610 
7079.000000	64.554905 
7078.000000	64.180421 
7077.000000	63.916015 
7076.000000	63.767981 
7075.000000	63.728857 
7074.000000	63.779115 
7073.000000	63.890767 
7072.000000	64.027190 
7071.000000	64.155077 
7070.000000	64.247083 
7069.000000	64.287829 
7068.000000	64.271306 
7067.000000	64.204978 
7066.000000	64.105224 
7065.000000	63.991594 
7064.000000	63.880848 
7063.000000	63.783335 
7062.000000	63.701629 
7061.000000	63.630867 
7060.000000	63.563275 
7059.000000	63.493752 
7058.000000	63.424277 
7057.000000	63.365125 
7056.000000	63.333249 
7055.000000	63.347268 
7054.000000	63.420844 
7053.000000	63.558506 
7052.000000	63.749837 
7051.000000	63.968873 
7050.000000	64.178061 
7049.000000	64.338660 
7048.000000	64.416384 
7047.000000	64.390110 
7046.000000	64.255976 
7045.000000	64.027142 
7044.000000	63.733530 
7043.000000	63.415455 
7042.000000	63.116741 
7041.000000	62.874746 
7040.000000	62.718367 
7039.000000	62.664365 
7038.000000	62.715291 
7037.000000	62.860822 
7036.000000	63.078784 
7035.000000	63.339257 
7034.000000	63.607597 
7033.000000	63.850975 
7032.000000	64.039611 
7031.000000	64.154696 
7030.000000	64.192032 
7029.000000	64.164113 
7028.000000	64.098834 
7027.000000	64.030480 
7026.000000	63.998198 
7025.000000	64.025568 
7024.000000	64.119338 
7023.000000	64.255452 
7022.000000	64.391279 
7021.000000	64.464354 
7020.000000	64.410734 
7019.000000	64.178419 
7018.000000	63.743543 
7017.000000	63.118886 
7016.000000	62.354087 
7015.000000	61.527490 
7014.000000	60.729575 
7013.000000	60.045456 
7012.000000	59.537148 
7011.000000	59.236073 
7010.000000	59.140253 
7009.000000	59.224224 
7008.000000	59.449291 
7007.000000	59.775876 
7006.000000	60.171890 
7005.000000	60.611867 
7004.000000	61.078405 
7003.000000	61.551260 
7002.000000	62.009978 
7001.000000	62.429070 
7000.000000	62.784838 
6999.000000	63.059854 
6998.000000	63.246917 
6997.000000	63.356208 
6996.000000	63.407945 
6995.000000	63.432860 
6994.000000	63.457703 
6993.000000	63.501954 
6992.000000	63.569068 
6991.000000	63.648653 
6990.000000	63.719630 
6989.000000	63.761353 
6988.000000	63.758277 
6987.000000	63.709092 
6986.000000	63.622617 
6985.000000	63.516068 
6984.000000	63.409042 
6983.000000	63.318467 
6982.000000	63.255929 
6981.000000	63.227009 
6980.000000	63.236713 
6979.000000	63.290643 
6978.000000	63.397669 
6977.000000	63.566374 
6976.000000	63.802337 
6975.000000	64.100694 
6974.000000	64.443564 
6973.000000	64.797067 
6972.000000	65.115475 
6971.000000	65.347695 
6970.000000	65.450906 
6969.000000	65.396642 
6968.000000	65.182518 
6967.000000	64.827585 
6966.000000	64.371395 
6965.000000	63.863086 
6964.000000	63.352942 
6963.000000	62.883329 
6962.000000	62.484550 
6961.000000	62.171411 
6960.000000	61.947536 
6959.000000	61.804008 
6958.000000	61.725616 
6957.000000	61.691474 
6956.000000	61.679482 
6955.000000	61.669516 
6954.000000	61.647272 
6953.000000	61.605334 
6952.000000	61.545681 
6951.000000	61.479115 
6950.000000	61.424517 
6949.000000	61.404109 
6948.000000	61.440086 
6947.000000	61.548590 
6946.000000	61.736893 
6945.000000	61.999416 
6944.000000	62.320137 
6943.000000	62.674713 
6942.000000	63.035988 
6941.000000	63.378071 
6940.000000	63.680934 
6939.000000	63.934373 
6938.000000	64.135265 
6937.000000	64.286732 
6936.000000	64.393019 
6935.000000	64.457106 
6934.000000	64.480042 
6933.000000	64.463138 
6932.000000	64.407968 
6931.000000	64.319348 
6930.000000	64.208030 
6929.000000	64.091992 
6928.000000	63.990688 
6927.000000	63.921976 
6926.000000	63.897156 
6925.000000	63.919210 
6924.000000	63.982820 
6923.000000	64.077043 
6922.000000	64.188432 
6921.000000	64.304709 
6920.000000	64.419031 
6919.000000	64.528417 
6918.000000	64.633846 
6917.000000	64.734983 
6916.000000	64.826893 
6915.000000	64.898538 
6914.000000	64.934396 
6913.000000	64.918112 
6912.000000	64.838695 
6911.000000	64.694094 
6910.000000	64.495348 
6909.000000	64.264106 
6908.000000	64.030361 
6907.000000	63.824152 
6906.000000	63.668251 
6905.000000	63.575363 
6904.000000	63.546657 
6903.000000	63.571071 
6902.000000	63.629007 
6901.000000	63.696742 
6900.000000	63.752150 
6899.000000	63.776278 
6898.000000	63.757848 
6897.000000	63.693237 
6896.000000	63.589048 
6895.000000	63.458180 
6894.000000	63.320899 
6893.000000	63.200592 
6892.000000	63.122439 
6891.000000	63.108563 
6890.000000	63.174819 
6889.000000	63.327431 
6888.000000	63.561224 
6887.000000	63.860392 
6886.000000	64.199709 
6885.000000	64.548182 
6884.000000	64.873385 
6883.000000	65.147876 
6882.000000	65.349650 
6881.000000	65.465807 
6880.000000	65.490317 
6879.000000	65.424585 
6878.000000	65.274882 
6877.000000	65.052366 
6876.000000	64.771652 
6875.000000	64.451313 
6874.000000	64.112091 
6873.000000	63.776636 
6872.000000	63.466763 
6871.000000	63.201665 
6870.000000	62.995791 
6869.000000	62.857627 
6868.000000	62.784910 
6867.000000	62.769436 
6866.000000	62.796449 
6865.000000	62.853980 
6864.000000	62.929391 
6863.000000	63.019919 
6862.000000	63.131165 
6861.000000	63.276052 
6860.000000	63.468170 
6859.000000	63.714289 
6858.000000	64.010453 
6857.000000	64.335036 
6856.000000	64.651703 
6855.000000	64.913439 
6854.000000	65.074634 
6853.000000	65.100002 
6852.000000	64.976072 
6851.000000	64.712667 
6850.000000	64.342546 
6849.000000	63.913226 
6848.000000	63.477778 
6847.000000	63.080430 
6846.000000	62.748193 
6845.000000	62.489295 
6844.000000	62.294411 
6843.000000	62.141847 
6842.000000	62.005972 
6841.000000	61.867785 
6840.000000	61.718916 
6839.000000	61.560273 
6838.000000	61.400175 
6837.000000	61.247086 
6836.000000	61.106705 
6835.000000	60.973405 
6834.000000	60.837221 
6833.000000	60.683274 
6832.000000	60.503602 
6831.000000	60.300302 
6830.000000	60.090970 
6829.000000	59.904170 
6828.000000	59.776353 
6827.000000	59.740853 
6826.000000	59.820437 
6825.000000	60.017418 
6824.000000	60.315442 
6823.000000	60.680699 
6822.000000	61.072230 
6821.000000	61.450386 
6820.000000	61.785244 
6819.000000	62.061023 
6818.000000	62.277030 
6817.000000	62.443757 
6816.000000	62.573695 
6815.000000	62.677383 
6814.000000	62.760710 
6813.000000	62.825894 
6812.000000	62.875103 
6811.000000	62.912178 
6810.000000	62.950944 
6809.000000	63.007473 
6808.000000	63.100409 
6807.000000	63.239932 
6806.000000	63.423490 
6805.000000	63.633370 
6804.000000	63.839387 
6803.000000	64.006900 
6802.000000	64.104080 
6801.000000	64.115262 
6800.000000	64.046454 
6799.000000	63.926291 
6798.000000	63.799953 
6797.000000	63.717007 
6796.000000	63.718080 
6795.000000	63.823580 
6794.000000	64.028024 
6793.000000	64.300704 
6792.000000	64.593696 
6791.000000	64.854383 
6790.000000	65.038514 
6789.000000	65.120244 
6788.000000	65.096950 
6787.000000	64.986920 
6786.000000	64.822292 
6785.000000	64.641642 
6784.000000	64.475631 
6783.000000	64.343643 
6782.000000	64.243102 
6781.000000	64.156508 
6780.000000	64.051198 
6779.000000	63.892769 
6778.000000	63.653016 
6777.000000	63.319683 
6776.000000	62.902808 
6775.000000	62.430047 
6774.000000	61.948466 
6773.000000	61.512994 
6772.000000	61.177611 
6771.000000	60.980391 
6770.000000	60.941362 
6769.000000	61.057853 
6768.000000	61.306786 
6767.000000	61.649703 
6766.000000	62.043905 
6765.000000	62.450408 
6764.000000	62.840747 
6763.000000	63.198781 
6762.000000	63.517260 
6761.000000	63.793778 
6760.000000	64.025831 
6759.000000	64.207720 
6758.000000	64.331388 
6757.000000	64.386630 
6756.000000	64.370632 
6755.000000	64.284777 
6754.000000	64.141488 
6753.000000	63.956427 
6752.000000	63.753199 
6751.000000	63.549947 
6750.000000	63.358974 
6749.000000	63.180327 
6748.000000	63.005566 
6747.000000	62.819075 
6746.000000	62.605285 
6745.000000	62.354421 
6744.000000	62.067198 
6743.000000	61.757850 
6742.000000	61.451530 
6741.000000	61.180830 
6740.000000	60.978245 
6739.000000	60.869908 
6738.000000	60.869836 
6737.000000	60.979104 
6736.000000	61.186099 
6735.000000	61.469650 
6734.000000	61.803197 
6733.000000	62.158250 
6732.000000	62.508416 
6731.000000	62.831282 
6730.000000	63.110017 
6729.000000	63.332200 
6728.000000	63.490128 
6727.000000	63.581395 
6726.000000	63.606286 
6725.000000	63.572263 
6724.000000	63.486576 
6723.000000	63.361620 
6722.000000	63.205623 
6721.000000	63.027763 
6720.000000	62.830352 
6719.000000	62.611842 
6718.000000	62.368750 
6717.000000	62.099599 
6716.000000	61.811041 
6715.000000	61.519527 
6714.000000	61.254000 
6713.000000	61.051273 
6712.000000	60.950303 
6711.000000	60.983347 
6710.000000	61.167216 
6709.000000	61.498022 
6708.000000	61.949801 
6707.000000	62.479162 
6706.000000	63.032555 
6705.000000	63.556647 
6704.000000	64.008522 
6703.000000	64.360427 
6702.000000	64.602398 
6701.000000	64.738154 
6700.000000	64.782404 
6699.000000	64.751195 
6698.000000	64.659333 
6697.000000	64.515447 
6696.000000	64.327716 
6695.000000	64.101529 
6694.000000	63.849282 
6693.000000	63.585495 
6692.000000	63.330411 
6691.000000	63.103914 
6690.000000	62.923932 
6689.000000	62.801003 
6688.000000	62.736320 
6687.000000	62.721538 
6686.000000	62.740898 
6685.000000	62.775874 
6684.000000	62.809634 
6683.000000	62.830758 
6682.000000	62.835907 
6681.000000	62.829637 
6680.000000	62.822508 
6679.000000	62.826752 
6678.000000	62.851667 
6677.000000	62.900090 
6676.000000	62.966322 
6675.000000	63.038301 
6674.000000	63.099026 
6673.000000	63.132333 
6672.000000	63.126325 
6671.000000	63.075876 
6670.000000	62.985920 
6669.000000	62.871527 
6668.000000	62.753582 
6667.000000	62.654352 
6666.000000	62.590169 
6665.000000	62.567329 
6664.000000	62.580180 
6663.000000	62.613987 
6662.000000	62.647032 
6661.000000	62.657237 
6660.000000	62.627100 
6659.000000	62.549304 
6658.000000	62.424921 
6657.000000	62.264347 
6656.000000	62.082862 
6655.000000	61.899971 
6654.000000	61.737608 
6653.000000	61.619949 
6652.000000	61.570382 
6651.000000	61.609721 
6650.000000	61.755514 
6649.000000	62.014675 
6648.000000	62.380909 
6647.000000	62.828993 
6646.000000	63.315606 
6645.000000	63.784599 
6644.000000	64.174342 
6643.000000	64.432764 
6642.000000	64.526581 
6641.000000	64.452338 
6640.000000	64.239263 
6639.000000	63.941359 
6638.000000	63.625907 
6637.000000	63.357257 
6636.000000	63.184952 
6635.000000	63.130474 
6634.000000	63.186073 
6633.000000	63.318467 
6632.000000	63.481068 
6631.000000	63.624882 
6630.000000	63.711571 
6629.000000	63.719558 
6628.000000	63.646960 
6627.000000	63.505697 
6626.000000	63.316917 
6625.000000	63.102293 
6624.000000	62.880730 
6623.000000	62.665534 
6622.000000	62.465691 
6621.000000	62.288904 
6620.000000	62.143421 
6619.000000	62.039518 
6618.000000	61.989760 
6617.000000	62.001776 
6616.000000	62.082505 
6615.000000	62.233400 
6614.000000	62.451601 
6613.000000	62.725353 
6612.000000	63.038086 
6611.000000	63.370203 
6610.000000	63.698267 
6609.000000	63.997817 
6608.000000	64.243817 
6607.000000	64.413309 
6606.000000	64.491558 
6605.000000	64.475560 
6604.000000	64.375853 
6603.000000	64.215397 
6602.000000	64.030575 
6601.000000	63.863134 
6600.000000	63.752460 
6599.000000	63.725018 
6598.000000	63.788437 
6597.000000	63.927960 
6596.000000	64.110636 
6595.000000	64.291954 
6594.000000	64.428830 
6593.000000	64.487910 
6592.000000	64.452672 
6591.000000	64.325928 
6590.000000	64.128184 
6589.000000	63.890242 
6588.000000	63.642644 
6587.000000	63.410997 
6586.000000	63.208580 
6585.000000	63.040971 
6584.000000	62.907934 
6583.000000	62.811350 
6582.000000	62.757706 
6581.000000	62.762355 
6580.000000	62.846350 
6579.000000	63.028454 
6578.000000	63.316059 
6577.000000	63.699173 
6576.000000	64.147257 
6575.000000	64.610528 
6574.000000	65.028905 
6573.000000	65.345907 
6572.000000	65.521478 
6571.000000	65.541672 
6570.000000	65.422415 
6569.000000	65.205621 
6568.000000	64.949440 
6567.000000	64.715480 
6566.000000	64.553689 
6565.000000	64.495635 
6564.000000	64.545512 
6563.000000	64.686274 
6562.000000	64.880776 
6561.000000	65.085577 
6560.000000	65.258336 
6559.000000	65.367698 
6558.000000	65.399503 
6557.000000	65.355873 
6556.000000	65.255737 
6555.000000	65.126943 
6554.000000	64.999818 
6553.000000	64.898920 
6552.000000	64.838528 
6551.000000	64.820766 
6550.000000	64.835000 
6549.000000	64.862155 
6548.000000	64.879059 
6547.000000	64.864611 
6546.000000	64.804816 
6545.000000	64.695811 
6544.000000	64.542865 
6543.000000	64.359068 
6542.000000	64.162158 
6541.000000	63.970136 
6540.000000	63.795995 
6539.000000	63.646936 
6538.000000	63.524007 
6537.000000	63.424682 
6536.000000	63.345217 
6535.000000	63.283801 
6534.000000	63.239645 
6533.000000	63.215994 
6532.000000	63.217520 
6531.000000	63.249206 
6530.000000	63.312196 
6529.000000	63.403582 
6528.000000	63.513875 
6527.000000	63.630890 
6526.000000	63.741540 
6525.000000	63.834595 
6524.000000	63.902854 
6523.000000	63.944363 
6522.000000	63.962364 
6521.000000	63.964080 
6520.000000	63.958382 
6519.000000	63.953757 
6518.000000	63.956022 
6517.000000	63.968324 
6516.000000	63.990306 
6515.000000	64.017891 
6514.000000	64.045643 
6513.000000	64.068531 
6512.000000	64.085102 
6511.000000	64.096045 
6510.000000	64.107394 
6509.000000	64.128923 
6508.000000	64.172530 
6507.000000	64.249205 
6506.000000	64.364981 
6505.000000	64.519548 
6504.000000	64.702916 
6503.000000	64.897656 
6502.000000	65.079259 
6501.000000	65.221619 
6500.000000	65.301489 
6499.000000	65.304446 
6498.000000	65.226745 
6497.000000	65.076875 
6496.000000	64.873027 
6495.000000	64.639925 
6494.000000	64.404010 
6493.000000	64.189648 
6492.000000	64.016079 
6491.000000	63.896656 
6490.000000	63.839387 
6489.000000	63.847637 
6488.000000	63.920378 
6487.000000	64.052629 
6486.000000	64.235663 
6485.000000	64.456272 
6484.000000	64.695286 
6483.000000	64.929461 
6482.000000	65.133547 
6481.000000	65.283489 
6480.000000	65.360569 
6479.000000	65.354037 
6478.000000	65.264701 
6477.000000	65.102910 
6476.000000	64.888429 
6475.000000	64.644813 
6474.000000	64.396142 
6473.000000	64.163661 
6472.000000	63.963985 
6471.000000	63.808155 
6470.000000	63.702130 
6469.000000	63.649344 
6468.000000	63.652253 
6467.000000	63.711571 
6466.000000	63.826823 
6465.000000	63.994407 
6464.000000	64.208102 
6463.000000	64.456772 
6462.000000	64.727044 
6461.000000	65.002942 
6460.000000	65.269970 
6459.000000	65.517568 
6458.000000	65.739727 
6457.000000	65.936017 
6456.000000	66.107559 
6455.000000	66.257309 
6454.000000	66.384410 
6453.000000	66.486334 
6452.000000	66.555285 
6451.000000	66.582393 
6450.000000	66.558480 
6449.000000	66.480493 
6448.000000	66.351366 
6447.000000	66.183423 
6446.000000	65.994381 
6445.000000	65.805554 
6444.000000	65.636730 
6443.000000	65.502715 
6442.000000	65.410089 
6441.000000	65.357089 
6440.000000	65.335011 
6439.000000	65.331983 
6438.000000	65.337538 
6437.000000	65.346145 
6436.000000	65.357232 
6435.000000	65.375661 
6434.000000	65.410280 
6433.000000	65.469288 
6432.000000	65.555310 
6431.000000	65.662431 
6430.000000	65.777778 
6429.000000	65.881466 
6428.000000	65.950536 
6427.000000	65.965151 
6426.000000	65.915036 
6425.000000	65.802001 
6424.000000	65.640163 
6423.000000	65.453672 
6422.000000	65.272426 
6421.000000	65.124225 
6420.000000	65.029287 
6419.000000	64.994406 
6418.000000	65.012288 
6417.000000	65.063166 
6416.000000	65.120601 
6415.000000	65.156197 
6414.000000	65.146732 
6413.000000	65.078949 
6412.000000	64.952278 
6411.000000	64.776587 
6410.000000	64.569735 
6409.000000	64.352798 
6408.000000	64.145469 
6407.000000	63.963031 
6406.000000	63.813567 
6405.000000	63.698720 
6404.000000	63.613820 
6403.000000	63.551425 
6402.000000	63.502955 
6401.000000	63.459658 
6400.000000	63.415694 
6399.000000	63.366532 
6398.000000	63.311934 
6397.000000	63.252472 
6396.000000	63.192510 
6395.000000	63.136768 
6394.000000	63.092327 
6393.000000	63.066554 
6392.000000	63.065743 
6391.000000	63.092780 
6390.000000	63.147687 
6389.000000	63.227295 
6388.000000	63.324427 
6387.000000	63.428735 
6386.000000	63.529491 
6385.000000	63.616776 
6384.000000	63.682723 
6383.000000	63.721942 
6382.000000	63.732004 
6381.000000	63.712763 
6380.000000	63.666009 
6379.000000	63.594293 
6378.000000	63.501691 
6377.000000	63.392901 
6376.000000	63.272857 
6375.000000	63.148427 
6374.000000	63.028025 
6373.000000	62.923049 
6372.000000	62.844824 
6371.000000	62.805914 
6370.000000	62.816047 
6369.000000	62.882494 
6368.000000	63.006687 
6367.000000	63.184881 
6366.000000	63.406872 
6365.000000	63.658571 
6364.000000	63.923144 
6363.000000	64.184331 
6362.000000	64.428019 
6361.000000	64.643049 
6360.000000	64.821100 
6359.000000	64.957737 
6358.000000	65.050697 
6357.000000	65.099239 
6356.000000	65.102887 
6355.000000	65.062355 
6354.000000	64.979386 
6353.000000	64.859580 
6352.000000	64.712047 
6351.000000	64.549779 
6350.000000	64.388489 
6349.000000	64.246630 
6348.000000	64.140820 
6347.000000	64.083647 
6346.000000	64.080214 
6345.000000	64.127230 
6344.000000	64.212870 
6343.000000	64.318895 
6342.000000	64.424872 
6341.000000	64.510607 
6340.000000	64.563202 
6339.000000	64.577817 
6338.000000	64.562010 
6337.000000	64.532566 
6336.000000	64.512920 
6335.000000	64.526152 
6334.000000	64.590883 
6333.000000	64.715552 
6332.000000	64.894485 
6331.000000	65.107154 
6330.000000	65.324330 
6329.000000	65.511989 
6328.000000	65.638017 
6327.000000	65.677428 
6326.000000	65.617156 
6325.000000	65.458035 
6324.000000	65.214157 
6323.000000	64.910769 
6322.000000	64.578795 
6321.000000	64.251565 
6320.000000	63.960886 
6319.000000	63.732743 
6318.000000	63.585114 
6317.000000	63.526153 
6316.000000	63.554763 
6315.000000	63.660645 
6314.000000	63.825869 
6313.000000	64.027571 
6312.000000	64.239788 
6311.000000	64.437365 
6310.000000	64.597916 
6309.000000	64.703822 
6308.000000	64.743137 
6307.000000	64.709162 
6306.000000	64.600682 
6305.000000	64.422130 
6304.000000	64.184117 
6303.000000	63.903045 
6302.000000	63.601255 
6301.000000	63.306403 
6300.000000	63.048601 
6299.000000	62.857174 
6298.000000	62.755465 
6297.000000	62.755656 
6296.000000	62.856459 
6295.000000	63.041448 
6294.000000	63.282608 
6293.000000	63.542985 
6292.000000	63.786172 
6291.000000	63.980340 
6290.000000	64.106941 
6289.000000	64.162039 
6288.000000	64.156079 
6287.000000	64.107346 
6286.000000	64.039111 
6285.000000	63.973140 
6284.000000	63.926482 
6283.000000	63.909411 
6282.000000	63.924932 
6281.000000	63.970685 
6280.000000	64.041733 
6279.000000	64.133262 
6278.000000	64.239549 
6277.000000	64.354944 
6276.000000	64.474296 
6275.000000	64.592480 
6274.000000	64.703893 
6273.000000	64.802098 
6272.000000	64.880633 
6271.000000	64.932870 
6270.000000	64.955258 
6269.000000	64.946198 
6268.000000	64.905786 
6267.000000	64.837241 
6266.000000	64.746999 
6265.000000	64.645695 
6264.000000	64.547443 
6263.000000	64.468264 
6262.000000	64.424943 
6261.000000	64.429187 
6260.000000	64.486432 
6259.000000	64.590144 
6258.000000	64.723229 
6257.000000	64.858269 
6256.000000	64.963316 
6255.000000	65.006828 
6254.000000	64.964866 
6253.000000	64.825820 
6252.000000	64.593696 
6251.000000	64.287352 
6250.000000	63.937473 
6249.000000	63.580703 
6248.000000	63.253426 
6247.000000	62.985563 
6246.000000	62.796950 
6245.000000	62.696218 
6244.000000	62.681245 
6243.000000	62.740421 
6242.000000	62.856817 
6241.000000	63.009548 
6240.000000	63.179945 
6239.000000	63.348460 
6238.000000	63.503074 
6237.000000	63.636898 
6236.000000	63.751316 
6235.000000	63.852095 
6234.000000	63.947463 
6233.000000	64.044857 
6232.000000	64.146590 
6231.000000	64.249610 
6230.000000	64.343595 
6229.000000	64.414262 
6228.000000	64.446902 
6227.000000	64.431810 
6226.000000	64.366936 
6225.000000	64.259910 
6224.000000	64.127469 
6223.000000	63.992023 
6222.000000	63.876533 
6221.000000	63.799333 
6220.000000	63.769865 
6219.000000	63.786840 
6218.000000	63.839745 
6217.000000	63.911318 
6216.000000	63.983678 
6215.000000	64.040684 
6214.000000	64.070820 
6213.000000	64.068579 
6212.000000	64.033412 
6211.000000	63.969564 
6210.000000	63.882660 
6209.000000	63.779783 
6208.000000	63.667607 
6207.000000	63.552570 
6206.000000	63.440370 
6205.000000	63.337492 
6204.000000	63.251352 
6203.000000	63.190102 
6202.000000	63.161468 
6201.000000	63.171386 
6200.000000	63.221979 
6199.000000	63.310003 
6198.000000	63.425993 
6197.000000	63.554143 
6196.000000	63.673901 
6195.000000	63.763260 
6194.000000	63.802647 
6193.000000	63.777899 
6192.000000	63.683772 
6191.000000	63.525509 
6190.000000	63.318705 
6189.000000	63.086605 
6188.000000	62.856602 
6187.000000	62.654113 
6186.000000	62.500572 
6185.000000	62.408328 
6184.000000	62.383890 
6183.000000	62.427067 
6182.000000	62.535071 
6181.000000	62.702178 
6180.000000	62.922596 
6179.000000	63.188648 
6178.000000	63.490867 
6177.000000	63.815236 
6176.000000	64.143896 
6175.000000	64.455008 
6174.000000	64.725208 
6173.000000	64.932847 
6172.000000	65.060424 
6171.000000	65.097212 
6170.000000	65.042185 
6169.000000	64.903783 
6168.000000	64.697670 
6167.000000	64.444255 
6166.000000	64.167571 
6165.000000	63.891458 
6164.000000	63.637828 
6163.000000	63.423752 
6162.000000	63.261890 
6161.000000	63.158130 
6160.000000	63.111305 
6159.000000	63.113999 
6158.000000	63.152837 
6157.000000	63.212347 
6156.000000	63.275814 
6155.000000	63.330125 
6154.000000	63.365864 
6153.000000	63.379502 
6152.000000	63.371658 
6151.000000	63.346052 
6150.000000	63.306260 
6149.000000	63.256072 
6148.000000	63.198566 
6147.000000	63.136386 
6146.000000	63.072204 
6145.000000	63.011908 
6144.000000	62.965321 
6143.000000	62.945008 
6142.000000	62.964320 
6141.000000	63.035130 
6140.000000	63.163924 
6139.000000	63.348793 
6138.000000	63.577985 
6137.000000	63.830828 
6136.000000	64.080691 
6135.000000	64.300918 
6134.000000	64.468884 
6133.000000	64.569711 
6132.000000	64.598822 
6131.000000	64.563703 
6130.000000	64.479541 
6129.000000	64.365744 
6128.000000	64.240884 
6127.000000	64.121294 
6126.000000	64.016127 
6125.000000	63.928937 
6124.000000	63.857674 
6123.000000	63.798618 
6122.000000	63.748121 
6121.000000	63.705277 
6120.000000	63.672375 
6119.000000	63.653755 
6118.000000	63.654518 
6117.000000	63.677930 
6116.000000	63.723754 
6115.000000	63.786959 
6114.000000	63.858747 
6113.000000	63.928031 
6112.000000	63.983225 
6111.000000	64.015150 
6110.000000	64.018726 
6109.000000	63.994789 
6108.000000	63.948249 
6107.000000	63.888907 
6106.000000	63.828945 
6105.000000	63.781404 
6104.000000	63.756489 
6103.000000	63.760828 
6102.000000	63.797497 
6101.000000	63.864278 
6100.000000	63.953828 
6099.000000	64.055395 
6098.000000	64.157152 
6097.000000	64.248061 
6096.000000	64.319443 
6095.000000	64.366579 
6094.000000	64.388585 
6093.000000	64.388728 
6092.000000	64.373421 
6091.000000	64.348793 
6090.000000	64.318871 
6089.000000	64.285254 
6088.000000	64.246797 
6087.000000	64.200329 
6086.000000	64.142608 
6085.000000	64.072585 
6084.000000	63.992857 
6083.000000	63.910055 
6082.000000	63.833189 
6081.000000	63.772487 
6080.000000	63.734841 
6079.000000	63.722896 
6078.000000	63.731646 
6077.000000	63.750314 
6076.000000	63.762736 
6075.000000	63.751173 
6074.000000	63.700819 
6073.000000	63.602709 
6072.000000	63.458490 
6071.000000	63.279461 
6070.000000	63.086986 
6069.000000	62.906289 
6068.000000	62.764692 
6067.000000	62.685441 
6066.000000	62.683248 
6065.000000	62.760901 
6064.000000	62.909579 
6063.000000	63.110733 
6062.000000	63.338804 
6061.000000	63.566470 
6060.000000	63.769006 
6059.000000	63.929033 
6058.000000	64.038395 
6057.000000	64.098978 
6056.000000	64.119744 
6055.000000	64.114522 
6054.000000	64.099025 
6053.000000	64.086651 
6052.000000	64.088296 
6051.000000	64.108061 
6050.000000	64.147210 
6049.000000	64.199924 
6048.000000	64.256978 
6047.000000	64.305448 
6046.000000	64.333295 
6045.000000	64.329767 
6044.000000	64.288306 
6043.000000	64.207482 
6042.000000	64.092111 
6041.000000	63.950753 
6040.000000	63.793730 
6039.000000	63.632225 
6038.000000	63.476967 
6037.000000	63.337302 
6036.000000	63.221192 
6035.000000	63.136291 
6034.000000	63.089895 
6033.000000	63.088774 
6032.000000	63.137602 
6031.000000	63.236403 
6030.000000	63.378763 
6029.000000	63.550591 
6028.000000	63.731884 
6027.000000	63.897800 
6026.000000	64.025044 
6025.000000	64.095973 
6024.000000	64.103865 
6023.000000	64.054369 
6022.000000	63.964438 
6021.000000	63.857603 
6020.000000	63.759398 
6019.000000	63.690733 
6018.000000	63.665294 
6017.000000	63.687920 
6016.000000	63.755154 
6015.000000	63.858366 
6014.000000	63.985800 
6013.000000	64.126062 
6012.000000	64.269018 
6011.000000	64.406561 
6010.000000	64.531922 
6009.000000	64.639353 
6008.000000	64.723801 
6007.000000	64.781594 
6006.000000	64.811372 
6005.000000	64.815378 
6004.000000	64.800906 
6003.000000	64.779424 
6002.000000	64.766407 
6001.000000	64.777159 
6000.000000	64.823794 
5999.000000	64.910650 
5998.000000	65.034985 
5997.000000	65.184402 
5996.000000	65.339374 
5995.000000	65.476751 
5994.000000	65.575838 
5993.000000	65.621519 
5992.000000	65.607643 
5991.000000	65.538263 
5990.000000	65.426182 
5989.000000	65.290212 
5988.000000	65.151309 
5987.000000	65.027427 
5986.000000	64.930391 
5985.000000	64.864349 
5984.000000	64.826536 
5983.000000	64.809393 
5982.000000	64.803624 
5981.000000	64.800024 
5980.000000	64.791107 
5979.000000	64.772343 
5978.000000	64.741563 
5977.000000	64.697027 
5976.000000	64.636874 
5975.000000	64.558577 
5974.000000	64.459252 
5973.000000	64.336943 
5972.000000	64.191508 
5971.000000	64.025712 
5970.000000	63.846421 
5969.000000	63.663077 
5968.000000	63.488650 
5967.000000	63.336563 
5966.000000	63.220405 
5965.000000	63.149785 
5964.000000	63.130688 
5963.000000	63.164043 
5962.000000	63.245081 
5961.000000	63.362669 
5960.000000	63.501334 
5959.000000	63.643145 
5958.000000	63.769459 
5957.000000	63.863587 
5956.000000	63.912749 
5955.000000	63.910174 
5954.000000	63.857030 
5953.000000	63.762235 
5952.000000	63.641786 
5951.000000	63.515639 
5950.000000	63.405299 
5949.000000	63.329195 
5948.000000	63.298869 
5947.000000	63.316917 
5946.000000	63.377952 
5945.000000	63.469290 
5944.000000	63.573980 
5943.000000	63.674807 
5942.000000	63.758945 
5941.000000	63.818502 
5940.000000	63.850140 
5939.000000	63.854455 
5938.000000	63.835048 
5937.000000	63.794898 
5936.000000	63.734865 
5935.000000	63.654637 
5934.000000	63.554406 
5933.000000	63.436079 
5932.000000	63.305044 
5931.000000	63.170242 
5930.000000	63.043570 
5929.000000	62.937092 
5928.000000	62.861037 
5927.000000	62.819218 
5926.000000	62.809395 
5925.000000	62.824749 
5924.000000	62.857341 
5923.000000	62.899541 
5922.000000	62.947940 
5921.000000	63.003206 
5920.000000	63.071107 
5919.000000	63.158392 
5918.000000	63.272142 
5917.000000	63.415622 
5916.000000	63.587641 
5915.000000	63.781714 
5914.000000	63.986563 
5913.000000	64.188361 
5912.000000	64.373064 
5911.000000	64.529919 
5910.000000	64.652252 
5909.000000	64.739322 
5908.000000	64.794039 
5907.000000	64.822888 
5906.000000	64.831042 
5905.000000	64.821529 
5904.000000	64.793157 
5903.000000	64.742231 
5902.000000	64.663171 
5901.000000	64.551949 
5900.000000	64.408826 
5899.000000	64.240574 
5898.000000	64.060258 
5897.000000	63.885521 
5896.000000	63.735389 
5895.000000	63.626146 
5894.000000	63.566255 
5893.000000	63.555812 
5892.000000	63.584876 
5891.000000	63.638663 
5890.000000	63.701295 
5889.000000	63.761472 
5888.000000	63.813495 
5887.000000	63.859724 
5886.000000	63.907265 
5885.000000	63.965535 
5884.000000	64.040160 
5883.000000	64.132022 
5882.000000	64.236116 
5881.000000	64.341616 
5880.000000	64.434909 
5879.000000	64.502501 
5878.000000	64.535236 
5877.000000	64.528894 
5876.000000	64.485669 
5875.000000	64.412879 
5874.000000	64.321446 
5873.000000	64.224243 
5872.000000	64.133739 
5871.000000	64.060235 
5870.000000	64.010620 
5869.000000	63.989305 
5868.000000	63.997149 
5867.000000	64.030647 
5866.000000	64.083099 
5865.000000	64.145493 
5864.000000	64.209079 
5863.000000	64.266085 
5862.000000	64.312291 
5861.000000	64.347267 
5860.000000	64.373564 
5859.000000	64.395880 
5858.000000	64.418053 
5857.000000	64.441323 
5856.000000	64.463138 
5855.000000	64.478707 
5854.000000	64.480996 
5853.000000	64.463520 
5852.000000	64.422178 
5851.000000	64.357304 
5850.000000	64.274048 
5849.000000	64.181661 
5848.000000	64.092874 
5847.000000	64.021730 
5846.000000	63.980841 
5845.000000	63.979315 
5844.000000	64.021944 
5843.000000	64.108252 
5842.000000	64.232969 
5841.000000	64.386224 
5840.000000	64.554476 
5839.000000	64.721965 
5838.000000	64.872717 
5837.000000	64.992570 
5836.000000	65.070772 
5835.000000	65.101313 
5834.000000	65.084910 
5833.000000	65.027117 
5832.000000	64.937758 
5831.000000	64.828181 
5830.000000	64.710783 
5829.000000	64.595556 
5828.000000	64.490604 
5827.000000	64.400339 
5826.000000	64.326834 
5825.000000	64.269495 
5824.000000	64.226818 
5823.000000	64.196181 
5822.000000	64.174938 
5821.000000	64.160704 
5820.000000	64.151501 
5819.000000	64.145827 
5818.000000	64.142394 
5817.000000	64.139676 
5816.000000	64.136385 
5815.000000	64.131283 
5814.000000	64.124679 
5813.000000	64.118289 
5812.000000	64.116215 
5811.000000	64.123201 
5810.000000	64.145088 
5809.000000	64.188003 
5808.000000	64.256739 
5807.000000	64.352202 
5806.000000	64.471220 
5805.000000	64.607548 
5804.000000	64.750838 
5803.000000	64.888596 
5802.000000	65.006947 
5801.000000	65.093374 
5800.000000	65.138363 
5799.000000	65.137767 
5798.000000	65.093064 
5797.000000	65.011119 
5796.000000	64.904427 
5795.000000	64.789175 
5794.000000	64.683365 
5793.000000	64.603638 
5792.000000	64.562988 
5791.000000	64.567852 
5790.000000	64.617180 
5789.000000	64.701962 
5788.000000	64.806342 
5787.000000	64.909887 
5786.000000	64.992237 
5785.000000	65.035605 
5784.000000	65.028071 
5783.000000	64.964747 
5782.000000	64.847660 
5781.000000	64.685368 
5780.000000	64.490532 
5779.000000	64.279246 
5778.000000	64.068293 
5777.000000	63.874268 
5776.000000	63.712382 
5775.000000	63.594484 
5774.000000	63.528299 
5773.000000	63.515782 
5772.000000	63.552761 
5771.000000	63.628983 
5770.000000	63.729238 
5769.000000	63.835072 
5768.000000	63.927197 
5767.000000	63.989114 
5766.000000	64.009356 
5765.000000	63.983321 
5764.000000	63.913321 
5763.000000	63.806271 
5762.000000	63.672327 
5761.000000	63.522934 
5760.000000	63.369631 
5759.000000	63.223814 
5758.000000	63.095998 
5757.000000	62.995648 
5756.000000	62.930727 
5755.000000	62.906646 
5754.000000	62.926030 
5753.000000	62.986111 
5752.000000	63.081574 
5751.000000	63.203358 
5750.000000	63.342285 
5749.000000	63.489294 
5748.000000	63.637018 
5747.000000	63.779020 
5746.000000	63.910269 
5745.000000	64.027094 
5744.000000	64.125323 
5743.000000	64.199662 
5742.000000	64.245915 
5741.000000	64.261984 
5740.000000	64.250016 
5739.000000	64.216732 
5738.000000	64.173579 
5737.000000	64.133810 
5736.000000	64.108896 
5735.000000	64.104461 
5734.000000	64.118337 
5733.000000	64.140582 
5732.000000	64.155673 
5731.000000	64.147090 
5730.000000	64.103174 
5729.000000	64.020466 
5728.000000	63.904976 
5727.000000	63.771772 
5726.000000	63.640403 
5725.000000	63.531589 
5724.000000	63.461065 
5723.000000	63.437676 
5722.000000	63.460469 
5721.000000	63.521885 
5720.000000	63.610219 
5719.000000	63.713288 
5718.000000	63.821005 
5717.000000	63.926720 
5716.000000	64.026975 
5715.000000	64.120054 
5714.000000	64.204072 
5713.000000	64.276576 
5712.000000	64.334058 
5711.000000	64.373683 
5710.000000	64.394164 
5709.000000	64.397644 
5708.000000	64.389419 
5707.000000	64.377641 
5706.000000	64.370656 
5705.000000	64.375543 
5704.000000	64.394903 
5703.000000	64.426946 
5702.000000	64.464664 
5701.000000	64.498567 
5700.000000	64.518046 
5699.000000	64.514613 
5698.000000	64.483523 
5697.000000	64.425134 
5696.000000	64.345264 
5695.000000	64.252328 
5694.000000	64.158725 
5693.000000	64.077782 
5692.000000	64.023184 
5691.000000	64.006257 
5690.000000	64.034891 
5689.000000	64.112067 
5688.000000	64.234638 
5687.000000	64.393401 
5686.000000	64.573574 
5685.000000	64.756774 
5684.000000	64.923429 
5683.000000	65.055656 
5682.000000	65.139698 
5681.000000	65.167975 
5680.000000	65.140509 
5679.000000	65.064072 
5678.000000	64.951872 
5677.000000	64.819002 
5676.000000	64.682245 
5675.000000	64.553833 
5674.000000	64.441418 
5673.000000	64.344215 
5672.000000	64.257168 
5671.000000	64.169883 
5670.000000	64.071059 
5669.000000	63.951182 
5668.000000	63.804721 
5667.000000	63.633823 
5666.000000	63.447213 
5665.000000	63.261127 
5664.000000	63.093852 
5663.000000	62.965345 
5662.000000	62.892055 
5661.000000	62.885046 
5660.000000	62.946915 
5659.000000	63.072776 
5658.000000	63.250875 
5657.000000	63.463592 
5656.000000	63.690257 
5655.000000	63.909459 
5654.000000	64.102602 
5653.000000	64.254856 
5652.000000	64.358353 
5651.000000	64.413213 
5650.000000	64.426946 
5649.000000	64.413762 
5648.000000	64.389562 
5647.000000	64.369893 
5646.000000	64.363861 
5645.000000	64.375662 
5644.000000	64.400458 
5643.000000	64.427733 
5642.000000	64.442801 
5641.000000	64.433622 
5640.000000	64.391970 
5639.000000	64.316797 
5638.000000	64.213562 
5637.000000	64.093542 
5636.000000	63.969135 
5635.000000	63.850378 
5634.000000	63.743233 
5633.000000	63.648915 
5632.000000	63.565826 
5631.000000	63.491773 
5630.000000	63.427281 
5629.000000	63.376617 
5628.000000	63.346982 
5627.000000	63.346409 
5626.000000	63.379621 
5625.000000	63.446283 
5624.000000	63.539433 
5623.000000	63.646769 
5622.000000	63.751959 
5621.000000	63.839149 
5620.000000	63.897204 
5619.000000	63.921761 
5618.000000	63.915920 
5617.000000	63.888382 
5616.000000	63.850069 
5615.000000	63.811659 
5614.000000	63.780975 
5613.000000	63.761615 
5612.000000	63.753294 
5611.000000	63.752961 
5610.000000	63.758444 
5609.000000	63.767075 
5608.000000	63.777256 
5607.000000	63.787627 
5606.000000	63.797092 
5605.000000	63.804984 
5604.000000	63.811349 
5603.000000	63.817429 
5602.000000	63.825654 
5601.000000	63.840341 
5600.000000	63.866138 
5599.000000	63.907051 
5598.000000	63.964319 
5597.000000	64.035677 
5596.000000	64.114999 
5595.000000	64.192557 
5594.000000	64.258217 
5593.000000	64.303231 
5592.000000	64.324045 
5591.000000	64.322543 
5590.000000	64.307498 
5589.000000	64.292263 
5588.000000	64.292049 
5587.000000	64.320039 
5586.000000	64.384245 
5585.000000	64.486145 
5584.000000	64.618849 
5583.000000	64.769911 
5582.000000	64.921379 
5581.000000	65.054082 
5580.000000	65.149474 
5579.000000	65.193390 
5578.000000	65.176963 
5577.000000	65.098381 
5576.000000	64.962935 
5575.000000	64.782333 
5574.000000	64.572763 
5573.000000	64.352798 
5572.000000	64.142155 
5571.000000	63.958644 
5570.000000	63.816118 
5569.000000	63.722658 
5568.000000	63.679718 
5567.000000	63.682818 
5566.000000	63.722348 
5565.000000	63.786387 
5564.000000	63.860630 
5563.000000	63.933491 
5562.000000	63.996434 
5561.000000	64.045858 
5560.000000	64.080929 
5559.000000	64.103555 
5558.000000	64.116525 
5557.000000	64.121627 
5556.000000	64.118719 
5555.000000	64.106011 
5554.000000	64.080977 
5553.000000	64.042329 
5552.000000	63.991498 
5551.000000	63.934397 
5550.000000	63.881230 
5549.000000	63.845205 
5548.000000	63.839864 
5547.000000	63.876628 
5546.000000	63.961601 
5545.000000	64.093589 
5544.000000	64.262914 
5543.000000	64.452576 
5542.000000	64.640259 
5541.000000	64.803528 
5540.000000	64.922428 
5539.000000	64.982557 
5538.000000	64.977359 
5537.000000	64.909911 
5536.000000	64.790964 
5535.000000	64.636874 
5534.000000	64.466190 
5533.000000	64.297604 
5532.000000	64.146113 
5531.000000	64.022278 
5530.000000	63.931131 
5529.000000	63.873338 
5528.000000	63.846468 
5527.000000	63.846921 
5526.000000	63.870668 
5525.000000	63.913965 
5524.000000	63.972568 
5523.000000	64.041066 
5522.000000	64.112353 
5521.000000	64.177918 
5520.000000	64.228367 
5519.000000	64.255499 
5518.000000	64.254474 
5517.000000	64.225220 
5516.000000	64.172625 
5515.000000	64.106273 
5514.000000	64.038610 
5513.000000	63.982605 
5512.000000	63.949871 
5511.000000	63.947820 
5510.000000	63.977861 
5509.000000	64.035987 
5508.000000	64.114499 
5507.000000	64.203429 
5506.000000	64.292144 
5505.000000	64.372038 
5504.000000	64.437460 
5503.000000	64.486718 
5502.000000	64.520859 
5501.000000	64.543557 
5500.000000	64.559388 
5499.000000	64.573049 
5498.000000	64.588284 
5497.000000	64.607453 
5496.000000	64.631581 
5495.000000	64.661216 
5494.000000	64.696884 
5493.000000	64.740133 
5492.000000	64.793014 
5491.000000	64.857959 
5490.000000	64.935803 
5489.000000	65.024900 
5488.000000	65.119576 
5487.000000	65.210556 
5486.000000	65.285587 
5485.000000	65.332770 
5484.000000	65.342092 
5483.000000	65.309524 
5482.000000	65.236115 
5481.000000	65.129566 
5480.000000	65.000605 
5479.000000	64.862489 
5478.000000	64.725708 
5477.000000	64.596486 
5476.000000	64.475703 
5475.000000	64.360141 
5474.000000	64.245271 
5473.000000	64.128041 
5472.000000	64.009976 
5471.000000	63.897609 
5470.000000	63.802337 
5469.000000	63.737320 
5468.000000	63.713812 
5467.000000	63.737392 
5466.000000	63.806200 
5465.000000	63.910484 
5464.000000	64.033889 
5463.000000	64.156508 
5462.000000	64.259529 
5461.000000	64.328694 
5460.000000	64.355778 
5459.000000	64.340543 
5458.000000	64.289736 
5457.000000	64.215993 
5456.000000	64.133310 
5455.000000	64.056253 
5454.000000	63.997483 
5453.000000	63.966178 
5452.000000	63.967895 
5451.000000	64.003968 
5450.000000	64.072608 
5449.000000	64.168643 
5448.000000	64.284777 
5447.000000	64.411592 
5446.000000	64.538025 
5445.000000	64.653730 
5444.000000	64.750027 
5443.000000	64.820742 
5442.000000	64.862203 
5441.000000	64.874839 
5440.000000	64.862179 
5439.000000	64.829587 
5438.000000	64.782261 
5437.000000	64.724946 
5436.000000	64.660000 
5435.000000	64.588356 
5434.000000	64.508962 
5433.000000	64.420652 
5432.000000	64.323067 
5431.000000	64.218854 
5430.000000	64.112758 
5429.000000	64.011430 
5428.000000	63.921284 
5427.000000	63.846397 
5426.000000	63.788223 
5425.000000	63.744521 
5424.000000	63.711452 
5423.000000	63.683462 
5422.000000	63.657689 
5421.000000	63.634061 
5420.000000	63.617348 
5419.000000	63.615274 
5418.000000	63.636875 
5417.000000	63.688993 
5416.000000	63.774085 
5415.000000	63.888239 
5414.000000	64.021062 
5413.000000	64.156842 
5412.000000	64.278054 
5411.000000	64.368057 
5410.000000	64.414501 
5409.000000	64.411067 
5408.000000	64.357781 
5407.000000	64.261460 
5406.000000	64.133048 
5405.000000	63.988256 
5404.000000	63.844847 
5403.000000	63.721632 
5402.000000	63.637113 
5401.000000	63.606119 
5400.000000	63.637971 
5399.000000	63.733816 
5398.000000	63.886165 
5397.000000	64.079284 
5396.000000	64.290571 
5395.000000	64.495491 
5394.000000	64.670968 
5393.000000	64.800977 
5392.000000	64.878582 
5391.000000	64.907526 
5390.000000	64.899921 
5389.000000	64.873051 
5388.000000	64.844417 
5387.000000	64.827537 
5386.000000	64.828324 
5385.000000	64.844870 
5384.000000	64.867949 
5383.000000	64.885354 
5382.000000	64.884471 
5381.000000	64.855861 
5380.000000	64.795637 
5379.000000	64.705848 
5378.000000	64.594793 
5377.000000	64.474177 
5376.000000	64.357638 
5375.000000	64.258027 
5374.000000	64.185118 
5373.000000	64.144229 
5372.000000	64.135289 
5371.000000	64.154076 
5370.000000	64.192724 
5369.000000	64.241790 
5368.000000	64.291429 
5367.000000	64.332604 
5366.000000	64.358711 
5365.000000	64.365887 
5364.000000	64.352774 
5363.000000	64.319586 
5362.000000	64.269590 
5361.000000	64.208650 
5360.000000	64.143371 
5359.000000	64.080762 
5358.000000	64.028644 
5357.000000	63.995122 
5356.000000	63.986682 
5355.000000	64.008259 
5354.000000	64.062666 
5353.000000	64.150047 
5352.000000	64.266276 
5351.000000	64.403748 
5350.000000	64.552307 
5349.000000	64.699769 
5348.000000	64.833402 
5347.000000	64.941191 
5346.000000	65.012526 
5345.000000	65.040969 
5344.000000	65.026855 
5343.000000	64.975643 
5342.000000	64.897251 
5341.000000	64.803934 
5340.000000	64.710187 
5339.000000	64.625787 
5338.000000	64.555096 
5337.000000	64.494442 
5336.000000	64.434719 
5335.000000	64.362525 
5334.000000	64.264774 
5333.000000	64.133167 
5332.000000	63.966965 
5331.000000	63.772916 
5330.000000	63.563513 
5329.000000	63.353681 
5328.000000	63.156771 
5327.000000	62.980747 
5326.000000	62.827920 
5325.000000	62.692356 
5324.000000	62.567663 
5323.000000	62.448263 
5322.000000	62.337875 
5321.000000	62.247085 
5320.000000	62.196612 
5319.000000	62.209796 
5318.000000	62.308979 
5317.000000	62.505316 
5316.000000	62.796211 
5315.000000	63.162398 
5314.000000	63.569951 
5313.000000	63.974738 
5312.000000	64.332818 
5311.000000	64.608931 
5310.000000	64.784955 
5309.000000	64.862561 
5308.000000	64.863586 
5307.000000	64.822626 
5306.000000	64.780998 
5305.000000	64.774227 
5304.000000	64.820075 
5303.000000	64.912533 
5302.000000	65.027141 
5301.000000	65.126228 
5300.000000	65.167593 
5299.000000	65.118980 
5298.000000	64.969825 
5297.000000	64.736604 
5296.000000	64.457488 
5295.000000	64.185762 
5294.000000	63.978362 
5293.000000	63.878631 
5292.000000	63.906574 
5291.000000	64.050245 
5290.000000	64.270401 
5289.000000	64.507317 
5288.000000	64.698791 
5287.000000	64.791274 
5286.000000	64.751243 
5285.000000	64.575409 
5284.000000	64.289879 
5283.000000	63.944435 
5282.000000	63.598275 
5281.000000	63.316917 
5280.000000	63.158869 
5279.000000	63.166499 
5278.000000	63.359022 
5277.000000	63.731789 
5276.000000	64.258456 
5275.000000	64.893937 
5274.000000	65.584993 
5273.000000	66.276550 
5272.000000	66.923356 
5271.000000	67.492198 
5270.000000	67.966771 
5269.000000	68.349790 
5268.000000	68.651390 
5267.000000	68.887662 
5266.000000	69.063782 
5265.000000	69.178509 
5264.000000	69.212889 
5263.000000	69.145536 
5262.000000	68.949985 
5261.000000	68.612718 
5260.000000	68.133831 
5259.000000	67.538785 
5258.000000	66.868185 
5257.000000	66.174459 
5256.000000	65.509653 
5255.000000	64.917206 
5254.000000	64.427232 
5253.000000	64.054799 
5252.000000	63.804340 
5251.000000	63.672780 
5250.000000	63.653492 
5249.000000	63.736295 
5248.000000	63.906931 
5247.000000	64.142346 
5246.000000	64.406561 
5245.000000	64.651727 
5244.000000	64.818429 
5243.000000	64.849495 
5242.000000	64.702010 
5241.000000	64.360165 
5240.000000	63.840746 
5239.000000	63.193917 
5238.000000	62.496614 
5237.000000	61.835813 
5236.000000	61.291217 
5235.000000	60.918784 
5234.000000	60.739779 
5233.000000	60.741543 
5232.000000	60.883069 
5231.000000	61.110949 
5230.000000	61.372852 
5229.000000	61.631917 
5228.000000	61.871743 
5227.000000	62.096166 
5226.000000	62.320804 
5225.000000	62.563920 
5224.000000	62.836050 
5223.000000	63.133931 
5222.000000	63.439083 
5221.000000	63.725924 
5220.000000	63.967156 
5219.000000	64.143300 
5218.000000	64.246511 
5217.000000	64.284753 
5216.000000	64.277815 
5215.000000	64.250707 
5214.000000	64.228796 
5213.000000	64.231777 
5212.000000	64.271306 
5211.000000	64.351272 
5210.000000	64.467334 
5209.000000	64.615201 
5208.000000	64.784336 
5207.000000	64.961409 
5206.000000	65.128660 
5205.000000	65.267944 
5204.000000	65.359473 
5203.000000	65.384864 
5202.000000	65.331435 
5201.000000	65.196013 
5200.000000	64.984965 
5199.000000	64.714479 
5198.000000	64.405465 
5197.000000	64.080834 
5196.000000	63.763117 
5195.000000	63.472557 
5194.000000	63.222861 
5193.000000	63.023447 
5192.000000	62.880349 
5191.000000	62.799310 
5190.000000	62.782144 
5189.000000	62.831521 
5188.000000	62.948060 
5187.000000	63.131380 
5186.000000	63.372611 
5185.000000	63.659429 
5184.000000	63.973712 
5183.000000	64.294934 
5182.000000	64.601922 
5181.000000	64.874577 
5180.000000	65.096426 
5179.000000	65.255236 
5178.000000	65.345501 
5177.000000	65.366244 
5176.000000	65.321588 
5175.000000	65.218877 
5174.000000	65.068769 
5173.000000	64.882946 
5172.000000	64.674162 
5171.000000	64.455413 
5170.000000	64.239692 
5169.000000	64.039158 
5168.000000	63.864159 
5167.000000	63.723039 
5166.000000	63.620281 
5165.000000	63.554739 
5164.000000	63.520026 
5163.000000	63.505005 
5162.000000	63.496923 
5161.000000	63.480901 
5160.000000	63.447070 
5159.000000	63.389611 
5158.000000	63.312959 
5157.000000	63.228392 
5156.000000	63.154911 
5155.000000	63.112831 
5154.000000	63.120508 
5153.000000	63.189172 
5152.000000	63.319015 
5151.000000	63.497781 
5150.000000	63.703322 
5149.000000	63.908791 
5148.000000	64.086651 
5147.000000	64.214587 
5146.000000	64.278960 
5145.000000	64.277029 
5144.000000	64.215970 
5143.000000	64.110398 
5142.000000	63.977956 
5141.000000	63.835906 
5140.000000	63.699674 
5139.000000	63.581061 
5138.000000	63.487839 
5137.000000	63.424587 
5136.000000	63.394618 
5135.000000	63.400387 
5134.000000	63.442492 
5133.000000	63.520503 
5132.000000	63.630127 
5131.000000	63.765239 
5130.000000	63.916945 
5129.000000	64.075183 
5128.000000	64.229106 
5127.000000	64.368414 
5126.000000	64.484429 
5125.000000	64.570641 
5124.000000	64.623713 
5123.000000	64.642691 
5122.000000	64.629220 
5121.000000	64.587473 
5120.000000	64.523983 
5119.000000	64.447212 
5118.000000	64.367032 
5117.000000	64.292931 
5116.000000	64.232897 
5115.000000	64.193272 
5114.000000	64.177346 
5113.000000	64.184880 
5112.000000	64.211750 
5111.000000	64.250636 
5110.000000	64.291954 
5109.000000	64.325928 
5108.000000	64.343833 
5107.000000	64.338731 
5106.000000	64.307165 
5105.000000	64.248657 
5104.000000	64.167380 
5103.000000	64.070391 
5102.000000	63.968276 
5101.000000	63.872528 
5100.000000	63.795495 
5099.000000	63.748407 
5098.000000	63.739275 
5097.000000	63.771605 
5096.000000	63.842511 
5095.000000	63.943123 
5094.000000	64.058613 
5093.000000	64.170479 
5092.000000	64.259600 
5091.000000	64.309883 
5090.000000	64.311647 
5089.000000	64.263987 
5088.000000	64.174985 
5087.000000	64.060235 
5086.000000	63.940429 
5085.000000	63.836193 
5084.000000	63.764524 
5083.000000	63.734173 
5082.000000	63.745284 
5081.000000	63.788437 
5080.000000	63.848090 
5079.000000	63.905882 
5078.000000	63.945126 
5077.000000	63.955473 
5076.000000	63.933777 
5075.000000	63.886189 
5074.000000	63.824629 
5073.000000	63.765239 
5072.000000	63.722848 
5071.000000	63.708972 
5070.000000	63.728713 
5069.000000	63.780450 
5068.000000	63.856792 
5067.000000	63.947129 
5066.000000	64.040398 
5065.000000	64.127779 
5064.000000	64.204335 
5063.000000	64.268326 
5062.000000	64.320206 
5061.000000	64.361381 
5060.000000	64.392733 
5059.000000	64.412951 
5058.000000	64.419078 
5057.000000	64.408540 
5056.000000	64.380216 
5055.000000	64.337015 
5054.000000	64.285326 
5053.000000	64.234280 
5052.000000	64.194107 
5051.000000	64.174199 
5050.000000	64.180588 
5049.000000	64.213943 
5048.000000	64.269804 
5047.000000	64.339709 
5046.000000	64.413142 
5045.000000	64.480209 
5044.000000	64.533209 
5043.000000	64.568448 
5042.000000	64.585304 
5041.000000	64.585590 
5040.000000	64.571785 
5039.000000	64.546036 
5038.000000	64.508867 
5037.000000	64.459085 
5036.000000	64.394569 
5035.000000	64.313292 
5034.000000	64.213919 
5033.000000	64.097189 
5032.000000	63.965797 
5031.000000	63.825654 
5030.000000	63.685178 
5029.000000	63.555669 
5028.000000	63.448667 
5027.000000	63.376069 
5026.000000	63.347101 
5025.000000	63.367891 
5024.000000	63.438367 
5023.000000	63.553380 
5022.000000	63.702368 
5021.000000	63.871455 
5020.000000	64.044213 
5019.000000	64.205169 
5018.000000	64.341306 
5017.000000	64.444279 
5016.000000	64.510750 
5015.000000	64.542508 
5014.000000	64.545202 
5013.000000	64.526963 
5012.000000	64.496731 
5011.000000	64.463233 
5010.000000	64.433979 
5009.000000	64.415049 
5008.000000	64.410519 
5007.000000	64.422416 
5006.000000	64.450311 
5005.000000	64.492201 
5004.000000	64.544177 
5003.000000	64.600825 
5002.000000	64.655327 
5001.000000	64.701271 
5000.000000	64.732408 
4999.000000	64.743232 
4998.000000	64.729928 
4997.000000	64.691305 
4996.000000	64.628887 
4995.000000	64.546918 
4994.000000	64.452362 
4993.000000	64.354062 
4992.000000	64.261984 
4991.000000	64.186000 
4990.000000	64.133596 
4989.000000	64.108848 
4988.000000	64.111590 
4987.000000	64.137744 
4986.000000	64.179635 
4985.000000	64.227175 
4984.000000	64.270567 
4983.000000	64.302420 
4982.000000	64.318943 
4981.000000	64.320921 
4980.000000	64.313387 
4979.000000	64.303994 
4978.000000	64.301109 
4977.000000	64.311432 
4976.000000	64.338016 
4975.000000	64.379620 
4974.000000	64.431023 
4973.000000	64.484357 
4972.000000	64.531850 
4971.000000	64.567089 
4970.000000	64.586925 
4969.000000	64.591503 
4968.000000	64.583969 
4967.000000	64.568901 
4966.000000	64.550876 
4965.000000	64.533329 
4964.000000	64.517879 
4963.000000	64.504671 
4962.000000	64.493465 
4961.000000	64.483952 
4960.000000	64.476728 
4959.000000	64.473223 
4958.000000	64.475798 
4957.000000	64.485883 
4956.000000	64.503240 
4955.000000	64.525771 
4954.000000	64.549565 
4953.000000	64.570093 
4952.000000	64.583063 
4951.000000	64.586091 
4950.000000	64.578866 
4949.000000	64.563059 
4948.000000	64.541673 
4947.000000	64.517593 
4946.000000	64.493083 
4945.000000	64.469504 
4944.000000	64.447093 
4943.000000	64.425730 
4942.000000	64.404845 
4941.000000	64.385128 
4940.000000	64.367246 
4939.000000	64.352107 
4938.000000	64.340448 
4937.000000	64.332222 
4936.000000	64.326834 
4935.000000	64.322900 
4934.000000	64.319467 
4933.000000	64.316487 
4932.000000	64.315652 
4931.000000	64.320063 
4930.000000	64.334034 
4929.000000	64.361572 
4928.000000	64.405179 
4927.000000	64.464807 
4926.000000	64.537000 
4925.000000	64.615416 
4924.000000	64.692068 
4923.000000	64.758539 
4922.000000	64.808011 
4921.000000	64.835762 
4920.000000	64.840698 
4919.000000	64.824438 
4918.000000	64.790654 
4917.000000	64.744091 
4916.000000	64.689660 
4915.000000	64.631819 
4914.000000	64.574766 
4913.000000	64.521837 
4912.000000	64.476180 
4911.000000	64.440059 
4910.000000	64.415574 
4909.000000	64.403319 
4908.000000	64.402103 
4907.000000	64.408993 
4906.000000	64.419889 
4905.000000	64.430356 
4904.000000	64.436578 
4903.000000	64.437317 
4902.000000	64.434099 
4901.000000	64.431142 
4900.000000	64.434242 
4899.000000	64.448881 
4898.000000	64.478707 
4897.000000	64.523911 
4896.000000	64.581274 
4895.000000	64.645409 
4894.000000	64.709472 
4893.000000	64.767837 
4892.000000	64.815688 
4891.000000	64.851021 
4890.000000	64.872455 
4889.000000	64.879465 
4888.000000	64.870476 
4887.000000	64.843416 
4886.000000	64.795517 
4885.000000	64.724993 
4884.000000	64.631819 
4883.000000	64.519190 
4882.000000	64.393925 
4881.000000	64.266538 
4880.000000	64.148902 
4879.000000	64.052057 
4878.000000	63.984251 
4877.000000	63.949131 
4876.000000	63.945603 
4875.000000	63.968276 
4874.000000	64.009308 
4873.000000	64.060139 
4872.000000	64.113450 
4871.000000	64.164257 
4870.000000	64.210009 
4869.000000	64.249968 
4868.000000	64.284062 
4867.000000	64.311909 
4866.000000	64.332008 
4865.000000	64.341568 
4864.000000	64.337468 
4863.000000	64.316654 
4862.000000	64.277791 
4861.000000	64.221787 
4860.000000	64.152550 
4859.000000	64.076590 
4858.000000	64.001989 
4857.000000	63.937377 
4856.000000	63.890147 
4855.000000	63.865447 
4854.000000	63.865303 
4853.000000	63.888359 
4852.000000	63.930106 
4851.000000	63.983702 
4850.000000	64.041519 
4849.000000	64.095854 
4848.000000	64.140295 
4847.000000	64.170980 
4846.000000	64.186859 
4845.000000	64.190149 
4844.000000	64.185118 
4843.000000	64.177513 
4842.000000	64.172339 
4841.000000	64.172768 
4840.000000	64.178705 
4839.000000	64.186954 
4838.000000	64.191937 
4837.000000	64.188313 
4836.000000	64.172077 
4835.000000	64.142298 
4834.000000	64.101862 
4833.000000	64.056515 
4832.000000	64.013862 
4831.000000	63.981151 
4830.000000	63.963460 
4829.000000	63.961935 
4828.000000	63.974046 
4827.000000	63.994550 
4826.000000	64.016532 
4825.000000	64.033246 
4824.000000	64.039778 
4823.000000	64.034223 
4822.000000	64.017367 
4821.000000	63.992118 
4820.000000	63.962745 
4819.000000	63.933610 
4818.000000	63.908958 
4817.000000	63.891673 
4816.000000	63.883972 
4815.000000	63.886022 
4814.000000	63.896179 
4813.000000	63.910508 
4812.000000	63.923478 
4811.000000	63.929319 
4810.000000	63.922595 
4809.000000	63.900852 
4808.000000	63.864588 
4807.000000	63.818860 
4806.000000	63.771867 
4805.000000	63.733816 
4804.000000	63.714361 
4803.000000	63.720321 
4802.000000	63.753819 
4801.000000	63.811373 
4800.000000	63.884687 
4799.000000	63.962173 
4798.000000	64.031648 
4797.000000	64.083313 
4796.000000	64.111924 
4795.000000	64.118003 
4794.000000	64.107179 
4793.000000	64.088749 
4792.000000	64.073109 
4791.000000	64.069628 
4790.000000	64.084386 
4789.000000	64.119720 
4788.000000	64.173245 
4787.000000	64.239406 
4786.000000	64.310050 
4785.000000	64.377164 
4784.000000	64.433169 
4783.000000	64.473128 
4782.000000	64.494061 
4781.000000	64.495491 
4780.000000	64.478445 
4779.000000	64.445185 
4778.000000	64.398837 
4777.000000	64.343023 
4776.000000	64.282035 
4775.000000	64.221048 
4774.000000	64.165782 
4773.000000	64.122438 
4772.000000	64.095997 
4771.000000	64.089512 
4770.000000	64.103007 
4769.000000	64.133429 
4768.000000	64.175105 
4767.000000	64.220762 
4766.000000	64.262890 
4765.000000	64.295196 
4764.000000	64.314246 
4763.000000	64.319443 
4762.000000	64.312911 
4761.000000	64.298105 
4760.000000	64.278793 
4759.000000	64.257383 
4758.000000	64.234542 
4757.000000	64.209103 
4756.000000	64.179205 
4755.000000	64.142727 
4754.000000	64.098739 
4753.000000	64.047813 
4752.000000	63.992190 
4751.000000	63.935995 
4750.000000	63.883519 
4749.000000	63.840031 
4748.000000	63.810396 
4747.000000	63.798999 
4746.000000	63.808822 
4745.000000	63.841080 
4744.000000	63.894414 
4743.000000	63.965034 
4742.000000	64.046740 
4741.000000	64.131784 
4740.000000	64.212107 
4739.000000	64.280557 
4738.000000	64.331960 
4737.000000	64.364051 
4736.000000	64.377093 
4735.000000	64.373898 
4734.000000	64.358353 
4733.000000	64.334344 
4732.000000	64.304685 
4731.000000	64.271402 
4730.000000	64.235424 
4729.000000	64.197635 
4728.000000	64.159035 
4727.000000	64.122319 
4726.000000	64.090609 
4725.000000	64.066863 
4724.000000	64.052867 
4723.000000	64.048504 
4722.000000	64.051604 
4721.000000	64.058136 
4720.000000	64.063239 
4719.000000	64.062428 
4718.000000	64.052629 
4717.000000	64.033126 
4716.000000	64.005374 
4715.000000	63.972568 
4714.000000	63.939023 
4713.000000	63.909292 
4712.000000	63.887095 
4711.000000	63.874721 
4710.000000	63.873624 
4709.000000	63.884305 
4708.000000	63.906741 
4707.000000	63.940382 
4706.000000	63.984203 
4705.000000	64.036893 
4704.000000	64.096164 
4703.000000	64.159321 
4702.000000	64.223098 
4701.000000	64.283943 
4700.000000	64.339017 
4699.000000	64.385604 
4698.000000	64.421582 
4697.000000	64.445018 
4696.000000	64.454913 
4695.000000	64.450502 
4694.000000	64.431953 
4693.000000	64.399790 
4692.000000	64.355993 
4691.000000	64.302706 
4690.000000	64.242553 
4689.000000	64.178156 
4688.000000	64.112544 
4687.000000	64.048290 
4686.000000	63.988041 
4685.000000	63.934206 
4684.000000	63.889455 
4683.000000	63.856840 
4682.000000	63.839507 
4681.000000	63.839912 
4680.000000	63.859343 
4679.000000	63.897037 
4678.000000	63.950014 
4677.000000	64.012408 
4676.000000	64.076852 
4675.000000	64.136004 
4674.000000	64.183902 
4673.000000	64.216470 
4672.000000	64.232349 
4671.000000	64.232802 
4670.000000	64.221167 
4669.000000	64.201498 
4668.000000	64.178466 
4667.000000	64.156246 
4666.000000	64.138913 
4665.000000	64.130091 
4664.000000	64.132738 
4663.000000	64.148926 
4662.000000	64.179205 
4661.000000	64.222574 
4660.000000	64.275264 
4659.000000	64.331007 
4658.000000	64.381814 
4657.000000	64.419245 
4656.000000	64.436268 
4655.000000	64.428567 
4654.000000	64.395952 
4653.000000	64.341735 
4652.000000	64.272022 
4651.000000	64.193916 
4650.000000	64.113855 
4649.000000	64.036536 
4648.000000	63.964462 
4647.000000	63.898539 
4646.000000	63.838791 
4645.000000	63.785862 
4644.000000	63.741540 
4643.000000	63.709306 
4642.000000	63.692617 
4641.000000	63.695335 
4640.000000	63.719439 
4639.000000	63.765025 
4638.000000	63.828849 
4637.000000	63.905549 
4636.000000	63.987874 
4635.000000	64.068317 
4634.000000	64.139795 
4633.000000	64.196491 
4632.000000	64.234113 
4631.000000	64.249920 
4630.000000	64.242768 
4629.000000	64.213180 
4628.000000	64.163351 
4627.000000	64.097476 
4626.000000	64.021587 
4625.000000	63.943552 
4624.000000	63.871622 
4623.000000	63.814043 
4622.000000	63.777017 
4621.000000	63.763546 
4620.000000	63.772654 
4619.000000	63.799858 
4618.000000	63.838076 
4617.000000	63.878560 
4616.000000	63.913512 
4615.000000	63.937401 
4614.000000	63.948345 
4613.000000	63.947319 
4612.000000	63.938093 
4611.000000	63.925647 
4610.000000	63.914752 
4609.000000	63.908290 
4608.000000	63.907265 
4607.000000	63.910770 
4606.000000	63.916730 
4605.000000	63.922977 
4604.000000	63.927984 
4603.000000	63.931441 
4602.000000	63.934302 
4601.000000	63.938331 
4600.000000	63.944959 
4599.000000	63.954806 
4598.000000	63.967561 
4597.000000	63.982081 
4596.000000	63.996624 
4595.000000	64.009714 
4594.000000	64.020180 
4593.000000	64.027905 
4592.000000	64.033770 
4591.000000	64.039587 
4590.000000	64.047265 
4589.000000	64.059042 
4588.000000	64.076590 
4587.000000	64.101099 
4586.000000	64.132809 
4585.000000	64.171385 
4584.000000	64.215779 
4583.000000	64.264607 
4582.000000	64.316368 
4581.000000	64.369249 
4580.000000	64.421224 
4579.000000	64.469814 
4578.000000	64.512133 
4577.000000	64.545345 
4576.000000	64.566707 
4575.000000	64.573860 
4574.000000	64.564895 
4573.000000	64.539599 
4572.000000	64.498972 
4571.000000	64.445662 
4570.000000	64.383077 
4569.000000	64.315295 
4568.000000	64.246320 
4567.000000	64.180040 
4566.000000	64.120006 
4565.000000	64.068555 
4564.000000	64.027714 
4563.000000	63.999462 
4562.000000	63.985967 
4561.000000	63.988685 
4560.000000	64.008545 
4559.000000	64.045214 
4558.000000	64.096283 
4557.000000	64.156842 
4556.000000	64.219880 
4555.000000	64.276838 
4554.000000	64.319539 
4553.000000	64.341449 
4552.000000	64.340543 
4551.000000	64.319777 
4550.000000	64.287209 
4549.000000	64.254045 
4548.000000	64.232587 
4547.000000	64.232397 
4546.000000	64.258122 
4545.000000	64.307069 
4544.000000	64.369916 
4543.000000	64.431715 
4542.000000	64.476203 
4541.000000	64.488959 
4540.000000	64.460730 
4539.000000	64.390373 
4538.000000	64.284777 
4537.000000	64.157938 
4536.000000	64.026927 
4535.000000	63.909578 
4534.000000	63.820195 
4533.000000	63.767790 
4532.000000	63.754844 
4531.000000	63.777613 
4530.000000	63.828063 
4529.000000	63.895392 
4528.000000	63.968348 
4527.000000	64.036774 
4526.000000	64.092636 
4525.000000	64.130878 
4524.000000	64.149570 
4523.000000	64.149355 
4522.000000	64.132857 
4521.000000	64.104127 
4520.000000	64.068078 
4519.000000	64.030027 
4518.000000	63.994979 
4517.000000	63.967394 
4516.000000	63.950467 
4515.000000	63.946580 
4514.000000	63.956713 
4513.000000	63.980269 
4512.000000	64.015316 
4511.000000	64.058232 
4510.000000	64.104890 
4509.000000	64.150881 
4508.000000	64.192461 
4507.000000	64.226317 
4506.000000	64.250850 
4505.000000	64.265704 
4504.000000	64.272427 
4503.000000	64.274001 
4502.000000	64.273977 
4501.000000	64.275527 
4500.000000	64.281058 
4499.000000	64.292001 
4498.000000	64.308500 
4497.000000	64.329671 
4496.000000	64.354014 
4495.000000	64.379930 
4494.000000	64.406704 
4493.000000	64.434814 
4492.000000	64.465522 
4491.000000	64.500355 
4490.000000	64.540457 
4489.000000	64.585089 
4488.000000	64.632177 
4487.000000	64.676976 
4486.000000	64.713358 
4485.000000	64.734029 
4484.000000	64.732861 
4483.000000	64.705896 
4482.000000	64.652824 
4481.000000	64.577317 
4480.000000	64.486885 
4479.000000	64.392042 
4478.000000	64.304685 
4477.000000	64.235901 
4476.000000	64.193749 
4475.000000	64.182543 
4474.000000	64.202332 
4473.000000	64.248418 
4472.000000	64.312672 
4471.000000	64.384627 
4470.000000	64.453268 
4469.000000	64.508557 
4468.000000	64.543199 
4467.000000	64.554548 
4466.000000	64.544725 
4465.000000	64.519906 
4464.000000	64.488458 
4463.000000	64.459419 
4462.000000	64.439940 
4461.000000	64.434194 
4460.000000	64.442682 
4459.000000	64.463257 
4458.000000	64.491534 
4457.000000	64.523768 
4456.000000	64.555954 
4455.000000	64.584755 
4454.000000	64.607214 
4453.000000	64.621019 
4452.000000	64.624381 
4451.000000	64.615416 
4450.000000	64.593386 
4449.000000	64.559173 
4448.000000	64.515686 
4447.000000	64.467811 
4446.000000	64.421916 
4445.000000	64.384889 
4444.000000	64.360332 
4443.000000	64.347505 
4442.000000	64.341282 
4441.000000	64.333939 
4440.000000	64.315962 
4439.000000	64.279198 
4438.000000	64.223432 
4437.000000	64.155721 
4436.000000	64.083075 
4435.000000	64.014959 
4434.000000	63.958597 
4433.000000	63.921594 
4432.000000	63.914370 
4431.000000	63.946795 
4430.000000	64.022684 
4429.000000	64.141106 
4428.000000	64.299440 
4427.000000	64.488410 
4426.000000	64.686822 
4425.000000	64.871954 
4424.000000	65.029144 
4423.000000	65.146565 
4422.000000	65.210866 
4421.000000	65.222215 
4420.000000	65.197110 
4419.000000	65.158200 
4418.000000	65.131068 
4417.000000	65.130686 
4416.000000	65.160679 
4415.000000	65.225362 
4414.000000	65.336775 
4413.000000	65.533185 
4412.000000	65.866613 
4411.000000	66.408371 
4410.000000	67.203521 
4409.000000	68.236494 
4408.000000	69.409346 
4407.000000	70.545268 
4406.000000	71.421384 
4405.000000	71.831965 
4404.000000	71.624827 
4403.000000	70.781469 
4402.000000	69.371843 
4401.000000	67.560029 
4400.000000	65.519690 
4399.000000	63.404393 
4398.000000	61.291432 
4397.000000	59.175133 
4396.000000	57.002997 
4395.000000	54.716467 
4394.000000	52.326321 
4393.000000	49.943089 
4392.000000	47.789669 
4391.000000	46.156120 
4390.000000	45.335674 
4389.000000	45.539069 
4388.000000	46.818900 
4387.000000	49.038314 
4386.000000	51.894211 
4385.000000	54.981517 
4384.000000	57.880973 
4383.000000	60.253238 
4382.000000	61.902117 
4381.000000	62.805175 
4380.000000	63.083481 
4379.000000	62.956905 
4378.000000	62.665152 
4377.000000	62.407660 
4376.000000	62.307763 
4375.000000	62.389183 
4374.000000	62.619566 
4373.000000	62.913942 
4372.000000	63.213777 
4371.000000	63.471078 
4370.000000	63.674855 
4369.000000	63.836359 
4368.000000	63.976573 
4367.000000	64.112734 
4366.000000	64.238142 
4365.000000	64.341235 
4364.000000	64.410638 
4363.000000	64.436292 
4362.000000	64.415597 
4361.000000	64.358043 
4360.000000	64.284324 
4359.000000	64.216780 
4358.000000	64.174532 
4357.000000	64.168524 
4356.000000	64.198827 
4355.000000	64.260244 
4354.000000	64.342188 
4353.000000	64.425754 
4352.000000	64.491939 
4351.000000	64.535450 
4350.000000	64.558458 
4349.000000	64.561009 
4348.000000	64.547061 
4347.000000	64.522385 
4346.000000	64.494371 
4345.000000	64.472579 
4344.000000	64.464735 
4343.000000	64.476108 
4342.000000	64.506864 
4341.000000	64.552044 
4340.000000	64.602851 
4339.000000	64.649963 
4338.000000	64.683413 
4337.000000	64.695167 
4336.000000	64.679741 
4335.000000	64.635324 
4334.000000	64.562940 
4333.000000	64.466667 
4332.000000	64.353775 
4331.000000	64.233994 
4330.000000	64.118385 
4329.000000	64.017772 
4328.000000	63.941121 
4327.000000	63.894009 
4326.000000	63.878154 
4325.000000	63.891291 
4324.000000	63.927268 
4323.000000	63.977885 
4322.000000	64.033937 
4321.000000	64.087390 
4320.000000	64.131712 
4319.000000	64.163208 
4318.000000	64.180231 
4317.000000	64.183831 
4316.000000	64.176511 
4315.000000	64.161944 
4314.000000	64.143943 
4313.000000	64.125633 
4312.000000	64.109086 
4311.000000	64.094758 
4310.000000	64.082336 
4309.000000	64.070558 
4308.000000	64.058351 
4307.000000	64.044666 
4306.000000	64.029073 
4305.000000	64.011621 
4304.000000	63.993334 
4303.000000	63.975739 
4302.000000	63.961243 
4301.000000	63.952636 
4300.000000	63.953185 
4299.000000	63.966202 
4298.000000	63.994407 
4297.000000	64.038538 
4296.000000	64.097189 
4295.000000	64.166784 
4294.000000	64.241886 
4293.000000	64.315795 
4292.000000	64.381718 
4291.000000	64.434123 
4290.000000	64.469552 
4289.000000	64.487695 
4288.000000	64.490413 
4287.000000	64.481377 
4286.000000	64.464116 
4285.000000	64.441394 
4284.000000	64.414143 
4283.000000	64.381909 
4282.000000	64.343714 
4281.000000	64.298963 
4280.000000	64.248776 
4279.000000	64.196228 
4278.000000	64.145469 
4277.000000	64.101147 
4276.000000	64.066696 
4275.000000	64.044141 
4274.000000	64.033818 
4273.000000	64.034986 
4272.000000	64.046192 
4271.000000	64.065790 
4270.000000	64.092206 
4269.000000	64.123821 
4268.000000	64.158487 
4267.000000	64.193606 
4266.000000	64.225864 
4265.000000	64.251685 
4264.000000	64.267468 
4263.000000	64.270830 
4262.000000	64.261579 
4261.000000	64.241456 
4260.000000	64.214181 
4259.000000	64.184427 
4258.000000	64.157032 
4257.000000	64.135718 
4256.000000	64.122152 
4255.000000	64.116239 
4254.000000	64.116215 
4253.000000	64.119625 
4252.000000	64.124059 
4251.000000	64.127254 
4250.000000	64.127540 
4249.000000	64.123773 
4248.000000	64.115786 
4247.000000	64.103889 
4246.000000	64.089584 
4245.000000	64.075183 
4244.000000	64.063692 
4243.000000	64.058399 
4242.000000	64.061975 
4241.000000	64.076185 
4240.000000	64.100670 
4239.000000	64.133048 
4238.000000	64.168787 
4237.000000	64.202094 
4236.000000	64.227223 
4235.000000	64.239883 
4234.000000	64.238238 
4233.000000	64.223289 
4232.000000	64.198517 
4231.000000	64.169120 
4230.000000	64.140772 
4229.000000	64.118361 
4228.000000	64.105224 
4227.000000	64.102411 
4226.000000	64.109325 
4225.000000	64.124059 
4224.000000	64.143586 
4223.000000	64.164638 
4222.000000	64.183759 
4221.000000	64.198207 
4220.000000	64.206051 
4219.000000	64.206933 
4218.000000	64.201450 
4217.000000	64.191508 
4216.000000	64.180517 
4215.000000	64.172172 
4214.000000	64.169979 
4213.000000	64.175796 
4212.000000	64.189839 
4211.000000	64.209914 
4210.000000	64.231634 
4209.000000	64.249897 
4208.000000	64.259719 
4207.000000	64.258313 
4206.000000	64.245581 
4205.000000	64.224910 
4204.000000	64.202451 
4203.000000	64.185690 
4202.000000	64.181470 
4201.000000	64.194059 
4200.000000	64.223861 
4199.000000	64.267206 
4198.000000	64.317107 
4197.000000	64.364743 
4196.000000	64.401245 
4195.000000	64.420032 
4194.000000	64.417457 
4193.000000	64.393186 
4192.000000	64.349269 
4191.000000	64.289450 
4190.000000	64.217782 
4189.000000	64.138197 
4188.000000	64.054012 
4187.000000	63.968300 
4186.000000	63.883972 
4185.000000	63.804626 
4184.000000	63.734555 
4183.000000	63.677954 
4182.000000	63.638758 
4181.000000	63.619256 
4180.000000	63.619828 
4179.000000	63.637852 
4178.000000	63.668966 
4177.000000	63.707280 
4176.000000	63.746953 
4175.000000	63.782811 
4174.000000	63.811802 
4173.000000	63.833093 
4172.000000	63.847994 
4171.000000	63.859391 
4170.000000	63.870954 
4169.000000	63.885974 
4168.000000	63.907051 
4167.000000	63.935112 
4166.000000	63.969612 
4165.000000	64.007854 
4164.000000	64.046454 
4163.000000	64.080953 
4162.000000	64.107155 
4161.000000	64.121389 
4160.000000	64.121818 
4159.000000	64.108276 
4158.000000	64.082551 
4157.000000	64.047765 
4156.000000	64.008855 
4155.000000	63.970470 
4154.000000	63.936543 
4153.000000	63.909244 
4152.000000	63.889193 
4151.000000	63.875079 
4150.000000	63.864421 
4149.000000	63.854479 
4148.000000	63.843083 
4147.000000	63.829493 
4146.000000	63.814735 
4145.000000	63.800930 
4144.000000	63.790869 
4143.000000	63.787388 
4142.000000	63.792705 
4141.000000	63.807463 
4140.000000	63.830542 
4139.000000	63.859963 
4138.000000	63.893151 
4137.000000	63.927531 
4136.000000	63.960886 
4135.000000	63.991808 
4134.000000	64.019346 
4133.000000	64.042782 
4132.000000	64.061594 
4131.000000	64.075231 
4130.000000	64.083385 
4129.000000	64.085960 
4128.000000	64.083075 
4127.000000	64.075088 
4126.000000	64.062714 
4125.000000	64.047598 
4124.000000	64.031434 
4123.000000	64.015817 
4122.000000	64.002108 
4121.000000	63.991117 
4120.000000	63.982439 
4119.000000	63.974428 
4118.000000	63.964366 
4117.000000	63.949155 
4116.000000	63.926339 
4115.000000	63.894820 
4114.000000	63.855433 
4113.000000	63.811087 
4112.000000	63.766193 
4111.000000	63.726019 
4110.000000	63.695144 
4109.000000	63.676524 
4108.000000	63.670277 
4107.000000	63.674378 
4106.000000	63.684535 
4105.000000	63.696479 
4104.000000	63.706946 
4103.000000	63.715362 
4102.000000	63.723325 
4101.000000	63.734722 
4100.000000	63.754248 
4099.000000	63.785648 
4098.000000	63.829922 
4097.000000	63.885092 
4096.000000	63.946485 
4095.000000	64.007258 
4094.000000	64.060378 
4093.000000	64.099287 
4092.000000	64.119505 
4091.000000	64.119076 
4090.000000	64.099097 
4089.000000	64.062976 
4088.000000	64.016032 
4087.000000	63.964581 
4086.000000	63.915324 
4085.000000	63.874650 
4084.000000	63.847565 
4083.000000	63.838124 
4082.000000	63.847923 
4081.000000	63.876461 
4080.000000	63.920497 
4079.000000	63.974642 
4078.000000	64.031839 
4077.000000	64.084362 
4076.000000	64.124703 
4075.000000	64.146876 
4074.000000	64.147019 
4073.000000	64.124083 
4072.000000	64.079833 
4071.000000	64.018177 
4070.000000	63.945293 
4069.000000	63.868594 
4068.000000	63.795876 
4067.000000	63.734126 
4066.000000	63.688540 
4065.000000	63.662219 
4064.000000	63.655304 
4063.000000	63.665509 
4062.000000	63.688468 
4061.000000	63.719034 
4060.000000	63.751983 
4059.000000	63.783359 
4058.000000	63.810563 
4057.000000	63.832855 
4056.000000	63.850808 
4055.000000	63.865709 
4054.000000	63.878512 
4053.000000	63.889408 
4052.000000	63.897514 
4051.000000	63.900923 
4050.000000	63.897705 
4049.000000	63.885879 
4048.000000	63.864827 
4047.000000	63.834714 
4046.000000	63.797163 
4045.000000	63.754248 
4044.000000	63.708066 
4043.000000	63.660812 
4042.000000	63.614296 
4041.000000	63.570499 
4040.000000	63.531517 
4039.000000	63.500165 
4038.000000	63.479804 
4037.000000	63.474273 
4036.000000	63.487148 
4035.000000	63.520622 
4034.000000	63.574743 
4033.000000	63.646697 
4032.000000	63.730859 
4031.000000	63.819241 
4030.000000	63.902640 
4029.000000	63.972210 
4028.000000	64.020824 
4027.000000	64.044404 
4026.000000	64.042329 
4025.000000	64.017820 
4024.000000	63.976359 
4023.000000	63.925051 
4022.000000	63.870620 
4021.000000	63.819193 
4020.000000	63.774561 
4019.000000	63.738656 
4018.000000	63.711166 
4017.000000	63.690781 
4016.000000	63.675761 
4015.000000	63.664460 
4014.000000	63.655996 
4013.000000	63.650059 
4012.000000	63.647103 
4011.000000	63.647842 
4010.000000	63.652920 
4009.000000	63.662505 
4008.000000	63.676118 
4007.000000	63.692760 
4006.000000	63.711142 
4005.000000	63.729882 
4004.000000	63.747835 
4003.000000	63.764500 
4002.000000	63.779854 
4001.000000	63.794493 
4000.000000	63.809680 
3999.000000	63.826751 
3998.000000	63.846802 
3997.000000	63.870048 
3996.000000	63.896155 
3995.000000	63.923549 
3994.000000	63.950109 
3993.000000	63.972735 
3992.000000	63.988351 
3991.000000	63.994002 
3990.000000	63.988041 
3989.000000	63.969516 
3988.000000	63.938450 
3987.000000	63.896107 
3986.000000	63.844919 
3985.000000	63.788294 
3984.000000	63.730597 
3983.000000	63.676524 
3982.000000	63.630843 
3981.000000	63.597798 
3980.000000	63.580369 
3979.000000	63.579893 
3978.000000	63.595461 
3977.000000	63.624262 
3976.000000	63.661932 
3975.000000	63.702917 
3974.000000	63.741850 
3973.000000	63.774204 
3972.000000	63.797235 
3971.000000	63.809871 
3970.000000	63.813304 
3969.000000	63.809919 
3968.000000	63.803195 
3967.000000	63.796567 
3966.000000	63.793182 
3965.000000	63.795423 
3964.000000	63.804602 
3963.000000	63.821029 
3962.000000	63.843560 
3961.000000	63.869905 
3960.000000	63.896703 
3959.000000	63.920211 
3958.000000	63.936686 
3957.000000	63.943123 
3956.000000	63.938021 
3955.000000	63.921570 
3954.000000	63.895416 
3953.000000	63.862180 
3952.000000	63.825440 
3951.000000	63.788461 
3950.000000	63.753795 
3949.000000	63.722801 
3948.000000	63.695907 
3947.000000	63.673067 
3946.000000	63.653779 
3945.000000	63.637733 
3944.000000	63.625073 
3943.000000	63.616418 
3942.000000	63.612675 
3941.000000	63.614797 
3940.000000	63.622760 
3939.000000	63.636136 
3938.000000	63.654017 
3937.000000	63.675093 
3936.000000	63.697719 
3935.000000	63.720154 
3934.000000	63.740706 
3933.000000	63.757705 
3932.000000	63.769626 
3931.000000	63.775610 
3930.000000	63.775682 
3929.000000	63.770651 
3928.000000	63.762164 
3927.000000	63.752722 
3926.000000	63.745260 
3925.000000	63.742637 
3924.000000	63.747525 
3923.000000	63.761782 
3922.000000	63.786196 
3921.000000	63.820719 
3920.000000	63.863754 
3919.000000	63.912200 
3918.000000	63.961505 
3917.000000	64.006543 
3916.000000	64.041948 
3915.000000	64.062738 
3914.000000	64.065551 
3913.000000	64.049220 
3912.000000	64.015269 
3911.000000	63.967895 
3910.000000	63.913059 
3909.000000	63.857674 
3908.000000	63.807463 
3907.000000	63.766193 
3906.000000	63.734436 
3905.000000	63.709926 
3904.000000	63.688874 
3903.000000	63.667464 
3902.000000	63.642978 
3901.000000	63.614988 
3900.000000	63.585972 
3899.000000	63.560962 
3898.000000	63.545274 
3897.000000	63.543963 
3896.000000	63.560128 
3895.000000	63.594317 
3894.000000	63.644337 
3893.000000	63.705611 
3892.000000	63.772368 
3891.000000	63.838458 
3890.000000	63.898706 
3889.000000	63.949155 
3888.000000	63.987231 
3887.000000	64.011812 
3886.000000	64.022946 
3885.000000	64.021873 
3884.000000	64.010763 
3883.000000	63.992500 
3882.000000	63.970923 
3881.000000	63.949346 
3880.000000	63.930416 
3879.000000	63.915014 
3878.000000	63.902544 
3877.000000	63.890051 
3876.000000	63.873028 
3875.000000	63.846635 
3874.000000	63.807201 
3873.000000	63.752985 
3872.000000	63.685321 
3871.000000	63.608598 
3870.000000	63.530015 
3869.000000	63.458085 
3868.000000	63.401484 
3867.000000	63.366985 
3866.000000	63.358569 
3865.000000	63.376808 
3864.000000	63.418960 
3863.000000	63.479304 
3862.000000	63.550782 
3861.000000	63.625860 
3860.000000	63.697910 
3859.000000	63.761162 
3858.000000	63.811802 
3857.000000	63.847923 
3856.000000	63.869404 
3855.000000	63.877224 
3854.000000	63.873815 
3853.000000	63.862490 
3852.000000	63.847208 
3851.000000	63.832187 
3850.000000	63.821411 
3849.000000	63.818144 
3848.000000	63.824295 
3847.000000	63.840246 
3846.000000	63.864374 
3845.000000	63.893413 
3844.000000	63.923168 
3843.000000	63.949346 
3842.000000	63.968157 
3841.000000	63.977241 
3840.000000	63.976144 
3839.000000	63.966321 
3838.000000	63.950181 
3837.000000	63.930821 
3836.000000	63.911557 
3835.000000	63.894796 
3834.000000	63.882184 
3833.000000	63.873767 
3832.000000	63.868927 
3831.000000	63.865637 
3830.000000	63.861894 
3829.000000	63.854980 
3828.000000	63.842272 
3827.000000	63.821530 
3826.000000	63.791632 
3825.000000	63.752627 
3824.000000	63.705825 
3823.000000	63.653898 
3822.000000	63.600564 
3821.000000	63.550114 
3820.000000	63.506841 
3819.000000	63.474273 
3818.000000	63.454842 
3817.000000	63.449406 
3816.000000	63.457512 
3815.000000	63.477373 
3814.000000	63.506770 
3813.000000	63.542819 
3812.000000	63.582849 
3811.000000	63.624477 
3810.000000	63.665604 
3809.000000	63.703894 
3808.000000	63.737130 
3807.000000	63.762950 
3806.000000	63.778877 
3805.000000	63.783216 
3804.000000	63.774847 
3803.000000	63.753938 
3802.000000	63.722085 
3801.000000	63.682746 
3800.000000	63.640570 
3799.000000	63.600730 
3798.000000	63.568401 
3797.000000	63.547849 
3796.000000	63.541626 
3795.000000	63.550043 
3794.000000	63.571596 
3793.000000	63.603115 
3792.000000	63.640236 
3791.000000	63.678359 
3790.000000	63.713359 
3789.000000	63.742256 
3788.000000	63.762998 
3787.000000	63.774776 
3786.000000	63.777756 
3785.000000	63.772845 
3784.000000	63.761258 
3783.000000	63.744497 
3782.000000	63.724184 
3781.000000	63.701891 
3780.000000	63.679409 
3779.000000	63.658475 
3778.000000	63.640594 
3777.000000	63.627052 
3776.000000	63.618755 
3775.000000	63.616156 
3774.000000	63.618850 
3773.000000	63.626241 
3772.000000	63.637542 
3771.000000	63.652014 
3770.000000	63.668823 
3769.000000	63.687515 
3768.000000	63.707756 
3767.000000	63.729143 
3766.000000	63.751363 
3765.000000	63.773941 
3764.000000	63.796257 
3763.000000	63.817572 
3762.000000	63.837003 
3761.000000	63.853883 
3760.000000	63.867735 
3759.000000	63.878369 
3758.000000	63.885688 
3757.000000	63.890290 
3756.000000	63.892889 
3755.000000	63.894701 
3754.000000	63.896727 
3753.000000	63.899755 
3752.000000	63.903832 
3751.000000	63.908624 
3750.000000	63.912701 
3749.000000	63.914036 
3748.000000	63.910102 
3747.000000	63.898634 
3746.000000	63.878059 
3745.000000	63.847947 
3744.000000	63.809275 
3743.000000	63.764619 
3742.000000	63.717460 
3741.000000	63.671660 
3740.000000	63.630747 
3739.000000	63.597297 
3738.000000	63.572335 
3737.000000	63.555431 
3736.000000	63.544535 
3735.000000	63.537168 
3734.000000	63.530731 
3733.000000	63.523602 
3732.000000	63.514709 
3731.000000	63.504457 
3730.000000	63.494110 
3729.000000	63.486027 
3728.000000	63.482117 
3727.000000	63.483977 
3726.000000	63.492536 
3725.000000	63.507676 
3724.000000	63.528394 
3723.000000	63.552856 
3722.000000	63.578605 
3721.000000	63.603115 
3720.000000	63.624072 
3719.000000	63.639926 
3718.000000	63.649940 
3717.000000	63.654804 
3716.000000	63.656210 
3715.000000	63.656973 
3714.000000	63.660168 
3713.000000	63.668680 
3712.000000	63.684415 
3711.000000	63.707470 
3710.000000	63.735866 
3709.000000	63.765931 
3708.000000	63.792681 
3707.000000	63.810443 
3706.000000	63.814234 
3705.000000	63.800787 
3704.000000	63.769531 
3703.000000	63.722968 
3702.000000	63.666081 
3701.000000	63.605690 
3700.000000	63.549041 
3699.000000	63.502645 
3698.000000	63.470864 
3697.000000	63.455367 
3696.000000	63.455295 
3695.000000	63.467788 
3694.000000	63.488841 
3693.000000	63.514018 
3692.000000	63.539457 
3691.000000	63.562011 
3690.000000	63.579416 
3689.000000	63.590025 
3688.000000	63.592863 
3687.000000	63.587594 
3686.000000	63.574719 
3685.000000	63.555312 
3684.000000	63.531613 
3683.000000	63.506484 
3682.000000	63.483595 
3681.000000	63.466358 
3680.000000	63.457417 
3679.000000	63.458037 
3678.000000	63.467574 
3677.000000	63.483524 
3676.000000	63.502311 
3675.000000	63.519811 
3674.000000	63.532137 
3673.000000	63.536620 
3672.000000	63.531923 
3671.000000	63.518428 
3670.000000	63.497900 
3669.000000	63.473153 
3668.000000	63.447237 
3667.000000	63.423156 
3666.000000	63.403511 
3665.000000	63.389945 
3664.000000	63.383126 
3663.000000	63.382840 
3662.000000	63.387942 
3661.000000	63.397192 
3660.000000	63.409495 
3659.000000	63.423871 
3658.000000	63.439655 
3657.000000	63.456630 
3656.000000	63.474798 
3655.000000	63.494062 
3654.000000	63.513922 
3653.000000	63.533282 
3652.000000	63.550448 
3651.000000	63.563609 
3650.000000	63.571238 
3649.000000	63.572239 
3648.000000	63.566541 
3647.000000	63.555550 
3646.000000	63.541507 
3645.000000	63.527297 
3644.000000	63.515424 
3643.000000	63.507747 
3642.000000	63.504672 
3641.000000	63.505625 
3640.000000	63.508582 
3639.000000	63.511013 
3638.000000	63.510227 
3637.000000	63.504219 
3636.000000	63.491821 
3635.000000	63.473176 
3634.000000	63.449311 
3633.000000	63.422036 
3632.000000	63.393521 
3631.000000	63.365888 
3630.000000	63.341069 
3629.000000	63.320732 
3628.000000	63.306164 
3627.000000	63.298678 
3626.000000	63.299608 
3625.000000	63.310313 
3624.000000	63.331842 
3623.000000	63.364553 
3622.000000	63.407945 
3621.000000	63.459968 
3620.000000	63.517165 
3619.000000	63.574433 
3618.000000	63.626098 
3617.000000	63.666105 
3616.000000	63.689303 
3615.000000	63.691949 
3614.000000	63.672685 
3613.000000	63.632488 
3612.000000	63.575077 
3611.000000	63.506126 
3610.000000	63.432717 
3609.000000	63.362312 
3608.000000	63.301849 
3607.000000	63.256716 
3606.000000	63.229990 
3605.000000	63.222312 
3604.000000	63.231873 
3603.000000	63.254976 
3602.000000	63.286828 
3601.000000	63.322257 
3600.000000	63.356637 
3599.000000	63.386273 
3598.000000	63.408946 
3597.000000	63.423705 
3596.000000	63.430690 
3595.000000	63.430762 
3594.000000	63.425064 
3593.000000	63.414669 
3592.000000	63.400411 
3591.000000	63.383293 
3590.000000	63.363933 
3589.000000	63.343167 
3588.000000	63.321805 
3587.000000	63.300895 
3586.000000	63.281559 
3585.000000	63.264584 
3584.000000	63.251018 
3583.000000	63.242030 
3582.000000	63.238835 
3581.000000	63.242387 
3580.000000	63.253116 
3579.000000	63.270235 
3578.000000	63.292217 
3577.000000	63.316726 
3576.000000	63.340997 
3575.000000	63.362073 
3574.000000	63.377690 
3573.000000	63.386368 
3572.000000	63.387703 
3571.000000	63.382029 
3570.000000	63.370299 
3569.000000	63.353514 
3568.000000	63.332939 
3567.000000	63.309502 
3566.000000	63.284444 
3565.000000	63.258695 
3564.000000	63.233494 
3563.000000	63.209891 
3562.000000	63.188982 
3561.000000	63.171195 
3560.000000	63.156175 
3559.000000	63.142943 
3558.000000	63.129973 
3557.000000	63.116359 
3556.000000	63.102006 
3555.000000	63.088321 
3554.000000	63.077998 
3553.000000	63.074374 
3552.000000	63.080263 
3551.000000	63.096809 
3550.000000	63.122916 
3549.000000	63.155007 
3548.000000	63.187623 
3547.000000	63.214659 
3546.000000	63.230800 
3545.000000	63.232946 
3544.000000	63.221049 
3543.000000	63.197922 
3542.000000	63.169026 
3541.000000	63.140630 
3540.000000	63.118624 
3539.000000	63.107228 
3538.000000	63.107943 
3537.000000	63.119554 
3536.000000	63.138699 
3535.000000	63.161134 
3534.000000	63.182473 
3533.000000	63.198995 
3532.000000	63.208389 
3531.000000	63.210105 
3530.000000	63.204979 
3529.000000	63.194465 
3528.000000	63.180494 
3527.000000	63.165020 
3526.000000	63.149476 
3525.000000	63.134694 
3524.000000	63.120889 
3523.000000	63.107943 
3522.000000	63.095569 
3521.000000	63.083457 
3520.000000	63.071346 
3519.000000	63.059258 
3518.000000	63.047361 
3517.000000	63.036370 
3516.000000	63.026714 
3515.000000	63.019251 
3514.000000	63.014721 
3513.000000	63.014125 
3512.000000	63.017868 
3511.000000	63.026571 
3510.000000	63.040304 
3509.000000	63.059306 
3508.000000	63.083314 
3507.000000	63.112449 
3506.000000	63.146567 
3505.000000	63.185548 
3504.000000	63.228821 
3503.000000	63.275218 
3502.000000	63.322997 
3501.000000	63.369297 
3500.000000	63.410854 
3499.000000	63.443803 
3498.000000	63.464760 
3497.000000	63.471293 
3496.000000	63.462424 
3495.000000	63.438844 
3494.000000	63.402938 
3493.000000	63.358545 
3492.000000	63.310217 
3491.000000	63.262605 
3490.000000	63.219618 
3489.000000	63.184404 
3488.000000	63.158607 
3487.000000	63.142728 
3486.000000	63.136100 
3485.000000	63.137245 
3484.000000	63.144397 
3483.000000	63.155579 
3482.000000	63.169145 
3481.000000	63.183283 
3480.000000	63.196587 
3479.000000	63.208031 
3478.000000	63.216948 
3477.000000	63.222813 
3476.000000	63.225626 
3475.000000	63.225579 
3474.000000	63.223004 
3473.000000	63.218307 
3472.000000	63.211965 
3471.000000	63.204288 
3470.000000	63.195466 
3469.000000	63.185715 
3468.000000	63.175392 
3467.000000	63.165235 
3466.000000	63.156342 
3465.000000	63.150095 
3464.000000	63.147830 
3463.000000	63.150620 
3462.000000	63.158988 
3461.000000	63.172388 
3460.000000	63.188934 
3459.000000	63.205599 
3458.000000	63.219094 
3457.000000	63.226079 
3456.000000	63.224053 
3455.000000	63.211846 
3454.000000	63.190150 
3453.000000	63.161587 
3452.000000	63.130211 
3451.000000	63.100814 
3450.000000	63.077759 
3449.000000	63.064551 
3448.000000	63.063049 
3447.000000	63.073182 
3446.000000	63.093042 
3445.000000	63.119220 
3444.000000	63.147521 
3443.000000	63.173580 
3442.000000	63.193750 
3441.000000	63.205409 
3440.000000	63.207530 
3439.000000	63.200545 
3438.000000	63.186311 
3437.000000	63.167881 
3436.000000	63.148784 
3435.000000	63.132834 
3434.000000	63.123250 
3433.000000	63.122582 
3432.000000	63.131713 
3431.000000	63.150238 
3430.000000	63.175725 
3429.000000	63.204574 
3428.000000	63.231921 
3427.000000	63.252782 
3426.000000	63.262748 
3425.000000	63.258862 
3424.000000	63.240432 
3423.000000	63.209080 
3422.000000	63.168597 
3421.000000	63.124299 
3420.000000	63.082003 
3419.000000	63.046932 
3418.000000	63.022685 
3417.000000	63.010430 
3416.000000	63.008999 
3415.000000	63.015317 
3414.000000	63.025021 
3413.000000	63.033843 
3412.000000	63.038182 
3411.000000	63.036227 
3410.000000	63.027667 
3409.000000	63.014030 
3408.000000	62.997746 
3407.000000	62.981486 
3406.000000	62.967658 
3405.000000	62.957572 
3404.000000	62.951612 
3403.000000	62.948799 
3402.000000	62.947607 
3401.000000	62.945771 
3400.000000	62.941384 
3399.000000	62.932896 
3398.000000	62.919449 
3397.000000	62.901163 
3396.000000	62.878918 
3395.000000	62.854480 
3394.000000	62.829923 
3393.000000	62.807631 
3392.000000	62.789797 
3391.000000	62.778186 
3390.000000	62.773871 
3389.000000	62.777185 
3388.000000	62.787747 
3387.000000	62.804627 
3386.000000	62.826323 
3385.000000	62.851262 
3384.000000	62.877798 
3383.000000	62.904191 
3382.000000	62.928867 
3381.000000	62.950325 
3380.000000	62.967228 
3379.000000	62.978625 
3378.000000	62.984108 
3377.000000	62.983942 
3376.000000	62.979340 
3375.000000	62.972187 
3374.000000	62.965011 
3373.000000	62.960839 
3372.000000	62.962269 
3371.000000	62.971234 
3370.000000	62.988495 
3369.000000	63.013458 
3368.000000	63.043904 
3367.000000	63.076734 
3366.000000	63.107943 
3365.000000	63.133549 
3364.000000	63.149976 
3363.000000	63.154673 
3362.000000	63.146424 
3361.000000	63.125777 
3360.000000	63.094925 
3359.000000	63.057446 
3358.000000	63.017916 
3357.000000	62.980937 
3356.000000	62.950754 
3355.000000	62.930297 
3354.000000	62.920761 
3353.000000	62.921500 
3352.000000	62.930321 
3351.000000	62.944197 
3350.000000	62.959647 
3349.000000	62.973690 
3348.000000	62.984204 
3347.000000	62.990307 
3346.000000	62.992024 
3345.000000	62.989783 
3344.000000	62.984156 
3343.000000	62.975335 
3342.000000	62.963128 
3341.000000	62.947177 
3340.000000	62.927460 
3339.000000	62.904453 
3338.000000	62.879443 
3337.000000	62.854194 
3336.000000	62.830686 
3335.000000	62.810444 
3334.000000	62.794065 
3333.000000	62.781023 
3332.000000	62.770009 
3331.000000	62.759184 
3330.000000	62.747001 
3329.000000	62.732720 
3328.000000	62.716865 
3327.000000	62.701177 
3326.000000	62.688255 
3325.000000	62.680244 
3324.000000	62.678813 
3323.000000	62.684154 
3322.000000	62.695360 
3321.000000	62.710309 
3320.000000	62.726473 
3319.000000	62.741684 
3318.000000	62.754416 
3317.000000	62.764024 
3316.000000	62.770676 
3315.000000	62.774729 
3314.000000	62.776803 
3313.000000	62.777233 
3312.000000	62.775969 
3311.000000	62.772703 
3310.000000	62.766957 
3309.000000	62.758374 
3308.000000	62.747001 
3307.000000	62.733411 
3306.000000	62.718844 
3305.000000	62.704896 
3304.000000	62.693285 
3303.000000	62.685775 
3302.000000	62.683677 
3301.000000	62.687849 
3300.000000	62.698435 
3299.000000	62.715029 
3298.000000	62.736463 
3297.000000	62.761378 
3296.000000	62.788009 
3295.000000	62.814784 
3294.000000	62.840414 
3293.000000	62.863898 
3292.000000	62.884879 
3291.000000	62.902927 
3290.000000	62.917852 
3289.000000	62.929058 
3288.000000	62.935638 
3287.000000	62.936377 
3286.000000	62.930345 
3285.000000	62.916970 
3284.000000	62.896585 
3283.000000	62.870311 
3282.000000	62.840223 
3281.000000	62.808918 
3280.000000	62.779188 
3279.000000	62.753272 
3278.000000	62.732529 
3277.000000	62.717199 
3276.000000	62.706661 
3275.000000	62.699460 
3274.000000	62.694358 
3273.000000	62.690019 
3272.000000	62.686061 
3271.000000	62.682867 
3270.000000	62.681388 
3269.000000	62.682723 
3268.000000	62.687492 
3267.000000	62.695765 
3266.000000	62.706613 
3265.000000	62.718057 
3264.000000	62.727665 
3263.000000	62.733030 
3262.000000	62.732338 
3261.000000	62.724733 
3260.000000	62.710833 
3259.000000	62.692523 
3258.000000	62.672734 
3257.000000	62.654924 
3256.000000	62.642526 
3255.000000	62.638092 
3254.000000	62.643074 
3253.000000	62.657427 
3252.000000	62.679481 
3251.000000	62.706184 
3250.000000	62.733602 
3249.000000	62.757396 
3248.000000	62.773323 
3247.000000	62.778067 
3246.000000	62.769722 
3245.000000	62.748384 
3244.000000	62.715959 
3243.000000	62.675952 
3242.000000	62.633228 
3241.000000	62.592792 
3240.000000	62.558913 
3239.000000	62.534475 
3238.000000	62.520384 
3237.000000	62.515664 
3236.000000	62.517595 
3235.000000	62.522912 
3234.000000	62.528228 
3233.000000	62.531328 
3232.000000	62.531232 
3231.000000	62.528538 
3230.000000	62.524604 
3229.000000	62.521243 
3228.000000	62.519693 
3227.000000	62.520194 
3226.000000	62.521648 
3225.000000	62.522172 
3224.000000	62.519669 
3223.000000	62.512469 
3222.000000	62.500047 
3221.000000	62.483239 
3220.000000	62.464237 
3219.000000	62.445759 
3218.000000	62.430930 
3217.000000	62.422299 
3216.000000	62.421751 
3215.000000	62.429666 
3214.000000	62.445282 
3213.000000	62.467026 
3212.000000	62.492656 
3211.000000	62.519836 
3210.000000	62.546515 
3209.000000	62.570810 
3208.000000	62.591600 
3207.000000	62.608242 
3206.000000	62.620520 
3205.000000	62.628531 
3204.000000	62.632322 
3203.000000	62.632203 
3202.000000	62.628078 
3201.000000	62.619662 
3200.000000	62.606549 
3199.000000	62.588548 
3198.000000	62.565946 
3197.000000	62.539601 
3196.000000	62.511181 
3195.000000	62.482929 
3194.000000	62.457275 
3193.000000	62.436270 
3192.000000	62.421154 
3191.000000	62.412071 
3190.000000	62.408041 
3189.000000	62.407255 
3188.000000	62.407469 
3187.000000	62.406802 
3186.000000	62.403726 
3185.000000	62.398028 
3184.000000	62.390184 
3183.000000	62.381696 
3182.000000	62.374210 
3181.000000	62.369489 
3180.000000	62.368655 
3179.000000	62.372303 
3178.000000	62.380528 
3177.000000	62.392807 
3176.000000	62.408208 
3175.000000	62.425637 
3174.000000	62.443923 
3173.000000	62.461638 
3172.000000	62.477469 
3171.000000	62.490010 
3170.000000	62.498331 
3169.000000	62.502026 
3168.000000	62.501215 
3167.000000	62.496995 
3166.000000	62.490940 
3165.000000	62.485146 
3164.000000	62.481594 
3163.000000	62.481808 
3162.000000	62.486457 
3161.000000	62.495350 
3160.000000	62.507414 
3159.000000	62.521123 
3158.000000	62.534785 
3157.000000	62.547230 
3156.000000	62.557625 
3155.000000	62.565898 
3154.000000	62.572145 
3153.000000	62.576627 
3152.000000	62.579441 
3151.000000	62.580490 
3150.000000	62.579321 
3149.000000	62.575507 
3148.000000	62.568926 
3147.000000	62.560057 
3146.000000	62.549924 
3145.000000	62.539815 
3144.000000	62.530875 
3143.000000	62.523841 
3142.000000	62.518358 
3141.000000	62.513208 
3140.000000	62.506771 
3139.000000	62.497377 
3138.000000	62.483882 
3137.000000	62.466549 
3136.000000	62.447023 
3135.000000	62.428379 
3134.000000	62.414073 
3133.000000	62.407565 
3132.000000	62.411284 
3131.000000	62.425684 
3130.000000	62.449359 
3129.000000	62.478756 
3128.000000	62.509226 
3127.000000	62.535595 
3126.000000	62.553381 
3125.000000	62.559223 
3124.000000	62.551474 
3123.000000	62.530279 
3122.000000	62.497472 
3121.000000	62.456345 
3120.000000	62.410879 
3119.000000	62.365317 
3118.000000	62.323594 
3117.000000	62.288928 
3116.000000	62.263369 
3115.000000	62.247610 
3114.000000	62.241148 
3113.000000	62.242388 
3112.000000	62.249183 
3111.000000	62.259101 
3110.000000	62.269830 
3109.000000	62.279272 
3108.000000	62.285947 
3107.000000	62.288784 
3106.000000	62.287378 
3105.000000	62.281751 
3104.000000	62.272548 
3103.000000	62.260794 
3102.000000	62.248110 
3101.000000	62.236380 
3100.000000	62.227821 
3099.000000	62.224507 
3098.000000	62.228083 
3097.000000	62.239170 
3096.000000	62.257075 
3095.000000	62.279772 
3094.000000	62.304043 
3093.000000	62.326169 
3092.000000	62.342476 
3091.000000	62.349939 
3090.000000	62.346959 
3089.000000	62.333631 
3088.000000	62.311768 
3087.000000	62.284612 
3086.000000	62.256169 
3085.000000	62.230491 
3084.000000	62.210941 
3083.000000	62.199640 
3082.000000	62.197208 
3081.000000	62.202763 
3080.000000	62.214159 
3079.000000	62.228822 
3078.000000	62.244176 
3077.000000	62.258362 
3076.000000	62.270283 
3075.000000	62.280154 
3074.000000	62.288761 
3073.000000	62.297368 
3072.000000	62.307143 
3071.000000	62.318301 
3070.000000	62.330079 
3069.000000	62.340497 
3068.000000	62.347006 
3067.000000	62.346673 
3066.000000	62.337088 
3065.000000	62.316870 
3064.000000	62.286210 
3063.000000	62.246918 
3062.000000	62.202024 
3061.000000	62.155222 
3060.000000	62.110257 
3059.000000	62.070322 
3058.000000	62.037491 
3057.000000	62.012696 
3056.000000	61.995887 
3055.000000	61.986136 
3054.000000	61.982583 
3053.000000	61.984109 
3052.000000	61.990141 
3051.000000	62.000083 
3050.000000	62.013578 
3049.000000	62.029743 
3048.000000	62.047743 
3047.000000	62.066221 
3046.000000	62.084007 
3045.000000	62.099838 
3044.000000	62.113142 
3043.000000	62.124013 
3042.000000	62.133240 
3041.000000	62.141990 
3040.000000	62.151408 
3039.000000	62.162113 
3038.000000	62.173962 
3037.000000	62.185978 
3036.000000	62.196516 
3035.000000	62.203693 
3034.000000	62.206029 
3033.000000	62.202763 
3032.000000	62.193822 
3031.000000	62.179899 
3030.000000	62.162470 
3029.000000	62.143111 
3028.000000	62.123370 
3027.000000	62.104177 
3026.000000	62.086367 
3025.000000	62.070035 
3024.000000	62.054944 
3023.000000	62.040543 
3022.000000	62.026238 
3021.000000	62.011718 
3020.000000	61.996912 
3019.000000	61.982202 
3018.000000	61.968016 
3017.000000	61.955165 
3016.000000	61.944365 
3015.000000	61.936235 
3014.000000	61.930966 
3013.000000	61.928486 
3012.000000	61.928153 
3011.000000	61.929225 
3010.000000	61.930894 
3009.000000	61.932706 
3008.000000	61.934828 
3007.000000	61.937808 
3006.000000	61.942696 
3005.000000	61.950492 
3004.000000	61.962032 
3003.000000	61.977291 
3002.000000	61.995530 
3001.000000	62.015390 
3000.000000	62.035059 
2999.000000	62.052512 
2998.000000	62.065911 
2997.000000	62.073874 
2996.000000	62.075495 
2995.000000	62.070345 
2994.000000	62.058711 
2993.000000	62.041401 
2992.000000	62.019824 
2991.000000	61.995768 
2990.000000	61.971688 
2989.000000	61.950159 
2988.000000	61.933612 
2987.000000	61.924004 
2986.000000	61.922168 
2985.000000	61.927676 
2984.000000	61.938548 
2983.000000	61.951994 
2982.000000	61.964821 
2981.000000	61.974263 
2980.000000	61.978554 
2979.000000	61.977434 
2978.000000	61.971974 
2977.000000	61.964249 
2976.000000	61.956501 
2975.000000	61.950397 
2974.000000	61.946702 
2973.000000	61.944866 
2972.000000	61.943316 
2971.000000	61.939954 
2970.000000	61.933040 
2969.000000	61.921525 
2968.000000	61.905431 
2967.000000	61.885738 
2966.000000	61.864161 
2965.000000	61.842536 
2964.000000	61.822175 
2963.000000	61.803936 
2962.000000	61.787867 
2961.000000	61.773538 
2960.000000	61.760544 
2959.000000	61.748528 
2958.000000	61.737513 
2957.000000	61.727905 
2956.000000	61.720108 
2955.000000	61.714291 
2954.000000	61.710214 
2953.000000	61.706948 
2952.000000	61.703038 
2951.000000	61.697196 
2950.000000	61.688303 
2949.000000	61.676001 
2948.000000	61.660385 
2947.000000	61.642074 
2946.000000	61.622071 
2945.000000	61.601138 
2944.000000	61.580014 
2943.000000	61.559319 
2942.000000	61.539602 
2941.000000	61.521744 
2940.000000	61.506581 
2939.000000	61.494731 
2938.000000	61.486530 
2937.000000	61.481857 
2936.000000	61.480164 
2935.000000	61.480617 
2934.000000	61.482477 
2933.000000	61.485099 
2932.000000	61.487936 
2931.000000	61.490488 
2930.000000	61.492371 
2929.000000	61.493062 
2928.000000	61.492013 
2927.000000	61.488485 
2926.000000	61.481904 
2925.000000	61.471891 
2924.000000	61.458110 
2923.000000	61.440587 
2922.000000	61.419820 
2921.000000	61.396861 
2920.000000	61.373019 
2919.000000	61.350178 
2918.000000	61.330175 
2917.000000	61.315155 
2916.000000	61.306715 
2915.000000	61.305999 
2914.000000	61.313247 
2913.000000	61.327743 
2912.000000	61.347866 
2911.000000	61.371278 
2910.000000	61.395168 
2909.000000	61.416935 
2908.000000	61.434483 
2907.000000	61.446714 
2906.000000	61.453700 
2905.000000	61.456656 
2904.000000	61.457681 
2903.000000	61.459350 
2902.000000	61.463809 
2901.000000	61.472535 
2900.000000	61.486053 
2899.000000	61.503815 
2898.000000	61.524558 
2897.000000	61.546802 
2896.000000	61.569190 
2895.000000	61.591076 
2894.000000	61.612367 
2893.000000	61.633372 
2892.000000	61.654329 
2891.000000	61.675071 
2890.000000	61.694478 
2889.000000	61.710906 
2888.000000	61.721944 
2887.000000	61.725449 
2886.000000	61.719822 
2885.000000	61.704778 
2884.000000	61.681294 
2883.000000	61.651849 
2882.000000	61.619687 
2881.000000	61.588263 
2880.000000	61.560463 
2879.000000	61.538076 
2878.000000	61.521601 
2877.000000	61.510610 
2876.000000	61.503767 
2875.000000	61.499738 
2874.000000	61.497616 
2873.000000	61.497211 
2872.000000	61.498880 
2871.000000	61.503243 
2870.000000	61.510848 
2869.000000	61.521792 
2868.000000	61.535167 
2867.000000	61.549139 
2866.000000	61.561393 
2865.000000	61.569452 
2864.000000	61.571192 
2863.000000	61.565399 
2862.000000	61.552119 
2861.000000	61.532711 
2860.000000	61.509394 
2859.000000	61.485028 
2858.000000	61.462235 
2857.000000	61.443209 
2856.000000	61.429429 
2855.000000	61.421513 
2854.000000	61.419343 
2853.000000	61.422204 
2852.000000	61.429047 
2851.000000	61.438655 
2850.000000	61.449623 
2849.000000	61.460351 
2848.000000	61.469292 
2847.000000	61.474990 
2846.000000	61.476397 
2845.000000	61.473011 
2844.000000	61.464858 
2843.000000	61.452746 
2842.000000	61.437916 
2841.000000	61.421942 
2840.000000	61.406445 
2839.000000	61.392712 
2838.000000	61.381673 
2837.000000	61.373734 
2836.000000	61.369132 
2835.000000	61.367654 
2834.000000	61.369442 
2833.000000	61.374592 
2832.000000	61.383342 
2831.000000	61.395883 
2830.000000	61.412215 
2829.000000	61.431932 
2828.000000	61.453938 
2827.000000	61.476325 
2826.000000	61.496710 
2825.000000	61.512517 
2824.000000	61.521100 
2823.000000	61.520504 
2822.000000	61.509633 
2821.000000	61.488604 
2820.000000	61.458754 
2819.000000	61.422538 
2818.000000	61.383223 
2817.000000	61.344480 
2816.000000	61.309957 
2815.000000	61.282706 
2814.000000	61.264801 
2813.000000	61.257004 
2812.000000	61.258792 
2811.000000	61.268591 
2810.000000	61.283850 
2809.000000	61.301851 
2808.000000	61.319875 
2807.000000	61.336088 
2806.000000	61.349248 
2805.000000	61.359310 
2804.000000	61.366939 
2803.000000	61.372995 
2802.000000	61.378479 
2801.000000	61.383724 
2800.000000	61.388540 
2799.000000	61.391997 
2798.000000	61.392951 
2797.000000	61.390376 
2796.000000	61.383914 
2795.000000	61.374068 
2794.000000	61.362195 
2793.000000	61.350274 
2792.000000	61.340308 
2791.000000	61.333703 
2790.000000	61.330890 
2789.000000	61.331105 
2788.000000	61.332631 
2787.000000	61.333346 
2786.000000	61.331462 
2785.000000	61.325979 
2784.000000	61.317110 
2783.000000	61.306476 
2782.000000	61.296272 
2781.000000	61.289000 
2780.000000	61.286473 
2779.000000	61.289286 
2778.000000	61.296510 
2777.000000	61.305952 
2776.000000	61.314654 
2775.000000	61.319565 
2774.000000	61.318349 
2773.000000	61.310029 
2772.000000	61.294984 
2771.000000	61.274933 
2770.000000	61.252450 
2769.000000	61.230421 
2768.000000	61.211228 
2767.000000	61.196517 
2766.000000	61.186718 
2765.000000	61.181020 
2764.000000	61.177968 
2763.000000	61.175727 
2762.000000	61.172485 
2761.000000	61.167025 
2760.000000	61.158823 
2759.000000	61.148190 
2758.000000	61.135983 
2757.000000	61.123490 
2756.000000	61.112022 
2755.000000	61.102724 
2754.000000	61.096501 
2753.000000	61.093926 
2752.000000	61.095046 
2751.000000	61.099791 
2750.000000	61.107754 
2749.000000	61.118364 
2748.000000	61.130952 
2747.000000	61.144804 
2746.000000	61.159229 
2745.000000	61.173701 
2744.000000	61.187720 
2743.000000	61.201071 
2742.000000	61.213636 
2741.000000	61.225605 
2740.000000	61.237215 
2739.000000	61.248755 
2738.000000	61.260509 
2737.000000	61.272692 
2736.000000	61.285352 
2735.000000	61.298298 
2734.000000	61.311197 
2733.000000	61.323571 
2732.000000	61.334800 
2731.000000	61.344289 
2730.000000	61.351561 
2729.000000	61.356186 
2728.000000	61.357522 
2727.000000	61.355113 
2726.000000	61.348295 
2725.000000	61.336660 
2724.000000	61.320042 
2723.000000	61.298704 
2722.000000	61.273574 
2721.000000	61.246299 
2720.000000	61.218976 
2719.000000	61.194038 
2718.000000	61.173653 
2717.000000	61.159348 
2716.000000	61.151814 
2715.000000	61.150741 
2714.000000	61.154985 
2713.000000	61.162590 
2712.000000	61.171388 
2711.000000	61.179590 
2710.000000	61.185717 
2709.000000	61.189055 
2708.000000	61.189675 
2707.000000	61.187982 
2706.000000	61.184692 
2705.000000	61.180329 
2704.000000	61.175274 
2703.000000	61.169385 
2702.000000	61.162233 
2701.000000	61.153149 
2700.000000	61.141610 
2699.000000	61.127209 
2698.000000	61.109995 
2697.000000	61.090517 
2696.000000	61.069560 
2695.000000	61.048269 
2694.000000	61.027860 
2693.000000	61.009216 
2692.000000	60.992813 
2691.000000	60.978746 
2690.000000	60.966897 
2689.000000	60.957002 
2688.000000	60.948896 
2687.000000	60.942697 
2686.000000	60.938906 
2685.000000	60.938310 
2684.000000	60.941886 
2683.000000	60.950279 
2682.000000	60.963439 
2681.000000	60.980534 
2680.000000	60.999917 
2679.000000	61.019206 
2678.000000	61.035799 
2677.000000	61.047339 
2676.000000	61.052298 
2675.000000	61.050224 
2674.000000	61.041879 
2673.000000	61.028861 
2672.000000	61.013197 
2671.000000	60.996985 
2670.000000	60.981845 
2669.000000	60.968852 
2668.000000	60.958361 
2667.000000	60.950350 
2666.000000	60.944581 
2665.000000	60.940837 
2664.000000	60.939097 
2663.000000	60.939502 
2662.000000	60.942077 
2661.000000	60.946512 
2660.000000	60.951900 
2659.000000	60.956978 
2658.000000	60.960006 
2657.000000	60.959219 
2656.000000	60.953521 
2655.000000	60.942745 
2654.000000	60.927939 
2653.000000	60.911083 
2652.000000	60.894989 
2651.000000	60.882139 
2650.000000	60.874342 
2649.000000	60.871934 
2648.000000	60.873913 
2647.000000	60.877919 
2646.000000	60.881233 
2645.000000	60.881209 
2644.000000	60.876250 
2643.000000	60.865831 
2642.000000	60.850691 
2641.000000	60.832452 
2640.000000	60.812973 
2639.000000	60.793781 
2638.000000	60.775661 
2637.000000	60.758638 
2636.000000	60.742163 
2635.000000	60.725688 
2634.000000	60.709047 
2633.000000	60.692739 
2632.000000	60.677957 
2631.000000	60.666251 
2630.000000	60.659146 
2629.000000	60.657477 
2628.000000	60.661363 
2627.000000	60.670018 
2626.000000	60.682368 
2625.000000	60.697126 
2624.000000	60.713005 
2623.000000	60.729146 
2622.000000	60.744976 
2621.000000	60.760092 
2620.000000	60.774040 
2619.000000	60.786247 
2618.000000	60.795903 
2617.000000	60.802483 
2616.000000	60.805487 
2615.000000	60.804867 
2614.000000	60.801005 
2613.000000	60.794949 
2612.000000	60.787773 
2611.000000	60.780644 
2610.000000	60.774326 
2609.000000	60.769152 
2608.000000	60.764980 
2607.000000	60.761380 
2606.000000	60.757899 
2605.000000	60.754251 
2604.000000	60.750341 
2603.000000	60.746264 
2602.000000	60.742044 
2601.000000	60.737609 
2600.000000	60.732746 
2599.000000	60.727238 
2598.000000	60.720586 
2597.000000	60.712504 
2596.000000	60.702800 
2595.000000	60.691738 
2594.000000	60.679817 
2593.000000	60.668134 
2592.000000	60.658216 
2591.000000	60.651874 
2590.000000	60.650730 
2589.000000	60.655927 
2588.000000	60.667705 
2587.000000	60.685181 
2586.000000	60.706281 
2585.000000	60.728096 
2584.000000	60.747313 
2583.000000	60.760855 
2582.000000	60.766553 
2581.000000	60.763764 
2580.000000	60.753345 
2579.000000	60.737681 
2578.000000	60.719847 
2577.000000	60.702967 
2576.000000	60.689520 
2575.000000	60.680556 
2574.000000	60.675668 
2573.000000	60.673499 
2572.000000	60.672140 
2571.000000	60.669755 
2570.000000	60.665488 
2569.000000	60.659360 
2568.000000	60.652661 
2567.000000	60.647153 
2566.000000	60.644721 
2565.000000	60.646605 
2564.000000	60.653257 
2563.000000	60.663938 
2562.000000	60.677170 
2561.000000	60.690927 
2560.000000	60.703134 
2559.000000	60.712361 
2558.000000	60.717773 
2557.000000	60.718965 
2556.000000	60.716128 
2555.000000	60.709524 
2554.000000	60.699582 
2553.000000	60.686707 
2552.000000	60.671281 
2551.000000	60.653877 
2550.000000	60.635089 
2549.000000	60.615515 
2548.000000	60.595750 
2547.000000	60.576319 
2546.000000	60.557556 
2545.000000	60.539746 
2544.000000	60.523128 
2543.000000	60.507893 
2542.000000	60.494089 
2541.000000	60.481929 
2540.000000	60.471391 
2539.000000	60.462832 
2538.000000	60.456800 
2537.000000	60.454082 
2536.000000	60.455274 
2535.000000	60.460758 
2534.000000	60.470485 
2533.000000	60.483646 
2532.000000	60.498785 
2531.000000	60.514116 
2530.000000	60.527777 
2529.000000	60.538268 
2528.000000	60.544514 
2527.000000	60.546278 
2526.000000	60.543918 
2525.000000	60.538005 
2524.000000	60.529351 
2523.000000	60.518670 
2522.000000	60.506510 
2521.000000	60.493397 
2520.000000	60.479784 
2519.000000	60.466194 
2518.000000	60.453343 
2517.000000	60.441994 
2516.000000	60.432982 
2515.000000	60.426616 
2514.000000	60.422778 
2513.000000	60.420656 
2512.000000	60.419034 
2511.000000	60.416221 
2510.000000	60.410904 
2509.000000	60.402131 
2508.000000	60.390090 
2507.000000	60.375738 
2506.000000	60.360836 
2505.000000	60.347580 
2504.000000	60.337877 
2503.000000	60.332965 
2502.000000	60.332846 
2501.000000	60.336446 
2500.000000	60.341596 
2499.000000	60.345888 
2498.000000	60.346889 
2497.000000	60.342884 
2496.000000	60.333180 
2495.000000	60.318279 
2494.000000	60.299563 
2493.000000	60.279083 
2492.000000	60.258865 
2491.000000	60.240721 
2490.000000	60.225868 
2489.000000	60.215044 
2488.000000	60.208415 
2487.000000	60.205864 
2486.000000	60.207128 
2485.000000	60.211992 
2484.000000	60.220098 
2483.000000	60.231041 
2482.000000	60.244131 
2481.000000	60.258460 
2480.000000	60.272932 
2479.000000	60.286378 
2478.000000	60.297656 
2477.000000	60.305786 
2476.000000	60.310006 
2475.000000	60.309815 
2474.000000	60.305094 
2473.000000	60.295867 
2472.000000	60.282421 
2471.000000	60.265374 
2470.000000	60.245752 
2469.000000	60.224962 
2468.000000	60.204577 
2467.000000	60.186433 
2466.000000	60.172176 
2465.000000	60.162997 
2464.000000	60.159182 
2463.000000	60.160255 
2462.000000	60.164856 
2461.000000	60.170936 
2460.000000	60.176396 
2459.000000	60.179352 
2458.000000	60.178589 
2457.000000	60.173487 
2456.000000	60.164213 
2455.000000	60.151481 
2454.000000	60.136485 
2453.000000	60.120368 
2452.000000	60.104393 
2451.000000	60.089564 
2450.000000	60.076761 
2449.000000	60.066747 
2448.000000	60.060167 
2447.000000	60.057425 
2446.000000	60.058927 
2445.000000	60.065102 
2444.000000	60.075974 
2443.000000	60.091209 
2442.000000	60.110259 
2441.000000	60.132122 
2440.000000	60.155439 
2439.000000	60.178542 
2438.000000	60.199522 
2437.000000	60.216450 
2436.000000	60.227680 
2435.000000	60.231995 
2434.000000	60.229086 
2433.000000	60.219383 
2432.000000	60.204505 
2431.000000	60.186433 
2430.000000	60.167670 
2429.000000	60.150408 
2428.000000	60.136628 
2427.000000	60.127139 
2426.000000	60.122227 
2425.000000	60.121107 
2424.000000	60.122537 
2423.000000	60.124635 
2422.000000	60.125422 
2421.000000	60.122919 
2420.000000	60.115599 
2419.000000	60.102415 
2418.000000	60.082983 
2417.000000	60.057735 
2416.000000	60.027861 
2415.000000	59.995055 
2414.000000	59.961366 
2413.000000	59.928846 
2412.000000	59.899115 
2411.000000	59.873247 
2410.000000	59.851503 
2409.000000	59.833335 
2408.000000	59.817910 
2407.000000	59.804129 
2406.000000	59.791421 
2405.000000	59.779453 
2404.000000	59.768795 
2403.000000	59.760355 
2402.000000	59.755587 
2401.000000	59.755539 
2400.000000	59.760761 
2399.000000	59.771037 
2398.000000	59.785175 
2397.000000	59.801292 
2396.000000	59.817123 
2395.000000	59.830570 
2394.000000	59.840059 
2393.000000	59.844827 
2392.000000	59.845066 
2391.000000	59.841895 
2390.000000	59.836959 
2389.000000	59.832072 
2388.000000	59.828829 
2387.000000	59.828281 
2386.000000	59.831047 
2385.000000	59.837126 
2384.000000	59.845829 
2383.000000	59.856128 
2382.000000	59.866857 
2381.000000	59.876966 
2380.000000	59.885525 
2379.000000	59.891772 
2378.000000	59.895277 
2377.000000	59.895873 
2376.000000	59.893560 
2375.000000	59.888339 
2374.000000	59.880328 
2373.000000	59.869527 
2372.000000	59.855985 
2371.000000	59.839630 
2370.000000	59.820628 
2369.000000	59.799289 
2368.000000	59.776306 
2367.000000	59.752655 
2366.000000	59.729552 
2365.000000	59.708333 
2364.000000	59.690284 
2363.000000	59.676265 
2362.000000	59.666776 
2361.000000	59.661769 
2360.000000	59.660720 
2359.000000	59.662795 
2358.000000	59.667015 
2357.000000	59.672212 
2356.000000	59.677243 
2355.000000	59.681081 
2354.000000	59.682869 
2353.000000	59.681820 
2352.000000	59.677410 
2351.000000	59.669351 
2350.000000	59.657645 
2349.000000	59.642720 
2348.000000	59.625363 
2347.000000	59.606957 
2346.000000	59.588980 
2345.000000	59.572982 
2344.000000	59.560155 
2343.000000	59.551262 
2342.000000	59.546446 
2341.000000	59.545063 
2340.000000	59.546160 
2339.000000	59.548401 
2338.000000	59.550786 
2337.000000	59.552621 
2336.000000	59.553837 
2335.000000	59.555006 
2334.000000	59.557127 
2333.000000	59.561300 
2332.000000	59.568428 
2331.000000	59.578704 
2330.000000	59.591627 
2329.000000	59.605979 
2328.000000	59.619975 
2327.000000	59.631752 
2326.000000	59.639668 
2325.000000	59.642863 
2324.000000	59.641218 
2323.000000	59.635710 
2322.000000	59.627914 
2321.000000	59.619688 
2320.000000	59.612894 
2319.000000	59.608864 
2318.000000	59.608268 
2317.000000	59.610962 
2316.000000	59.616088 
2315.000000	59.622430 
2314.000000	59.628677 
2313.000000	59.633684 
2312.000000	59.636688 
2311.000000	59.637427 
2310.000000	59.636187 
2309.000000	59.633445 
2308.000000	59.629750 
2307.000000	59.625577 
2306.000000	59.621238 
2305.000000	59.616756 
2304.000000	59.611845 
2303.000000	59.606170 
2302.000000	59.599423 
2301.000000	59.591507 
2300.000000	59.582328 
2299.000000	59.572196 
2298.000000	59.561443 
2297.000000	59.550571 
2296.000000	59.539842 
2295.000000	59.529447 
2294.000000	59.519171 
2293.000000	59.508609 
2292.000000	59.497165 
2291.000000	59.484362 
2290.000000	59.469842 
2289.000000	59.453487 
2288.000000	59.435677 
2287.000000	59.417152 
2286.000000	59.398865 
2285.000000	59.381771 
2284.000000	59.366559 
2283.000000	59.353518 
2282.000000	59.342479 
2281.000000	59.332799 
2280.000000	59.323477 
2279.000000	59.313464 
2278.000000	59.301924 
2277.000000	59.288501 
2276.000000	59.273481 
2275.000000	59.258055 
2274.000000	59.243679 
2273.000000	59.232282 
2272.000000	59.225606 
2271.000000	59.225201 
2270.000000	59.231758 
2269.000000	59.245061 
2268.000000	59.264016 
2267.000000	59.286642 
2266.000000	59.310626 
2265.000000	59.333252 
2264.000000	59.352254 
2263.000000	59.365653 
2262.000000	59.372520 
2261.000000	59.372591 
2260.000000	59.366416 
2259.000000	59.355187 
2258.000000	59.340691 
2257.000000	59.324932 
2256.000000	59.309673 
2255.000000	59.296584 
2254.000000	59.286856 
2253.000000	59.281063 
2252.000000	59.279084 
2251.000000	59.280037 
2250.000000	59.282517 
2249.000000	59.284782 
2248.000000	59.285092 
2247.000000	59.282064 
2246.000000	59.274768 
2245.000000	59.262895 
2244.000000	59.246850 
2243.000000	59.227705 
2242.000000	59.206748 
2241.000000	59.185314 
2240.000000	59.164547 
2239.000000	59.145045 
2238.000000	59.127163 
2237.000000	59.110927 
2236.000000	59.096193 
2235.000000	59.082913 
2234.000000	59.071302 
2233.000000	59.061980 
2232.000000	59.055757 
2231.000000	59.053277 
2230.000000	59.055042 
2229.000000	59.060859 
2228.000000	59.069967 
2227.000000	59.080767 
2226.000000	59.091019 
2225.000000	59.098362 
2224.000000	59.100747 
2223.000000	59.097003 
2222.000000	59.087228 
2221.000000	59.072971 
2220.000000	59.056854 
2219.000000	59.042191 
2218.000000	59.032154 
2217.000000	59.029006 
2216.000000	59.033536 
2215.000000	59.044933 
2214.000000	59.061026 
2213.000000	59.078574 
2212.000000	59.094357 
2211.000000	59.105706 
2210.000000	59.110951 
2209.000000	59.109735 
2208.000000	59.102821 
2207.000000	59.091782 
2206.000000	59.078431 
2205.000000	59.064316 
2204.000000	59.050536 
2203.000000	59.037518 
2202.000000	59.025454 
2201.000000	59.014248 
2200.000000	59.003973 
2199.000000	58.994936 
2198.000000	58.987522 
2197.000000	58.982086 
2196.000000	58.978796 
2195.000000	58.977293 
2194.000000	58.976888 
2193.000000	58.976459 
2192.000000	58.974933 
2191.000000	58.971357 
2190.000000	58.965468 
2189.000000	58.957672 
2188.000000	58.948922 
2187.000000	58.940601 
2186.000000	58.933830 
2185.000000	58.929467 
2184.000000	58.927512 
2183.000000	58.927273 
2182.000000	58.927464 
2181.000000	58.926558 
2180.000000	58.922910 
2179.000000	58.915376 
2178.000000	58.903527 
2177.000000	58.887887 
2176.000000	58.869838 
2175.000000	58.851432 
2174.000000	58.835077 
2173.000000	58.823013 
2172.000000	58.816719 
2171.000000	58.816695 
2170.000000	58.822154 
2169.000000	58.831620 
2168.000000	58.842968 
2167.000000	58.854222 
2166.000000	58.863949 
2165.000000	58.871245 
2164.000000	58.875918 
2163.000000	58.877944 
2162.000000	58.877253 
2161.000000	58.873462 
2160.000000	58.865642 
2159.000000	58.852672 
2158.000000	58.833503 
2157.000000	58.808183 
2156.000000	58.777928 
2155.000000	58.745384 
2154.000000	58.714389 
2153.000000	58.689165 
2152.000000	58.673357 
2151.000000	58.669137 
2150.000000	58.676481 
2149.000000	58.693385 
2148.000000	58.716011 
2147.000000	58.739709 
2146.000000	58.760190 
2145.000000	58.774304 
2144.000000	58.780813 
2143.000000	58.780360 
2142.000000	58.775043 
2141.000000	58.767890 
2140.000000	58.761858 
2139.000000	58.759140 
2138.000000	58.760595 
2137.000000	58.765935 
2136.000000	58.773493 
2135.000000	58.781337 
2134.000000	58.787250 
2133.000000	58.789420 
2132.000000	58.786606 
2131.000000	58.778500 
2130.000000	58.765459 
2129.000000	58.748483 
2128.000000	58.729124 
2127.000000	58.709263 
2126.000000	58.690786 
2125.000000	58.675432 
2124.000000	58.664631 
2123.000000	58.659172 
2122.000000	58.659076 
2121.000000	58.663463 
2120.000000	58.670663 
2119.000000	58.678364 
2118.000000	58.684086 
2117.000000	58.685564 
2116.000000	58.680939 
2115.000000	58.669209 
2114.000000	58.650588 
2113.000000	58.626461 
2112.000000	58.598899 
2111.000000	58.570575 
2110.000000	58.544325 
2109.000000	58.522748 
2108.000000	58.507895 
2107.000000	58.500838 
2106.000000	58.501863 
2105.000000	58.510231 
2104.000000	58.524513 
2103.000000	58.542609 
2102.000000	58.562135 
2101.000000	58.580756 
2100.000000	58.596277 
2099.000000	58.607220 
2098.000000	58.612656 
2097.000000	58.612465 
2096.000000	58.607339 
2095.000000	58.598375 
2094.000000	58.586740 
2093.000000	58.573555 
2092.000000	58.559656 
2091.000000	58.545136 
2090.000000	58.529400 
2089.000000	58.511328 
2088.000000	58.489775 
2087.000000	58.463740 
2086.000000	58.432769 
2085.000000	58.397340 
2084.000000	58.358860 
2083.000000	58.319401 
2082.000000	58.281540 
2081.000000	58.247756 
2080.000000	58.220219 
2079.000000	58.200001 
2078.000000	58.187389 
2077.000000	58.181500 
2076.000000	58.180689 
2075.000000	58.182621 
2074.000000	58.184909 
2073.000000	58.185529 
2072.000000	58.183360 
2071.000000	58.178257 
2070.000000	58.171343 
2069.000000	58.164453 
2068.000000	58.159852 
2067.000000	58.159589 
2066.000000	58.165144 
2065.000000	58.176946 
2064.000000	58.194446 
2063.000000	58.216166 
2062.000000	58.240151 
2061.000000	58.264231 
2060.000000	58.286309 
2059.000000	58.304595 
2058.000000	58.317780 
2057.000000	58.325052 
2056.000000	58.325767 
2055.000000	58.319926 
2054.000000	58.307933 
2053.000000	58.291006 
2052.000000	58.271050 
2051.000000	58.250665 
2050.000000	58.232998 
2049.000000	58.220934 
2048.000000	58.216738 
2047.000000	58.221340 
2046.000000	58.234167 
2045.000000	58.253240 
2044.000000	58.275532 
2043.000000	58.297753 
2042.000000	58.316850 
2041.000000	58.330774 
2040.000000	58.338499 
2039.000000	58.340048 
2038.000000	58.336162 
2037.000000	58.327722 
2036.000000	58.315443 
2035.000000	58.299612 
2034.000000	58.280086 
2033.000000	58.256793 
2032.000000	58.229947 
2031.000000	58.200478 
2030.000000	58.169627 
2029.000000	58.139276 
2028.000000	58.111286 
2027.000000	58.087038 
2026.000000	58.067107 
2025.000000	58.051300 
2024.000000	58.039045 
2023.000000	58.029174 
2022.000000	58.021187 
2021.000000	58.014822 
2020.000000	58.010816 
2019.000000	58.010220 
2018.000000	58.014392 
2017.000000	58.024334 
2016.000000	58.040213 
2015.000000	58.061099 
2014.000000	58.085203 
2013.000000	58.110141 
2012.000000	58.133411 
2011.000000	58.152747 
2010.000000	58.166813 
2009.000000	58.175206 
2008.000000	58.178329 
2007.000000	58.177137 
2006.000000	58.172821 
2005.000000	58.166360 
2004.000000	58.158516 
2003.000000	58.149766 
2002.000000	58.140230 
2001.000000	58.130002 
2000.000000	58.119463 
1999.000000	58.109116 
1998.000000	58.099794 
1997.000000	58.092308 
1996.000000	58.087420 
1995.000000	58.085417 
1994.000000	58.085966 
1993.000000	58.088088 
1992.000000	58.090472 
1991.000000	58.091473 
1990.000000	58.089613 
1989.000000	58.083796 
1988.000000	58.073496 
1987.000000	58.058786 
1986.000000	58.040237 
1985.000000	58.018732 
1984.000000	57.995271 
1983.000000	57.970690 
1982.000000	57.945704 
1981.000000	57.920789 
1980.000000	57.896351 
1979.000000	57.873082 
1978.000000	57.851982 
1977.000000	57.834148 
1976.000000	57.820725 
1975.000000	57.812666 
1974.000000	57.810306 
1973.000000	57.813310 
1972.000000	57.820487 
1971.000000	57.830095 
1970.000000	57.840347 
1969.000000	57.849359 
1968.000000	57.855820 
1967.000000	57.858967 
1966.000000	57.858657 
1965.000000	57.855343 
1964.000000	57.849764 
1963.000000	57.842707 
1962.000000	57.834935 
1961.000000	57.827067 
1960.000000	57.819604 
1959.000000	57.812881 
1958.000000	57.807207 
1957.000000	57.802915 
1956.000000	57.800006 
1955.000000	57.798361 
1954.000000	57.797574 
1953.000000	57.797098 
1952.000000	57.796216 
1951.000000	57.794356 
1950.000000	57.791161 
1949.000000	57.786631 
1948.000000	57.781052 
1947.000000	57.774734 
1946.000000	57.768154 
1945.000000	57.761669 
1944.000000	57.755732 
1943.000000	57.750654 
1942.000000	57.746791 
1941.000000	57.744264 
1940.000000	57.743167 
1939.000000	57.743430 
1938.000000	57.744574 
1937.000000	57.746076 
1936.000000	57.747077 
1935.000000	57.746982 
1934.000000	57.745504 
1933.000000	57.742834 
1932.000000	57.739830 
1931.000000	57.737946 
1930.000000	57.738709 
1929.000000	57.743191 
1928.000000	57.751750 
1927.000000	57.763457 
1926.000000	57.776308 
1925.000000	57.787632 
1924.000000	57.794475 
1923.000000	57.794642 
1922.000000	57.786655 
1921.000000	57.770776 
1920.000000	57.748389 
1919.000000	57.721734 
1918.000000	57.693529 
1917.000000	57.666206 
1916.000000	57.641649 
1915.000000	57.620811 
1914.000000	57.604098 
1913.000000	57.591629 
1912.000000	57.583451 
1911.000000	57.579731 
1910.000000	57.580900 
1909.000000	57.587194 
1908.000000	57.598686 
1907.000000	57.614541 
1906.000000	57.633233 
1905.000000	57.652425 
1904.000000	57.669615 
1903.000000	57.682490 
1902.000000	57.689642 
1901.000000	57.690620 
1900.000000	57.686328 
1899.000000	57.678365 
1898.000000	57.668828 
1897.000000	57.659459 
1896.000000	57.651281 
1895.000000	57.644248 
1894.000000	57.637715 
1893.000000	57.630300 
1892.000000	57.620787 
1891.000000	57.608032 
1890.000000	57.591676 
1889.000000	57.571911 
1888.000000	57.549595 
1887.000000	57.526040 
1886.000000	57.502532 
1885.000000	57.480573 
1884.000000	57.461476 
1883.000000	57.446551 
1882.000000	57.436728 
1881.000000	57.432723 
1880.000000	57.434821 
1879.000000	57.442641 
1878.000000	57.455110 
1877.000000	57.470369 
1876.000000	57.486104 
1875.000000	57.499861 
1874.000000	57.509469 
1873.000000	57.513236 
1872.000000	57.510566 
1871.000000	57.501816 
1870.000000	57.488131 
1869.000000	57.471275 
1868.000000	57.453107 
1867.000000	57.435488 
1866.000000	57.419681 
1865.000000	57.406711 
1864.000000	57.396817 
1863.000000	57.389688 
1862.000000	57.384443 
1861.000000	57.379961 
1860.000000	57.374882 
1859.000000	57.367825 
1858.000000	57.357645 
1857.000000	57.343673 
1856.000000	57.326102 
1855.000000	57.305788 
1854.000000	57.284426 
1853.000000	57.264256 
1852.000000	57.247591 
1851.000000	57.236385 
1850.000000	57.231831 
1849.000000	57.233858 
1848.000000	57.241153 
1847.000000	57.251477 
1846.000000	57.261872 
1845.000000	57.269430 
1844.000000	57.271718 
1843.000000	57.267451 
1842.000000	57.256507 
1841.000000	57.240152 
1840.000000	57.220506 
1839.000000	57.200336 
1838.000000	57.182431 
1837.000000	57.168912 
1836.000000	57.161092 
1835.000000	57.158994 
1834.000000	57.161855 
1833.000000	57.168030 
1832.000000	57.175445 
1831.000000	57.182121 
1830.000000	57.186460 
1829.000000	57.187509 
1828.000000	57.184886 
1827.000000	57.178831 
1826.000000	57.170152 
1825.000000	57.159972 
1824.000000	57.149529 
1823.000000	57.140088 
1822.000000	57.132840 
1821.000000	57.128715 
1820.000000	57.128190 
1819.000000	57.131409 
1818.000000	57.137966 
1817.000000	57.147240 
1816.000000	57.158112 
1815.000000	57.169389 
1814.000000	57.179570 
1813.000000	57.187128 
1812.000000	57.190728 
1811.000000	57.189154 
1810.000000	57.181811 
1809.000000	57.168889 
1808.000000	57.151508 
1807.000000	57.131528 
1806.000000	57.111430 
1805.000000	57.093644 
1804.000000	57.080245 
1803.000000	57.072401 
1802.000000	57.070159 
1801.000000	57.072544 
1800.000000	57.077693 
1799.000000	57.083296 
1798.000000	57.086968 
1797.000000	57.086801 
1796.000000	57.081508 
1795.000000	57.070803 
1794.000000	57.055211 
1793.000000	57.036209 
1792.000000	57.015681 
1791.000000	56.995606 
1790.000000	56.977891 
1789.000000	56.963777 
1788.000000	56.953716 
1787.000000	56.947612 
1786.000000	56.944799 
1785.000000	56.944322 
1784.000000	56.945037 
1783.000000	56.945943 
1782.000000	56.946301 
1781.000000	56.945824 
1780.000000	56.944274 
1779.000000	56.941771 
1778.000000	56.938743 
1777.000000	56.935477 
1776.000000	56.932449 
1775.000000	56.929731 
1774.000000	56.927180 
1773.000000	56.924343 
1772.000000	56.920576 
1771.000000	56.915211 
1770.000000	56.907773 
1769.000000	56.898021 
1768.000000	56.886124 
1767.000000	56.872606 
1766.000000	56.858158 
1765.000000	56.843519 
1764.000000	56.829190 
1763.000000	56.815290 
1762.000000	56.801605 
1761.000000	56.787681 
1760.000000	56.773042 
1759.000000	56.757140 
1758.000000	56.739687 
1757.000000	56.720781 
1756.000000	56.700778 
1755.000000	56.680369 
1754.000000	56.660342 
1753.000000	56.641578 
1752.000000	56.624650 
1751.000000	56.609988 
1750.000000	56.597614 
1749.000000	56.587266 
1748.000000	56.578350 
1747.000000	56.570029 
1746.000000	56.561303 
1745.000000	56.551194 
1744.000000	56.539034 
1743.000000	56.524443 
1742.000000	56.507611 
1741.000000	56.489229 
1740.000000	56.470537 
1739.000000	56.453251 
1738.000000	56.439232 
1737.000000	56.430196 
1736.000000	56.427454 
1735.000000	56.431484 
1734.000000	56.442093 
1733.000000	56.458044 
1732.000000	56.477260 
1731.000000	56.496953 
1730.000000	56.514358 
1729.000000	56.526994 
1728.000000	56.533074 
1727.000000	56.531858 
1726.000000	56.523919 
1725.000000	56.510853 
1724.000000	56.495046 
1723.000000	56.479287 
1722.000000	56.466102 
1721.000000	56.457400 
1720.000000	56.454014 
1719.000000	56.455636 
1718.000000	56.461024 
1717.000000	56.468391 
1716.000000	56.475543 
1715.000000	56.480598 
1714.000000	56.482291 
1713.000000	56.480073 
1712.000000	56.474399 
1711.000000	56.466484 
1710.000000	56.458115 
1709.000000	56.451439 
1708.000000	56.448745 
1707.000000	56.451869 
1706.000000	56.462025 
1705.000000	56.479573 
1704.000000	56.503534 
1703.000000	56.531929 
1702.000000	56.561636 
1701.000000	56.589388 
1700.000000	56.611633 
1699.000000	56.625485 
1698.000000	56.629133 
1697.000000	56.622266 
1696.000000	56.605887 
1695.000000	56.582474 
1694.000000	56.555080 
1693.000000	56.527066 
1692.000000	56.501221 
1691.000000	56.479668 
1690.000000	56.463122 
1689.000000	56.451249 
1688.000000	56.442689 
1687.000000	56.435632 
1686.000000	56.428432 
1685.000000	56.419968 
1684.000000	56.409883 
1683.000000	56.398606 
1682.000000	56.387305 
1681.000000	56.377553 
1680.000000	56.370782 
1679.000000	56.367778 
1678.000000	56.368398 
1677.000000	56.371712 
1676.000000	56.376194 
1675.000000	56.379890 
1674.000000	56.381249 
1673.000000	56.379389 
1672.000000	56.374239 
1671.000000	56.366610 
1670.000000	56.358122 
1669.000000	56.350493 
1668.000000	56.345105 
1667.000000	56.342792 
1666.000000	56.343746 
1665.000000	56.347298 
1664.000000	56.352376 
1663.000000	56.357598 
1662.000000	56.361794 
1661.000000	56.364154 
1660.000000	56.364202 
1659.000000	56.361746 
1658.000000	56.356692 
1657.000000	56.349039 
1656.000000	56.338739 
1655.000000	56.326007 
1654.000000	56.311130 
1653.000000	56.294918 
1652.000000	56.278514 
1651.000000	56.263232 
1650.000000	56.250405 
1649.000000	56.240940 
1648.000000	56.235146 
1647.000000	56.232547 
1646.000000	56.231760 
1645.000000	56.231093 
1644.000000	56.228590 
1643.000000	56.222653 
1642.000000	56.212139 
1641.000000	56.196665 
1640.000000	56.176400 
1639.000000	56.151938 
1638.000000	56.124091 
1637.000000	56.093764 
1636.000000	56.061887 
1635.000000	56.029510 
1634.000000	55.997824 
1633.000000	55.968260 
1632.000000	55.942416 
1631.000000	55.921959 
1630.000000	55.908155 
1629.000000	55.901861 
1628.000000	55.903267 
1627.000000	55.912137 
1626.000000	55.927300 
1625.000000	55.947566 
1624.000000	55.971598 
1623.000000	55.998277 
1622.000000	56.026649 
1621.000000	56.055784 
1620.000000	56.084609 
1619.000000	56.111907 
1618.000000	56.136155 
1617.000000	56.155490 
1616.000000	56.168293 
1615.000000	56.173229 
1614.000000	56.169819 
1613.000000	56.158518 
1612.000000	56.140708 
1611.000000	56.118512 
1610.000000	56.094551 
1609.000000	56.071472 
1608.000000	56.051564 
1607.000000	56.036472 
1606.000000	56.026959 
1605.000000	56.022906 
1604.000000	56.023216 
1603.000000	56.026148 
1602.000000	56.029534 
1601.000000	56.031084 
1600.000000	56.028652 
1599.000000	56.020832 
1598.000000	56.006932 
1597.000000	55.987286 
1596.000000	55.963253 
1595.000000	55.936789 
1594.000000	55.910229 
1593.000000	55.885601 
1592.000000	55.864548 
1591.000000	55.847644 
1590.000000	55.834698 
1589.000000	55.825018 
1588.000000	55.817508 
1587.000000	55.811047 
1586.000000	55.804848 
1585.000000	55.798554 
1584.000000	55.791950 
1583.000000	55.784821 
1582.000000	55.776739 
1581.000000	55.767011 
1580.000000	55.754828 
1579.000000	55.739450 
1578.000000	55.720639 
1577.000000	55.698895 
1576.000000	55.675530 
1575.000000	55.652594 
1574.000000	55.632615 
1573.000000	55.617666 
1572.000000	55.609202 
1571.000000	55.607557 
1570.000000	55.611896 
1569.000000	55.620598 
1568.000000	55.631518 
1567.000000	55.642557 
1566.000000	55.652189 
1565.000000	55.659365 
1564.000000	55.663871 
1563.000000	55.665946 
1562.000000	55.665850 
1561.000000	55.663657 
1560.000000	55.659413 
1559.000000	55.652832 
1558.000000	55.643606 
1557.000000	55.631709 
1556.000000	55.617666 
1555.000000	55.602288 
1554.000000	55.586814 
1553.000000	55.572414 
1552.000000	55.560016 
1551.000000	55.550026 
1550.000000	55.542302 
1549.000000	55.536031 
1548.000000	55.530142 
1547.000000	55.523610 
1546.000000	55.515599 
1545.000000	55.505824 
1544.000000	55.494642 
1543.000000	55.482554 
1542.000000	55.470585 
1541.000000	55.459690 
1540.000000	55.450797 
1539.000000	55.444455 
1538.000000	55.440878 
1537.000000	55.440139 
1536.000000	55.442094 
1535.000000	55.446481 
1534.000000	55.452990 
1533.000000	55.461144 
1532.000000	55.470466 
1531.000000	55.480408 
1530.000000	55.490374 
1529.000000	55.499839 
1528.000000	55.508112 
1527.000000	55.514597 
1526.000000	55.518817 
1525.000000	55.520224 
1524.000000	55.518460 
1523.000000	55.513215 
1522.000000	55.504345 
1521.000000	55.492138 
1520.000000	55.477094 
1519.000000	55.460143 
1518.000000	55.442619 
1517.000000	55.426311 
1516.000000	55.413198 
1515.000000	55.405235 
1514.000000	55.404067 
1513.000000	55.410432 
1512.000000	55.424094 
1511.000000	55.443596 
1510.000000	55.466389 
1509.000000	55.489301 
1508.000000	55.509138 
1507.000000	55.523109 
1506.000000	55.529522 
1505.000000	55.527806 
1504.000000	55.518460 
1503.000000	55.502820 
1502.000000	55.482769 
1501.000000	55.460357 
1500.000000	55.437660 
1499.000000	55.416369 
1498.000000	55.397725 
1497.000000	55.382466 
1496.000000	55.370879 
1495.000000	55.362582 
1494.000000	55.356669 
1493.000000	55.351877 
1492.000000	55.346965 
1491.000000	55.340576 
1490.000000	55.331921 
1489.000000	55.320715 
1488.000000	55.307435 
1487.000000	55.293226 
1486.000000	55.279445 
1485.000000	55.267286 
1484.000000	55.257582 
1483.000000	55.250477 
1482.000000	55.245423 
1481.000000	55.241203 
1480.000000	55.236458 
1479.000000	55.229949 
1478.000000	55.220985 
1477.000000	55.209541 
1476.000000	55.196166 
1475.000000	55.181622 
1474.000000	55.166649 
1473.000000	55.151724 
1472.000000	55.136919 
1471.000000	55.121874 
1470.000000	55.106067 
1469.000000	55.089211 
1468.000000	55.071496 
1467.000000	55.053853 
1466.000000	55.037522 
1465.000000	55.024051 
1464.000000	55.014777 
1463.000000	55.010557 
1462.000000	55.011677 
1461.000000	55.017805 
1460.000000	55.028009 
1459.000000	55.041241 
1458.000000	55.056357 
1457.000000	55.072236 
1456.000000	55.088162 
1455.000000	55.103111 
1454.000000	55.115771 
1453.000000	55.124497 
1452.000000	55.127692 
1451.000000	55.123686 
1450.000000	55.111360 
1449.000000	55.090594 
1448.000000	55.062651 
1447.000000	55.030012 
1446.000000	54.996061 
1445.000000	54.964590 
1444.000000	54.939055 
1443.000000	54.921746 
1442.000000	54.913496 
1441.000000	54.913425 
1440.000000	54.919099 
1439.000000	54.927253 
1438.000000	54.934406 
1437.000000	54.937505 
1436.000000	54.934644 
1435.000000	54.925417 
1434.000000	54.911041 
1433.000000	54.893589 
1432.000000	54.875946 
1431.000000	54.860758 
1430.000000	54.850435 
1429.000000	54.846310 
1428.000000	54.848933 
1427.000000	54.858136 
1426.000000	54.873180 
1425.000000	54.892992 
1424.000000	54.916381 
1423.000000	54.942202 
1422.000000	54.969239 
1421.000000	54.996085 
1420.000000	55.021166 
1419.000000	55.042695 
1418.000000	55.058813 
1417.000000	55.067777 
1416.000000	55.068135 
1415.000000	55.058979 
1414.000000	55.040121 
1413.000000	55.012130 
1412.000000	54.976224 
1411.000000	54.934239 
1410.000000	54.888391 
1409.000000	54.841208 
1408.000000	54.795408 
1407.000000	54.753613 
1406.000000	54.718112 
1405.000000	54.690718 
1404.000000	54.672646 
1403.000000	54.664254 
1402.000000	54.664683 
1401.000000	54.672431 
1400.000000	54.685020 
1399.000000	54.699778 
1398.000000	54.713845 
1397.000000	54.724884 
1396.000000	54.731273 
1395.000000	54.732394 
1394.000000	54.728341 
1393.000000	54.719948 
1392.000000	54.708385 
1391.000000	54.694914 
1390.000000	54.680538 
1389.000000	54.665875 
1388.000000	54.651260 
1387.000000	54.636883 
1386.000000	54.622721 
1385.000000	54.608917 
1384.000000	54.595685 
1383.000000	54.583311 
1382.000000	54.572153 
1381.000000	54.562354 
1380.000000	54.553794 
1379.000000	54.546260 
1378.000000	54.539394 
1377.000000	54.532647 
1376.000000	54.525756 
1375.000000	54.518580 
1374.000000	54.511237 
1373.000000	54.503726 
1372.000000	54.496073 
1371.000000	54.488205 
1370.000000	54.480123 
1369.000000	54.471802 
1368.000000	54.463505 
1367.000000	54.455614 
1366.000000	54.449057 
1365.000000	54.445171 
1364.000000	54.445385 
1363.000000	54.450726 
1362.000000	54.461765 
1361.000000	54.478240 
1360.000000	54.498887 
1359.000000	54.521656 
1358.000000	54.543972 
1357.000000	54.562997 
1356.000000	54.576325 
1355.000000	54.582118 
1354.000000	54.579591 
1353.000000	54.569149 
1352.000000	54.552102 
1351.000000	54.530525 
1350.000000	54.507207 
1349.000000	54.484987 
1348.000000	54.466676 
1347.000000	54.454398 
1346.000000	54.449582 
1345.000000	54.452204 
1344.000000	54.461193 
1343.000000	54.474115 
1342.000000	54.487752 
1341.000000	54.498553 
1340.000000	54.503035 
1339.000000	54.498958 
1338.000000	54.485630 
1337.000000	54.464244 
1336.000000	54.437541 
1335.000000	54.409265 
1334.000000	54.383325 
1333.000000	54.362797 
1332.000000	54.349327 
1331.000000	54.342913 
1330.000000	54.341888 
1329.000000	54.343652 
1328.000000	54.345226 
1327.000000	54.344010 
1326.000000	54.338431 
1325.000000	54.328036 
1324.000000	54.313683 
1323.000000	54.296922 
1322.000000	54.279637 
1321.000000	54.263520 
1320.000000	54.249501 
1319.000000	54.237580 
1318.000000	54.226970 
1317.000000	54.216408 
1316.000000	54.204630 
1315.000000	54.190826 
1314.000000	54.174876 
1313.000000	54.157495 
1312.000000	54.139995 
1311.000000	54.124164 
1310.000000	54.111647 
1309.000000	54.103446 
1308.000000	54.099965 
1307.000000	54.100775 
1306.000000	54.104852 
1305.000000	54.110860 
1304.000000	54.117631 
1303.000000	54.124307 
1302.000000	54.130649 
1301.000000	54.136800 
1300.000000	54.143071 
1299.000000	54.149603 
1298.000000	54.156255 
1297.000000	54.162359 
1296.000000	54.167366 
1295.000000	54.170250 
1294.000000	54.170703 
1293.000000	54.168224 
1292.000000	54.162907 
1291.000000	54.154610 
1290.000000	54.143619 
1289.000000	54.130029 
1288.000000	54.113912 
1287.000000	54.095363 
1286.000000	54.074740 
1285.000000	54.052495 
1284.000000	54.029464 
1283.000000	54.006481 
1282.000000	53.984570 
1281.000000	53.964638 
1280.000000	53.947496 
1279.000000	53.933525 
1278.000000	53.922915 
1277.000000	53.915739 
1276.000000	53.912091 
1275.000000	53.911733 
1274.000000	53.914451 
1273.000000	53.919911 
1272.000000	53.927564 
1271.000000	53.936433 
1270.000000	53.945493 
1269.000000	53.953862 
1268.000000	53.960919 
1267.000000	53.966641 
1266.000000	53.971385 
1265.000000	53.975892 
1264.000000	53.980946 
1263.000000	53.987073 
1262.000000	53.994274 
1261.000000	54.001998 
1260.000000	54.009103 
1259.000000	54.014158 
1258.000000	54.015755 
1257.000000	54.012751 
1256.000000	54.004836 
1255.000000	53.992390 
1254.000000	53.976345 
1253.000000	53.957891 
1252.000000	53.938341 
1251.000000	53.918719 
1250.000000	53.899693 
1249.000000	53.881382 
1248.000000	53.863668 
1247.000000	53.846359 
1246.000000	53.829312 
1245.000000	53.812718 
1244.000000	53.796911 
1243.000000	53.782725 
1242.000000	53.771305 
1241.000000	53.763818 
1240.000000	53.761100 
1239.000000	53.763270 
1238.000000	53.769636 
1237.000000	53.778624 
1236.000000	53.787732 
1235.000000	53.794264 
1234.000000	53.795790 
1233.000000	53.790640 
1232.000000	53.778362 
1231.000000	53.759932 
1230.000000	53.737497 
1229.000000	53.714013 
1228.000000	53.692603 
1227.000000	53.675866 
1226.000000	53.665494 
1225.000000	53.661870 
1224.000000	53.664207 
1223.000000	53.670787 
1222.000000	53.679537 
1221.000000	53.688240 
1220.000000	53.695106 
1219.000000	53.698706 
1218.000000	53.698229 
1217.000000	53.693294 
1216.000000	53.684091 
1215.000000	53.671193 
1214.000000	53.655529 
1213.000000	53.638529 
1212.000000	53.621673 
1211.000000	53.606438 
1210.000000	53.593778 
1209.000000	53.584146 
1208.000000	53.577256 
1207.000000	53.572297 
1206.000000	53.568196 
1205.000000	53.563690 
1204.000000	53.557944 
1203.000000	53.550624 
1202.000000	53.542065 
1201.000000	53.532981 
1200.000000	53.524160 
1199.000000	53.516340 
1198.000000	53.509759 
1197.000000	53.504228 
1196.000000	53.499007 
1195.000000	53.493165 
1194.000000	53.485989 
1193.000000	53.477191 
1192.000000	53.467106 
1191.000000	53.456711 
1190.000000	53.447318 
1189.000000	53.440117 
1188.000000	53.436040 
1187.000000	53.435373 
1186.000000	53.437542 
1185.000000	53.441381 
1184.000000	53.445267 
1183.000000	53.447413 
1182.000000	53.446435 
1181.000000	53.441500 
1180.000000	53.432464 
1179.000000	53.419995 
1178.000000	53.405237 
1177.000000	53.389549 
1176.000000	53.374147 
1175.000000	53.359961 
1174.000000	53.347516 
1173.000000	53.337144 
1172.000000	53.329038 
1171.000000	53.323292 
1170.000000	53.320002 
1169.000000	53.319025 
1168.000000	53.319811 
1167.000000	53.321433 
1166.000000	53.322720 
1165.000000	53.322410 
1164.000000	53.319382 
1163.000000	53.312993 
1162.000000	53.303074 
1161.000000	53.290057 
1160.000000	53.274917 
1159.000000	53.258728 
1158.000000	53.242897 
1157.000000	53.228735 
1156.000000	53.217649 
1155.000000	53.210854 
1154.000000	53.209090 
1153.000000	53.212785 
1152.000000	53.221368 
1151.000000	53.233504 
1150.000000	53.246831 
1149.000000	53.258347 
1148.000000	53.264760 
1147.000000	53.263378 
1146.000000	53.252744 
1145.000000	53.233075 
1144.000000	53.206634 
1143.000000	53.177189 
1142.000000	53.149294 
1141.000000	53.127121 
1140.000000	53.113603 
1139.000000	53.109478 
1138.000000	53.113245 
1137.000000	53.121900 
1136.000000	53.131270 
1135.000000	53.137516 
1134.000000	53.137803 
1133.000000	53.131103 
1132.000000	53.118181 
1131.000000	53.101301 
1130.000000	53.083229 
1129.000000	53.066563 
1128.000000	53.053116 
1127.000000	53.043293 
1126.000000	53.036308 
1125.000000	53.030538 
1124.000000	53.024435 
1123.000000	53.016734 
1122.000000	53.006958 
1121.000000	52.995347 
1120.000000	52.982759 
1119.000000	52.970051 
1118.000000	52.957773 
1117.000000	52.945923 
1116.000000	52.933955 
1115.000000	52.920794 
1114.000000	52.905511 
1113.000000	52.887487 
1112.000000	52.866983 
1111.000000	52.845239 
1110.000000	52.824401 
1109.000000	52.807021 
1108.000000	52.795457 
1107.000000	52.791404 
1106.000000	52.795481 
1105.000000	52.806997 
1104.000000	52.824354 
1103.000000	52.845501 
1102.000000	52.868485 
1101.000000	52.891564 
1100.000000	52.913689 
1099.000000	52.934288 
1098.000000	52.953243 
1097.000000	52.970552 
1096.000000	52.986454 
1095.000000	53.000926 
1094.000000	53.014016 
1093.000000	53.025507 
1092.000000	53.035068 
1091.000000	53.042101 
1090.000000	53.045797 
1089.000000	53.045058 
1088.000000	53.038859 
1087.000000	53.026342 
1086.000000	53.007173 
1085.000000	52.981925 
1084.000000	52.952146 
1083.000000	52.920246 
1082.000000	52.889227 
1081.000000	52.861833 
1080.000000	52.839946 
1079.000000	52.824378 
1078.000000	52.814459 
1077.000000	52.808523 
1076.000000	52.804207 
1075.000000	52.799367 
1074.000000	52.792739 
1073.000000	52.784085 
1072.000000	52.774357 
1071.000000	52.764964 
1070.000000	52.757120 
1069.000000	52.751564 
1068.000000	52.748131 
1067.000000	52.745723 
1066.000000	52.742552 
1065.000000	52.736949 
1064.000000	52.727818 
1063.000000	52.714920 
1062.000000	52.698850 
1061.000000	52.680611 
1060.000000	52.661275 
1059.000000	52.641320 
1058.000000	52.621078 
1057.000000	52.600288 
1056.000000	52.579116 
1055.000000	52.558326 
1054.000000	52.539825 
1053.000000	52.526593 
1052.000000	52.522158 
1051.000000	52.529573 
1050.000000	52.550387 
1049.000000	52.583694 
1048.000000	52.625775 
1047.000000	52.670669 
1046.000000	52.711033 
1045.000000	52.739906 
1044.000000	52.752137 
1043.000000	52.745389 
1042.000000	52.720546 
1041.000000	52.681183 
1040.000000	52.632617 
1039.000000	52.580690 
1038.000000	52.530884 
1037.000000	52.487421 
1036.000000	52.453136 
1035.000000	52.429127 
1034.000000	52.415299 
1033.000000	52.410149 
1032.000000	52.411460 
1031.000000	52.416276 
1030.000000	52.421140 
1029.000000	52.422690 
1028.000000	52.417659 
1027.000000	52.403807 
1026.000000	52.379870 
1025.000000	52.346491 
1024.000000	52.305793 
1023.000000	52.261376 
1022.000000	52.217721 
1021.000000	52.179145 
1020.000000	52.149224 
1019.000000	52.129817 
1018.000000	52.120852 
1017.000000	52.120184 
1016.000000	52.124238 
1015.000000	52.128887 
1014.000000	52.130365 
1013.000000	52.125954 
1012.000000	52.114415 
1011.000000	52.096319 
1010.000000	52.073764 
1009.000000	52.049827 
1008.000000	52.027797 
1007.000000	52.010560 
1006.000000	51.999855 
1005.000000	51.996588 
1004.000000	52.000260 
1003.000000	52.009201 
1002.000000	52.020740 
1001.000000	52.032065 
1000.000000	52.040505 
999.000000	 52.043914 
998.000000	 52.041196 
997.000000	 52.032351 
996.000000	 52.018642 
995.000000	 52.002072 
994.000000	 51.985144 
993.000000	 51.970314 
992.000000	 51.959300 
991.000000	 51.952624 
990.000000	 51.949548 
989.000000	 51.948499 
988.000000	 51.947069 
987.000000	 51.942873 
986.000000	 51.934170 
985.000000	 51.920318 
984.000000	 51.902103 
983.000000	 51.881670 
982.000000	 51.861810 
981.000000	 51.845669 
980.000000	 51.836109 
979.000000	 51.835298 
978.000000	 51.844072 
977.000000	 51.862025 
976.000000	 51.887559 
975.000000	 51.918196 
974.000000	 51.951026 
973.000000	 51.983070 
972.000000	 52.011799 
971.000000	 52.035212 
970.000000	 52.052021 
969.000000	 52.061700 
968.000000	 52.064394 
967.000000	 52.060651 
966.000000	 52.051663 
965.000000	 52.038598 
964.000000	 52.022624 
963.000000	 52.004814 
962.000000	 51.986217 
961.000000	 51.967382 
960.000000	 51.948499 
959.000000	 51.929116 
958.000000	 51.908636 
957.000000	 51.886200 
956.000000	 51.861095 
955.000000	 51.832652 
954.000000	 51.800775 
953.000000	 51.766037 
952.000000	 51.729583 
951.000000	 51.693201 
950.000000	 51.658987 
949.000000	 51.628804 
948.000000	 51.604413 
947.000000	 51.586675 
946.000000	 51.576042 
945.000000	 51.572060 
944.000000	 51.574397 
943.000000	 51.581954 
942.000000	 51.594281 
941.000000	 51.610922 
940.000000	 51.632189 
939.000000	 51.657986 
938.000000	 51.688647 
937.000000	 51.724338 
936.000000	 51.764583 
935.000000	 51.807928 
934.000000	 51.851963 
933.000000	 51.893401 
932.000000	 51.928353 
931.000000	 51.952981 
930.000000	 51.964235 
929.000000	 51.960659 
928.000000	 51.942825 
927.000000	 51.913523 
926.000000	 51.877355 
925.000000	 51.840043 
924.000000	 51.807475 
923.000000	 51.784610 
922.000000	 51.774811 
921.000000	 51.778697 
920.000000	 51.795339 
919.000000	 51.821517 
918.000000	 51.852416 
917.000000	 51.882314 
916.000000	 51.906108 
915.000000	 51.919341 
914.000000	 51.918864 
913.000000	 51.902770 
912.000000	 51.870393 
911.000000	 51.822495 
910.000000	 51.761364 
909.000000	 51.689958 
908.000000	 51.611804 
907.000000	 51.530909 
906.000000	 51.451706 
905.000000	 51.378178 
904.000000	 51.313495 
903.000000	 51.259779 
902.000000	 51.218032 
901.000000	 51.187348 
900.000000	 51.165652 
899.000000	 51.150345 
898.000000	 51.139688 
897.000000	 51.132369 
896.000000	 51.129412 
895.000000	 51.133346 
894.000000	 51.148676 
893.000000	 51.179742 
892.000000	 51.230216 
891.000000	 51.301646 
890.000000	 51.391386 
889.000000	 51.493048 
888.000000	 51.595282 
887.000000	 51.684069 
886.000000	 51.744437 
885.000000	 51.763892 
884.000000	 51.734924 
883.000000	 51.657295 
882.000000	 51.538515 
881.000000	 51.393127 
880.000000	 51.239275 
879.000000	 51.095151 
878.000000	 50.974941 
877.000000	 50.886726 
876.000000	 50.831151 
875.000000	 50.802493 
874.000000	 50.791144 
873.000000	 50.786948 
872.000000	 50.781750 
871.000000	 50.771594 
870.000000	 50.756788 
869.000000	 50.740694 
868.000000	 50.726461 
867.000000	 50.715899 
866.000000	 50.707030 
865.000000	 50.695514 
864.000000	 50.675535 
863.000000	 50.642824 
862.000000	 50.596046 
861.000000	 50.538730 
860.000000	 50.478935 
859.000000	 50.427341 
858.000000	 50.394153 
857.000000	 50.386619 
856.000000	 50.406980 
855.000000	 50.451087 
854.000000	 50.509214 
853.000000	 50.567364 
852.000000	 50.610494 
851.000000	 50.625586 
850.000000	 50.605273 
849.000000	 50.548124 
848.000000	 50.459837 
847.000000	 50.352621 
846.000000	 50.242996 
845.000000	 50.148582 
844.000000	 50.084567 
843.000000	 50.061917 
842.000000	 50.084543 
841.000000	 50.149202 
840.000000	 50.245451 
839.000000	 50.357699 
838.000000	 50.467967 
837.000000	 50.558876 
836.000000	 50.617265 
835.000000	 50.635385 
834.000000	 50.612974 
833.000000	 50.555753 
832.000000	 50.475096 
831.000000	 50.384783 
830.000000	 50.299024 
829.000000	 50.229763 
828.000000	 50.185489 
827.000000	 50.170636 
826.000000	 50.185656 
825.000000	 50.228071 
824.000000	 50.293517 
823.000000	 50.376605 
822.000000	 50.471591 
821.000000	 50.572705 
820.000000	 50.673460 
819.000000	 50.766968 
818.000000	 50.846481 
817.000000	 50.905728 
816.000000	 50.939989 
815.000000	 50.946474 
814.000000	 50.925230 
813.000000	 50.878930 
812.000000	 50.813508 
811.000000	 50.736498 
810.000000	 50.656747 
809.000000	 50.582122 
808.000000	 50.519108 
807.000000	 50.471591 
806.000000	 50.441026 
805.000000	 50.426244 
804.000000	 50.424027 
803.000000	 50.430297 
802.000000	 50.440979 
801.000000	 50.453019 
800.000000	 50.464367 
799.000000	 50.474524 
798.000000	 50.483536 
797.000000	 50.491642 
796.000000	 50.498461 
795.000000	 50.502228 
794.000000	 50.499892 
793.000000	 50.487351 
792.000000	 50.460624 
791.000000	 50.417447 
790.000000	 50.358462 
789.000000	 50.287103 
788.000000	 50.209665 
787.000000	 50.134420 
786.000000	 50.069880 
785.000000	 50.022268 
784.000000	 49.994969 
783.000000	 49.987673 
782.000000	 49.997234 
781.000000	 50.018143 
780.000000	 50.044703 
779.000000	 50.071835 
778.000000	 50.096821 
777.000000	 50.119400 
776.000000	 50.141000 
775.000000	 50.163173 
774.000000	 50.186920 
773.000000	 50.211620 
772.000000	 50.234603 
771.000000	 50.251841 
770.000000	 50.258970 
769.000000	 50.252437 
768.000000	 50.230717 
767.000000	 50.194668 
766.000000	 50.147509 
765.000000	 50.093698 
764.000000	 50.038003 
763.000000	 49.984073 
762.000000	 49.933743 
761.000000	 49.886679 
760.000000	 49.840950 
759.000000	 49.793982 
758.000000	 49.743390 
757.000000	 49.688887 
756.000000	 49.632215 
755.000000	 49.577999 
754.000000	 49.531960 
753.000000	 49.500846 
752.000000	 49.489951 
751.000000	 49.502539 
750.000000	 49.538135 
749.000000	 49.592876 
748.000000	 49.660134 
747.000000	 49.731278 
746.000000	 49.797177 
745.000000	 49.849629 
744.000000	 49.882817 
743.000000	 49.893856 
742.000000	 49.883222 
741.000000	 49.854302 
740.000000	 49.812436 
739.000000	 49.764275 
738.000000	 49.715924 
737.000000	 49.672412 
736.000000	 49.636173 
735.000000	 49.607658 
734.000000	 49.584865 
733.000000	 49.564528 
732.000000	 49.542665 
731.000000	 49.516153 
730.000000	 49.483156 
729.000000	 49.443531 
728.000000	 49.398708 
727.000000	 49.351215 
726.000000	 49.303936 
725.000000	 49.258971 
724.000000	 49.217796 
723.000000	 49.180531 
722.000000	 49.146986 
721.000000	 49.116992 
720.000000	 49.091124 
719.000000	 49.070787 
718.000000	 49.058413 
717.000000	 49.056577 
716.000000	 49.067115 
715.000000	 49.089837 
714.000000	 49.122524 
713.000000	 49.160718 
712.000000	 49.198222 
711.000000	 49.228382 
710.000000	 49.245285 
709.000000	 49.245023 
708.000000	 49.226713 
707.000000	 49.192380 
706.000000	 49.146318 
705.000000	 49.094033 
704.000000	 49.041581 
703.000000	 48.994040 
702.000000	 48.954963 
701.000000	 48.925900 
700.000000	 48.907232 
699.000000	 48.897767 
698.000000	 48.895430 
697.000000	 48.897600 
696.000000	 48.901867 
695.000000	 48.905873 
694.000000	 48.907327 
693.000000	 48.904466 
692.000000	 48.895955 
691.000000	 48.881387 
690.000000	 48.861145 
689.000000	 48.836493 
688.000000	 48.809266 
687.000000	 48.781752 
686.000000	 48.756074 
685.000000	 48.733663 
684.000000	 48.715138 
683.000000	 48.700618 
682.000000	 48.689889 
681.000000	 48.682427 
680.000000	 48.677802 
679.000000	 48.675680 
678.000000	 48.676276 
677.000000	 48.679590 
676.000000	 48.686194 
675.000000	 48.696303 
674.000000	 48.710346 
673.000000	 48.728609 
672.000000	 48.751068 
671.000000	 48.777413 
670.000000	 48.806285 
669.000000	 48.835849 
668.000000	 48.862910 
667.000000	 48.883724 
666.000000	 48.894047 
665.000000	 48.890137 
664.000000	 48.869347 
663.000000	 48.831105 
662.000000	 48.776745 
661.000000	 48.709583 
660.000000	 48.634290 
659.000000	 48.555946 
658.000000	 48.479032 
657.000000	 48.406887 
656.000000	 48.341608 
655.000000	 48.284316 
654.000000	 48.235535 
653.000000	 48.195815 
652.000000	 48.165893 
651.000000	 48.146653 
650.000000	 48.138451 
649.000000	 48.140478 
648.000000	 48.149967 
647.000000	 48.162508 
646.000000	 48.172020 
645.000000	 48.172783 
644.000000	 48.160648 
643.000000	 48.134326 
642.000000	 48.095726 
641.000000	 48.049402 
640.000000	 48.001694 
639.000000	 47.958254 
638.000000	 47.922873 
637.000000	 47.896027 
636.000000	 47.874999 
635.000000	 47.854852 
634.000000	 47.830176 
633.000000	 47.796297 
632.000000	 47.750878 
631.000000	 47.694683 
630.000000	 47.631621 
629.000000	 47.567439 
628.000000	 47.508907 
627.000000	 47.461938 
626.000000	 47.431015 
625.000000	 47.418212 
624.000000	 47.423315 
623.000000	 47.444200 
622.000000	 47.476911 
621.000000	 47.516417 
620.000000	 47.556877 
619.000000	 47.592020 
618.000000	 47.615718 
617.000000	 47.622585 
616.000000	 47.609448 
615.000000	 47.575092 
614.000000	 47.522473 
613.000000	 47.457790 
612.000000	 47.390651 
611.000000	 47.332167 
610.000000	 47.293090 
609.000000	 47.281360 
608.000000	 47.300553 
607.000000	 47.349143 
606.000000	 47.419953 
605.000000	 47.501540 
604.000000	 47.580623 
603.000000	 47.644567 
602.000000	 47.683548 
601.000000	 47.692179 
600.000000	 47.669768 
599.000000	 47.619867 
598.000000	 47.549295 
597.000000	 47.466063 
596.000000	 47.378516 
595.000000	 47.293090 
594.000000	 47.214388 
593.000000	 47.144150 
592.000000	 47.082901 
591.000000	 47.029709 
590.000000	 46.983575 
589.000000	 46.943855 
588.000000	 46.909952 
587.000000	 46.882414 
586.000000	 46.862077 
585.000000	 46.850991 
584.000000	 46.850585 
583.000000	 46.863031 
582.000000	 46.890020 
581.000000	 46.932554 
580.000000	 46.989488 
579.000000	 47.057032 
578.000000	 47.128415 
577.000000	 47.193717 
576.000000	 47.241520 
575.000000	 47.261238 
574.000000	 47.245216 
573.000000	 47.190809 
572.000000	 47.101640 
571.000000	 46.987581 
570.000000	 46.863007 
569.000000	 46.744251 
568.000000	 46.645975 
567.000000	 46.578454 
566.000000	 46.545505 
565.000000	 46.544480 
564.000000	 46.566748 
563.000000	 46.600198 
562.000000	 46.632075 
561.000000	 46.651983 
560.000000	 46.653747 
559.000000	 46.635508 
558.000000	 46.599793 
557.000000	 46.551728 
556.000000	 46.497035 
555.000000	 46.440005 
554.000000	 46.382808 
553.000000	 46.325325 
552.000000	 46.265196 
551.000000	 46.199154 
550.000000	 46.124577 
549.000000	 46.041035 
548.000000	 45.951175 
547.000000	 45.860910 
546.000000	 45.777511 
545.000000	 45.708870 
544.000000	 45.661687 
543.000000	 45.640063 
542.000000	 45.643377 
541.000000	 45.667171 
540.000000	 45.703697 
539.000000	 45.743918 
538.000000	 45.778775 
537.000000	 45.801806 
536.000000	 45.809197 
535.000000	 45.801544 
534.000000	 45.782327 
533.000000	 45.758414 
532.000000	 45.737552 
531.000000	 45.727682 
530.000000	 45.734739 
529.000000	 45.762324 
528.000000	 45.810866 
527.000000	 45.877695 
526.000000	 45.957612 
525.000000	 46.043539 
524.000000	 46.127152 
523.000000	 46.199941 
522.000000	 46.253538 
521.000000	 46.280264 
520.000000	 46.273732 
519.000000	 46.229910 
518.000000	 46.147751 
517.000000	 46.030330 
516.000000	 45.884370 
515.000000	 45.720911 
514.000000	 45.552968 
513.000000	 45.394968 
512.000000	 45.259308 
511.000000	 45.154833 
510.000000	 45.084834 
509.000000	 45.047068 
508.000000	 45.034742 
507.000000	 45.037269 
506.000000	 45.044922 
505.000000	 45.050549 
504.000000	 45.051288 
503.000000	 45.047903 
502.000000	 45.043563 
501.000000	 45.041513 
500.000000	 45.042514 
499.000000	 45.043635 
498.000000	 45.039343 
497.000000	 45.022869 
496.000000	 44.988799 
495.000000	 44.934463 
494.000000	 44.861435 
493.000000	 44.774627 
492.000000	 44.681477 
491.000000	 44.589352 
490.000000	 44.503569 
489.000000	 44.426059 
488.000000	 44.355249 
487.000000	 44.286894 
486.000000	 44.216251 
485.000000	 44.139838 
484.000000	 44.056606 
483.000000	 43.969249 
482.000000	 43.882775 
481.000000	 43.804287 
480.000000	 43.740940 
479.000000	 43.697690 
478.000000	 43.675136 
477.000000	 43.669986 
476.000000	 43.675708 
475.000000	 43.683242 
474.000000	 43.682789 
473.000000	 43.665885 
472.000000	 43.627572 
471.000000	 43.567276 
470.000000	 43.489527 
469.000000	 43.403744 
468.000000	 43.322753 
467.000000	 43.261146 
466.000000	 43.231201 
465.000000	 43.241286 
464.000000	 43.291187 
463.000000	 43.372702 
462.000000	 43.468713 
461.000000	 43.555712 
460.000000	 43.609452 
459.000000	 43.609380 
458.000000	 43.545818 
457.000000	 43.420720 
456.000000	 43.251299 
455.000000	 43.066501 
454.000000	 42.901539 
453.000000	 42.788076 
452.000000	 42.749500 
451.000000	 42.796683 
450.000000	 42.923808 
449.000000	 43.109655 
448.000000	 43.324112 
447.000000	 43.535208 
446.000000	 43.716812 
445.000000	 43.853831 
444.000000	 43.942952 
443.000000	 43.990421 
442.000000	 44.008564 
441.000000	 44.009184 
440.000000	 43.999814 
439.000000	 43.979644 
438.000000	 43.940901 
437.000000	 43.870639 
436.000000	 43.759059 
435.000000	 43.600893 
434.000000	 43.401241 
433.000000	 43.171906 
432.000000	 42.933535 
431.000000	 42.703270 
430.000000	 42.497777 
429.000000	 42.316484 
428.000000	 42.137861 
427.000000	 41.927504 
426.000000	 41.653299 
425.000000	 41.289544 
424.000000	 40.820360 
423.000000	 40.262055 
422.000000	 39.664721 
421.000000	 39.099884 
420.000000	 38.641858 
419.000000	 38.360142 
418.000000	 38.301658 
417.000000	 38.472270 
416.000000	 38.832473 
415.000000	 39.312100 
414.000000	 39.821481 
413.000000	 40.264654 
412.000000	 40.557909 
411.000000	 40.644621 
410.000000	 40.505099 
409.000000	 40.148425 
408.000000	 39.621186 
407.000000	 38.979887 
406.000000	 38.311290 
405.000000	 37.703347 
404.000000	 37.268257 
403.000000	 37.120890 
402.000000	 37.381863 
401.000000	 38.133740 
400.000000	 39.433717 
399.000000	 41.297221 
398.000000	 43.678307 
397.000000	 46.448063 
396.000000	 49.432468 
395.000000	 52.429986 
394.000000	 55.248165 
393.000000	 57.727956 
392.000000	 59.786844 
391.000000	 61.421132 
390.000000	 62.709259 
389.000000	 63.778018 
388.000000	 64.742040 
387.000000	 65.663981 
386.000000	 66.582942 
385.000000	 67.472410 
384.000000	 68.277430 
383.000000	 68.899536 
382.000000	 69.194746 
381.000000	 69.050002 
380.000000	 68.378853 
379.000000	 67.249369 
378.000000	 65.879034 
377.000000	 64.652347 
376.000000	 64.106321 
375.000000	 64.733552 
374.000000	 66.785883 
373.000000	 70.267748 
372.000000	 74.832201 
371.000000	 80.015015 
370.000000	 85.371708 

