PE IR       SPECTRUM    SPECTRUM    ASCII       PEDS        1.60        
  -1
C-9A61~1.ASC
17/05/02
12:32:00.00
17/05/02
12:32:00.00
tln
$C-4040-8_t0020$<tbV0>[7.5,2.0,8.0,0.0,22,1,0]
370.000000
64









2002,4.07    
MIRTGS : RIGHTBACK : INTERNAL 2
MIR : ON : INTERNAL 2
OPTKBR

0.200000
8
8.000000
FILLER
RATIO
SPECTRUM
UNLOCKED 256

DOUBLE
64
COMBINED
1
0
0


1.000000
RATIO


1
0
TRUE
51149
0
LEFT NOT FITTED RIGHT NOT FITTED 0
NONE
NONE
15600
12.000000
4.427000
51148
TRUE
1 0 8 72 0 0 0 0 

15798.010000






#HDR
-1
-1
#GR
CM-1
%T
0.00002384185791015625
0.0
7800.000000
-1.000000
7431
8
106.724095
45.731067
#DATA
7800.000000	68.032622  
7799.000000	68.014812  
7798.000000	68.173217  
7797.000000	68.465662  
7796.000000	68.839335  
7795.000000	69.257640  
7794.000000	69.698882  
7793.000000	70.156335  
7792.000000	70.628762  
7791.000000	71.107554  
7790.000000	71.552729  
7789.000000	71.896433  
7788.000000	72.056269  
7787.000000	71.959638  
7786.000000	71.578621  
7785.000000	70.941019  
7784.000000	70.132637  
7783.000000	69.281697  
7782.000000	68.523168  
7781.000000	67.979645  
7780.000000	67.730760  
7779.000000	67.812919  
7778.000000	68.196201  
7777.000000	68.829727  
7776.000000	69.663715  
7775.000000	70.661854  
7774.000000	71.807122  
7773.000000	73.085165  
7772.000000	74.471139  
7771.000000	75.900030  
7770.000000	77.259421  
7769.000000	78.396916  
7768.000000	79.146766  
7767.000000	79.373264  
7766.000000	79.010462  
7765.000000	78.087234  
7764.000000	76.729226  
7763.000000	75.143432  
7762.000000	73.569083  
7761.000000	72.227978  
7760.000000	71.265530  
7759.000000	70.730280  
7758.000000	70.554423  
7757.000000	70.585417  
7756.000000	70.619010  
7755.000000	70.457577  
7754.000000	69.959402  
7753.000000	69.062638  
7752.000000	67.812132  
7751.000000	66.326737  
7750.000000	64.789915  
7749.000000	63.388323  
7748.000000	62.286281  
7747.000000	61.587357  
7746.000000	61.317920  
7745.000000	61.430358  
7744.000000	61.815428  
7743.000000	62.327599  
7742.000000	62.834453  
7741.000000	63.246226  
7740.000000	63.530850  
7739.000000	63.709640  
7738.000000	63.849282  
7737.000000	64.031744  
7736.000000	64.329957  
7735.000000	64.780116  
7734.000000	65.370416  
7733.000000	66.038060  
7732.000000	66.694784  
7731.000000	67.243528  
7730.000000	67.596244  
7729.000000	67.704248  
7728.000000	67.567515  
7727.000000	67.246627  
7726.000000	66.848516  
7725.000000	66.506385  
7724.000000	66.351485  
7723.000000	66.474771  
7722.000000	66.919732  
7721.000000	67.643618  
7720.000000	68.538236  
7719.000000	69.429445  
7718.000000	70.120000  
7717.000000	70.430994  
7716.000000	70.243883  
7715.000000	69.540643  
7714.000000	68.409299  
7713.000000	67.042589  
7712.000000	65.695452  
7711.000000	64.635634  
7710.000000	64.081835  
7709.000000	64.159822  
7708.000000	64.871740  
7707.000000	66.105127  
7706.000000	67.651271  
7705.000000	69.262075  
7704.000000	70.687627  
7703.000000	71.721220  
7702.000000	72.225332  
7701.000000	72.143626  
7700.000000	71.495819  
7699.000000	70.362305  
7698.000000	68.856620  
7697.000000	67.109751  
7696.000000	65.241479  
7695.000000	63.364601  
7694.000000	61.564588  
7693.000000	59.913611  
7692.000000	58.465075  
7691.000000	57.263159  
7690.000000	56.343698  
7689.000000	55.727124  
7688.000000	55.430769  
7687.000000	55.458283  
7686.000000	55.799818  
7685.000000	56.421804  
7684.000000	57.272720  
7683.000000	58.284282  
7682.000000	59.375667  
7681.000000	60.466647  
7680.000000	61.489892  
7679.000000	62.402009  
7678.000000	63.191437  
7677.000000	63.869976  
7676.000000	64.467024  
7675.000000	65.004873  
7674.000000	65.498280  
7673.000000	65.928769  
7672.000000	66.260266  
7671.000000	66.429519  
7670.000000	66.381096  
7669.000000	66.066622  
7668.000000	65.470933  
7667.000000	64.616012  
7666.000000	63.573336  
7665.000000	62.443757  
7664.000000	61.337971  
7663.000000	60.364675  
7662.000000	59.613251  
7661.000000	59.139800  
7660.000000	58.959197  
7659.000000	59.050989  
7658.000000	59.366822  
7657.000000	59.829044  
7656.000000	60.345268  
7655.000000	60.815739  
7654.000000	61.154031  
7653.000000	61.300611  
7652.000000	61.238956  
7651.000000	60.992455  
7650.000000	60.625410  
7649.000000	60.228466  
7648.000000	59.901833  
7647.000000	59.729290  
7646.000000	59.764790  
7645.000000	60.031461  
7644.000000	60.509300  
7643.000000	61.149239  
7642.000000	61.871886  
7641.000000	62.585330  
7640.000000	63.197827  
7639.000000	63.631010  
7638.000000	63.838315  
7637.000000	63.807034  
7636.000000	63.569188  
7635.000000	63.192558  
7634.000000	62.768411  
7633.000000	62.391066  
7632.000000	62.143206  
7631.000000	62.080860  
7630.000000	62.222385  
7629.000000	62.548613  
7628.000000	63.009691  
7627.000000	63.538742  
7626.000000	64.068388  
7625.000000	64.544272  
7624.000000	64.930343  
7623.000000	65.212321  
7622.000000	65.393972  
7621.000000	65.490031  
7620.000000	65.514588  
7619.000000	65.479207  
7618.000000	65.390706  
7617.000000	65.254974  
7616.000000	65.087199  
7615.000000	64.908671  
7614.000000	64.747619  
7613.000000	64.635396  
7612.000000	64.604997  
7611.000000	64.677810  
7610.000000	64.859938  
7609.000000	65.132808  
7608.000000	65.455985  
7607.000000	65.769815  
7606.000000	66.008901  
7605.000000	66.110706  
7604.000000	66.029524  
7603.000000	65.751051  
7602.000000	65.296578  
7601.000000	64.719271  
7600.000000	64.092111  
7599.000000	63.491964  
7598.000000	62.982702  
7597.000000	62.601161  
7596.000000	62.355256  
7595.000000	62.224578  
7594.000000	62.178635  
7593.000000	62.181639  
7592.000000	62.219548  
7591.000000	62.298727  
7590.000000	62.456464  
7589.000000	62.739515  
7588.000000	63.197898  
7587.000000	63.859748  
7586.000000	64.719843  
7585.000000	65.730714  
7584.000000	66.805171  
7583.000000	67.835021  
7582.000000	68.702602  
7581.000000	69.310450  
7580.000000	69.586586  
7579.000000	69.500374  
7578.000000	69.062280  
7577.000000	68.323159  
7576.000000	67.365407  
7575.000000	66.291189  
7574.000000	65.211224  
7573.000000	64.230251  
7572.000000	63.435912  
7571.000000	62.889218  
7570.000000	62.620329  
7569.000000	62.628889  
7568.000000	62.883138  
7567.000000	63.332414  
7566.000000	63.911771  
7565.000000	64.556407  
7564.000000	65.203428  
7563.000000	65.801095  
7562.000000	66.305994  
7561.000000	66.686081  
7560.000000	66.917490  
7559.000000	66.986775  
7558.000000	66.886878  
7557.000000	66.628336  
7556.000000	66.244363  
7555.000000	65.786361  
7554.000000	65.322828  
7553.000000	64.920592  
7552.000000	64.635658  
7551.000000	64.495635  
7550.000000	64.496207  
7549.000000	64.604234  
7548.000000	64.768981  
7547.000000	64.937090  
7546.000000	65.068340  
7545.000000	65.139698  
7544.000000	65.153336  
7543.000000	65.131950  
7542.000000	65.113306  
7541.000000	65.136432  
7540.000000	65.230202  
7539.000000	65.409564  
7538.000000	65.663123  
7537.000000	65.960240  
7536.000000	66.248536  
7535.000000	66.469502  
7534.000000	66.565942  
7533.000000	66.495943  
7532.000000	66.244411  
7531.000000	65.823674  
7530.000000	65.281605  
7529.000000	64.691686  
7528.000000	64.143919  
7527.000000	63.725495  
7526.000000	63.507008  
7525.000000	63.528656  
7524.000000	63.792014  
7523.000000	64.260387  
7522.000000	64.871454  
7521.000000	65.550374  
7520.000000	66.224694  
7519.000000	66.834640  
7518.000000	67.337870  
7517.000000	67.709326  
7516.000000	67.935037  
7515.000000	68.009638  
7514.000000	67.933177  
7513.000000	67.712116  
7512.000000	67.363476  
7511.000000	66.916418  
7510.000000	66.416811  
7509.000000	65.921664  
7508.000000	65.497350  
7507.000000	65.203762  
7506.000000	65.088748  
7505.000000	65.169215  
7504.000000	65.427899  
7503.000000	65.810799  
7502.000000	66.239619  
7501.000000	66.622138  
7500.000000	66.871857  
7499.000000	66.923403  
7498.000000	66.744852  
7497.000000	66.343760  
7496.000000	65.763950  
7495.000000	65.074586  
7494.000000	64.354920  
7493.000000	63.682246  
7492.000000	63.117957  
7491.000000	62.697696  
7490.000000	62.430548  
7489.000000	62.304806  
7488.000000	62.295913  
7487.000000	62.376141  
7486.000000	62.520480  
7485.000000	62.709379  
7484.000000	62.926554  
7483.000000	63.150763  
7482.000000	63.355970  
7481.000000	63.508391  
7480.000000	63.572502  
7479.000000	63.513422  
7478.000000	63.311290  
7477.000000	62.971186  
7476.000000	62.522101  
7475.000000	62.014317  
7474.000000	61.509180  
7473.000000	61.067342  
7472.000000	60.736393  
7471.000000	60.543203  
7470.000000	60.488867  
7469.000000	60.551714  
7468.000000	60.707473  
7467.000000	60.939860  
7466.000000	61.245226  
7465.000000	61.634516  
7464.000000	62.124609  
7463.000000	62.730431  
7462.000000	63.450384  
7461.000000	64.263153  
7460.000000	65.122079  
7459.000000	65.966391  
7458.000000	66.736006  
7457.000000	67.382788  
7456.000000	67.881393  
7455.000000	68.233036  
7454.000000	68.466186  
7453.000000	68.624353  
7452.000000	68.760037  
7451.000000	68.912053  
7450.000000	69.108915  
7449.000000	69.341826  
7448.000000	69.577288  
7447.000000	69.750332  
7446.000000	69.791579  
7445.000000	69.628548  
7444.000000	69.209742  
7443.000000	68.513870  
7442.000000	67.561984  
7441.000000	66.413784  
7440.000000	65.162491  
7439.000000	63.922595  
7438.000000	62.813639  
7437.000000	61.944103  
7436.000000	61.394405  
7435.000000	61.202692  
7434.000000	61.360502  
7433.000000	61.815547  
7432.000000	62.483572  
7431.000000	63.250136  
7430.000000	64.005088  
7429.000000	64.652490  
7428.000000	65.138149  
7427.000000	65.440154  
7426.000000	65.583658  
7425.000000	65.623450  
7424.000000	65.632009  
7423.000000	65.678954  
7422.000000	65.811586  
7421.000000	66.047620  
7420.000000	66.368079  
7419.000000	66.730308  
7418.000000	67.074751  
7417.000000	67.345190  
7416.000000	67.502880  
7415.000000	67.538285  
7414.000000	67.472434  
7413.000000	67.349386  
7412.000000	67.226028  
7411.000000	67.153215  
7410.000000	67.158842  
7409.000000	67.237663  
7408.000000	67.356395  
7407.000000	67.460846  
7406.000000	67.491459  
7405.000000	67.402625  
7404.000000	67.176985  
7403.000000	66.835546  
7402.000000	66.430687  
7401.000000	66.040134  
7400.000000	65.740036  
7399.000000	65.596699  
7398.000000	65.652656  
7397.000000	65.914678  
7396.000000	66.353249  
7395.000000	66.907048  
7394.000000	67.497634  
7393.000000	68.043470  
7392.000000	68.475031  
7391.000000	68.750047  
7390.000000	68.858027  
7389.000000	68.821954  
7388.000000	68.688035  
7387.000000	68.514800  
7386.000000	68.355846  
7385.000000	68.247652  
7384.000000	68.199515  
7383.000000	68.195533  
7382.000000	68.197989  
7381.000000	68.163776  
7380.000000	68.053245  
7379.000000	67.842483  
7378.000000	67.528295  
7377.000000	67.129421  
7376.000000	66.681289  
7375.000000	66.223168  
7374.000000	65.793752  
7373.000000	65.419363  
7372.000000	65.117383  
7371.000000	64.892363  
7370.000000	64.745903  
7369.000000	64.678406  
7368.000000	64.694499  
7367.000000	64.802098  
7366.000000	65.006494  
7365.000000	65.302658  
7364.000000	65.670633  
7363.000000	66.072845  
7362.000000	66.457581  
7361.000000	66.766738  
7360.000000	66.952800  
7359.000000	66.989660  
7358.000000	66.882395  
7357.000000	66.666150  
7356.000000	66.396522  
7355.000000	66.136884  
7354.000000	65.942597  
7353.000000	65.850663  
7352.000000	65.872526  
7351.000000	65.997219  
7350.000000	66.198420  
7349.000000	66.444659  
7348.000000	66.714167  
7347.000000	66.992926  
7346.000000	67.276668  
7345.000000	67.561054  
7344.000000	67.835092  
7343.000000	68.076539  
7342.000000	68.250226  
7341.000000	68.318867  
7340.000000	68.252706  
7339.000000	68.043446  
7338.000000	67.712473  
7337.000000	67.308735  
7336.000000	66.901469  
7335.000000	66.564178  
7334.000000	66.358327  
7333.000000	66.322350  
7332.000000	66.463375  
7331.000000	66.758823  
7330.000000	67.160749  
7329.000000	67.608404  
7328.000000	68.036675  
7327.000000	68.389916  
7326.000000	68.623995  
7325.000000	68.707180  
7324.000000	68.620562  
7323.000000	68.357944  
7322.000000	67.925214  
7321.000000	67.343044  
7320.000000	66.643905  
7319.000000	65.875482  
7318.000000	65.091848  
7317.000000	64.352250  
7316.000000	63.708949  
7315.000000	63.200330  
7314.000000	62.846994  
7313.000000	62.649750  
7312.000000	62.592530  
7311.000000	62.645840  
7310.000000	62.772655  
7309.000000	62.932467  
7308.000000	63.090133  
7307.000000	63.219642  
7306.000000	63.309550  
7305.000000	63.363647  
7304.000000	63.402533  
7303.000000	63.458609  
7302.000000	63.571786  
7301.000000	63.777112  
7300.000000	64.098167  
7299.000000	64.533042  
7298.000000	65.055799  
7297.000000	65.611577  
7296.000000	66.125059  
7295.000000	66.514587  
7294.000000	66.712832  
7293.000000	66.681456  
7292.000000	66.420602  
7291.000000	65.972828  
7290.000000	65.412664  
7289.000000	64.836430  
7288.000000	64.341425  
7287.000000	64.010548  
7286.000000	63.895559  
7285.000000	64.014554  
7284.000000	64.354014  
7283.000000	64.873099  
7282.000000	65.514111  
7281.000000	66.213440  
7280.000000	66.911268  
7279.000000	67.555308  
7278.000000	68.102765  
7277.000000	68.521499  
7276.000000	68.787479  
7275.000000	68.885159  
7274.000000	68.804383  
7273.000000	68.548727  
7272.000000	68.129754  
7271.000000	67.571520  
7270.000000	66.904520  
7269.000000	66.170477  
7268.000000	65.413546  
7267.000000	64.680242  
7266.000000	64.012765  
7265.000000	63.445067  
7264.000000	63.001275  
7263.000000	62.694287  
7262.000000	62.525534  
7261.000000	62.480783  
7260.000000	62.538576  
7259.000000	62.668752  
7258.000000	62.841773  
7257.000000	63.027334  
7256.000000	63.204646  
7255.000000	63.360357  
7254.000000	63.494443  
7253.000000	63.615655  
7252.000000	63.742375  
7251.000000	63.896751  
7250.000000	64.098310  
7249.000000	64.358639  
7248.000000	64.682054  
7247.000000	65.062546  
7246.000000	65.484523  
7245.000000	65.923714  
7244.000000	66.353487  
7243.000000	66.745901  
7242.000000	67.077851  
7241.000000	67.330694  
7240.000000	67.493987  
7239.000000	67.563128  
7238.000000	67.544174  
7237.000000	67.447042  
7236.000000	67.285799  
7235.000000	67.075610  
7234.000000	66.837191  
7233.000000	66.589570  
7232.000000	66.350817  
7231.000000	66.136288  
7230.000000	65.960264  
7229.000000	65.831398  
7228.000000	65.752506  
7227.000000	65.720629  
7226.000000	65.728187  
7225.000000	65.762758  
7224.000000	65.809321  
7223.000000	65.852832  
7222.000000	65.880894  
7221.000000	65.886998  
7220.000000	65.870022  
7219.000000	65.833163  
7218.000000	65.780282  
7217.000000	65.714764  
7216.000000	65.636038  
7215.000000	65.537905  
7214.000000	65.411591  
7213.000000	65.251660  
7212.000000	65.057349  
7211.000000	64.834666  
7210.000000	64.597201  
7209.000000	64.363646  
7208.000000	64.156270  
7207.000000	63.991880  
7206.000000	63.886451  
7205.000000	63.849163  
7204.000000	63.887977  
7203.000000	64.005398  
7202.000000	64.205598  
7201.000000	64.492034  
7200.000000	64.864897  
7199.000000	65.316414  
7198.000000	65.828871  
7197.000000	66.372871  
7196.000000	66.907978  
7195.000000	67.387366  
7194.000000	67.766308  
7193.000000	68.009066  
7192.000000	68.100428  
7191.000000	68.044829  
7190.000000	67.865753  
7189.000000	67.598271  
7188.000000	67.285537  
7187.000000	66.967368  
7186.000000	66.676521  
7185.000000	66.432642  
7184.000000	66.247963  
7183.000000	66.122293  
7182.000000	66.050791  
7181.000000	66.020631  
7180.000000	66.018390  
7179.000000	66.024398  
7178.000000	66.016817  
7177.000000	65.968656  
7176.000000	65.851116  
7175.000000	65.638208  
7174.000000	65.312767  
7173.000000	64.872479  
7172.000000	64.333486  
7171.000000	63.731789  
7170.000000	63.120198  
7169.000000	62.560701  
7168.000000	62.115645  
7167.000000	61.839699  
7166.000000	61.769914  
7165.000000	61.915802  
7164.000000	62.257862  
7163.000000	62.750101  
7162.000000	63.329315  
7161.000000	63.919520  
7160.000000	64.452457  
7159.000000	64.876198  
7158.000000	65.165352  
7157.000000	65.323352  
7156.000000	65.372657  
7155.000000	65.344905  
7154.000000	65.267491  
7153.000000	65.160083  
7152.000000	65.024495  
7151.000000	64.849734  
7150.000000	64.620018  
7149.000000	64.328145  
7148.000000	63.984107  
7147.000000	63.620233  
7146.000000	63.287544  
7145.000000	63.045406  
7144.000000	62.945103  
7143.000000	63.014698  
7142.000000	63.248324  
7141.000000	63.604474  
7140.000000	64.012622  
7139.000000	64.388990  
7138.000000	64.656925  
7137.000000	64.764809  
7136.000000	64.692020  
7135.000000	64.457464  
7134.000000	64.109253  
7133.000000	63.718485  
7132.000000	63.360333  
7131.000000	63.101172  
7130.000000	62.986826  
7129.000000	63.033795  
7128.000000	63.234519  
7127.000000	63.554143  
7126.000000	63.943052  
7125.000000	64.343142  
7124.000000	64.700388  
7123.000000	64.970803  
7122.000000	65.124464  
7121.000000	65.150809  
7120.000000	65.056419  
7119.000000	64.863562  
7118.000000	64.604306  
7117.000000	64.314436  
7116.000000	64.027547  
7115.000000	63.772034  
7114.000000	63.568782  
7113.000000	63.430786  
7112.000000	63.364315  
7111.000000	63.370704  
7110.000000	63.448166  
7109.000000	63.591265  
7108.000000	63.792419  
7107.000000	64.037394  
7106.000000	64.309477  
7105.000000	64.589023  
7104.000000	64.856457  
7103.000000	65.094804  
7102.000000	65.288758  
7101.000000	65.426898  
7100.000000	65.499424  
7099.000000	65.503048  
7098.000000	65.434694  
7097.000000	65.293741  
7096.000000	65.081739  
7095.000000	64.806246  
7094.000000	64.480519  
7093.000000	64.125108  
7092.000000	63.767623  
7091.000000	63.440251  
7090.000000	63.175034  
7089.000000	62.998318  
7088.000000	62.922978  
7087.000000	62.945580  
7086.000000	63.046360  
7085.000000	63.194656  
7084.000000	63.351607  
7083.000000	63.482666  
7082.000000	63.563323  
7081.000000	63.587856  
7080.000000	63.566327  
7079.000000	63.524556  
7078.000000	63.495230  
7077.000000	63.509225  
7076.000000	63.586354  
7075.000000	63.730049  
7074.000000	63.924765  
7073.000000	64.143943  
7072.000000	64.355492  
7071.000000	64.537262  
7070.000000	64.684057  
7069.000000	64.810371  
7068.000000	64.946293  
7067.000000	65.124869  
7066.000000	65.369582  
7065.000000	65.681552  
7064.000000	66.035389  
7063.000000	66.376209  
7062.000000	66.630911  
7061.000000	66.728878  
7060.000000	66.619777  
7059.000000	66.284728  
7058.000000	65.743708  
7057.000000	65.055537  
7056.000000	64.305830  
7055.000000	63.584232  
7054.000000	62.971520  
7053.000000	62.523770  
7052.000000	62.268805  
7051.000000	62.207818  
7050.000000	62.319946  
7049.000000	62.571620  
7048.000000	62.922263  
7047.000000	63.332080  
7046.000000	63.761639  
7045.000000	64.164733  
7044.000000	64.501261  
7043.000000	64.735078  
7042.000000	64.845871  
7041.000000	64.826774  
7040.000000	64.698791  
7039.000000	64.507794  
7038.000000	64.318013  
7037.000000	64.199352  
7036.000000	64.211630  
7035.000000	64.392209  
7034.000000	64.745974  
7033.000000	65.246915  
7032.000000	65.847134  
7031.000000	66.490626  
7030.000000	67.128133  
7029.000000	67.725491  
7028.000000	68.271160  
7027.000000	68.765211  
7026.000000	69.215583  
7025.000000	69.617271  
7024.000000	69.950151  
7023.000000	70.169544  
7022.000000	70.224308  
7021.000000	70.059275  
7020.000000	69.642591  
7019.000000	68.969082  
7018.000000	68.078970  
7017.000000	67.043089  
7016.000000	65.955281  
7015.000000	64.913558  
7014.000000	64.001750  
7013.000000	63.282084  
7012.000000	62.787961  
7011.000000	62.525653  
7010.000000	62.478518  
7009.000000	62.612032  
7008.000000	62.881970  
7007.000000	63.235068  
7006.000000	63.616943  
7005.000000	63.979172  
7004.000000	64.283370  
7003.000000	64.503097  
7002.000000	64.622020  
7001.000000	64.632344  
7000.000000	64.530682  
6999.000000	64.318060  
6998.000000	63.998150  
6997.000000	63.581681  
6996.000000	63.086843  
6995.000000	62.541413  
6994.000000	61.984062  
6993.000000	61.460709  
6992.000000	61.022233  
6991.000000	60.714411  
6990.000000	60.574650  
6989.000000	60.621905  
6988.000000	60.856008  
6987.000000	61.254835  
6986.000000	61.775994  
6985.000000	62.360835  
6984.000000	62.943100  
6983.000000	63.458824  
6982.000000	63.848519  
6981.000000	64.066696  
6980.000000	64.089608  
6979.000000	63.922309  
6978.000000	63.600111  
6977.000000	63.185930  
6976.000000	62.765240  
6975.000000	62.428164  
6974.000000	62.255525  
6973.000000	62.297344  
6972.000000	62.566471  
6971.000000	63.030123  
6970.000000	63.618636  
6969.000000	64.238810  
6968.000000	64.794039  
6967.000000	65.206074  
6966.000000	65.429520  
6965.000000	65.460610  
6964.000000	65.333056  
6963.000000	65.105366  
6962.000000	64.842391  
6961.000000	64.598965  
6960.000000	64.409065  
6959.000000	64.279627  
6958.000000	64.196348  
6957.000000	64.132547  
6956.000000	64.064025  
6955.000000	63.974523  
6954.000000	63.864374  
6953.000000	63.746452  
6952.000000	63.645553  
6951.000000	63.592481  
6950.000000	63.617897  
6949.000000	63.744044  
6948.000000	63.978719  
6947.000000	64.314794  
6946.000000	64.726448  
6945.000000	65.175342  
6944.000000	65.611672  
6943.000000	65.984153  
6942.000000	66.245102  
6941.000000	66.359305  
6940.000000	66.308999  
6939.000000	66.098380  
6938.000000	65.752482  
6937.000000	65.312838  
6936.000000	64.831733  
6935.000000	64.365959  
6934.000000	63.966321  
6933.000000	63.671088  
6932.000000	63.503003  
6931.000000	63.468766  
6930.000000	63.560962  
6929.000000	63.761901  
6928.000000	64.047098  
6927.000000	64.389157  
6926.000000	64.759802  
6925.000000	65.132665  
6924.000000	65.484428  
6923.000000	65.795087  
6922.000000	66.049170  
6921.000000	66.233825  
6920.000000	66.339135  
6919.000000	66.356801  
6918.000000	66.285300  
6917.000000	66.126966  
6916.000000	65.891718  
6915.000000	65.594768  
6914.000000	65.259766  
6913.000000	64.914011  
6912.000000	64.587259  
6911.000000	64.306640  
6910.000000	64.093661  
6909.000000	63.960599  
6908.000000	63.909721  
6907.000000	63.932418  
6906.000000	64.010906  
6905.000000	64.121270  
6904.000000	64.237236  
6903.000000	64.334988  
6902.000000	64.396667  
6901.000000	64.412903  
6900.000000	64.383935  
6899.000000	64.318752  
6898.000000	64.233517  
6897.000000	64.150214  
6896.000000	64.092659  
6895.000000	64.080190  
6894.000000	64.125704  
6893.000000	64.235281  
6892.000000	64.407420  
6891.000000	64.630866  
6890.000000	64.890050  
6889.000000	65.168595  
6888.000000	65.451717  
6887.000000	65.728402  
6886.000000	65.990138  
6885.000000	66.230440  
6884.000000	66.441345  
6883.000000	66.615247  
6882.000000	66.739916  
6881.000000	66.800880  
6880.000000	66.784524  
6879.000000	66.684889  
6878.000000	66.504311  
6877.000000	66.256475  
6876.000000	65.966343  
6875.000000	65.667653  
6874.000000	65.393900  
6873.000000	65.171504  
6872.000000	65.013504  
6871.000000	64.916539  
6870.000000	64.862251  
6869.000000	64.821958  
6868.000000	64.763545  
6867.000000	64.660239  
6866.000000	64.495849  
6865.000000	64.271140  
6864.000000	63.999557  
6863.000000	63.709044  
6862.000000	63.432979  
6861.000000	63.206005  
6860.000000	63.054370  
6859.000000	62.992858  
6858.000000	63.021469  
6857.000000	63.127183  
6856.000000	63.285017  
6855.000000	63.468170  
6854.000000	63.652515  
6853.000000	63.823056  
6852.000000	63.972568  
6851.000000	64.105820  
6850.000000	64.234852  
6849.000000	64.373564  
6848.000000	64.530873  
6847.000000	64.707827  
6846.000000	64.895248  
6845.000000	65.076732  
6844.000000	65.231776  
6843.000000	65.339660  
6842.000000	65.384244  
6841.000000	65.362286  
6840.000000	65.282368  
6839.000000	65.159869  
6838.000000	65.015602  
6837.000000	64.871191  
6836.000000	64.746618  
6835.000000	64.658451  
6834.000000	64.616942  
6833.000000	64.627552  
6832.000000	64.687514  
6831.000000	64.789915  
6830.000000	64.919352  
6829.000000	65.055584  
6828.000000	65.172553  
6827.000000	65.243577  
6826.000000	65.242886  
6825.000000	65.150904  
6824.000000	64.957809  
6823.000000	64.666962  
6822.000000	64.295530  
6821.000000	63.873410  
6820.000000	63.443160  
6819.000000	63.055181  
6818.000000	62.761640  
6817.000000	62.608861  
6816.000000	62.631916  
6815.000000	62.846207  
6814.000000	63.244795  
6813.000000	63.794088  
6812.000000	64.437723  
6811.000000	65.100526  
6810.000000	65.699028  
6809.000000	66.153359  
6808.000000	66.399860  
6807.000000	66.402316  
6806.000000	66.158580  
6805.000000	65.700316  
6804.000000	65.088033  
6803.000000	64.398837  
6802.000000	63.716745  
6801.000000	63.113784  
6800.000000	62.642765  
6799.000000	62.327313  
6798.000000	62.164855  
6797.000000	62.129878  
6796.000000	62.185192  
6795.000000	62.290239  
6794.000000	62.410497  
6793.000000	62.524724  
6792.000000	62.626504  
6791.000000	62.721753  
6790.000000	62.823343  
6789.000000	62.943625  
6788.000000	63.088607  
6787.000000	63.256692  
6786.000000	63.436388  
6785.000000	63.609170  
6784.000000	63.752293  
6783.000000	63.846588  
6782.000000	63.879060  
6781.000000	63.847041  
6780.000000	63.757991  
6779.000000	63.627648  
6778.000000	63.477134  
6777.000000	63.330841  
6776.000000	63.208794  
6775.000000	63.126492  
6774.000000	63.086795  
6773.000000	63.081908  
6772.000000	63.093042  
6771.000000	63.096976  
6770.000000	63.070273  
6769.000000	62.995672  
6768.000000	62.868165  
6767.000000	62.696909  
6766.000000	62.504148  
6765.000000	62.320327  
6764.000000	62.178039  
6763.000000	62.104654  
6762.000000	62.116861  
6761.000000	62.216949  
6760.000000	62.393093  
6759.000000	62.621879  
6758.000000	62.872266  
6757.000000	63.113570  
6756.000000	63.318872  
6755.000000	63.473129  
6754.000000	63.573765  
6753.000000	63.631534  
6752.000000	63.665175  
6751.000000	63.695764  
6750.000000	63.743376  
6749.000000	63.816213  
6748.000000	63.913154  
6747.000000	64.015674  
6746.000000	64.095997  
6745.000000	64.119076  
6744.000000	64.054560  
6743.000000	63.882637  
6742.000000	63.601160  
6741.000000	63.229918  
6740.000000	62.808418  
6739.000000	62.391209  
6738.000000	62.037801  
6737.000000	61.802506  
6736.000000	61.723780  
6735.000000	61.817622  
6734.000000	62.073993  
6733.000000	62.460422  
6732.000000	62.926769  
6731.000000	63.413000  
6730.000000	63.859796  
6729.000000	64.216184  
6728.000000	64.448451  
6727.000000	64.542841  
6726.000000	64.506006  
6725.000000	64.359545  
6724.000000	64.135217  
6723.000000	63.870191  
6722.000000	63.598322  
6721.000000	63.348293  
6720.000000	63.138461  
6719.000000	62.980151  
6718.000000	62.875390  
6717.000000	62.821435  
6716.000000	62.811350  
6715.000000	62.837076  
6714.000000	62.889027  
6713.000000	62.956690  
6712.000000	63.031458  
6711.000000	63.107419  
6710.000000	63.182616  
6709.000000	63.259148  
6708.000000	63.343048  
6707.000000	63.441777  
6706.000000	63.564801  
6705.000000	63.717079  
6704.000000	63.895988  
6703.000000	64.087963  
6702.000000	64.271569  
6701.000000	64.419603  
6700.000000	64.506745  
6699.000000	64.513993  
6698.000000	64.435195  
6697.000000	64.277410  
6696.000000	64.062190  
6695.000000	63.818192  
6694.000000	63.578057  
6693.000000	63.366627  
6692.000000	63.197660  
6691.000000	63.069367  
6690.000000	62.969040  
6689.000000	62.874293  
6688.000000	62.761306  
6687.000000	62.611579  
6686.000000	62.418460  
6685.000000	62.190222  
6684.000000	61.949610  
6683.000000	61.728739  
6682.000000	61.562681  
6681.000000	61.482667  
6680.000000	61.509490  
6679.000000	61.648464  
6678.000000	61.888217  
6677.000000	62.201595  
6676.000000	62.551975  
6675.000000	62.896847  
6674.000000	63.199758  
6673.000000	63.436245  
6672.000000	63.599562  
6671.000000	63.696265  
6670.000000	63.746500  
6669.000000	63.778257  
6668.000000	63.818264  
6667.000000	63.887143  
6666.000000	63.991260  
6665.000000	64.124083  
6664.000000	64.266300  
6663.000000	64.395785  
6662.000000	64.487504  
6661.000000	64.521288  
6660.000000	64.486789  
6659.000000	64.387512  
6658.000000	64.237475  
6657.000000	64.058947  
6656.000000	63.880395  
6655.000000	63.730859  
6654.000000	63.637351  
6653.000000	63.617205  
6652.000000	63.679862  
6651.000000	63.817954  
6650.000000	64.008593  
6649.000000	64.211344  
6648.000000	64.374947  
6647.000000	64.446282  
6646.000000	64.380335  
6645.000000	64.153814  
6644.000000	63.767766  
6643.000000	63.256072  
6642.000000	62.677574  
6641.000000	62.110710  
6640.000000	61.635351  
6639.000000	61.321687  
6638.000000	61.215519  
6637.000000	61.331844  
6636.000000	61.652398  
6635.000000	62.131547  
6634.000000	62.706327  
6633.000000	63.308143  
6632.000000	63.874363  
6631.000000	64.359998  
6630.000000	64.741849  
6629.000000	65.017604  
6628.000000	65.200185  
6627.000000	65.311789  
6626.000000	65.374088  
6625.000000	65.406060  
6624.000000	65.416336  
6623.000000	65.406417  
6622.000000	65.369534  
6621.000000	65.300154  
6620.000000	65.195727  
6619.000000	65.061450  
6618.000000	64.911961  
6617.000000	64.768004  
6616.000000	64.656424  
6615.000000	64.604496  
6614.000000	64.634418  
6613.000000	64.758396  
6612.000000	64.972400  
6611.000000	65.255713  
6610.000000	65.572285  
6609.000000	65.878415  
6608.000000	66.128301  
6607.000000	66.283059  
6606.000000	66.318631  
6605.000000	66.230440  
6604.000000	66.033864  
6603.000000	65.761041  
6602.000000	65.452289  
6601.000000	65.148377  
6600.000000	64.887881  
6599.000000	64.699006  
6598.000000	64.596652  
6597.000000	64.578819  
6596.000000	64.630460  
6595.000000	64.724993  
6594.000000	64.829516  
6593.000000	64.912199  
6592.000000	64.945602  
6591.000000	64.915275  
6590.000000	64.819288  
6589.000000	64.671254  
6588.000000	64.493489  
6587.000000	64.315724  
6586.000000	64.167356  
6585.000000	64.072561  
6584.000000	64.045548  
6583.000000	64.088201  
6582.000000	64.191746  
6581.000000	64.336681  
6580.000000	64.497804  
6579.000000	64.647126  
6578.000000	64.759182  
6577.000000	64.814543  
6576.000000	64.802885  
6575.000000	64.722537  
6574.000000	64.580774  
6573.000000	64.392733  
6572.000000	64.180016  
6571.000000	63.966965  
6570.000000	63.778853  
6569.000000	63.638854  
6568.000000	63.566040  
6567.000000	63.572692  
6566.000000	63.663268  
6565.000000	63.832736  
6564.000000	64.068222  
6563.000000	64.347720  
6562.000000	64.646577  
6561.000000	64.939832  
6560.000000	65.207004  
6559.000000	65.432143  
6558.000000	65.607452  
6557.000000	65.731930  
6556.000000	65.811157  
6555.000000	65.855550  
6554.000000	65.876030  
6553.000000	65.881943  
6552.000000	65.879321  
6551.000000	65.871405  
6550.000000	65.855479  
6549.000000	65.824508  
6548.000000	65.768623  
6547.000000	65.677952  
6546.000000	65.543413  
6545.000000	65.360140  
6544.000000	65.130138  
6543.000000	64.863061  
6542.000000	64.576148  
6541.000000	64.290189  
6540.000000	64.028263  
6539.000000	63.807678  
6538.000000	63.635587  
6537.000000	63.507628  
6536.000000	63.407397  
6535.000000	63.314580  
6534.000000	63.208603  
6533.000000	63.079309  
6532.000000	62.927198  
6531.000000	62.768912  
6530.000000	62.631225  
6529.000000	62.545657  
6528.000000	62.536096  
6527.000000	62.616395  
6526.000000	62.784552  
6525.000000	63.024234  
6524.000000	63.307762  
6523.000000	63.604664  
6522.000000	63.888239  
6521.000000	64.142036  
6520.000000	64.361500  
6519.000000	64.551162  
6518.000000	64.720296  
6517.000000	64.877104  
6516.000000	65.024518  
6515.000000	65.159273  
6514.000000	65.271949  
6513.000000	65.353870  
6512.000000	65.398001  
6511.000000	65.404367  
6510.000000	65.378642  
6509.000000	65.335106  
6508.000000	65.289330  
6507.000000	65.255665  
6506.000000	65.241527  
6505.000000	65.247368  
6504.000000	65.264320  
6503.000000	65.276837  
6502.000000	65.268540  
6501.000000	65.227246  
6500.000000	65.150952  
6499.000000	65.049529  
6498.000000	64.943909  
6497.000000	64.860606  
6496.000000	64.824867  
6495.000000	64.852952  
6494.000000	64.946341  
6493.000000	65.089845  
6492.000000	65.254974  
6491.000000	65.406012  
6490.000000	65.507626  
6489.000000	65.533733  
6488.000000	65.474915  
6487.000000	65.340089  
6486.000000	65.151786  
6485.000000	64.941358  
6484.000000	64.740848  
6483.000000	64.576435  
6482.000000	64.461565  
6481.000000	64.398336  
6480.000000	64.380717  
6479.000000	64.397716  
6478.000000	64.439702  
6477.000000	64.498662  
6476.000000	64.568972  
6475.000000	64.647030  
6474.000000	64.728450  
6473.000000	64.808082  
6472.000000	64.877867  
6471.000000	64.930605  
6470.000000	64.961004  
6469.000000	64.968395  
6468.000000	64.956831  
6467.000000	64.935803  
6466.000000	64.916896  
6465.000000	64.910149  
6464.000000	64.919877  
6463.000000	64.943218  
6462.000000	64.968776  
6461.000000	64.981174  
6460.000000	64.962911  
6459.000000	64.899301  
6458.000000	64.782118  
6457.000000	64.611315  
6456.000000	64.397978  
6455.000000	64.160060  
6454.000000	63.923954  
6453.000000	63.717174  
6452.000000	63.567924  
6451.000000	63.499879  
6450.000000	63.527679  
6449.000000	63.652563  
6448.000000	63.862776  
6447.000000	64.133977  
6446.000000	64.434981  
6445.000000	64.732480  
6444.000000	64.997863  
6443.000000	65.210390  
6442.000000	65.362119  
6441.000000	65.456104  
6440.000000	65.502858  
6439.000000	65.514254  
6438.000000	65.498518  
6437.000000	65.456390  
6436.000000	65.381526  
6435.000000	65.263509  
6434.000000	65.094089  
6433.000000	64.872932  
6432.000000	64.612913  
6431.000000	64.340329  
6430.000000	64.090132  
6429.000000	63.900780  
6428.000000	63.803052  
6427.000000	63.816380  
6426.000000	63.942480  
6425.000000	64.166831  
6424.000000	64.460539  
6423.000000	64.786863  
6422.000000	65.108132  
6421.000000	65.390992  
6420.000000	65.611433  
6419.000000	65.754580  
6418.000000	65.814399  
6417.000000	65.791463  
6416.000000	65.690827  
6415.000000	65.522646  
6414.000000	65.301418  
6413.000000	65.045714  
6412.000000	64.777112  
6411.000000	64.519619  
6410.000000	64.296674  
6409.000000	64.127969  
6408.000000	64.026570  
6407.000000	63.996410  
6406.000000	64.031934  
6405.000000	64.119410  
6404.000000	64.239192  
6403.000000	64.368033  
6402.000000	64.483571  
6401.000000	64.566946  
6400.000000	64.606475  
6399.000000	64.595508  
6398.000000	64.536452  
6397.000000	64.438748  
6396.000000	64.317679  
6395.000000	64.191412  
6394.000000	64.077472  
6393.000000	63.990783  
6392.000000	63.938188  
6391.000000	63.918519  
6390.000000	63.920664  
6389.000000	63.927030  
6388.000000	63.919806  
6387.000000	63.886594  
6386.000000	63.823986  
6385.000000	63.739466  
6384.000000	63.649702  
6383.000000	63.576531  
6382.000000	63.540029  
6381.000000	63.553762  
6380.000000	63.619971  
6379.000000	63.730239  
6378.000000	63.867402  
6377.000000	64.011669  
6376.000000	64.145565  
6375.000000	64.259362  
6374.000000	64.352798  
6373.000000	64.434576  
6372.000000	64.517927  
6371.000000	64.616298  
6370.000000	64.737367  
6369.000000	64.880537  
6368.000000	65.036940  
6367.000000	65.190601  
6366.000000	65.324139  
6365.000000	65.420603  
6364.000000	65.468859  
6363.000000	65.464448  
6362.000000	65.411043  
6361.000000	65.317583  
6360.000000	65.196275  
6359.000000	65.060234  
6358.000000	64.920663  
6357.000000	64.785981  
6356.000000	64.660668  
6355.000000	64.546513  
6354.000000	64.443039  
6353.000000	64.348411  
6352.000000	64.261031  
6351.000000	64.179801  
6350.000000	64.106082  
6349.000000	64.041543  
6348.000000	63.990187  
6347.000000	63.955831  
6346.000000	63.942742  
6345.000000	63.954091  
6344.000000	63.990521  
6343.000000	64.048171  
6342.000000	64.119291  
6341.000000	64.193081  
6340.000000	64.256858  
6339.000000	64.298033  
6338.000000	64.307308  
6337.000000	64.280819  
6336.000000	64.220499  
6335.000000	64.133954  
6334.000000	64.031958  
6333.000000	63.926339  
6332.000000	63.827347  
6331.000000	63.742733  
6330.000000	63.676404  
6329.000000	63.630032  
6328.000000	63.604927  
6327.000000	63.603830  
6326.000000	63.630628  
6325.000000	63.690066  
6324.000000	63.785815  
6323.000000	63.917851  
6322.000000	64.080023  
6321.000000	64.259576  
6320.000000	64.437627  
6319.000000	64.592885  
6318.000000	64.706254  
6317.000000	64.764237  
6316.000000	64.763045  
6315.000000	64.707612  
6314.000000	64.610886  
6313.000000	64.489984  
6312.000000	64.362335  
6311.000000	64.243626  
6310.000000	64.146208  
6309.000000	64.078092  
6308.000000	64.043545  
6307.000000	64.044690  
6306.000000	64.082527  
6305.000000	64.156699  
6304.000000	64.264988  
6303.000000	64.401674  
6302.000000	64.556932  
6301.000000	64.717364  
6300.000000	64.866590  
6299.000000	64.987587  
6298.000000	65.064859  
6297.000000	65.088462  
6296.000000	65.054416  
6295.000000	64.965295  
6294.000000	64.829540  
6293.000000	64.660739  
6292.000000	64.475131  
6291.000000	64.291071  
6290.000000	64.124298  
6289.000000	63.988518  
6288.000000	63.889622  
6287.000000	63.827013  
6286.000000	63.791060  
6285.000000	63.765525  
6284.000000	63.732004  
6283.000000	63.674330  
6282.000000	63.583564  
6281.000000	63.460230  
6280.000000	63.315987  
6279.000000	63.171005  
6278.000000	63.049793  
6277.000000	62.975120  
6276.000000	62.962102  
6275.000000	63.014602  
6274.000000	63.124227  
6273.000000	63.273048  
6272.000000	63.437581  
6271.000000	63.595533  
6270.000000	63.730144  
6269.000000	63.834166  
6268.000000	63.909435  
6267.000000	63.965201  
6266.000000	64.013195  
6265.000000	64.063596  
6264.000000	64.122033  
6263.000000	64.186692  
6262.000000	64.251470  
6261.000000	64.304709  
6260.000000	64.334583  
6259.000000	64.330673  
6258.000000	64.289259  
6257.000000	64.211297  
6256.000000	64.102506  
6255.000000	63.972878  
6254.000000	63.834905  
6253.000000	63.702201  
6252.000000	63.588094  
6251.000000	63.504672  
6250.000000	63.461661  
6249.000000	63.466191  
6248.000000	63.521981  
6247.000000	63.627839  
6246.000000	63.777709  
6245.000000	63.960385  
6244.000000	64.160895  
6243.000000	64.361763  
6242.000000	64.545392  
6241.000000	64.696311  
6240.000000	64.803028  
6239.000000	64.859342  
6238.000000	64.865159  
6237.000000	64.825916  
6236.000000	64.752340  
6235.000000	64.658737  
6234.000000	64.561843  
6233.000000	64.479303  
6232.000000	64.426612  
6231.000000	64.416122  
6230.000000	64.452791  
6229.000000	64.534044  
6228.000000	64.647769  
6227.000000	64.774680  
6226.000000	64.890956  
6225.000000	64.973163  
6224.000000	65.002870  
6223.000000	64.970898  
6222.000000	64.879059  
6221.000000	64.740347  
6220.000000	64.576029  
6219.000000	64.412021  
6218.000000	64.273715  
6217.000000	64.181780  
6216.000000	64.148020  
6215.000000	64.174771  
6214.000000	64.256334  
6213.000000	64.380955  
6212.000000	64.533472  
6211.000000	64.698696  
6210.000000	64.863419  
6209.000000	65.017724  
6208.000000	65.153431  
6207.000000	65.265154  
6206.000000	65.348744  
6205.000000	65.401315  
6204.000000	65.421366  
6203.000000	65.408563  
6202.000000	65.364480  
6201.000000	65.293788  
6200.000000	65.204811  
6199.000000	65.108442  
6198.000000	65.016531  
6197.000000	64.940667  
6196.000000	64.889168  
6195.000000	64.864277  
6194.000000	64.861726  
6193.000000	64.870715  
6192.000000	64.877510  
6191.000000	64.869308  
6190.000000	64.838695  
6189.000000	64.784431  
6188.000000	64.713883  
6187.000000	64.640498  
6186.000000	64.581060  
6185.000000	64.549922  
6184.000000	64.556097  
6183.000000	64.600396  
6182.000000	64.675140  
6181.000000	64.765954  
6180.000000	64.855790  
6179.000000	64.929842  
6178.000000	64.978480  
6177.000000	64.998793  
6176.000000	64.995479  
6175.000000	64.978384  
6174.000000	64.960408  
6173.000000	64.953446  
6172.000000	64.968204  
6171.000000	65.011334  
6170.000000	65.086197  
6169.000000	65.190815  
6168.000000	65.317797  
6167.000000	65.453076  
6166.000000	65.578222  
6165.000000	65.671610  
6164.000000	65.712261  
6163.000000	65.683555  
6162.000000	65.577363  
6161.000000	65.396690  
6160.000000	65.155839  
6159.000000	64.879179  
6158.000000	64.597249  
6157.000000	64.341735  
6156.000000	64.140248  
6155.000000	64.011240  
6154.000000	63.961768  
6153.000000	63.986515  
6152.000000	64.069747  
6151.000000	64.189386  
6150.000000	64.320659  
6149.000000	64.442586  
6148.000000	64.540648  
6147.000000	64.608836  
6146.000000	64.648056  
6145.000000	64.665699  
6144.000000	64.671540  
6143.000000	64.674830  
6142.000000	64.680790  
6141.000000	64.689636  
6140.000000	64.696073  
6139.000000	64.691805  
6138.000000	64.668154  
6137.000000	64.619565  
6136.000000	64.546155  
6135.000000	64.454293  
6134.000000	64.355945  
6133.000000	64.266085  
6132.000000	64.199113  
6131.000000	64.165520  
6130.000000	64.168834  
6129.000000	64.204645  
6128.000000	64.261698  
6127.000000	64.325499  
6126.000000	64.380788  
6125.000000	64.414119  
6124.000000	64.418244  
6123.000000	64.393424  
6122.000000	64.346575  
6121.000000	64.288520  
6120.000000	64.231848  
6119.000000	64.187431  
6118.000000	64.162158  
6117.000000	64.157295  
6116.000000	64.168667  
6115.000000	64.188241  
6114.000000	64.206099  
6113.000000	64.213442  
6112.000000	64.204430  
6111.000000	64.177942  
6110.000000	64.137268  
6109.000000	64.089775  
6108.000000	64.044165  
6107.000000	64.009213  
6106.000000	63.991260  
6105.000000	63.993859  
6104.000000	64.016437  
6103.000000	64.056110  
6102.000000	64.108204  
6101.000000	64.168691  
6100.000000	64.234685  
6099.000000	64.305830  
6098.000000	64.383316  
6097.000000	64.469456  
6096.000000	64.565634  
6095.000000	64.671516  
6094.000000	64.783835  
6093.000000	64.896774  
6092.000000	65.002822  
6091.000000	65.094614  
6090.000000	65.166306  
6089.000000	65.215730  
6088.000000	65.244388  
6087.000000	65.256309  
6086.000000	65.256261  
6085.000000	65.248990  
6084.000000	65.236973  
6083.000000	65.220427  
6082.000000	65.196537  
6081.000000	65.161442  
6080.000000	65.111279  
6079.000000	65.044784  
6078.000000	64.963746  
6077.000000	64.873361  
6076.000000	64.781332  
6075.000000	64.695668  
6074.000000	64.624261  
6073.000000	64.572405  
6072.000000	64.543247  
6071.000000	64.537072  
6070.000000	64.552164  
6069.000000	64.585328  
6068.000000	64.632415  
6067.000000	64.688706  
6066.000000	64.749383  
6065.000000	64.809417  
6064.000000	64.866018  
6063.000000	64.918518  
6062.000000	64.968299  
6061.000000	65.017414  
6060.000000	65.068721  
6059.000000	65.123200  
6058.000000	65.178585  
6057.000000	65.228128  
6056.000000	65.262103  
6055.000000	65.269494  
6054.000000	65.240716  
6053.000000	65.171360  
6052.000000	65.064406  
6051.000000	64.931416  
6050.000000	64.791369  
6049.000000	64.666914  
6048.000000	64.578866  
6047.000000	64.542818  
6046.000000	64.564871  
6045.000000	64.641833  
6044.000000	64.762043  
6043.000000	64.908766  
6042.000000	65.064144  
6041.000000	65.211033  
6040.000000	65.335416  
6039.000000	65.427041  
6038.000000	65.479564  
6037.000000	65.490245  
6036.000000	65.458917  
6035.000000	65.388178  
6034.000000	65.282511  
6033.000000	65.147733  
6032.000000	64.990472  
6031.000000	64.819145  
6030.000000	64.643192  
6029.000000	64.472317  
6028.000000	64.316773  
6027.000000	64.186167  
6026.000000	64.089465  
6025.000000	64.034080  
6024.000000	64.024472  
6023.000000	64.060401  
6022.000000	64.136695  
6021.000000	64.242529  
6020.000000	64.363718  
6019.000000	64.482522  
6018.000000	64.584040  
6017.000000	64.658093  
6016.000000	64.702296  
6015.000000	64.721727  
6014.000000	64.726567  
6013.000000	64.728760  
6012.000000	64.738249  
6011.000000	64.760160  
6010.000000	64.795207  
6009.000000	64.840674  
6008.000000	64.893269  
6007.000000	64.951229  
6006.000000	65.016412  
6005.000000	65.093874  
6004.000000	65.190529  
6003.000000	65.311312  
6002.000000	65.455961  
6001.000000	65.616345  
6000.000000	65.778350  
5999.000000	65.922069  
5998.000000	66.026997  
5997.000000	66.074681  
5996.000000	66.056251  
5995.000000	65.970921  
5994.000000	65.827322  
5993.000000	65.640592  
5992.000000	65.429592  
5991.000000	65.214276  
5990.000000	65.013599  
5989.000000	64.842963  
5988.000000	64.713072  
5987.000000	64.629745  
5986.000000	64.594864  
5985.000000	64.605021  
5984.000000	64.652752  
5983.000000	64.727854  
5982.000000	64.819073  
5981.000000	64.915060  
5980.000000	65.006041  
5979.000000	65.084886  
5978.000000	65.148091  
5977.000000	65.195178  
5976.000000	65.228581  
5975.000000	65.252828  
5974.000000	65.273141  
5973.000000	65.294098  
5972.000000	65.318346  
5971.000000	65.348315  
5970.000000	65.383315  
5969.000000	65.421867  
5968.000000	65.458631  
5967.000000	65.487074  
5966.000000	65.498065  
5965.000000	65.482330  
5964.000000	65.431976  
5963.000000	65.342354  
5962.000000	65.214705  
5961.000000	65.057134  
5960.000000	64.883732  
5959.000000	64.712238  
5958.000000	64.561843  
5957.000000	64.449691  
5956.000000	64.388012  
5955.000000	64.381551  
5954.000000	64.427614  
5953.000000	64.516448  
5952.000000	64.633393  
5951.000000	64.761137  
5950.000000	64.882087  
5949.000000	64.980649  
5948.000000	65.044331  
5947.000000	65.065550  
5946.000000	65.040731  
5945.000000	64.972114  
5944.000000	64.866709  
5943.000000	64.736580  
5942.000000	64.597320  
5941.000000	64.466261  
5940.000000	64.361143  
5939.000000	64.296007  
5938.000000	64.279699  
5937.000000	64.312839  
5936.000000	64.387989  
5935.000000	64.490795  
5934.000000	64.602589  
5933.000000	64.704585  
5932.000000	64.781165  
5931.000000	64.823603  
5930.000000	64.831113  
5929.000000	64.809775  
5928.000000	64.770317  
5927.000000	64.725565  
5926.000000	64.687442  
5925.000000	64.665436  
5924.000000	64.664745  
5923.000000	64.687895  
5922.000000	64.733433  
5921.000000	64.797735  
5920.000000	64.874148  
5919.000000	64.954495  
5918.000000	65.029072  
5917.000000	65.087676  
5916.000000	65.121054  
5915.000000	65.121912  
5914.000000	65.087294  
5913.000000	65.018534  
5912.000000	64.922451  
5911.000000	64.811205  
5910.000000	64.699673  
5909.000000	64.602661  
5908.000000	64.532542  
5907.000000	64.497637  
5906.000000	64.499759  
5905.000000	64.534354  
5904.000000	64.591503  
5903.000000	64.658522  
5902.000000	64.721798  
5901.000000	64.769959  
5900.000000	64.794802  
5899.000000	64.792966  
5898.000000	64.767265  
5897.000000	64.726233  
5896.000000	64.681553  
5895.000000	64.645862  
5894.000000	64.630246  
5893.000000	64.641761  
5892.000000	64.682340  
5891.000000	64.748668  
5890.000000	64.833235  
5889.000000	64.926433  
5888.000000	65.018558  
5887.000000	65.102386  
5886.000000	65.173172  
5885.000000	65.230917  
5884.000000	65.277957  
5883.000000	65.320229  
5882.000000	65.364742  
5881.000000	65.418720  
5880.000000	65.487861  
5879.000000	65.574502  
5878.000000	65.677237  
5877.000000	65.789604  
5876.000000	65.901398  
5875.000000	65.998530  
5874.000000	66.065883  
5873.000000	66.089105  
5872.000000	66.058063  
5871.000000	65.969276  
5870.000000	65.827918  
5869.000000	65.647435  
5868.000000	65.447854  
5867.000000	65.253329  
5866.000000	65.087723  
5865.000000	64.970445  
5864.000000	64.913225  
5863.000000	64.918875  
5862.000000	64.981079  
5861.000000	65.085983  
5860.000000	65.215229  
5859.000000	65.349674  
5858.000000	65.472149  
5857.000000	65.568757  
5856.000000	65.631341  
5855.000000	65.657043  
5854.000000	65.647530  
5853.000000	65.607047  
5852.000000	65.541315  
5851.000000	65.456461  
5850.000000	65.357971  
5849.000000	65.251159  
5848.000000	65.140914  
5847.000000	65.032458  
5846.000000	64.930605  
5845.000000	64.839768  
5844.000000	64.763283  
5843.000000	64.702868  
5842.000000	64.657878  
5841.000000	64.625787  
5840.000000	64.602398  
5839.000000	64.583373  
5838.000000	64.565491  
5837.000000	64.546895  
5836.000000	64.526033  
5835.000000	64.502644  
5834.000000	64.477348  
5833.000000	64.451241  
5832.000000	64.424848  
5831.000000	64.398694  
5830.000000	64.373397  
5829.000000	64.349818  
5828.000000	64.329242  
5827.000000	64.313173  
5826.000000	64.302778  
5825.000000	64.298963  
5824.000000	64.301919  
5823.000000	64.310526  
5822.000000	64.322543  
5821.000000	64.334034  
5820.000000	64.340138  
5819.000000	64.336466  
5818.000000	64.320468  
5817.000000	64.291477  
5816.000000	64.252352  
5815.000000	64.209055  
5814.000000	64.170956  
5813.000000	64.148926  
5812.000000	64.153504  
5811.000000	64.193081  
5810.000000	64.271163  
5809.000000	64.384889  
5808.000000	64.525151  
5807.000000	64.677405  
5806.000000	64.825129  
5805.000000	64.953064  
5804.000000	65.049886  
5803.000000	65.110182  
5802.000000	65.134525  
5801.000000	65.128874  
5800.000000	65.102195  
5799.000000	65.064215  
5798.000000	65.024089  
5797.000000	64.989089  
5796.000000	64.964699  
5795.000000	64.954733  
5794.000000	64.960980  
5793.000000	64.983463  
5792.000000	65.020179  
5791.000000	65.067434  
5790.000000	65.118813  
5789.000000	65.166687  
5788.000000	65.203046  
5787.000000	65.221905  
5786.000000	65.220808  
5785.000000	65.201473  
5784.000000	65.170335  
5783.000000	65.135478  
5782.000000	65.104985  
5781.000000	65.083312  
5780.000000	65.069937  
5779.000000	65.059137  
5778.000000	65.042304  
5777.000000	65.010142  
5776.000000	64.956116  
5775.000000	64.878368  
5774.000000	64.780783  
5773.000000	64.672279  
5772.000000	64.564132  
5771.000000	64.468669  
5770.000000	64.396142  
5769.000000	64.353585  
5768.000000	64.343190  
5767.000000	64.364075  
5766.000000	64.413022  
5765.000000	64.485406  
5764.000000	64.576315  
5763.000000	64.681243  
5762.000000	64.795732  
5761.000000	64.914512  
5760.000000	65.030837  
5759.000000	65.136671  
5758.000000	65.222954  
5757.000000	65.281510  
5756.000000	65.305852  
5755.000000	65.292429  
5754.000000	65.242218  
5753.000000	65.161681  
5752.000000	65.062594  
5751.000000	64.960455  
5750.000000	64.872431  
5749.000000	64.814949  
5748.000000	64.799499  
5747.000000	64.831209  
5746.000000	64.906120  
5745.000000	65.012502  
5744.000000	65.131735  
5743.000000	65.242505  
5742.000000	65.324234  
5741.000000	65.361189  
5740.000000	65.344738  
5739.000000	65.274882  
5738.000000	65.159559  
5737.000000	65.013003  
5736.000000	64.852619  
5735.000000	64.696860  
5734.000000	64.561796  
5733.000000	64.460444  
5732.000000	64.402604  
5731.000000	64.394211  
5730.000000	64.437675  
5729.000000	64.531111  
5728.000000	64.668822  
5727.000000	64.840054  
5726.000000	65.028786  
5725.000000	65.215301  
5724.000000	65.378737  
5723.000000	65.499925  
5722.000000	65.564227  
5721.000000	65.564274  
5720.000000	65.501427  
5719.000000	65.385460  
5718.000000	65.233492  
5717.000000	65.065860  
5716.000000	64.902830  
5715.000000	64.760613  
5714.000000	64.649605  
5713.000000	64.572501  
5712.000000	64.525580  
5711.000000	64.500546  
5710.000000	64.488029  
5709.000000	64.480257  
5708.000000	64.473891  
5707.000000	64.469957  
5706.000000	64.473485  
5705.000000	64.490723  
5704.000000	64.526271  
5703.000000	64.581108  
5702.000000	64.650201  
5701.000000	64.722466  
5700.000000	64.782714  
5699.000000	64.815258  
5698.000000	64.808082  
5697.000000	64.756798  
5696.000000	64.665699  
5695.000000	64.547300  
5694.000000	64.419341  
5693.000000	64.301276  
5692.000000	64.208889  
5691.000000	64.150786  
5690.000000	64.127612  
5689.000000	64.132952  
5688.000000	64.156556  
5687.000000	64.188003  
5686.000000	64.219117  
5685.000000	64.246129  
5684.000000	64.270019  
5683.000000	64.295363  
5682.000000	64.326977  
5681.000000	64.368128  
5680.000000	64.418792  
5679.000000	64.475488  
5678.000000	64.532494  
5677.000000	64.583015  
5676.000000	64.622640  
5675.000000	64.648485  
5674.000000	64.660954  
5673.000000	64.661288  
5672.000000	64.651250  
5671.000000	64.631247  
5670.000000	64.600539  
5669.000000	64.557099  
5668.000000	64.498877  
5667.000000	64.425563  
5666.000000	64.339947  
5665.000000	64.248776  
5664.000000	64.162468  
5663.000000	64.093279  
5662.000000	64.052271  
5661.000000	64.047956  
5660.000000	64.084100  
5659.000000	64.157152  
5658.000000	64.256405  
5657.000000	64.366912  
5656.000000	64.472818  
5655.000000	64.560317  
5654.000000	64.620804  
5653.000000	64.652228  
5652.000000	64.658999  
5651.000000	64.650583  
5650.000000	64.637947  
5649.000000	64.630651  
5648.000000	64.633321  
5647.000000	64.645481  
5646.000000	64.660882  
5645.000000	64.670610  
5644.000000	64.665246  
5643.000000	64.638590  
5642.000000	64.589834  
5641.000000	64.523553  
5640.000000	64.450716  
5639.000000	64.384675  
5638.000000	64.341115  
5637.000000	64.332842  
5636.000000	64.371228  
5635.000000	64.463043  
5634.000000	64.611101  
5633.000000	64.813065  
5632.000000	65.061640  
5631.000000	65.344166  
5630.000000	65.642499  
5629.000000	65.933942  
5628.000000	66.193413  
5627.000000	66.396450  
5626.000000	66.523218  
5625.000000	66.561841  
5624.000000	66.512417  
5623.000000	66.386270  
5622.000000	66.206312  
5621.000000	66.000556  
5620.000000	65.799307  
5619.000000	65.627002  
5618.000000	65.500569  
5617.000000	65.425205  
5616.000000	65.396857  
5615.000000	65.403366  
5614.000000	65.429759  
5613.000000	65.461564  
5612.000000	65.488624  
5611.000000	65.505623  
5610.000000	65.511298  
5609.000000	65.506911  
5608.000000	65.493512  
5607.000000	65.470933  
5606.000000	65.436983  
5605.000000	65.388345  
5604.000000	65.321969  
5603.000000	65.237545  
5602.000000	65.138506  
5601.000000	65.032863  
5600.000000	64.931988  
5599.000000	64.846920  
5598.000000	64.786744  
5597.000000	64.757108  
5596.000000	64.758944  
5595.000000	64.787197  
5594.000000	64.832782  
5593.000000	64.885354  
5592.000000	64.934802  
5591.000000	64.973044  
5590.000000	64.994716  
5589.000000	64.995956  
5588.000000	64.975929  
5587.000000	64.935588  
5586.000000	64.878845  
5585.000000	64.811110  
5584.000000	64.740800  
5583.000000	64.678096  
5582.000000	64.634609  
5581.000000	64.621520  
5580.000000	64.647173  
5579.000000	64.714860  
5578.000000	64.821720  
5577.000000	64.958429  
5576.000000	65.110731  
5575.000000	65.261220  
5574.000000	65.391492  
5573.000000	65.484666  
5572.000000	65.529155  
5571.000000	65.519547  
5570.000000	65.456223  
5569.000000	65.345478  
5568.000000	65.199232  
5567.000000	65.033006  
5566.000000	64.864134  
5565.000000	64.709424  
5564.000000	64.584922  
5563.000000	64.501690  
5562.000000	64.465522  
5561.000000	64.474368  
5560.000000	64.519476  
5559.000000	64.585947  
5558.000000	64.655375  
5557.000000	64.709329  
5556.000000	64.731955  
5555.000000	64.714455  
5554.000000	64.656019  
5553.000000	64.564776  
5552.000000	64.455080  
5551.000000	64.346742  
5550.000000	64.260578  
5549.000000	64.214444  
5548.000000	64.219832  
5547.000000	64.281320  
5546.000000	64.395928  
5545.000000	64.553165  
5544.000000	64.737677  
5543.000000	64.931607  
5542.000000	65.118217  
5541.000000	65.283060  
5540.000000	65.417242  
5539.000000	65.516543  
5538.000000	65.582537  
5537.000000	65.621709  
5536.000000	65.642571  
5535.000000	65.653920  
5534.000000	65.661835  
5533.000000	65.671110  
5532.000000	65.681314  
5531.000000	65.688967  
5530.000000	65.686845  
5529.000000	65.668463  
5528.000000	65.626907  
5527.000000	65.558171  
5526.000000	65.460109  
5525.000000	65.333986  
5524.000000	65.182447  
5523.000000	65.009808  
5522.000000	64.820909  
5521.000000	64.621949  
5520.000000	64.420628  
5519.000000	64.227557  
5518.000000	64.054942  
5517.000000	63.917112  
5516.000000	63.828206  
5515.000000	63.800668  
5514.000000	63.839888  
5513.000000	63.944363  
5512.000000	64.103984  
5511.000000	64.302253  
5510.000000	64.516067  
5509.000000	64.722347  
5508.000000	64.900374  
5507.000000	65.036177  
5506.000000	65.123987  
5505.000000	65.165972  
5504.000000	65.169525  
5503.000000	65.145826  
5502.000000	65.106940  
5501.000000	65.063595  
5500.000000	65.023684  
5499.000000	64.992499  
5498.000000	64.973688  
5497.000000	64.968132  
5496.000000	64.974641  
5495.000000	64.989757  
5494.000000	65.008068  
5493.000000	65.021586  
5492.000000	65.020942  
5491.000000	64.996838  
5490.000000	64.942550  
5489.000000	64.854931  
5488.000000	64.736914  
5487.000000	64.597272  
5486.000000	64.450788  
5485.000000	64.314770  
5484.000000	64.208197  
5483.000000	64.146256  
5482.000000	64.140462  
5481.000000	64.195966  
5480.000000	64.311981  
5479.000000	64.480471  
5478.000000	64.688825  
5477.000000	64.921092  
5476.000000	65.159749  
5475.000000	65.386629  
5474.000000	65.586018  
5473.000000	65.745830  
5472.000000	65.858745  
5471.000000	65.922665  
5470.000000	65.940213  
5469.000000	65.917515  
5468.000000	65.863656  
5467.000000	65.788435  
5466.000000	65.701103  
5465.000000	65.608620  
5464.000000	65.516400  
5463.000000	65.427279  
5462.000000	65.343165  
5461.000000	65.264606  
5460.000000	65.192198  
5459.000000	65.126347  
5458.000000	65.066957  
5457.000000	65.013980  
5456.000000	64.965987  
5455.000000	64.922308  
5454.000000	64.882588  
5453.000000	64.848208  
5452.000000	64.821362  
5451.000000	64.805245  
5450.000000	64.802765  
5449.000000	64.815711  
5448.000000	64.842939  
5447.000000	64.881157  
5446.000000	64.925384  
5445.000000	64.969158  
5444.000000	65.005660  
5443.000000	65.030121  
5442.000000	65.040779  
5441.000000	65.038466  
5440.000000	65.026140  
5439.000000	65.007781  
5438.000000	64.986824  
5437.000000	64.966201  
5436.000000	64.947080  
5435.000000	64.929223  
5434.000000	64.910340  
5433.000000	64.888906  
5432.000000	64.862275  
5431.000000	64.827203  
5430.000000	64.780116  
5429.000000	64.717674  
5428.000000	64.638519  
5427.000000	64.543056  
5426.000000	64.435529  
5425.000000	64.323735  
5424.000000	64.217901  
5423.000000	64.128756  
5422.000000	64.064860  
5421.000000	64.030885  
5420.000000	64.025688  
5419.000000	64.042115  
5418.000000	64.069390  
5417.000000	64.095520  
5416.000000	64.112281  
5415.000000	64.117527  
5414.000000	64.115619  
5413.000000	64.116168  
5412.000000	64.131307  
5411.000000	64.171981  
5410.000000	64.243221  
5409.000000	64.342617  
5408.000000	64.460849  
5407.000000	64.583635  
5406.000000	64.696502  
5405.000000	64.787125  
5404.000000	64.848446  
5403.000000	64.879202  
5402.000000	64.883327  
5401.000000	64.868783  
5400.000000	64.844131  
5399.000000	64.817953  
5398.000000	64.796519  
5397.000000	64.784693  
5396.000000	64.786624  
5395.000000	64.804983  
5394.000000	64.842796  
5393.000000	64.899659  
5392.000000	64.972043  
5391.000000	65.050935  
5390.000000	65.123081  
5389.000000	65.171957  
5388.000000	65.181279  
5387.000000	65.138864  
5386.000000	65.040159  
5385.000000	64.890360  
5384.000000	64.704418  
5383.000000	64.504551  
5382.000000	64.316129  
5381.000000	64.163112  
5380.000000	64.062929  
5379.000000	64.023947  
5378.000000	64.043092  
5377.000000	64.107632  
5376.000000	64.197182  
5375.000000	64.287877  
5374.000000	64.358186  
5373.000000	64.392256  
5372.000000	64.383459  
5371.000000	64.332747  
5370.000000	64.249658  
5369.000000	64.148235  
5368.000000	64.044594  
5367.000000	63.952898  
5366.000000	63.883161  
5365.000000	63.839983  
5364.000000	63.822078  
5363.000000	63.824105  
5362.000000	63.837456  
5361.000000	63.853383  
5360.000000	63.864159  
5359.000000	63.865351  
5358.000000	63.856863  
5357.000000	63.843274  
5356.000000	63.831782  
5355.000000	63.830566  
5354.000000	63.847851  
5353.000000	63.888502  
5352.000000	63.952708  
5351.000000	64.034247  
5350.000000	64.122080  
5349.000000	64.201307  
5348.000000	64.256834  
5347.000000	64.276289  
5346.000000	64.253282  
5345.000000	64.188671  
5344.000000	64.091467  
5343.000000	63.975715  
5342.000000	63.857030  
5341.000000	63.749623  
5340.000000	63.664293  
5339.000000	63.605785  
5338.000000	63.572502  
5337.000000	63.559818  
5336.000000	63.562655  
5335.000000	63.574242  
5334.000000	63.587427  
5333.000000	63.596177  
5332.000000	63.595390  
5331.000000	63.579773  
5330.000000	63.543319  
5329.000000	63.479232  
5328.000000	63.380765  
5327.000000	63.244080  
5326.000000	63.068938  
5325.000000	62.858915  
5324.000000	62.622976  
5323.000000	62.373828  
5322.000000	62.129139  
5321.000000	61.907815  
5320.000000	61.730360  
5319.000000	61.612391  
5318.000000	61.567211  
5317.000000	61.600804  
5316.000000	61.715006  
5315.000000	61.903166  
5314.000000	62.156224  
5313.000000	62.459635  
5312.000000	62.801337  
5311.000000	63.170003  
5310.000000	63.558983  
5309.000000	63.962984  
5308.000000	64.376902  
5307.000000	64.791202  
5306.000000	65.189194  
5305.000000	65.544676  
5304.000000	65.824508  
5303.000000	65.992426  
5302.000000	66.016745  
5301.000000	65.878772  
5300.000000	65.579009  
5299.000000	65.143418  
5298.000000	64.622282  
5297.000000	64.086151  
5296.000000	63.615107  
5295.000000	63.284325  
5294.000000	63.152670  
5293.000000	63.247394  
5292.000000	63.558769  
5291.000000	64.041042  
5290.000000	64.621520  
5289.000000	65.216016  
5288.000000	65.744137  
5287.000000	66.146254  
5286.000000	66.392230  
5285.000000	66.481947  
5284.000000	66.438603  
5283.000000	66.298007  
5282.000000	66.096377  
5281.000000	65.861439  
5280.000000	65.608048  
5279.000000	65.338969  
5278.000000	65.050244  
5277.000000	64.739775  
5276.000000	64.413952  
5275.000000	64.088869  
5274.000000	63.790869  
5273.000000	63.551306  
5272.000000	63.400721  
5271.000000	63.355445  
5270.000000	63.418173  
5269.000000	63.573837  
5268.000000	63.796758  
5267.000000	64.052438  
5266.000000	64.309835  
5265.000000	64.543437  
5264.000000	64.742469  
5263.000000	64.907407  
5262.000000	65.051698  
5261.000000	65.193414  
5260.000000	65.350627  
5259.000000	65.534329  
5258.000000	65.744829  
5257.000000	65.972161  
5256.000000	66.196084  
5255.000000	66.392064  
5254.000000	66.538739  
5253.000000	66.623592  
5252.000000	66.646456  
5251.000000	66.618156  
5250.000000	66.554069  
5249.000000	66.468119  
5248.000000	66.370153  
5247.000000	66.261816  
5246.000000	66.138052  
5245.000000	65.988588  
5244.000000	65.806365  
5243.000000	65.588951  
5242.000000	65.341544  
5241.000000	65.077376  
5240.000000	64.814805  
5239.000000	64.575290  
5238.000000	64.377593  
5237.000000	64.236211  
5236.000000	64.156484  
5235.000000	64.136505  
5234.000000	64.167666  
5233.000000	64.236235  
5232.000000	64.324426  
5231.000000	64.415788  
5230.000000	64.496994  
5229.000000	64.560556  
5228.000000	64.603710  
5227.000000	64.632439  
5226.000000	64.658141  
5225.000000	64.695858  
5224.000000	64.758729  
5223.000000	64.853715  
5222.000000	64.977622  
5221.000000	65.116500  
5220.000000	65.248107  
5219.000000	65.346980  
5218.000000	65.391516  
5217.000000	65.370368  
5216.000000	65.286064  
5215.000000	65.154743  
5214.000000	65.002751  
5213.000000	64.861178  
5212.000000	64.757704  
5211.000000	64.710116  
5210.000000	64.722681  
5209.000000	64.787769  
5208.000000	64.886283  
5207.000000	64.994072  
5206.000000	65.086960  
5205.000000	65.147709  
5204.000000	65.167069  
5203.000000	65.144395  
5202.000000	65.087223  
5201.000000	65.007591  
5200.000000	64.921593  
5199.000000	64.845633  
5198.000000	64.795184  
5197.000000	64.781212  
5196.000000	64.809536  
5195.000000	64.878106  
5194.000000	64.977216  
5193.000000	65.090250  
5192.000000	65.195441  
5191.000000	65.270972  
5190.000000	65.298271  
5189.000000	65.268158  
5188.000000	65.182828  
5187.000000	65.056562  
5186.000000	64.912509  
5185.000000	64.777588  
5184.000000	64.676427  
5183.000000	64.625740  
5182.000000	64.630603  
5181.000000	64.684844  
5180.000000	64.773845  
5179.000000	64.878964  
5178.000000	64.983296  
5177.000000	65.074181  
5176.000000	65.145015  
5175.000000	65.194487  
5174.000000	65.224575  
5173.000000	65.239477  
5172.000000	65.243196  
5171.000000	65.239357  
5170.000000	65.230607  
5169.000000	65.219783  
5168.000000	65.209722  
5167.000000	65.204668  
5166.000000	65.208840  
5165.000000	65.225863  
5164.000000	65.256857  
5163.000000	65.299963  
5162.000000	65.349698  
5161.000000	65.398383  
5160.000000	65.436840  
5159.000000	65.457177  
5158.000000	65.453362  
5157.000000	65.422654  
5156.000000	65.366220  
5155.000000	65.288877  
5154.000000	65.199065  
5153.000000	65.106940  
5152.000000	65.024089  
5151.000000	64.961862  
5150.000000	64.928770  
5149.000000	64.929080  
5148.000000	64.961457  
5147.000000	65.018963  
5146.000000	65.091013  
5145.000000	65.165472  
5144.000000	65.229964  
5143.000000	65.274143  
5142.000000	65.291643  
5141.000000	65.280890  
5140.000000	65.244269  
5139.000000	65.187811  
5138.000000	65.119647  
5137.000000	65.048861  
5136.000000	64.984393  
5135.000000	64.933609  
5134.000000	64.902114  
5133.000000	64.893054  
5132.000000	64.907217  
5131.000000	64.943218  
5130.000000	64.997267  
5129.000000	65.064430  
5128.000000	65.138411  
5127.000000	65.213441  
5126.000000	65.284585  
5125.000000	65.348386  
5124.000000	65.402984  
5123.000000	65.446543  
5122.000000	65.476751  
5121.000000	65.490198  
5120.000000	65.482807  
5119.000000	65.450167  
5118.000000	65.389132  
5117.000000	65.299415  
5116.000000	65.184712  
5115.000000	65.053224  
5114.000000	64.917063  
5113.000000	64.789891  
5112.000000	64.684939  
5111.000000	64.612770  
5110.000000	64.579582  
5109.000000	64.585614  
5108.000000	64.626169  
5107.000000	64.692282  
5106.000000	64.773321  
5105.000000	64.858102  
5104.000000	64.937496  
5103.000000	65.004515  
5102.000000	65.055871  
5101.000000	65.090322  
5100.000000	65.109515  
5099.000000	65.116429  
5098.000000	65.114903  
5097.000000	65.109038  
5096.000000	65.102005  
5095.000000	65.096020  
5094.000000	65.091252  
5093.000000	65.086483  
5092.000000	65.078544  
5091.000000	65.063786  
5090.000000	65.038585  
5089.000000	65.000915  
5088.000000	64.951157  
5087.000000	64.892411  
5086.000000	64.830541  
5085.000000	64.772677  
5084.000000	64.725565  
5083.000000	64.693665  
5082.000000	64.678311  
5081.000000	64.677119  
5080.000000	64.684128  
5079.000000	64.691805  
5078.000000	64.692902  
5077.000000	64.682793  
5076.000000	64.660382  
5075.000000	64.628720  
5074.000000	64.593219  
5073.000000	64.560961  
5072.000000	64.538478  
5071.000000	64.530253  
5070.000000	64.536809  
5069.000000	64.555931  
5068.000000	64.583349  
5067.000000	64.614152  
5066.000000	64.644026  
5065.000000	64.670038  
5064.000000	64.691138  
5063.000000	64.707446  
5062.000000	64.719700  
5061.000000	64.727973  
5060.000000	64.731478  
5059.000000	64.729094  
5058.000000	64.719772  
5057.000000	64.703440  
5056.000000	64.681077  
5055.000000	64.655780  
5054.000000	64.631509  
5053.000000	64.612054  
5052.000000	64.599967  
5051.000000	64.595794  
5050.000000	64.597749  
5049.000000	64.602208  
5048.000000	64.604568  
5047.000000	64.600992  
5046.000000	64.588379  
5045.000000	64.565300  
5044.000000	64.531779  
5043.000000	64.488983  
5042.000000	64.438939  
5041.000000	64.384055  
5040.000000	64.327287  
5039.000000	64.271855  
5038.000000	64.222383  
5037.000000	64.184546  
5036.000000	64.164662  
5035.000000	64.168310  
5034.000000	64.199233  
5033.000000	64.258027  
5032.000000	64.340806  
5031.000000	64.439582  
5030.000000	64.543128  
5029.000000	64.638876  
5028.000000	64.715361  
5027.000000	64.764499  
5026.000000	64.782643  
5025.000000	64.771485  
5024.000000	64.737415  
5023.000000	64.690351  
5022.000000	64.641928  
5021.000000	64.602851  
5020.000000	64.581894  
5019.000000	64.583134  
5018.000000	64.606356  
5017.000000	64.645981  
5016.000000	64.693474  
5015.000000	64.737892  
5014.000000	64.768791  
5013.000000	64.777946  
5012.000000	64.760899  
5011.000000	64.718270  
5010.000000	64.655566  
5009.000000	64.582324  
5008.000000	64.510369  
5007.000000	64.451384  
5006.000000	64.414596  
5005.000000	64.405441  
5004.000000	64.424395  
5003.000000	64.467430  
5002.000000	64.526796  
5001.000000	64.592838  
5000.000000	64.655566  
4999.000000	64.706587  
4998.000000	64.740300  
4997.000000	64.753746  
4996.000000	64.746999  
4995.000000	64.722299  
4994.000000	64.683461  
4993.000000	64.634990  
4992.000000	64.581227  
4991.000000	64.526438  
4990.000000	64.473795  
4989.000000	64.426183  
4988.000000	64.385223  
4987.000000	64.351630  
4986.000000	64.325356  
4985.000000	64.305973  
4984.000000	64.293599  
4983.000000	64.289093  
4982.000000	64.294099  
4981.000000	64.310526  
4980.000000	64.339542  
4979.000000	64.381003  
4978.000000	64.432334  
4977.000000	64.489293  
4976.000000	64.545774  
4975.000000	64.595746  
4974.000000	64.634633  
4973.000000	64.660453  
4972.000000	64.674448  
4971.000000	64.680314  
4970.000000	64.683699  
4969.000000	64.689540  
4968.000000	64.701080  
4967.000000	64.717864  
4966.000000	64.736390  
4965.000000	64.750576  
4964.000000	64.754343  
4963.000000	64.742875  
4962.000000	64.714860  
4961.000000	64.672613  
4960.000000	64.621663  
4959.000000	64.569497  
4958.000000	64.523696  
4957.000000	64.490723  
4956.000000	64.474487  
4955.000000	64.476132  
4954.000000	64.494109  
4953.000000	64.524245  
4952.000000	64.561104  
4951.000000	64.598584  
4950.000000	64.631724  
4949.000000	64.657211  
4948.000000	64.674568  
4947.000000	64.685225  
4946.000000	64.692640  
4945.000000	64.701437  
4944.000000	64.715719  
4943.000000	64.738678  
4942.000000	64.770698  
4941.000000	64.809966  
4940.000000	64.851927  
4939.000000	64.890670  
4938.000000	64.919614  
4937.000000	64.933419  
4936.000000	64.928483  
4935.000000	64.904165  
4934.000000	64.862465  
4933.000000	64.807391  
4932.000000	64.744806  
4931.000000	64.681124  
4930.000000	64.623141  
4929.000000	64.577126  
4928.000000	64.548397  
4927.000000	64.540362  
4926.000000	64.553332  
4925.000000	64.584398  
4924.000000	64.627218  
4923.000000	64.673709  
4922.000000	64.715266  
4921.000000	64.745187  
4920.000000	64.759421  
4919.000000	64.758157  
4918.000000	64.745378  
4917.000000	64.727902  
4916.000000	64.713096  
4915.000000	64.706707  
4914.000000	64.711618  
4913.000000	64.726781  
4912.000000	64.747953  
4911.000000	64.768934  
4910.000000	64.784026  
4909.000000	64.789199  
4908.000000	64.783573  
4907.000000	64.769077  
4906.000000	64.749884  
4905.000000	64.730811  
4904.000000	64.715647  
4903.000000	64.707159  
4902.000000	64.706397  
4901.000000	64.713311  
4900.000000	64.726805  
4899.000000	64.744997  
4898.000000	64.765262  
4897.000000	64.784455  
4896.000000	64.799404  
4895.000000	64.806866  
4894.000000	64.804363  
4893.000000	64.790701  
4892.000000	64.766669  
4891.000000	64.735150  
4890.000000	64.700770  
4889.000000	64.669299  
4888.000000	64.645838  
4887.000000	64.633870  
4886.000000	64.633941  
4885.000000	64.643716  
4884.000000	64.658141  
4883.000000	64.671015  
4882.000000	64.676117  
4881.000000	64.669179  
4880.000000	64.648127  
4879.000000	64.613628  
4878.000000	64.568328  
4877.000000	64.516234  
4876.000000	64.462327  
4875.000000	64.411544  
4874.000000	64.368319  
4873.000000	64.335966  
4872.000000	64.316272  
4871.000000	64.309525  
4870.000000	64.314413  
4869.000000	64.328598  
4868.000000	64.349007  
4867.000000	64.373016  
4866.000000	64.398360  
4865.000000	64.424252  
4864.000000	64.450740  
4863.000000	64.478945  
4862.000000	64.510512  
4861.000000	64.546537  
4860.000000	64.586853  
4859.000000	64.629721  
4858.000000	64.672374  
4857.000000	64.710927  
4856.000000	64.741373  
4855.000000	64.760422  
4854.000000	64.766716  
4853.000000	64.760017  
4852.000000	64.741849  
4851.000000	64.714479  
4850.000000	64.680504  
4849.000000	64.642739  
4848.000000	64.603972  
4847.000000	64.566802  
4846.000000	64.533758  
4845.000000	64.507079  
4844.000000	64.488673  
4843.000000	64.479970  
4842.000000	64.481592  
4841.000000	64.492702  
4840.000000	64.511847  
4839.000000	64.536523  
4838.000000	64.564657  
4837.000000	64.594364  
4836.000000	64.625191  
4835.000000	64.657521  
4834.000000	64.692664  
4833.000000	64.732408  
4832.000000	64.777755  
4831.000000	64.828276  
4830.000000	64.881539  
4829.000000	64.933776  
4828.000000	64.979743  
4827.000000	65.014433  
4826.000000	65.033054  
4825.000000	65.032696  
4824.000000	65.012288  
4823.000000	64.973092  
4822.000000	64.917969  
4821.000000	64.851284  
4820.000000	64.778280  
4819.000000	64.704966  
4818.000000	64.637327  
4817.000000	64.581298  
4816.000000	64.542531  
4815.000000	64.525723  
4814.000000	64.533686  
4813.000000	64.566683  
4812.000000	64.622068  
4811.000000	64.693975  
4810.000000	64.773678  
4809.000000	64.850878  
4808.000000	64.915323  
4807.000000	64.958643  
4806.000000	64.975571  
4805.000000	64.965200  
4804.000000	64.931058  
4803.000000	64.880204  
4802.000000	64.821982  
4801.000000	64.765787  
4800.000000	64.719629  
4799.000000	64.688515  
4798.000000	64.674663  
4797.000000	64.676904  
4796.000000	64.691758  
4795.000000	64.714932  
4794.000000	64.742660  
4793.000000	64.771938  
4792.000000	64.801168  
4791.000000	64.830040  
4790.000000	64.859294  
4789.000000	64.889883  
4788.000000	64.922642  
4787.000000	64.957737  
4786.000000	64.994978  
4785.000000	65.034008  
4784.000000	65.074682  
4783.000000	65.117311  
4782.000000	65.162372  
4781.000000	65.210652  
4780.000000	65.262556  
4779.000000	65.317869  
4778.000000	65.375208  
4777.000000	65.432024  
4776.000000	65.484380  
4775.000000	65.528297  
4774.000000	65.559387  
4773.000000	65.574669  
4772.000000	65.571713  
4771.000000	65.549683  
4770.000000	65.508985  
4769.000000	65.451741  
4768.000000	65.381145  
4767.000000	65.301322  
4766.000000	65.217208  
4765.000000	65.134286  
4764.000000	65.058183  
4763.000000	64.994192  
4762.000000	64.946413  
4761.000000	64.917469  
4760.000000	64.908194  
4759.000000	64.917850  
4758.000000	64.942860  
4757.000000	64.978313  
4756.000000	65.018510  
4755.000000	65.057969  
4754.000000	65.091562  
4753.000000	65.116143  
4752.000000	65.130329  
4751.000000	65.135455  
4750.000000	65.134167  
4749.000000	65.130496  
4748.000000	65.128636  
4747.000000	65.131831  
4746.000000	65.142059  
4745.000000	65.159082  
4744.000000	65.180826  
4743.000000	65.203714  
4742.000000	65.223836  
4741.000000	65.237855  
4740.000000	65.243506  
4739.000000	65.240669  
4738.000000	65.230917  
4737.000000	65.216588  
4736.000000	65.199708  
4735.000000	65.181589  
4734.000000	65.162014  
4733.000000	65.139031  
4732.000000	65.109658  
4731.000000	65.071010  
4730.000000	65.021681  
4729.000000	64.962768  
4728.000000	64.898443  
4727.000000	64.835286  
4726.000000	64.781522  
4725.000000	64.745187  
4724.000000	64.732503  
4723.000000	64.746212  
4722.000000	64.785218  
4721.000000	64.844322  
4720.000000	64.915776  
4719.000000	64.990353  
4718.000000	65.059924  
4717.000000	65.118575  
4716.000000	65.163850  
4715.000000	65.196418  
4714.000000	65.219712  
4713.000000	65.238213  
4712.000000	65.256261  
4711.000000	65.276360  
4710.000000	65.298604  
4709.000000	65.320229  
4708.000000	65.336966  
4707.000000	65.343427  
4706.000000	65.334367  
4705.000000	65.306067  
4704.000000	65.257763  
4703.000000	65.192389  
4702.000000	65.116071  
4701.000000	65.038037  
4700.000000	64.968681  
4699.000000	64.918446  
4698.000000	64.895486  
4697.000000	64.904022  
4696.000000	64.943456  
4695.000000	65.008020  
4694.000000	65.088129  
4693.000000	65.171527  
4692.000000	65.245866  
4691.000000	65.300774  
4690.000000	65.329313  
4689.000000	65.329194  
4688.000000	65.302371  
4687.000000	65.254735  
4686.000000	65.194654  
4685.000000	65.131235  
4684.000000	65.073060  
4683.000000	65.027594  
4682.000000	65.000557  
4681.000000	64.995765  
4680.000000	65.014719  
4679.000000	65.057063  
4678.000000	65.120029  
4677.000000	65.198445  
4676.000000	65.284895  
4675.000000	65.370702  
4674.000000	65.446567  
4673.000000	65.503621  
4672.000000	65.535235  
4671.000000	65.537738  
4670.000000	65.511608  
4669.000000	65.461373  
4668.000000	65.394854  
4667.000000	65.322160  
4666.000000	65.253663  
4665.000000	65.198326  
4664.000000	65.162277  
4663.000000	65.148305  
4662.000000	65.155220  
4661.000000	65.178585  
4660.000000	65.212011  
4659.000000	65.248656  
4658.000000	65.282297  
4657.000000	65.308356  
4656.000000	65.324378  
4655.000000	65.329885  
4654.000000	65.326118  
4653.000000	65.314865  
4652.000000	65.297365  
4651.000000	65.273594  
4650.000000	65.243220  
4649.000000	65.205121  
4648.000000	65.158867  
4647.000000	65.104675  
4646.000000	65.044784  
4645.000000	64.982295  
4644.000000	64.921283  
4643.000000	64.865231  
4642.000000	64.816188  
4641.000000	64.774417  
4640.000000	64.738225  
4639.000000	64.704871  
4638.000000	64.671111  
4637.000000	64.635086  
4636.000000	64.596867  
4635.000000	64.558911  
4634.000000	64.525461  
4633.000000	64.501380  
4632.000000	64.490842  
4631.000000	64.496159  
4630.000000	64.517450  
4629.000000	64.552903  
4628.000000	64.599537  
4627.000000	64.654088  
4626.000000	64.713644  
4625.000000	64.775967  
4624.000000	64.839529  
4623.000000	64.902782  
4622.000000	64.963912  
4621.000000	65.020585  
4620.000000	65.070128  
4619.000000	65.110278  
4618.000000	65.139245  
4617.000000	65.157008  
4616.000000	65.164446  
4615.000000	65.164351  
4614.000000	65.159201  
4613.000000	65.151095  
4612.000000	65.140628  
4611.000000	65.127348  
4610.000000	65.109729  
4609.000000	65.086507  
4608.000000	65.057373  
4607.000000	65.023851  
4606.000000	64.989018  
4605.000000	64.956998  
4604.000000	64.931869  
4603.000000	64.916515  
4602.000000	64.912247  
4601.000000	64.918231  
4600.000000	64.932060  
4599.000000	64.950180  
4598.000000	64.969062  
4597.000000	64.985442  
4596.000000	64.996957  
4595.000000	65.001797  
4594.000000	64.998960  
4593.000000	64.987683  
4592.000000	64.966893  
4591.000000	64.936089  
4590.000000	64.896035  
4589.000000	64.848542  
4588.000000	64.796662  
4587.000000	64.743900  
4586.000000	64.694261  
4585.000000	64.650654  
4584.000000	64.614582  
4583.000000	64.586091  
4582.000000	64.563775  
4581.000000	64.545774  
4580.000000	64.530301  
4579.000000	64.516425  
4578.000000	64.503955  
4577.000000	64.493680  
4576.000000	64.486861  
4575.000000	64.484739  
4574.000000	64.488291  
4573.000000	64.497804  
4572.000000	64.512872  
4571.000000	64.533042  
4570.000000	64.557123  
4569.000000	64.583945  
4568.000000	64.611029  
4567.000000	64.634943  
4566.000000	64.650845  
4565.000000	64.653086  
4564.000000	64.636754  
4563.000000	64.598679  
4562.000000	64.539003  
4561.000000	64.462113  
4560.000000	64.376282  
4559.000000	64.292025  
4558.000000	64.220476  
4557.000000	64.170813  
4556.000000	64.148521  
4555.000000	64.154267  
4554.000000	64.184427  
4553.000000	64.231896  
4552.000000	64.287757  
4551.000000	64.343142  
4550.000000	64.390707  
4549.000000	64.425659  
4548.000000	64.445352  
4547.000000	64.449262  
4546.000000	64.437961  
4545.000000	64.413142  
4544.000000	64.376688  
4543.000000	64.331388  
4542.000000	64.281177  
4541.000000	64.230942  
4540.000000	64.187312  
4539.000000	64.156484  
4538.000000	64.143872  
4537.000000	64.151787  
4536.000000	64.178895  
4535.000000	64.219665  
4534.000000	64.264702  
4533.000000	64.303636  
4532.000000	64.327120  
4531.000000	64.329576  
4530.000000	64.310169  
4529.000000	64.272809  
4528.000000	64.224743  
4527.000000	64.174795  
4526.000000	64.130878  
4525.000000	64.098811  
4524.000000	64.081192  
4523.000000	64.077877  
4522.000000	64.086771  
4521.000000	64.104771  
4520.000000	64.128994  
4519.000000	64.156579  
4518.000000	64.185285  
4517.000000	64.213418  
4516.000000	64.239716  
4515.000000	64.262509  
4514.000000	64.279603  
4513.000000	64.288520  
4512.000000	64.286470  
4511.000000	64.272117  
4510.000000	64.244723  
4509.000000	64.205121  
4508.000000	64.155411  
4507.000000	64.099192  
4506.000000	64.040613  
4505.000000	63.983750  
4504.000000	63.932132  
4503.000000	63.888406  
4502.000000	63.854384  
4501.000000	63.830995  
4500.000000	63.818311  
4499.000000	63.815689  
4498.000000	63.821697  
4497.000000	63.833928  
4496.000000	63.849139  
4495.000000	63.863182  
4494.000000	63.871240  
4493.000000	63.868331  
4492.000000	63.850283  
4491.000000	63.815045  
4490.000000	63.762927  
4489.000000	63.697624  
4488.000000	63.625550  
4487.000000	63.555622  
4486.000000	63.497376  
4485.000000	63.459300  
4484.000000	63.447284  
4483.000000	63.463354  
4482.000000	63.505530  
4481.000000	63.568067  
4480.000000	63.641881  
4479.000000	63.716983  
4478.000000	63.784170  
4477.000000	63.836884  
4476.000000	63.871479  
4475.000000	63.888311  
4474.000000	63.890671  
4473.000000	63.884091  
4472.000000	63.874554  
4471.000000	63.866972  
4470.000000	63.864135  
4469.000000	63.866686  
4468.000000	63.873219  
4467.000000	63.880920  
4466.000000	63.887000  
4465.000000	63.889765  
4464.000000	63.889431  
4463.000000	63.888764  
4462.000000	63.891673  
4461.000000	63.902378  
4460.000000	63.923025  
4459.000000	63.953232  
4458.000000	63.988399  
4457.000000	64.021468  
4456.000000	64.042758  
4455.000000	64.042735  
4454.000000	64.013910  
4453.000000	63.953733  
4452.000000	63.864874  
4451.000000	63.755178  
4450.000000	63.636064  
4449.000000	63.520312  
4448.000000	63.419294  
4447.000000	63.340878  
4446.000000	63.288497  
4445.000000	63.261198  
4444.000000	63.256239  
4443.000000	63.270235  
4442.000000	63.301038  
4441.000000	63.347601  
4440.000000	63.407969  
4439.000000	63.478136  
4438.000000	63.550734  
4437.000000	63.615512  
4436.000000	63.660979  
4435.000000	63.677358  
4434.000000	63.657712  
4433.000000	63.601732  
4432.000000	63.517546  
4431.000000	63.420009  
4430.000000	63.329219  
4429.000000	63.264822  
4428.000000	63.237762  
4427.000000	63.252043  
4426.000000	63.310360  
4425.000000	63.406252  
4424.000000	63.518023  
4423.000000	63.625836  
4422.000000	63.727164  
4421.000000	63.815712  
4420.000000	63.872504  
4419.000000	63.891696  
4418.000000	63.883614  
4417.000000	63.864016  
4416.000000	63.852357  
4415.000000	63.857436  
4414.000000	63.874673  
4413.000000	63.910794  
4412.000000	63.974213  
4411.000000	64.074230  
4410.000000	64.206242  
4409.000000	64.336419  
4408.000000	64.417195  
4407.000000	64.355111  
4406.000000	64.086699  
4405.000000	63.630223  
4404.000000	63.084793  
4403.000000	62.633466  
4402.000000	62.481236  
4401.000000	62.735843  
4400.000000	63.472247  
4399.000000	64.599347  
4398.000000	66.092967  
4397.000000	68.026089  
4396.000000	70.591402  
4395.000000	74.110484  
4394.000000	78.772592  
4393.000000	84.526562  
4392.000000	90.944051  
4391.000000	97.231984  
4390.000000	102.466082 
4389.000000	105.795764 
4388.000000	106.724095 
4387.000000	105.218434 
4386.000000	101.637601 
4385.000000	96.626734  
4384.000000	90.887069  
4383.000000	85.041308  
4382.000000	79.570603  
4381.000000	74.748849  
4380.000000	70.766282  
4379.000000	67.675209  
4378.000000	65.466737  
4377.000000	64.067792  
4376.000000	63.320589  
4375.000000	63.064217  
4374.000000	63.112664  
4373.000000	63.329720  
4372.000000	63.588619  
4371.000000	63.828134  
4370.000000	64.004611  
4369.000000	64.117407  
4368.000000	64.158439  
4367.000000	64.145183  
4366.000000	64.104938  
4365.000000	64.065790  
4364.000000	64.045262  
4363.000000	64.057779  
4362.000000	64.113593  
4361.000000	64.209794  
4360.000000	64.331412  
4359.000000	64.467573  
4358.000000	64.610743  
4357.000000	64.743781  
4356.000000	64.846777  
4355.000000	64.899873  
4354.000000	64.888310  
4353.000000	64.821553  
4352.000000	64.720845  
4351.000000	64.595103  
4350.000000	64.451837  
4349.000000	64.311695  
4348.000000	64.192342  
4347.000000	64.096903  
4346.000000	64.023900  
4345.000000	63.976764  
4344.000000	63.954615  
4343.000000	63.952207  
4342.000000	63.961434  
4341.000000	63.970994  
4340.000000	63.970947  
4339.000000	63.954234  
4338.000000	63.918447  
4337.000000	63.865900  
4336.000000	63.802409  
4335.000000	63.735413  
4334.000000	63.670969  
4333.000000	63.612389  
4332.000000	63.560867  
4331.000000	63.515853  
4330.000000	63.476610  
4329.000000	63.443350  
4328.000000	63.417601  
4327.000000	63.402533  
4326.000000	63.400268  
4325.000000	63.413000  
4324.000000	63.441443  
4323.000000	63.485193  
4322.000000	63.542056  
4321.000000	63.608717  
4320.000000	63.680934  
4319.000000	63.754320  
4318.000000	63.825225  
4317.000000	63.890242  
4316.000000	63.946104  
4315.000000	63.990139  
4314.000000	64.020848  
4313.000000	64.037203  
4312.000000	64.039015  
4311.000000	64.027237  
4310.000000	64.004445  
4309.000000	63.973307  
4308.000000	63.936424  
4307.000000	63.895916  
4306.000000	63.853406  
4305.000000	63.809394  
4304.000000	63.763856  
4303.000000	63.716983  
4302.000000	63.669514  
4301.000000	63.622903  
4300.000000	63.579344  
4299.000000	63.541364  
4298.000000	63.511300  
4297.000000	63.490080  
4296.000000	63.477706  
4295.000000	63.472342  
4294.000000	63.471961  
4293.000000	63.474059  
4292.000000	63.477230  
4291.000000	63.480854  
4290.000000	63.486170  
4289.000000	63.495039  
4288.000000	63.510322  
4287.000000	63.533902  
4286.000000	63.567852  
4285.000000	63.613390  
4284.000000	63.671064  
4283.000000	63.740158  
4282.000000	63.818812  
4281.000000	63.903617  
4280.000000	63.989543  
4279.000000	64.070224  
4278.000000	64.138150  
4277.000000	64.186048  
4276.000000	64.208531  
4275.000000	64.203453  
4274.000000	64.172554  
4273.000000	64.121699  
4272.000000	64.060926  
4271.000000	64.002132  
4270.000000	63.956689  
4269.000000	63.933086  
4268.000000	63.935899  
4267.000000	63.964366  
4266.000000	64.013338  
4265.000000	64.074087  
4264.000000	64.137053  
4263.000000	64.193201  
4262.000000	64.235663  
4261.000000	64.260578  
4260.000000	64.267134  
4259.000000	64.257025  
4258.000000	64.233326  
4257.000000	64.199972  
4256.000000	64.160776  
4255.000000	64.119482  
4254.000000	64.079618  
4253.000000	64.044594  
4252.000000	64.017653  
4251.000000	64.002180  
4250.000000	64.001369  
4249.000000	64.017009  
4248.000000	64.049291  
4247.000000	64.096570  
4246.000000	64.155602  
4245.000000	64.221262  
4244.000000	64.287853  
4243.000000	64.349555  
4242.000000	64.401817  
4241.000000	64.441895  
4240.000000	64.469242  
4239.000000	64.484882  
4238.000000	64.491677  
4237.000000	64.493489  
4236.000000	64.494729  
4235.000000	64.499449  
4234.000000	64.510679  
4233.000000	64.530372  
4232.000000	64.558601  
4231.000000	64.594101  
4230.000000	64.633727  
4229.000000	64.673256  
4228.000000	64.707660  
4227.000000	64.731979  
4226.000000	64.742207  
4225.000000	64.735913  
4224.000000	64.712309  
4223.000000	64.672470  
4222.000000	64.619445  
4221.000000	64.558243  
4220.000000	64.494848  
4219.000000	64.436006  
4218.000000	64.388108  
4217.000000	64.356851  
4216.000000	64.346456  
4215.000000	64.359021  
4214.000000	64.393806  
4213.000000	64.447379  
4212.000000	64.514422  
4211.000000	64.588022  
4210.000000	64.660239  
4209.000000	64.723610  
4208.000000	64.771676  
4207.000000	64.800453  
4206.000000	64.808440  
4205.000000	64.797186  
4204.000000	64.770436  
4203.000000	64.734196  
4202.000000	64.695429  
4201.000000	64.661073  
4200.000000	64.636993  
4199.000000	64.627289  
4198.000000	64.633917  
4197.000000	64.657044  
4196.000000	64.694643  
4195.000000	64.743399  
4194.000000	64.798378  
4193.000000	64.853644  
4192.000000	64.902567  
4191.000000	64.938354  
4190.000000	64.955306  
4189.000000	64.949178  
4188.000000	64.918661  
4187.000000	64.866042  
4186.000000	64.797115  
4185.000000	64.719915  
4184.000000	64.644312  
4183.000000	64.580059  
4182.000000	64.535641  
4181.000000	64.516973  
4180.000000	64.526557  
4179.000000	64.562892  
4178.000000	64.621305  
4177.000000	64.694833  
4176.000000	64.774990  
4175.000000	64.853143  
4174.000000	64.922142  
4173.000000	64.976978  
4172.000000	65.015387  
4171.000000	65.037417  
4170.000000	65.044808  
4169.000000	65.040183  
4168.000000	65.026426  
4167.000000	65.006208  
4166.000000	64.982104  
4165.000000	64.956474  
4164.000000	64.932012  
4163.000000	64.911556  
4162.000000	64.898276  
4161.000000	64.895343  
4160.000000	64.905023  
4159.000000	64.928388  
4158.000000	64.964985  
4157.000000	65.012526  
4156.000000	65.067291  
4155.000000	65.123867  
4154.000000	65.176177  
4153.000000	65.218210  
4152.000000	65.245270  
4151.000000	65.254330  
4150.000000	65.244626  
4149.000000	65.218186  
4148.000000	65.179491  
4147.000000	65.134739  
4146.000000	65.090727  
4145.000000	65.053844  
4144.000000	65.028858  
4143.000000	65.018367  
4142.000000	65.022206  
4141.000000	65.037798  
4140.000000	65.060472  
4139.000000	65.084624  
4138.000000	65.104770  
4137.000000	65.116572  
4136.000000	65.117502  
4135.000000	65.107464  
4134.000000	65.088486  
4133.000000	65.064120  
4132.000000	65.038490  
4131.000000	65.015387  
4130.000000	64.997506  
4129.000000	64.985895  
4128.000000	64.980483  
4127.000000	64.980316  
4126.000000	64.984250  
4125.000000	64.991450  
4124.000000	65.001845  
4123.000000	65.016198  
4122.000000	65.035581  
4121.000000	65.060520  
4120.000000	65.091252  
4119.000000	65.127229  
4118.000000	65.166997  
4117.000000	65.208339  
4116.000000	65.248894  
4115.000000	65.286397  
4114.000000	65.319299  
4113.000000	65.346670  
4112.000000	65.368008  
4111.000000	65.383005  
4110.000000	65.391635  
4109.000000	65.394067  
4108.000000	65.390777  
4107.000000	65.382838  
4106.000000	65.371727  
4105.000000	65.359449  
4104.000000	65.348529  
4103.000000	65.341258  
4102.000000	65.339398  
4101.000000	65.343523  
4100.000000	65.353131  
4099.000000	65.366172  
4098.000000	65.379929  
4097.000000	65.390706  
4096.000000	65.394616  
4095.000000	65.388464  
4094.000000	65.370607  
4093.000000	65.341305  
4092.000000	65.303015  
4091.000000	65.260219  
4090.000000	65.218687  
4089.000000	65.184545  
4088.000000	65.162944  
4087.000000	65.157127  
4086.000000	65.167570  
4085.000000	65.192031  
4084.000000	65.225696  
4083.000000	65.262365  
4082.000000	65.295028  
4081.000000	65.317106  
4080.000000	65.323519  
4079.000000	65.311241  
4078.000000	65.279889  
4077.000000	65.231323  
4076.000000	65.170168  
4075.000000	65.102648  
4074.000000	65.036368  
4073.000000	64.979219  
4072.000000	64.938688  
4071.000000	64.920663  
4070.000000	64.928865  
4069.000000	64.964008  
4068.000000	65.023422  
4067.000000	65.101552  
4066.000000	65.190124  
4065.000000	65.279698  
4064.000000	65.360951  
4063.000000	65.425992  
4062.000000	65.469908  
4061.000000	65.491366  
4060.000000	65.492796  
4059.000000	65.479397  
4058.000000	65.458130  
4057.000000	65.435862  
4056.000000	65.418386  
4055.000000	65.409302  
4054.000000	65.409684  
4053.000000	65.418291  
4052.000000	65.432643  
4051.000000	65.449476  
4050.000000	65.466237  
4049.000000	65.481209  
4048.000000	65.493488  
4047.000000	65.503048  
4046.000000	65.510249  
4045.000000	65.515470  
4044.000000	65.518641  
4043.000000	65.519332  
4042.000000	65.516972  
4041.000000	65.511226  
4040.000000	65.502429  
4039.000000	65.491604  
4038.000000	65.480351  
4037.000000	65.470290  
4036.000000	65.462660  
4035.000000	65.458059  
4034.000000	65.456247  
4033.000000	65.455842  
4032.000000	65.454959  
4031.000000	65.451979  
4030.000000	65.445899  
4029.000000	65.436625  
4028.000000	65.424895  
4027.000000	65.412211  
4026.000000	65.399765  
4025.000000	65.388536  
4024.000000	65.378141  
4023.000000	65.367221  
4022.000000	65.353369  
4021.000000	65.334081  
4020.000000	65.307497  
4019.000000	65.273213  
4018.000000	65.232443  
4017.000000	65.187883  
4016.000000	65.143227  
4015.000000	65.102434  
4014.000000	65.068864  
4013.000000	65.044522  
4012.000000	65.029883  
4011.000000	65.024065  
4010.000000	65.025353  
4009.000000	65.031886  
4008.000000	65.042161  
4007.000000	65.055298  
4006.000000	65.071034  
4005.000000	65.089297  
4004.000000	65.109324  
4003.000000	65.130019  
4002.000000	65.149354  
4001.000000	65.165257  
4000.000000	65.175986  
3999.000000	65.180659  
3998.000000	65.179991  
3997.000000	65.175318  
3996.000000	65.168642  
3995.000000	65.161561  
3994.000000	65.154719  
3993.000000	65.147519  
3992.000000	65.138435  
3991.000000	65.125632  
3990.000000	65.107965  
3989.000000	65.085983  
3988.000000	65.062212  
3987.000000	65.040874  
3986.000000	65.026926  
3985.000000	65.024733  
3984.000000	65.036797  
3983.000000	65.062808  
3982.000000	65.099668  
3981.000000	65.142440  
3980.000000	65.185403  
3979.000000	65.223765  
3978.000000	65.254354  
3977.000000	65.276312  
3976.000000	65.290713  
3975.000000	65.299487  
3974.000000	65.304899  
3973.000000	65.308332  
3972.000000	65.310120  
3971.000000	65.309929  
3970.000000	65.306711  
3969.000000	65.299654  
3968.000000	65.288281  
3967.000000	65.273284  
3966.000000	65.255737  
3965.000000	65.237069  
3964.000000	65.218162  
3963.000000	65.199232  
3962.000000	65.179586  
3961.000000	65.157890  
3960.000000	65.132689  
3959.000000	65.103101  
3958.000000	65.069007  
3957.000000	65.031433  
3956.000000	64.992165  
3955.000000	64.953851  
3954.000000	64.919209  
3953.000000	64.890956  
3952.000000	64.871048  
3951.000000	64.860653  
3950.000000	64.859986  
3949.000000	64.868760  
3948.000000	64.885807  
3947.000000	64.909744  
3946.000000	64.939022  
3945.000000	64.972352  
3944.000000	65.008330  
3943.000000	65.045595  
3942.000000	65.082526  
3941.000000	65.117216  
3940.000000	65.147447  
3939.000000	65.170931  
3938.000000	65.185785  
3937.000000	65.190863  
3936.000000	65.186262  
3935.000000	65.173435  
3934.000000	65.155506  
3933.000000	65.136313  
3932.000000	65.120220  
3931.000000	65.110492  
3930.000000	65.108656  
3929.000000	65.113854  
3928.000000	65.123319  
3927.000000	65.132617  
3926.000000	65.136885  
3925.000000	65.132331  
3924.000000	65.117454  
3923.000000	65.093350  
3922.000000	65.063643  
3921.000000	65.034079  
3920.000000	65.010714  
3919.000000	64.997935  
3918.000000	64.997649  
3917.000000	65.008807  
3916.000000	65.027260  
3915.000000	65.047430  
3914.000000	65.062928  
3913.000000	65.068578  
3912.000000	65.061092  
3911.000000	65.040040  
3910.000000	65.007305  
3909.000000	64.966320  
3908.000000	64.921736  
3907.000000	64.878320  
3906.000000	64.840292  
3905.000000	64.810562  
3904.000000	64.790892  
3903.000000	64.781808  
3902.000000	64.782547  
3901.000000	64.791727  
3900.000000	64.807200  
3899.000000	64.826941  
3898.000000	64.848971  
3897.000000	64.872384  
3896.000000	64.897441  
3895.000000	64.925789  
3894.000000	64.960169  
3893.000000	65.002894  
3892.000000	65.055394  
3891.000000	65.116500  
3890.000000	65.182828  
3889.000000	65.248179  
3888.000000	65.305233  
3887.000000	65.346336  
3886.000000	65.365982  
3885.000000	65.361142  
3884.000000	65.332603  
3883.000000	65.284299  
3882.000000	65.222811  
3881.000000	65.155649  
3880.000000	65.089988  
3879.000000	65.031313  
3878.000000	64.983057  
3877.000000	64.946269  
3876.000000	64.920258  
3875.000000	64.903259  
3874.000000	64.893341  
3873.000000	64.888620  
3872.000000	64.887785  
3871.000000	64.889717  
3870.000000	64.893794  
3869.000000	64.899611  
3868.000000	64.907193  
3867.000000	64.916419  
3866.000000	64.927124  
3865.000000	64.938926  
3864.000000	64.950895  
3863.000000	64.961552  
3862.000000	64.969229  
3861.000000	64.972472  
3860.000000	64.970493  
3859.000000	64.963269  
3858.000000	64.951801  
3857.000000	64.938235  
3856.000000	64.925050  
3855.000000	64.914751  
3854.000000	64.909005  
3853.000000	64.908242  
3852.000000	64.911556  
3851.000000	64.917063  
3850.000000	64.922189  
3849.000000	64.924407  
3848.000000	64.922070  
3847.000000	64.915132  
3846.000000	64.904761  
3845.000000	64.893484  
3844.000000	64.884233  
3843.000000	64.879846  
3842.000000	64.882612  
3841.000000	64.893484  
3840.000000	64.912247  
3839.000000	64.937186  
3838.000000	64.965653  
3837.000000	64.994359  
3836.000000	65.019893  
3835.000000	65.039324  
3834.000000	65.050625  
3833.000000	65.053272  
3832.000000	65.047955  
3831.000000	65.037059  
3830.000000	65.023851  
3829.000000	65.012383  
3828.000000	65.006709  
3827.000000	65.010094  
3826.000000	65.024352  
3825.000000	65.049266  
3824.000000	65.082788  
3823.000000	65.120553  
3822.000000	65.156960  
3821.000000	65.185761  
3820.000000	65.201449  
3819.000000	65.200138  
3818.000000	65.180397  
3817.000000	65.143728  
3816.000000	65.094256  
3815.000000	65.037655  
3814.000000	64.980459  
3813.000000	64.928793  
3812.000000	64.887285  
3811.000000	64.858293  
3810.000000	64.841985  
3809.000000	64.836478  
3808.000000	64.838957  
3807.000000	64.846420  
3806.000000	64.856600  
3805.000000	64.867734  
3804.000000	64.879465  
3803.000000	64.892148  
3802.000000	64.906620  
3801.000000	64.922976  
3800.000000	64.940762  
3799.000000	64.958572  
3798.000000	64.974331  
3797.000000	64.985728  
3796.000000	64.990568  
3795.000000	64.987516  
3794.000000	64.976358  
3793.000000	64.958596  
3792.000000	64.937114  
3791.000000	64.915871  
3790.000000	64.899373  
3789.000000	64.891767  
3788.000000	64.896321  
3787.000000	64.914298  
3786.000000	64.945268  
3785.000000	64.986395  
3784.000000	65.032887  
3783.000000	65.078568  
3782.000000	65.117311  
3781.000000	65.143799  
3780.000000	65.154147  
3779.000000	65.146732  
3778.000000	65.122723  
3777.000000	65.085721  
3776.000000	65.040898  
3775.000000	64.994335  
3774.000000	64.951968  
3773.000000	64.918661  
3772.000000	64.897942  
3771.000000	64.891362  
3770.000000	64.898538  
3769.000000	64.917421  
3768.000000	64.944839  
3767.000000	64.976763  
3766.000000	65.008974  
3765.000000	65.037655  
3764.000000	65.059852  
3763.000000	65.073609  
3762.000000	65.078473  
3761.000000	65.075325  
3760.000000	65.066552  
3759.000000	65.055322  
3758.000000	65.045595  
3757.000000	65.041279  
3756.000000	65.045595  
3755.000000	65.060687  
3754.000000	65.086746  
3753.000000	65.122532  
3752.000000	65.164709  
3751.000000	65.208864  
3750.000000	65.249586  
3749.000000	65.281748  
3748.000000	65.300989  
3747.000000	65.304780  
3746.000000	65.292549  
3745.000000	65.265655  
3744.000000	65.227413  
3743.000000	65.182733  
3742.000000	65.136766  
3741.000000	65.094232  
3740.000000	65.058803  
3739.000000	65.032553  
3738.000000	65.015578  
3737.000000	65.006470  
3736.000000	65.002393  
3735.000000	65.000176  
3734.000000	64.996981  
3733.000000	64.991140  
3732.000000	64.981842  
3731.000000	64.969778  
3730.000000	64.956474  
3729.000000	64.944195  
3728.000000	64.934873  
3727.000000	64.930200  
3726.000000	64.930796  
3725.000000	64.936828  
3724.000000	64.947724  
3723.000000	64.962911  
3722.000000	64.981937  
3721.000000	65.004706  
3720.000000	65.031075  
3719.000000	65.060853  
3718.000000	65.093398  
3717.000000	65.127491  
3716.000000	65.161085  
3715.000000	65.191912  
3714.000000	65.217876  
3713.000000	65.237593  
3712.000000	65.250563  
3711.000000	65.257167  
3710.000000	65.258526  
3709.000000	65.255999  
3708.000000	65.251040  
3707.000000	65.244436  
3706.000000	65.236711  
3705.000000	65.228152  
3704.000000	65.219092  
3703.000000	65.210342  
3702.000000	65.202951  
3701.000000	65.198659  
3700.000000	65.198874  
3699.000000	65.204524  
3698.000000	65.215373  
3697.000000	65.229988  
3696.000000	65.245723  
3695.000000	65.259432  
3694.000000	65.268063  
3693.000000	65.269374  
3692.000000	65.262532  
3691.000000	65.248250  
3690.000000	65.228366  
3689.000000	65.205240  
3688.000000	65.181207  
3687.000000	65.158247  
3686.000000	65.137267  
3685.000000	65.118360  
3684.000000	65.101146  
3683.000000	65.085387  
3682.000000	65.071249  
3681.000000	65.059685  
3680.000000	65.052437  
3679.000000	65.051651  
3678.000000	65.059041  
3677.000000	65.075278  
3676.000000	65.099525  
3675.000000	65.129327  
3674.000000	65.160918  
3673.000000	65.189862  
3672.000000	65.212130  
3671.000000	65.224575  
3670.000000	65.226006  
3669.000000	65.216898  
3668.000000	65.199446  
3667.000000	65.176534  
3666.000000	65.151453  
3665.000000	65.126609  
3664.000000	65.103435  
3663.000000	65.082168  
3662.000000	65.062546  
3661.000000	65.044164  
3660.000000	65.026950  
3659.000000	65.011715  
3658.000000	64.999961  
3657.000000	64.993524  
3656.000000	64.993906  
3655.000000	65.001749  
3654.000000	65.016531  
3653.000000	65.036582  
3652.000000	65.059399  
3651.000000	65.082359  
3650.000000	65.103292  
3649.000000	65.120840  
3648.000000	65.134716  
3647.000000	65.145421  
3646.000000	65.153837  
3645.000000	65.160584  
3644.000000	65.165901  
3643.000000	65.169334  
3642.000000	65.170335  
3641.000000	65.168571  
3640.000000	65.164613  
3639.000000	65.159893  
3638.000000	65.156650  
3637.000000	65.157556  
3636.000000	65.164732  
3635.000000	65.179157  
3634.000000	65.200185  
3633.000000	65.225505  
3632.000000	65.251588  
3631.000000	65.274524  
3630.000000	65.290856  
3629.000000	65.298414  
3628.000000	65.296864  
3627.000000	65.287613  
3626.000000	65.273642  
3625.000000	65.258598  
3624.000000	65.246224  
3623.000000	65.239286  
3622.000000	65.239524  
3621.000000	65.246963  
3620.000000	65.260601  
3619.000000	65.278053  
3618.000000	65.296792  
3617.000000	65.314030  
3616.000000	65.327429  
3615.000000	65.335178  
3614.000000	65.336370  
3613.000000	65.330886  
3612.000000	65.319418  
3611.000000	65.302944  
3610.000000	65.282726  
3609.000000	65.259861  
3608.000000	65.235471  
3607.000000	65.210580  
3606.000000	65.186047  
3605.000000	65.162754  
3604.000000	65.141534  
3603.000000	65.123224  
3602.000000	65.108418  
3601.000000	65.097308  
3600.000000	65.089559  
3599.000000	65.084457  
3598.000000	65.080928  
3597.000000	65.077447  
3596.000000	65.072488  
3595.000000	65.064811  
3594.000000	65.053725  
3593.000000	65.039253  
3592.000000	65.021991  
3591.000000	65.003061  
3590.000000	64.984059  
3589.000000	64.966440  
3588.000000	64.952015  
3587.000000	64.942193  
3586.000000	64.938306  
3585.000000	64.941215  
3584.000000	64.951443  
3583.000000	64.968872  
3582.000000	64.992904  
3581.000000	65.022420  
3580.000000	65.055847  
3579.000000	65.091395  
3578.000000	65.127229  
3577.000000	65.161490  
3576.000000	65.192222  
3575.000000	65.217423  
3574.000000	65.235185  
3573.000000	65.243840  
3572.000000	65.242242  
3571.000000	65.229892  
3570.000000	65.207648  
3569.000000	65.177631  
3568.000000	65.143179  
3567.000000	65.108609  
3566.000000	65.078377  
3565.000000	65.056681  
3564.000000	65.046358  
3563.000000	65.048694  
3562.000000	65.062785  
3561.000000	65.086269  
3560.000000	65.115809  
3559.000000	65.147876  
3558.000000	65.179228  
3557.000000	65.207600  
3556.000000	65.231776  
3555.000000	65.251541  
3554.000000	65.267014  
3553.000000	65.278816  
3552.000000	65.287446  
3551.000000	65.293264  
3550.000000	65.296268  
3549.000000	65.296268  
3548.000000	65.292930  
3547.000000	65.286064  
3546.000000	65.275645  
3545.000000	65.262246  
3544.000000	65.246701  
3543.000000	65.230202  
3542.000000	65.213966  
3541.000000	65.198874  
3540.000000	65.185332  
3539.000000	65.173006  
3538.000000	65.160918  
3537.000000	65.147876  
3536.000000	65.132474  
3535.000000	65.113902  
3534.000000	65.092039  
3533.000000	65.067577  
3532.000000	65.042114  
3531.000000	65.017604  
3530.000000	64.996099  
3529.000000	64.979147  
3528.000000	64.967513  
3527.000000	64.960885  
3526.000000	64.958524  
3525.000000	64.959383  
3524.000000	64.962577  
3523.000000	64.967608  
3522.000000	64.974236  
3521.000000	64.982461  
3520.000000	64.992332  
3519.000000	65.003538  
3518.000000	65.015506  
3517.000000	65.027070  
3516.000000	65.036869  
3515.000000	65.043401  
3514.000000	65.045666  
3513.000000	65.042996  
3512.000000	65.035295  
3511.000000	65.023112  
3510.000000	65.007758  
3509.000000	64.990806  
3508.000000	64.974141  
3507.000000	64.959526  
3506.000000	64.948391  
3505.000000	64.941501  
3504.000000	64.938998  
3503.000000	64.940619  
3502.000000	64.945530  
3501.000000	64.953088  
3500.000000	64.963006  
3499.000000	64.975857  
3498.000000	64.992761  
3497.000000	65.015769  
3496.000000	65.046930  
3495.000000	65.087652  
3494.000000	65.137720  
3493.000000	65.194916  
3492.000000	65.254735  
3491.000000	65.311026  
3490.000000	65.356492  
3489.000000	65.384650  
3488.000000	65.390706  
3487.000000	65.372896  
3486.000000	65.332674  
3485.000000	65.275263  
3484.000000	65.207934  
3483.000000	65.139341  
3482.000000	65.077304  
3481.000000	65.028071  
3480.000000	64.994597  
3479.000000	64.976525  
3478.000000	64.970779  
3477.000000	64.972877  
3476.000000	64.978480  
3475.000000	64.984583  
3474.000000	64.990472  
3473.000000	64.997553  
3472.000000	65.008497  
3471.000000	65.026116  
3470.000000	65.051913  
3469.000000	65.085172  
3468.000000	65.123152  
3467.000000	65.161561  
3466.000000	65.196013  
3465.000000	65.222883  
3464.000000	65.240812  
3463.000000	65.250849  
3462.000000	65.255880  
3461.000000	65.259885  
3460.000000	65.266728  
3459.000000	65.278816  
3458.000000	65.296483  
3457.000000	65.318012  
3456.000000	65.340733  
3455.000000	65.361547  
3454.000000	65.378427  
3453.000000	65.390515  
3452.000000	65.398240  
3451.000000	65.403079  
3450.000000	65.406847  
3449.000000	65.410876  
3448.000000	65.415382  
3447.000000	65.419483  
3446.000000	65.421700  
3445.000000	65.420103  
3444.000000	65.412926  
3443.000000	65.399432  
3442.000000	65.379905  
3441.000000	65.355849  
3440.000000	65.329504  
3439.000000	65.303277  
3438.000000	65.279030  
3437.000000	65.257692  
3436.000000	65.238857  
3435.000000	65.221095  
3434.000000	65.202116  
3433.000000	65.180158  
3432.000000	65.154218  
3431.000000	65.124440  
3430.000000	65.092325  
3429.000000	65.060496  
3428.000000	65.032005  
3427.000000	65.009498  
3426.000000	64.994573  
3425.000000	64.987325  
3424.000000	64.986658  
3423.000000	64.990091  
3422.000000	64.995145  
3421.000000	65.000009  
3420.000000	65.004205  
3419.000000	65.008473  
3418.000000	65.014505  
3417.000000	65.023994  
3416.000000	65.038037  
3415.000000	65.056586  
3414.000000	65.077948  
3413.000000	65.099239  
3412.000000	65.116953  
3411.000000	65.127682  
3410.000000	65.129041  
3409.000000	65.119886  
3408.000000	65.100812  
3407.000000	65.073919  
3406.000000	65.042281  
3405.000000	65.009546  
3404.000000	64.979243  
3403.000000	64.954161  
3402.000000	64.935970  
3401.000000	64.924931  
3400.000000	64.920306  
3399.000000	64.920186  
3398.000000	64.921784  
3397.000000	64.922475  
3396.000000	64.919996  
3395.000000	64.913606  
3394.000000	64.903759  
3393.000000	64.892768  
3392.000000	64.883947  
3391.000000	64.881086  
3390.000000	64.887261  
3389.000000	64.903855  
3388.000000	64.930033  
3387.000000	64.962816  
3386.000000	64.997482  
3385.000000	65.028715  
3384.000000	65.051412  
3383.000000	65.062117  
3382.000000	65.059566  
3381.000000	65.044689  
3380.000000	65.020632  
3379.000000	64.991855  
3378.000000	64.963507  
3377.000000	64.939904  
3376.000000	64.924335  
3375.000000	64.918589  
3374.000000	64.922881  
3373.000000	64.936518  
3372.000000	64.957690  
3371.000000	64.984154  
3370.000000	65.013527  
3369.000000	65.043520  
3368.000000	65.071988  
3367.000000	65.097093  
3366.000000	65.117311  
3365.000000	65.131497  
3364.000000	65.139102  
3363.000000	65.139865  
3362.000000	65.134382  
3361.000000	65.123629  
3360.000000	65.108990  
3359.000000	65.091848  
3358.000000	65.073633  
3357.000000	65.055394  
3356.000000	65.037679  
3355.000000	65.020227  
3354.000000	65.002560  
3353.000000	64.983940  
3352.000000	64.963841  
3351.000000	64.942407  
3350.000000	64.920186  
3349.000000	64.898753  
3348.000000	64.880204  
3347.000000	64.867091  
3346.000000	64.861607  
3345.000000	64.865255  
3344.000000	64.878368  
3343.000000	64.900016  
3342.000000	64.927840  
3341.000000	64.958596  
3340.000000	64.988756  
3339.000000	65.015244  
3338.000000	65.035724  
3337.000000	65.049314  
3336.000000	65.056610  
3335.000000	65.059566  
3334.000000	65.060949  
3333.000000	65.063714  
3332.000000	65.070343  
3331.000000	65.082621  
3330.000000	65.100932  
3329.000000	65.124487  
3328.000000	65.151095  
3327.000000	65.178108  
3326.000000	65.202403  
3325.000000	65.221095  
3324.000000	65.231585  
3323.000000	65.232491  
3322.000000	65.223288  
3321.000000	65.204405  
3320.000000	65.177130  
3319.000000	65.143609  
3318.000000	65.106415  
3317.000000	65.068435  
3316.000000	65.032362  
3315.000000	65.000534  
3314.000000	64.974689  
3313.000000	64.955902  
3312.000000	64.944577  
3311.000000	64.940285  
3310.000000	64.942502  
3309.000000	64.950680  
3308.000000	64.964342  
3307.000000	64.983010  
3306.000000	65.006113  
3305.000000	65.032792  
3304.000000	65.061688  
3303.000000	65.090894  
3302.000000	65.118026  
3301.000000	65.140700  
3300.000000	65.156984  
3299.000000	65.166044  
3298.000000	65.168213  
3297.000000	65.164971  
3296.000000	65.158915  
3295.000000	65.152835  
3294.000000	65.149259  
3293.000000	65.149736  
3292.000000	65.154504  
3291.000000	65.162229  
3290.000000	65.170788  
3289.000000	65.177464  
3288.000000	65.179872  
3287.000000	65.176415  
3286.000000	65.166544  
3285.000000	65.151000  
3284.000000	65.131402  
3283.000000	65.110158  
3282.000000	65.089750  
3281.000000	65.072441  
3280.000000	65.060019  
3279.000000	65.053510  
3278.000000	65.053272  
3277.000000	65.058922  
3276.000000	65.069794  
3275.000000	65.084910  
3274.000000	65.103101  
3273.000000	65.123248  
3272.000000	65.143918  
3271.000000	65.163755  
3270.000000	65.181112  
3269.000000	65.194296  
3268.000000	65.201735  
3267.000000	65.202140  
3266.000000	65.194725  
3265.000000	65.179777  
3264.000000	65.158414  
3263.000000	65.132617  
3262.000000	65.104794  
3261.000000	65.077829  
3260.000000	65.054082  
3259.000000	65.035200  
3258.000000	65.021705  
3257.000000	65.013051  
3256.000000	65.007996  
3255.000000	65.004944  
3254.000000	65.002393  
3253.000000	64.999437  
3252.000000	64.996004  
3251.000000	64.992833  
3250.000000	64.991092  
3249.000000	64.991927  
3248.000000	64.996170  
3247.000000	65.004038  
3246.000000	65.014910  
3245.000000	65.027523  
3244.000000	65.040493  
3243.000000	65.052723  
3242.000000	65.063571  
3241.000000	65.073013  
3240.000000	65.081834  
3239.000000	65.091180  
3238.000000	65.102219  
3237.000000	65.115594  
3236.000000	65.131258  
3235.000000	65.148401  
3234.000000	65.165877  
3233.000000	65.182304  
3232.000000	65.196752  
3231.000000	65.208768  
3230.000000	65.218710  
3229.000000	65.227055  
3228.000000	65.234279  
3227.000000	65.240359  
3226.000000	65.244698  
3225.000000	65.246200  
3224.000000	65.243244  
3223.000000	65.234637  
3222.000000	65.219593  
3221.000000	65.198016  
3220.000000	65.170717  
3219.000000	65.139126  
3218.000000	65.105295  
3217.000000	65.071177  
3216.000000	65.039157  
3215.000000	65.011262  
3214.000000	64.989733  
3213.000000	64.976739  
3212.000000	64.974451  
3211.000000	64.984345  
3210.000000	65.006804  
3209.000000	65.040707  
3208.000000	65.083074  
3207.000000	65.129137  
3206.000000	65.173101  
3205.000000	65.209221  
3204.000000	65.232825  
3203.000000	65.241193  
3202.000000	65.234017  
3201.000000	65.213298  
3200.000000	65.182852  
3199.000000	65.147423  
3198.000000	65.111780  
3197.000000	65.079879  
3196.000000	65.054512  
3195.000000	65.037178  
3194.000000	65.028333  
3193.000000	65.027618  
3192.000000	65.034174  
3191.000000	65.046811  
3190.000000	65.064024  
3189.000000	65.083980  
3188.000000	65.104413  
3187.000000	65.123057  
3186.000000	65.137791  
3185.000000	65.147328  
3184.000000	65.151333  
3183.000000	65.150523  
3182.000000	65.146446  
3181.000000	65.141010  
3180.000000	65.136170  
3179.000000	65.133404  
3178.000000	65.133666  
3177.000000	65.137028  
3176.000000	65.142941  
3175.000000	65.150690  
3174.000000	65.159678  
3173.000000	65.169548  
3172.000000	65.179920  
3171.000000	65.190625  
3170.000000	65.201234  
3169.000000	65.211200  
3168.000000	65.219712  
3167.000000	65.225481  
3166.000000	65.227127  
3165.000000	65.223741  
3164.000000	65.214896  
3163.000000	65.200710  
3162.000000	65.181803  
3161.000000	65.159654  
3160.000000	65.135979  
3159.000000	65.112781  
3158.000000	65.091967  
3157.000000	65.075206  
3156.000000	65.063524  
3155.000000	65.057349  
3154.000000	65.056037  
3153.000000	65.058064  
3152.000000	65.061235  
3151.000000	65.062975  
3150.000000	65.061068  
3149.000000	65.053963  
3148.000000	65.041732  
3147.000000	65.026021  
3146.000000	65.010213  
3145.000000	64.998531  
3144.000000	64.995336  
3143.000000	65.004086  
3142.000000	65.026211  
3141.000000	65.060710  
3140.000000	65.104508  
3139.000000	65.152740  
3138.000000	65.199971  
3137.000000	65.241217  
3136.000000	65.272998  
3135.000000	65.293908  
3134.000000	65.304636  
3133.000000	65.307235  
3132.000000	65.304374  
3131.000000	65.298271  
3130.000000	65.290546  
3129.000000	65.281224  
3128.000000	65.269470  
3127.000000	65.253615  
3126.000000	65.232682  
3125.000000	65.206384  
3124.000000	65.175509  
3123.000000	65.142250  
3122.000000	65.109682  
3121.000000	65.081191  
3120.000000	65.059590  
3119.000000	65.046811  
3118.000000	65.043258  
3117.000000	65.047717  
3116.000000	65.057611  
3115.000000	65.069317  
3114.000000	65.079116  
3113.000000	65.083670  
3112.000000	65.080976  
3111.000000	65.070271  
3110.000000	65.052747  
3109.000000	65.030837  
3108.000000	65.008306  
3107.000000	64.988851  
3106.000000	64.975905  
3105.000000	64.972019  
3104.000000	64.978456  
3103.000000	64.994740  
3102.000000	65.019154  
3101.000000	65.049147  
3100.000000	65.082001  
3099.000000	65.115022  
3098.000000	65.146541  
3097.000000	65.175700  
3096.000000	65.202665  
3095.000000	65.228295  
3094.000000	65.253758  
3093.000000	65.279841  
3092.000000	65.306806  
3091.000000	65.334200  
3090.000000	65.360641  
3089.000000	65.384101  
3088.000000	65.402555  
3087.000000	65.414118  
3086.000000	65.417742  
3085.000000	65.413260  
3084.000000	65.401458  
3083.000000	65.383958  
3082.000000	65.363049  
3081.000000	65.340948  
3080.000000	65.319752  
3079.000000	65.300917  
3078.000000	65.285372  
3077.000000	65.273189  
3076.000000	65.264058  
3075.000000	65.257501  
3074.000000	65.252709  
3073.000000	65.249300  
3072.000000	65.246939  
3071.000000	65.245842  
3070.000000	65.246558  
3069.000000	65.249657  
3068.000000	65.255427  
3067.000000	65.263915  
3066.000000	65.274667  
3065.000000	65.286564  
3064.000000	65.297675  
3063.000000	65.305900  
3062.000000	65.309309  
3061.000000	65.306401  
3060.000000	65.296459  
3059.000000	65.280079  
3058.000000	65.258717  
3057.000000	65.234804  
3056.000000	65.210986  
3055.000000	65.189599  
3054.000000	65.172076  
3053.000000	65.158963  
3052.000000	65.149664  
3051.000000	65.142846  
3050.000000	65.136718  
3049.000000	65.130019  
3048.000000	65.121984  
3047.000000	65.112471  
3046.000000	65.102028  
3045.000000	65.091419  
3044.000000	65.081143  
3043.000000	65.070986  
3042.000000	65.059947  
3041.000000	65.046453  
3040.000000	65.028810  
3039.000000	65.005922  
3038.000000	64.977741  
3037.000000	64.945602  
3036.000000	64.912223  
3035.000000	64.881300  
3034.000000	64.856672  
3033.000000	64.841818  
3032.000000	64.838743  
3031.000000	64.847993  
3030.000000	64.868235  
3029.000000	64.896702  
3028.000000	64.929676  
3027.000000	64.963078  
3026.000000	64.993214  
3025.000000	65.017819  
3024.000000	65.035724  
3023.000000	65.047717  
3022.000000	65.055561  
3021.000000	65.061855  
3020.000000	65.069031  
3019.000000	65.078878  
3018.000000	65.092182  
3017.000000	65.108203  
3016.000000	65.125298  
3015.000000	65.140962  
3014.000000	65.152788  
3013.000000	65.158796  
3012.000000	65.158152  
3011.000000	65.151357  
3010.000000	65.140175  
3009.000000	65.127301  
3008.000000	65.115714  
3007.000000	65.108346  
3006.000000	65.106964  
3005.000000	65.112423  
3004.000000	65.123891  
3003.000000	65.139555  
3002.000000	65.156412  
3001.000000	65.170979  
3000.000000	65.179705  
2999.000000	65.179634  
2998.000000	65.169048  
2997.000000	65.147900  
2996.000000	65.117907  
2995.000000	65.082168  
2994.000000	65.044569  
2993.000000	65.009164  
2992.000000	64.979243  
2991.000000	64.956831  
2990.000000	64.942359  
2989.000000	64.935040  
2988.000000	64.933013  
2987.000000	64.934086  
2986.000000	64.936208  
2985.000000	64.937973  
2984.000000	64.938640  
2983.000000	64.938068  
2982.000000	64.936518  
2981.000000	64.934563  
2980.000000	64.932584  
2979.000000	64.930915  
2978.000000	64.929699  
2977.000000	64.929175  
2976.000000	64.929699  
2975.000000	64.931488  
2974.000000	64.934492  
2973.000000	64.938330  
2972.000000	64.942121  
2971.000000	64.944958  
2970.000000	64.946055  
2969.000000	64.945220  
2968.000000	64.942908  
2967.000000	64.940118  
2966.000000	64.938139  
2965.000000	64.938187  
2964.000000	64.940857  
2963.000000	64.946031  
2962.000000	64.952850  
2961.000000	64.959883  
2960.000000	64.965724  
2959.000000	64.969277  
2958.000000	64.970016  
2957.000000	64.968013  
2956.000000	64.964103  
2955.000000	64.959335  
2954.000000	64.954829  
2953.000000	64.951324  
2952.000000	64.949011  
2951.000000	64.947819  
2950.000000	64.947056  
2949.000000	64.946198  
2948.000000	64.944410  
2947.000000	64.940857  
2946.000000	64.934611  
2945.000000	64.924955  
2944.000000	64.911460  
2943.000000	64.894056  
2942.000000	64.873361  
2941.000000	64.850759  
2940.000000	64.828062  
2939.000000	64.807271  
2938.000000	64.790034  
2937.000000	64.777445  
2936.000000	64.769411  
2935.000000	64.764547  
2934.000000	64.760661  
2933.000000	64.755201  
2932.000000	64.745879  
2931.000000	64.731168  
2930.000000	64.710807  
2929.000000	64.685916  
2928.000000	64.658570  
2927.000000	64.631414  
2926.000000	64.607000  
2925.000000	64.587569  
2924.000000	64.574551  
2923.000000	64.568924  
2922.000000	64.570879  
2921.000000	64.580249  
2920.000000	64.596438  
2919.000000	64.618349  
2918.000000	64.644289  
2917.000000	64.672350  
2916.000000	64.700198  
2915.000000	64.725756  
2914.000000	64.747190  
2913.000000	64.763689  
2912.000000	64.775276  
2911.000000	64.783191  
2910.000000	64.789533  
2909.000000	64.796710  
2908.000000	64.806699  
2907.000000	64.820861  
2906.000000	64.839506  
2905.000000	64.861845  
2904.000000	64.886283  
2903.000000	64.910984  
2902.000000	64.934277  
2901.000000	64.955210  
2900.000000	64.973378  
2899.000000	64.988851  
2898.000000	65.001964  
2897.000000	65.013003  
2896.000000	65.021562  
2895.000000	65.027117  
2894.000000	65.028691  
2893.000000	65.025258  
2892.000000	65.016222  
2891.000000	65.001749  
2890.000000	64.982867  
2889.000000	64.961600  
2888.000000	64.940452  
2887.000000	64.921975  
2886.000000	64.908456  
2885.000000	64.901661  
2884.000000	64.902639  
2883.000000	64.911437  
2882.000000	64.927458  
2881.000000	64.949798  
2880.000000	64.977264  
2879.000000	65.008282  
2878.000000	65.041303  
2877.000000	65.074443  
2876.000000	65.105557  
2875.000000	65.132308  
2874.000000	65.152406  
2873.000000	65.163612  
2872.000000	65.164566  
2871.000000	65.154671  
2870.000000	65.134763  
2869.000000	65.106582  
2868.000000	65.073037  
2867.000000	65.037202  
2866.000000	65.002131  
2865.000000	64.970016  
2864.000000	64.942193  
2863.000000	64.918637  
2862.000000	64.898633  
2861.000000	64.880776  
2860.000000	64.863681  
2859.000000	64.846253  
2858.000000	64.827823  
2857.000000	64.808511  
2856.000000	64.788794  
2855.000000	64.769768  
2854.000000	64.752483  
2853.000000	64.738416  
2852.000000	64.728665  
2851.000000	64.724469  
2850.000000	64.726996  
2849.000000	64.737010  
2848.000000	64.754796  
2847.000000	64.779853  
2846.000000	64.810919  
2845.000000	64.845991  
2844.000000	64.882493  
2843.000000	64.917898  
2842.000000	64.950156  
2841.000000	64.978146  
2840.000000	65.001559  
2839.000000	65.020871  
2838.000000	65.036964  
2837.000000	65.050768  
2836.000000	65.062975  
2835.000000	65.073919  
2834.000000	65.083360  
2833.000000	65.091347  
2832.000000	65.097713  
2831.000000	65.102815  
2830.000000	65.106964  
2829.000000	65.110874  
2828.000000	65.114879  
2827.000000	65.118694  
2826.000000	65.121436  
2825.000000	65.121746  
2824.000000	65.118384  
2823.000000	65.110492  
2822.000000	65.098333  
2821.000000	65.083408  
2820.000000	65.068221  
2819.000000	65.055894  
2818.000000	65.049314  
2817.000000	65.050458  
2816.000000	65.059804  
2815.000000	65.076446  
2814.000000	65.097904  
2813.000000	65.121006  
2812.000000	65.142583  
2811.000000	65.160155  
2810.000000	65.172219  
2809.000000	65.178322  
2808.000000	65.178990  
2807.000000	65.175271  
2806.000000	65.168070  
2805.000000	65.158295  
2804.000000	65.146732  
2803.000000	65.133857  
2802.000000	65.120482  
2801.000000	65.107274  
2800.000000	65.095162  
2799.000000	65.084958  
2798.000000	65.077114  
2797.000000	65.071892  
2796.000000	65.068864  
2795.000000	65.067291  
2794.000000	65.066313  
2793.000000	65.065073  
2792.000000	65.062999  
2791.000000	65.059995  
2790.000000	65.056490  
2789.000000	65.053224  
2788.000000	65.051102  
2787.000000	65.050792  
2786.000000	65.052628  
2785.000000	65.056467  
2784.000000	65.061736  
2783.000000	65.067505  
2782.000000	65.072703  
2781.000000	65.076375  
2780.000000	65.077757  
2779.000000	65.076375  
2778.000000	65.072441  
2777.000000	65.066599  
2776.000000	65.060138  
2775.000000	65.054678  
2774.000000	65.051651  
2773.000000	65.052103  
2772.000000	65.056514  
2771.000000	65.064787  
2770.000000	65.076231  
2769.000000	65.090036  
2768.000000	65.105319  
2767.000000	65.121412  
2766.000000	65.137791  
2765.000000	65.153956  
2764.000000	65.169310  
2763.000000	65.183138  
2762.000000	65.194463  
2761.000000	65.202260  
2760.000000	65.205764  
2759.000000	65.204668  
2758.000000	65.199494  
2757.000000	65.191435  
2756.000000	65.182375  
2755.000000	65.174365  
2754.000000	65.169286  
2753.000000	65.168190  
2752.000000	65.171337  
2751.000000	65.178084  
2750.000000	65.187287  
2749.000000	65.197587  
2748.000000	65.207839  
2747.000000	65.217113  
2746.000000	65.225076  
2745.000000	65.231633  
2744.000000	65.236711  
2743.000000	65.240144  
2742.000000	65.241599  
2741.000000	65.240693  
2740.000000	65.237021  
2739.000000	65.230441  
2738.000000	65.221333  
2737.000000	65.210342  
2736.000000	65.198540  
2735.000000	65.186929  
2734.000000	65.176463  
2733.000000	65.167570  
2732.000000	65.160393  
2731.000000	65.154790  
2730.000000	65.150809  
2729.000000	65.148591  
2728.000000	65.148448  
2727.000000	65.150833  
2726.000000	65.155887  
2725.000000	65.163397  
2724.000000	65.172505  
2723.000000	65.181732  
2722.000000	65.189361  
2721.000000	65.193724  
2720.000000	65.193676  
2719.000000	65.188956  
2718.000000	65.180277  
2717.000000	65.169286  
2716.000000	65.158319  
2715.000000	65.149807  
2714.000000	65.145921  
2713.000000	65.147805  
2712.000000	65.155625  
2711.000000	65.168499  
2710.000000	65.184545  
2709.000000	65.201473  
2708.000000	65.216875  
2707.000000	65.228533  
2706.000000	65.234875  
2705.000000	65.234994  
2704.000000	65.228748  
2703.000000	65.216708  
2702.000000	65.200066  
2701.000000	65.180373  
2700.000000	65.159392  
2699.000000	65.138888  
2698.000000	65.120506  
2697.000000	65.105533  
2696.000000	65.094733  
2695.000000	65.088272  
2694.000000	65.085673  
2693.000000	65.085959  
2692.000000	65.087842  
2691.000000	65.089941  
2690.000000	65.091085  
2689.000000	65.090632  
2688.000000	65.088510  
2687.000000	65.085339  
2686.000000	65.082120  
2685.000000	65.080094  
2684.000000	65.080142  
2683.000000	65.082812  
2682.000000	65.087842  
2681.000000	65.093994  
2680.000000	65.099525  
2679.000000	65.102291  
2678.000000	65.100455  
2677.000000	65.093159  
2676.000000	65.080714  
2675.000000	65.064477  
2674.000000	65.046882  
2673.000000	65.030765  
2672.000000	65.018725  
2671.000000	65.012645  
2670.000000	65.013289  
2669.000000	65.019965  
2668.000000	65.030932  
2667.000000	65.044021  
2666.000000	65.056943  
2665.000000	65.067720  
2664.000000	65.075182  
2663.000000	65.079092  
2662.000000	65.080046  
2661.000000	65.079092  
2660.000000	65.077662  
2659.000000	65.077233  
2658.000000	65.079307  
2657.000000	65.085124  
2656.000000	65.095543  
2655.000000	65.110731  
2654.000000	65.130090  
2653.000000	65.152096  
2652.000000	65.174341  
2651.000000	65.193963  
2650.000000	65.208292  
2649.000000	65.215229  
2648.000000	65.214180  
2647.000000	65.205907  
2646.000000	65.192794  
2645.000000	65.178251  
2644.000000	65.165925  
2643.000000	65.158915  
2642.000000	65.158939  
2641.000000	65.166139  
2640.000000	65.179419  
2639.000000	65.196585  
2638.000000	65.215349  
2637.000000	65.233826  
2636.000000	65.251016  
2635.000000	65.266585  
2634.000000	65.280699  
2633.000000	65.293383  
2632.000000	65.303993  
2631.000000	65.311169  
2630.000000	65.313148  
2629.000000	65.308094  
2628.000000	65.294909  
2627.000000	65.273761  
2626.000000	65.246224  
2625.000000	65.215206  
2624.000000	65.184283  
2623.000000	65.156793  
2622.000000	65.135383  
2621.000000	65.120911  
2620.000000	65.112972  
2619.000000	65.109848  
2618.000000	65.109491  
2617.000000	65.110087  
2616.000000	65.110874  
2615.000000	65.112280  
2614.000000	65.115904  
2613.000000	65.123558  
2612.000000	65.136694  
2611.000000	65.155625  
2610.000000	65.179252  
2609.000000	65.204977  
2608.000000	65.229368  
2607.000000	65.248894  
2606.000000	65.260791  
2605.000000	65.263676  
2604.000000	65.257954  
2603.000000	65.245485  
2602.000000	65.229105  
2601.000000	65.211868  
2600.000000	65.196228  
2599.000000	65.183782  
2598.000000	65.175080  
2597.000000	65.169835  
2596.000000	65.167522  
2595.000000	65.167450  
2594.000000	65.169453  
2593.000000	65.173482  
2592.000000	65.179419  
2591.000000	65.186810  
2590.000000	65.194606  
2589.000000	65.201377  
2588.000000	65.205383  
2587.000000	65.205121  
2586.000000	65.199875  
2585.000000	65.189838  
2584.000000	65.176391  
2583.000000	65.161538  
2582.000000	65.147590  
2581.000000	65.136575  
2580.000000	65.129613  
2579.000000	65.126872  
2578.000000	65.127563  
2577.000000	65.130567  
2576.000000	65.134668  
2575.000000	65.139174  
2574.000000	65.143609  
2573.000000	65.147900  
2572.000000	65.151906  
2571.000000	65.155100  
2570.000000	65.156602  
2569.000000	65.155267  
2568.000000	65.150022  
2567.000000	65.140390  
2566.000000	65.126848  
2565.000000	65.110588  
2564.000000	65.093517  
2563.000000	65.078020  
2562.000000	65.066361  
2561.000000	65.060377  
2560.000000	65.061068  
2559.000000	65.068459  
2558.000000	65.081501  
2557.000000	65.098476  
2556.000000	65.117049  
2555.000000	65.134572  
2554.000000	65.148591  
2553.000000	65.157222  
2552.000000	65.159225  
2551.000000	65.154314  
2550.000000	65.143084  
2549.000000	65.127182  
2548.000000	65.108966  
2547.000000	65.090894  
2546.000000	65.075206  
2545.000000	65.063357  
2544.000000	65.055966  
2543.000000	65.052795  
2542.000000	65.052866  
2541.000000	65.055131  
2540.000000	65.058612  
2539.000000	65.063142  
2538.000000	65.069055  
2537.000000	65.077280  
2536.000000	65.088725  
2535.000000	65.103864  
2534.000000	65.122270  
2533.000000	65.142560  
2532.000000	65.162444  
2531.000000	65.179228  
2530.000000	65.190553  
2529.000000	65.194606  
2528.000000	65.190887  
2527.000000	65.179800  
2526.000000	65.162634  
2525.000000	65.141153  
2524.000000	65.117263  
2523.000000	65.093040  
2522.000000	65.070700  
2521.000000	65.052556  
2520.000000	65.040969  
2519.000000	65.037846  
2518.000000	65.044522  
2517.000000	65.061259  
2516.000000	65.087127  
2515.000000	65.119767  
2514.000000	65.155720  
2513.000000	65.191030  
2512.000000	65.221881  
2511.000000	65.245342  
2510.000000	65.259480  
2509.000000	65.264010  
2508.000000	65.259718  
2507.000000	65.248250  
2506.000000	65.231370  
2505.000000	65.210819  
2504.000000	65.187764  
2503.000000	65.162992  
2502.000000	65.137076  
2501.000000	65.110540  
2500.000000	65.084171  
2499.000000	65.059161  
2498.000000	65.036869  
2497.000000	65.018725  
2496.000000	65.006041  
2495.000000	64.999961  
2494.000000	65.001106  
2493.000000	65.009641  
2492.000000	65.025210  
2491.000000	65.046954  
2490.000000	65.073513  
2489.000000	65.103125  
2488.000000	65.133738  
2487.000000	65.163016  
2486.000000	65.188670  
2485.000000	65.208888  
2484.000000	65.222382  
2483.000000	65.229105  
2482.000000	65.229773  
2481.000000	65.225982  
2480.000000	65.219950  
2479.000000	65.213847  
2478.000000	65.209484  
2477.000000	65.207767  
2476.000000	65.208649  
2475.000000	65.211224  
2474.000000	65.214061  
2473.000000	65.215587  
2472.000000	65.214514  
2471.000000	65.210175  
2470.000000	65.202879  
2469.000000	65.193581  
2468.000000	65.183615  
2467.000000	65.174531  
2466.000000	65.167474  
2465.000000	65.163064  
2464.000000	65.161323  
2463.000000	65.161585  
2462.000000	65.162801  
2461.000000	65.163755  
2460.000000	65.163564  
2459.000000	65.161323  
2458.000000	65.156865  
2457.000000	65.150427  
2456.000000	65.142869  
2455.000000	65.135073  
2454.000000	65.128111  
2453.000000	65.123009  
2452.000000	65.120720  
2451.000000	65.121698  
2450.000000	65.126395  
2449.000000	65.134811  
2448.000000	65.146923  
2447.000000	65.162444  
2446.000000	65.180897  
2445.000000	65.201520  
2444.000000	65.223121  
2443.000000	65.244293  
2442.000000	65.263414  
2441.000000	65.278744  
2440.000000	65.288710  
2439.000000	65.292263  
2438.000000	65.289306  
2437.000000	65.280699  
2436.000000	65.268349  
2435.000000	65.254640  
2434.000000	65.242266  
2433.000000	65.233230  
2432.000000	65.228700  
2431.000000	65.228724  
2430.000000	65.232181  
2429.000000	65.237188  
2428.000000	65.241432  
2427.000000	65.242981  
2426.000000	65.240597  
2425.000000	65.234208  
2424.000000	65.224838  
2423.000000	65.214586  
2422.000000	65.206003  
2421.000000	65.201711  
2420.000000	65.203738  
2419.000000	65.213060  
2418.000000	65.229153  
2417.000000	65.250086  
2416.000000	65.272951  
2415.000000	65.294075  
2414.000000	65.309953  
2413.000000	65.317630  
2412.000000	65.315365  
2411.000000	65.302944  
2410.000000	65.281343  
2409.000000	65.252900  
2408.000000	65.220570  
2407.000000	65.187501  
2406.000000	65.156364  
2405.000000	65.129232  
2404.000000	65.107178  
2403.000000	65.090441  
2402.000000	65.078616  
2401.000000	65.070796  
2400.000000	65.066194  
2399.000000	65.064024  
2398.000000	65.063929  
2397.000000	65.065598  
2396.000000	65.069246  
2395.000000	65.075039  
2394.000000	65.083336  
2393.000000	65.094041  
2392.000000	65.106892  
2391.000000	65.121150  
2390.000000	65.135765  
2389.000000	65.149569  
2388.000000	65.161395  
2387.000000	65.170383  
2386.000000	65.176081  
2385.000000	65.178585  
2384.000000	65.178537  
2383.000000	65.176916  
2382.000000	65.174889  
2381.000000	65.173411  
2380.000000	65.173101  
2379.000000	65.173912  
2378.000000	65.175485  
2377.000000	65.177130  
2376.000000	65.178012  
2375.000000	65.177583  
2374.000000	65.175795  
2373.000000	65.173196  
2372.000000	65.170550  
2371.000000	65.168857  
2370.000000	65.169167  
2369.000000	65.172290  
2368.000000	65.178370  
2367.000000	65.187191  
2366.000000	65.197992  
2365.000000	65.209579  
2364.000000	65.220642  
2363.000000	65.229701  
2362.000000	65.235614  
2361.000000	65.237545  
2360.000000	65.235352  
2359.000000	65.229392  
2358.000000	65.220403  
2357.000000	65.209674  
2356.000000	65.198540  
2355.000000	65.188360  
2354.000000	65.180134  
2353.000000	65.174365  
2352.000000	65.171122  
2351.000000	65.170025  
2350.000000	65.170574  
2349.000000	65.172123  
2348.000000	65.174388  
2347.000000	65.177369  
2346.000000	65.181541  
2345.000000	65.187764  
2344.000000	65.196871  
2343.000000	65.209507  
2342.000000	65.225791  
2341.000000	65.245127  
2340.000000	65.266275  
2339.000000	65.287327  
2338.000000	65.306091  
2337.000000	65.320515  
2336.000000	65.328788  
2335.000000	65.329861  
2334.000000	65.323710  
2333.000000	65.311193  
2332.000000	65.294027  
2331.000000	65.274524  
2330.000000	65.255427  
2329.000000	65.239381  
2328.000000	65.228843  
2327.000000	65.225577  
2326.000000	65.230488  
2325.000000	65.243411  
2324.000000	65.263223  
2323.000000	65.287637  
2322.000000	65.313982  
2321.000000	65.339159  
2320.000000	65.360236  
2319.000000	65.375018  
2318.000000	65.382409  
2317.000000	65.382695  
2316.000000	65.377116  
2315.000000	65.367698  
2314.000000	65.356755  
2313.000000	65.346121  
2312.000000	65.336918  
2311.000000	65.329432  
2310.000000	65.323257  
2309.000000	65.317606  
2308.000000	65.311789  
2307.000000	65.305495  
2306.000000	65.299153  
2305.000000	65.293765  
2304.000000	65.290665  
2303.000000	65.290951  
2302.000000	65.295076  
2301.000000	65.302729  
2300.000000	65.312480  
2299.000000	65.322184  
2298.000000	65.329146  
2297.000000	65.330982  
2296.000000	65.325951  
2295.000000	65.313577  
2294.000000	65.294551  
2293.000000	65.270757  
2292.000000	65.244674  
2291.000000	65.219330  
2290.000000	65.197253  
2289.000000	65.180230  
2288.000000	65.168976  
2287.000000	65.163040  
2286.000000	65.161228  
2285.000000	65.161919  
2284.000000	65.163588  
2283.000000	65.165352  
2282.000000	65.167021  
2281.000000	65.169167  
2280.000000	65.172791  
2279.000000	65.178966  
2278.000000	65.188431  
2277.000000	65.201187  
2276.000000	65.216612  
2275.000000	65.233397  
2274.000000	65.250086  
2273.000000	65.265154  
2272.000000	65.277719  
2271.000000	65.287280  
2270.000000	65.293931  
2269.000000	65.298056  
2268.000000	65.300250  
2267.000000	65.301084  
2266.000000	65.300774  
2265.000000	65.299534  
2264.000000	65.297555  
2263.000000	65.295195  
2262.000000	65.293216  
2261.000000	65.292334  
2260.000000	65.293312  
2259.000000	65.296435  
2258.000000	65.301585  
2257.000000	65.307950  
2256.000000	65.314078  
2255.000000	65.318298  
2254.000000	65.319180  
2253.000000	65.315961  
2252.000000	65.308952  
2251.000000	65.299367  
2250.000000	65.289139  
2249.000000	65.280365  
2248.000000	65.274620  
2247.000000	65.272712  
2246.000000	65.274214  
2245.000000	65.277814  
2244.000000	65.281701  
2243.000000	65.283870  
2242.000000	65.283012  
2241.000000	65.278553  
2240.000000	65.270996  
2239.000000	65.261459  
2238.000000	65.251660  
2237.000000	65.243387  
2236.000000	65.238118  
2235.000000	65.236663  
2234.000000	65.239071  
2233.000000	65.244746  
2232.000000	65.252494  
2231.000000	65.260839  
2230.000000	65.268206  
2229.000000	65.273284  
2228.000000	65.275049  
2227.000000	65.273094  
2226.000000	65.267777  
2225.000000	65.260219  
2224.000000	65.251994  
2223.000000	65.244865  
2222.000000	65.240287  
2221.000000	65.239167  
2220.000000	65.241599  
2219.000000	65.246820  
2218.000000	65.253472  
2217.000000	65.259933  
2216.000000	65.264868  
2215.000000	65.267348  
2214.000000	65.266966  
2213.000000	65.263795  
2212.000000	65.258193  
2211.000000	65.250658  
2210.000000	65.241765  
2209.000000	65.231990  
2208.000000	65.221810  
2207.000000	65.211677  
2206.000000	65.202307  
2205.000000	65.194416  
2204.000000	65.188765  
2203.000000	65.185856  
2202.000000	65.185713  
2201.000000	65.187788  
2200.000000	65.191030  
2199.000000	65.194177  
2198.000000	65.196180  
2197.000000	65.196299  
2196.000000	65.194487  
2195.000000	65.191221  
2194.000000	65.187525  
2193.000000	65.184497  
2192.000000	65.183258  
2191.000000	65.184760  
2190.000000	65.189480  
2189.000000	65.197730  
2188.000000	65.209126  
2187.000000	65.223050  
2186.000000	65.238237  
2185.000000	65.253138  
2184.000000	65.265727  
2183.000000	65.274047  
2182.000000	65.276241  
2181.000000	65.271186  
2180.000000	65.258693  
2179.000000	65.239524  
2178.000000	65.215492  
2177.000000	65.189361  
2176.000000	65.164208  
2175.000000	65.142774  
2174.000000	65.127134  
2173.000000	65.118288  
2172.000000	65.115952  
2171.000000	65.118980  
2170.000000	65.125370  
2169.000000	65.132975  
2168.000000	65.139937  
2167.000000	65.145063  
2166.000000	65.147686  
2165.000000	65.147876  
2164.000000	65.146422  
2163.000000	65.144467  
2162.000000	65.143108  
2161.000000	65.143299  
2160.000000	65.145564  
2159.000000	65.150094  
2158.000000	65.156698  
2157.000000	65.165138  
2156.000000	65.175199  
2155.000000	65.186977  
2154.000000	65.200686  
2153.000000	65.216684  
2152.000000	65.235304  
2151.000000	65.256309  
2150.000000	65.279030  
2149.000000	65.301918  
2148.000000	65.322661  
2147.000000	65.338730  
2146.000000	65.347599  
2145.000000	65.347242  
2144.000000	65.336465  
2143.000000	65.315461  
2142.000000	65.285611  
2141.000000	65.249347  
2140.000000	65.209531  
2139.000000	65.169310  
2138.000000	65.131521  
2137.000000	65.098452  
2136.000000	65.071725  
2135.000000	65.052103  
2134.000000	65.039730  
2133.000000	65.034246  
2132.000000	65.034937  
2131.000000	65.040564  
2130.000000	65.049886  
2129.000000	65.061545  
2128.000000	65.074396  
2127.000000	65.087151  
2126.000000	65.098857  
2125.000000	65.108728  
2124.000000	65.116381  
2123.000000	65.121579  
2122.000000	65.124607  
2121.000000	65.126061  
2120.000000	65.126872  
2119.000000	65.127992  
2118.000000	65.130496  
2117.000000	65.135121  
2116.000000	65.142464  
2115.000000	65.152597  
2114.000000	65.165162  
2113.000000	65.179324  
2112.000000	65.194129  
2111.000000	65.208387  
2110.000000	65.221047  
2109.000000	65.231013  
2108.000000	65.237712  
2107.000000	65.240836  
2106.000000	65.240192  
2105.000000	65.235996  
2104.000000	65.228772  
2103.000000	65.219378  
2102.000000	65.209007  
2101.000000	65.198969  
2100.000000	65.190744  
2099.000000	65.185499  
2098.000000	65.183615  
2097.000000	65.184783  
2096.000000	65.187811  
2095.000000	65.191054  
2094.000000	65.192890  
2093.000000	65.191984  
2092.000000	65.187883  
2091.000000	65.181159  
2090.000000	65.173196  
2089.000000	65.165781  
2088.000000	65.160679  
2087.000000	65.158891  
2086.000000	65.160417  
2085.000000	65.164232  
2084.000000	65.168499  
2083.000000	65.171217  
2082.000000	65.170669  
2081.000000	65.165972  
2080.000000	65.157198  
2079.000000	65.145587  
2078.000000	65.132975  
2077.000000	65.121245  
2076.000000	65.112280  
2075.000000	65.107607  
2074.000000	65.108108  
2073.000000	65.114021  
2072.000000	65.124988  
2071.000000	65.140151  
2070.000000	65.158271  
2069.000000	65.177702  
2068.000000	65.196681  
2067.000000	65.213465  
2066.000000	65.226602  
2065.000000	65.235161  
2064.000000	65.239000  
2063.000000	65.238738  
2062.000000	65.235781  
2061.000000	65.232038  
2060.000000	65.229368  
2059.000000	65.229392  
2058.000000	65.232992  
2057.000000	65.240192  
2056.000000	65.250182  
2055.000000	65.261435  
2054.000000	65.272259  
2053.000000	65.280723  
2052.000000	65.285277  
2051.000000	65.284562  
2050.000000	65.277934  
2049.000000	65.265440  
2048.000000	65.247821  
2047.000000	65.226578  
2046.000000	65.203785  
2045.000000	65.181875  
2044.000000	65.163278  
2043.000000	65.149998  
2042.000000	65.143203  
2041.000000	65.143108  
2040.000000	65.148854  
2039.000000	65.158629  
2038.000000	65.169858  
2037.000000	65.180087  
2036.000000	65.187382  
2035.000000	65.190601  
2034.000000	65.189337  
2033.000000	65.184235  
2032.000000	65.176415  
2031.000000	65.167140  
2030.000000	65.157628  
2029.000000	65.148997  
2028.000000	65.142178  
2027.000000	65.137887  
2026.000000	65.136742  
2025.000000	65.139389  
2024.000000	65.146183  
2023.000000	65.157079  
2022.000000	65.171575  
2021.000000	65.188598  
2020.000000	65.206456  
2019.000000	65.223240  
2018.000000	65.236902  
2017.000000	65.245604  
2016.000000	65.248203  
2015.000000	65.244507  
2014.000000	65.235018  
2013.000000	65.220832  
2012.000000	65.203452  
2011.000000	65.184569  
2010.000000	65.165686  
2009.000000	65.147900  
2008.000000	65.131974  
2007.000000	65.118241  
2006.000000	65.106797  
2005.000000	65.097522  
2004.000000	65.090060  
2003.000000	65.084123  
2002.000000	65.079379  
2001.000000	65.075874  
2000.000000	65.073275  
1999.000000	65.071702  
1998.000000	65.070891  
1997.000000	65.070867  
1996.000000	65.071344  
1995.000000	65.072369  
1994.000000	65.074038  
1993.000000	65.076732  
1992.000000	65.080952  
1991.000000	65.087294  
1990.000000	65.096282  
1989.000000	65.108275  
1988.000000	65.123105  
1987.000000	65.140271  
1986.000000	65.158987  
1985.000000	65.178132  
1984.000000	65.196514  
1983.000000	65.213060  
1982.000000	65.226769  
1981.000000	65.237045  
1980.000000	65.243506  
1979.000000	65.245819  
1978.000000	65.243768  
1977.000000	65.237474  
1976.000000	65.227341  
1975.000000	65.214204  
1974.000000	65.199255  
1973.000000	65.184330  
1972.000000	65.171313  
1971.000000	65.162086  
1970.000000	65.157842  
1969.000000	65.159058  
1968.000000	65.165138  
1967.000000	65.174770  
1966.000000	65.185999  
1965.000000	65.196609  
1964.000000	65.204668  
1963.000000	65.208697  
1962.000000	65.208053  
1961.000000	65.202808  
1960.000000	65.193819  
1959.000000	65.182471  
1958.000000	65.170311  
1957.000000	65.158891  
1956.000000	65.149617  
1955.000000	65.143609  
1954.000000	65.141654  
1953.000000	65.144085  
1952.000000	65.150833  
1951.000000	65.161633  
1950.000000	65.175724  
1949.000000	65.191936  
1948.000000	65.209054  
1947.000000	65.225529  
1946.000000	65.239882  
1945.000000	65.250611  
1944.000000	65.256571  
1943.000000	65.257000  
1942.000000	65.251731  
1941.000000	65.241312  
1940.000000	65.227031  
1939.000000	65.210723  
1938.000000	65.194749  
1937.000000	65.181350  
1936.000000	65.172362  
1935.000000	65.168905  
1934.000000	65.171003  
1933.000000	65.177702  
1932.000000	65.187096  
1931.000000	65.196871  
1930.000000	65.204620  
1929.000000	65.208363  
1928.000000	65.207028  
1927.000000	65.200710  
1926.000000	65.190458  
1925.000000	65.178251  
1924.000000	65.166568  
1923.000000	65.157675  
1922.000000	65.153431  
1921.000000	65.154862  
1920.000000	65.161752  
1919.000000	65.173053  
1918.000000	65.186858  
1917.000000	65.201115  
1916.000000	65.213847  
1915.000000	65.223550  
1914.000000	65.229678  
1913.000000	65.232419  
1912.000000	65.232753  
1911.000000	65.232181  
1910.000000	65.232086  
1909.000000	65.233635  
1908.000000	65.237283  
1907.000000	65.242934  
1906.000000	65.249896  
1905.000000	65.257167  
1904.000000	65.263533  
1903.000000	65.268087  
1902.000000	65.270256  
1901.000000	65.269875  
1900.000000	65.267038  
1899.000000	65.262079  
1898.000000	65.255546  
1897.000000	65.247821  
1896.000000	65.239334  
1895.000000	65.230178  
1894.000000	65.220427  
1893.000000	65.210199  
1892.000000	65.199542  
1891.000000	65.189123  
1890.000000	65.179777  
1889.000000	65.172934  
1888.000000	65.170001  
1887.000000	65.172362  
1886.000000	65.180754  
1885.000000	65.195107  
1884.000000	65.214252  
1883.000000	65.236043  
1882.000000	65.257787  
1881.000000	65.276575  
1880.000000	65.289974  
1879.000000	65.296316  
1878.000000	65.295171  
1877.000000	65.287256  
1876.000000	65.274238  
1875.000000	65.258383  
1874.000000	65.242099  
1873.000000	65.227532  
1872.000000	65.216040  
1871.000000	65.208506  
1870.000000	65.205049  
1869.000000	65.205240  
1868.000000	65.208339  
1867.000000	65.213203  
1866.000000	65.218925  
1865.000000	65.224409  
1864.000000	65.228939  
1863.000000	65.232205  
1862.000000	65.234208  
1861.000000	65.235424  
1860.000000	65.236425  
1859.000000	65.237808  
1858.000000	65.239739  
1857.000000	65.242171  
1856.000000	65.244507  
1855.000000	65.245842  
1854.000000	65.245294  
1853.000000	65.242266  
1852.000000	65.236711  
1851.000000	65.229129  
1850.000000	65.220499  
1849.000000	65.212011  
1848.000000	65.204548  
1847.000000	65.198397  
1846.000000	65.193009  
1845.000000	65.187191  
1844.000000	65.179276  
1843.000000	65.167617  
1842.000000	65.151309  
1841.000000	65.130543  
1840.000000	65.106368  
1839.000000	65.081000  
1838.000000	65.057063  
1837.000000	65.037345  
1836.000000	65.023970  
1835.000000	65.018463  
1834.000000	65.021014  
1833.000000	65.030956  
1832.000000	65.046834  
1831.000000	65.066862  
1830.000000	65.088891  
1829.000000	65.111255  
1828.000000	65.132546  
1827.000000	65.151858  
1826.000000	65.168619  
1825.000000	65.182542  
1824.000000	65.193438  
1823.000000	65.201282  
1822.000000	65.206027  
1821.000000	65.207839  
1820.000000	65.207099  
1819.000000	65.204572  
1818.000000	65.201234  
1817.000000	65.198302  
1816.000000	65.196895  
1815.000000	65.197920  
1814.000000	65.201878  
1813.000000	65.208864  
1812.000000	65.218162  
1811.000000	65.228843  
1810.000000	65.239453  
1809.000000	65.248179  
1808.000000	65.253114  
1807.000000	65.252685  
1806.000000	65.246105  
1805.000000	65.233397  
1804.000000	65.215778  
1803.000000	65.195393  
1802.000000	65.174889  
1801.000000	65.156912  
1800.000000	65.143513  
1799.000000	65.135622  
1798.000000	65.133333  
1797.000000	65.135860  
1796.000000	65.141844  
1795.000000	65.149688  
1794.000000	65.157842  
1793.000000	65.165090  
1792.000000	65.170478  
1791.000000	65.173530  
1790.000000	65.174126  
1789.000000	65.172600  
1788.000000	65.169548  
1787.000000	65.165710  
1786.000000	65.162038  
1785.000000	65.159368  
1784.000000	65.158438  
1783.000000	65.159630  
1782.000000	65.163040  
1781.000000	65.168642  
1780.000000	65.176010  
1779.000000	65.184664  
1778.000000	65.194225  
1777.000000	65.204262  
1776.000000	65.214395  
1775.000000	65.224075  
1774.000000	65.232515  
1773.000000	65.238666  
1772.000000	65.241360  
1771.000000	65.239596  
1770.000000	65.232682  
1769.000000	65.220689  
1768.000000	65.204524  
1767.000000	65.185880  
1766.000000	65.166902  
1765.000000	65.149831  
1764.000000	65.136408  
1763.000000	65.127587  
1762.000000	65.123462  
1761.000000	65.123081  
1760.000000	65.124797  
1759.000000	65.126729  
1758.000000	65.127015  
1757.000000	65.124511  
1756.000000	65.118551  
1755.000000	65.109205  
1754.000000	65.097022  
1753.000000	65.082883  
1752.000000	65.067863  
1751.000000	65.053033  
1750.000000	65.039491  
1749.000000	65.028214  
1748.000000	65.019989  
1747.000000	65.015244  
1746.000000	65.013933  
1745.000000	65.015482  
1744.000000	65.018701  
1743.000000	65.021920  
1742.000000	65.023255  
1741.000000	65.020990  
1740.000000	65.014028  
1739.000000	65.002155  
1738.000000	64.986038  
1737.000000	64.967393  
1736.000000	64.948439  
1735.000000	64.931488  
1734.000000	64.918494  
1733.000000	64.910626  
1732.000000	64.908051  
1731.000000	64.910101  
1730.000000	64.915347  
1729.000000	64.922451  
1728.000000	64.930009  
1727.000000	64.937448  
1726.000000	64.944696  
1725.000000	64.952659  
1724.000000	64.962244  
1723.000000	64.974761  
1722.000000	64.991044  
1721.000000	65.011215  
1720.000000	65.034604  
1719.000000	65.059900  
1718.000000	65.085482  
1717.000000	65.109491  
1716.000000	65.130352  
1715.000000	65.146970  
1714.000000	65.158843  
1713.000000	65.165925  
1712.000000	65.168380  
1711.000000	65.166473  
1710.000000	65.160417  
1709.000000	65.150451  
1708.000000	65.136933  
1707.000000	65.120625  
1706.000000	65.102696  
1705.000000	65.085005  
1704.000000	65.069746  
1703.000000	65.059232  
1702.000000	65.055131  
1701.000000	65.058159  
1700.000000	65.067744  
1699.000000	65.081954  
1698.000000	65.098094  
1697.000000	65.113234  
1696.000000	65.124940  
1695.000000	65.131831  
1694.000000	65.134000  
1693.000000	65.132761  
1692.000000	65.130305  
1691.000000	65.128970  
1690.000000	65.130448  
1689.000000	65.135312  
1688.000000	65.142798  
1687.000000	65.150976  
1686.000000	65.157413  
1685.000000	65.159773  
1684.000000	65.156483  
1683.000000	65.146970  
1682.000000	65.131950  
1681.000000	65.113210  
1680.000000	65.092897  
1679.000000	65.073370  
1678.000000	65.056705  
1677.000000	65.044260  
1676.000000	65.036821  
1675.000000	65.034389  
1674.000000	65.036439  
1673.000000	65.041923  
1672.000000	65.049576  
1671.000000	65.058207  
1670.000000	65.066742  
1669.000000	65.074563  
1668.000000	65.081286  
1667.000000	65.087056  
1666.000000	65.092277  
1665.000000	65.097594  
1664.000000	65.103387  
1663.000000	65.109777  
1662.000000	65.116405  
1661.000000	65.122413  
1660.000000	65.126657  
1659.000000	65.127825  
1658.000000	65.124917  
1657.000000	65.117597  
1656.000000	65.106153  
1655.000000	65.091609  
1654.000000	65.075373  
1653.000000	65.059041  
1652.000000	65.044116  
1651.000000	65.031456  
1650.000000	65.021324  
1649.000000	65.013623  
1648.000000	65.007805  
1647.000000	65.003037  
1646.000000	64.998745  
1645.000000	64.994406  
1644.000000	64.989948  
1643.000000	64.985632  
1642.000000	64.981913  
1641.000000	64.979147  
1640.000000	64.977741  
1639.000000	64.977931  
1638.000000	64.979839  
1637.000000	64.983272  
1636.000000	64.987921  
1635.000000	64.993453  
1634.000000	64.999532  
1633.000000	65.005755  
1632.000000	65.011906  
1631.000000	65.018081  
1630.000000	65.024590  
1629.000000	65.032148  
1628.000000	65.041685  
1627.000000	65.054416  
1626.000000	65.071415  
1625.000000	65.093231  
1624.000000	65.119528  
1623.000000	65.148854  
1622.000000	65.178871  
1621.000000	65.206408  
1620.000000	65.228009  
1619.000000	65.240359  
1618.000000	65.241360  
1617.000000	65.230250  
1616.000000	65.207982  
1615.000000	65.177083  
1614.000000	65.141248  
1613.000000	65.104556  
1612.000000	65.071010  
1611.000000	65.043640  
1610.000000	65.024256  
1609.000000	65.013432  
1608.000000	65.010595  
1607.000000	65.014266  
1606.000000	65.022420  
1605.000000	65.032768  
1604.000000	65.043401  
1603.000000	65.052509  
1602.000000	65.058875  
1601.000000	65.062093  
1600.000000	65.062499  
1599.000000	65.061092  
1598.000000	65.059232  
1597.000000	65.058493  
1596.000000	65.060186  
1595.000000	65.065026  
1594.000000	65.072774  
1593.000000	65.082383  
1592.000000	65.092062  
1591.000000	65.099740  
1590.000000	65.103650  
1589.000000	65.103030  
1588.000000	65.098071  
1587.000000	65.089797  
1586.000000	65.079689  
1585.000000	65.069031  
1584.000000	65.058708  
1583.000000	65.048718  
1582.000000	65.038537  
1581.000000	65.027499  
1580.000000	65.015292  
1579.000000	65.002465  
1578.000000	64.990043  
1577.000000	64.979100  
1576.000000	64.970493  
1575.000000	64.964604  
1574.000000	64.960956  
1573.000000	64.958548  
1572.000000	64.956140  
1571.000000	64.952683  
1570.000000	64.948010  
1569.000000	64.942598  
1568.000000	64.937639  
1567.000000	64.934372  
1566.000000	64.933729  
1565.000000	64.935612  
1564.000000	64.938974  
1563.000000	64.941811  
1562.000000	64.941620  
1561.000000	64.936113  
1560.000000	64.924168  
1559.000000	64.906072  
1558.000000	64.883637  
1557.000000	64.860081  
1556.000000	64.839124  
1555.000000	64.824175  
1554.000000	64.817476  
1553.000000	64.819788  
1552.000000	64.830279  
1551.000000	64.847016  
1550.000000	64.867329  
1549.000000	64.888620  
1548.000000	64.908623  
1547.000000	64.925384  
1546.000000	64.937663  
1545.000000	64.944410  
1544.000000	64.945101  
1543.000000	64.939689  
1542.000000	64.928507  
1541.000000	64.912939  
1540.000000	64.894700  
1539.000000	64.876198  
1538.000000	64.859890  
1537.000000	64.847970  
1536.000000	64.842104  
1535.000000	64.843225  
1534.000000	64.851570  
1533.000000	64.866781  
1532.000000	64.887928  
1531.000000	64.913916  
1530.000000	64.943361  
1529.000000	64.974570  
1528.000000	65.005445  
1527.000000	65.033435  
1526.000000	65.055704  
1525.000000	65.069484  
1524.000000	65.072607  
1523.000000	65.064191  
1522.000000	65.045094  
1521.000000	65.018081  
1520.000000	64.987373  
1519.000000	64.957761  
1518.000000	64.933705  
1517.000000	64.918327  
1516.000000	64.912724  
1515.000000	64.915990  
1514.000000	64.925360  
1513.000000	64.937210  
1512.000000	64.947962  
1511.000000	64.955329  
1510.000000	64.958524  
1509.000000	64.958691  
1508.000000	64.958047  
1507.000000	64.959216  
1506.000000	64.964318  
1505.000000	64.974021  
1504.000000	64.987134  
1503.000000	65.000987  
1502.000000	65.012025  
1501.000000	65.016984  
1500.000000	65.013813  
1499.000000	65.002226  
1498.000000	64.983820  
1497.000000	64.961719  
1496.000000	64.939618  
1495.000000	64.920830  
1494.000000	64.907431  
1493.000000	64.899897  
1492.000000	64.897203  
1491.000000	64.897203  
1490.000000	64.897680  
1489.000000	64.896893  
1488.000000	64.894342  
1487.000000	64.890599  
1486.000000	64.887428  
1485.000000	64.886641  
1484.000000	64.890146  
1483.000000	64.898800  
1482.000000	64.912796  
1481.000000	64.931678  
1480.000000	64.954304  
1479.000000	64.979529  
1478.000000	65.005922  
1477.000000	65.032076  
1476.000000	65.056562  
1475.000000	65.077805  
1474.000000	65.094447  
1473.000000	65.105414  
1472.000000	65.110373  
1471.000000	65.109777  
1470.000000	65.104675  
1469.000000	65.096402  
1468.000000	65.086412  
1467.000000	65.075731  
1466.000000	65.064740  
1465.000000	65.052938  
1464.000000	65.039563  
1463.000000	65.023612  
1462.000000	65.004420  
1461.000000	64.981961  
1460.000000	64.957165  
1459.000000	64.931559  
1458.000000	64.907193  
1457.000000	64.886021  
1456.000000	64.869332  
1455.000000	64.857530  
1454.000000	64.850139  
1453.000000	64.845919  
1452.000000	64.843106  
1451.000000	64.840221  
1450.000000	64.836215  
1449.000000	64.830851  
1448.000000	64.824533  
1447.000000	64.818525  
1446.000000	64.814352  
1445.000000	64.813542  
1444.000000	64.816856  
1443.000000	64.824318  
1442.000000	64.835071  
1441.000000	64.847564  
1440.000000	64.859962  
1439.000000	64.870595  
1438.000000	64.878535  
1437.000000	64.883756  
1436.000000	64.887094  
1435.000000	64.890003  
1434.000000	64.893841  
1433.000000	64.899873  
1432.000000	64.908313  
1431.000000	64.918184  
1430.000000	64.927744  
1429.000000	64.934802  
1428.000000	64.937424  
1427.000000	64.934611  
1426.000000	64.926576  
1425.000000	64.914965  
1424.000000	64.902114  
1423.000000	64.890742  
1422.000000	64.882898  
1421.000000	64.879512  
1420.000000	64.880466  
1419.000000	64.884519  
1418.000000	64.889907  
1417.000000	64.894938  
1416.000000	64.898228  
1415.000000	64.899110  
1414.000000	64.897489  
1413.000000	64.893794  
1412.000000	64.888596  
1411.000000	64.882612  
1410.000000	64.876413  
1409.000000	64.870786  
1408.000000	64.866852  
1407.000000	64.865851  
1406.000000	64.869284  
1405.000000	64.878082  
1404.000000	64.892721  
1403.000000	64.912080  
1402.000000	64.933729  
1401.000000	64.954066  
1400.000000	64.969015  
1399.000000	64.974880  
1398.000000	64.969325  
1397.000000	64.952015  
1396.000000	64.924740  
1395.000000	64.891290  
1394.000000	64.856457  
1393.000000	64.825367  
1392.000000	64.802193  
1391.000000	64.789581  
1390.000000	64.788269  
1389.000000	64.797234  
1388.000000	64.813923  
1387.000000	64.835166  
1386.000000	64.857935  
1385.000000	64.879727  
1384.000000	64.899206  
1383.000000	64.915776  
1382.000000	64.929771  
1381.000000	64.941620  
1380.000000	64.951920  
1379.000000	64.960837  
1378.000000	64.968109  
1377.000000	64.973425  
1376.000000	64.976429  
1375.000000	64.977002  
1374.000000	64.975452  
1373.000000	64.972472  
1372.000000	64.969086  
1371.000000	64.966344  
1370.000000	64.965343  
1369.000000	64.966821  
1368.000000	64.971113  
1367.000000	64.978122  
1366.000000	64.987301  
1365.000000	64.997839  
1364.000000	65.008950  
1363.000000	65.019798  
1362.000000	65.029954  
1361.000000	65.039372  
1360.000000	65.048265  
1359.000000	65.056920  
1358.000000	65.065383  
1357.000000	65.073108  
1356.000000	65.079092  
1355.000000	65.081715  
1354.000000	65.079379  
1353.000000	65.071010  
1352.000000	65.056395  
1351.000000	65.036535  
1350.000000	65.013766  
1349.000000	64.991116  
1348.000000	64.971899  
1347.000000	64.958500  
1346.000000	64.951848  
1345.000000	64.951062  
1344.000000	64.953470  
1343.000000	64.955806  
1342.000000	64.955019  
1341.000000	64.949154  
1340.000000	64.938139  
1339.000000	64.923572  
1338.000000	64.908266  
1337.000000	64.895319  
1336.000000	64.887189  
1335.000000	64.884996  
1334.000000	64.888262  
1333.000000	64.895153  
1332.000000	64.903020  
1331.000000	64.909195  
1330.000000	64.911866  
1329.000000	64.910197  
1328.000000	64.904546  
1327.000000	64.896178  
1326.000000	64.886927  
1325.000000	64.878630  
1324.000000	64.872765  
1323.000000	64.870452  
1322.000000	64.872193  
1321.000000	64.878320  
1320.000000	64.888358  
1319.000000	64.901375  
1318.000000	64.915728  
1317.000000	64.929509  
1316.000000	64.940667  
1315.000000	64.947342  
1314.000000	64.948487  
1313.000000	64.944052  
1312.000000	64.935064  
1311.000000	64.923405  
1310.000000	64.911293  
1309.000000	64.900755  
1308.000000	64.893102  
1307.000000	64.888644  
1306.000000	64.886665  
1305.000000	64.885568  
1304.000000	64.883613  
1303.000000	64.879393  
1302.000000	64.872264  
1301.000000	64.862680  
1300.000000	64.851951  
1299.000000	64.842009  
1298.000000	64.834594  
1297.000000	64.831185  
1296.000000	64.832425  
1295.000000	64.838361  
1294.000000	64.848303  
1293.000000	64.861130  
1292.000000	64.875674  
1291.000000	64.890646  
1290.000000	64.905214  
1289.000000	64.918661  
1288.000000	64.930510  
1287.000000	64.940190  
1286.000000	64.947152  
1285.000000	64.950680  
1284.000000	64.950060  
1283.000000	64.944648  
1282.000000	64.934134  
1281.000000	64.918589  
1280.000000	64.898657  
1279.000000	64.875507  
1278.000000	64.850831  
1277.000000	64.826393  
1276.000000	64.803910  
1275.000000	64.784860  
1274.000000	64.770150  
1273.000000	64.759874  
1272.000000	64.753818  
1271.000000	64.751076  
1270.000000	64.750790  
1269.000000	64.752221  
1268.000000	64.755082  
1267.000000	64.759516  
1266.000000	64.765858  
1265.000000	64.774417  
1264.000000	64.785099  
1263.000000	64.797258  
1262.000000	64.809656  
1261.000000	64.820766  
1260.000000	64.829015  
1259.000000	64.833307  
1258.000000	64.833354  
1257.000000	64.829897  
1256.000000	64.824557  
1255.000000	64.819312  
1254.000000	64.815974  
1253.000000	64.815735  
1252.000000	64.818787  
1251.000000	64.824366  
1250.000000	64.830923  
1249.000000	64.836645  
1248.000000	64.840054  
1247.000000	64.840292  
1246.000000	64.837074  
1245.000000	64.830946  
1244.000000	64.822912  
1243.000000	64.814233  
1242.000000	64.805984  
1241.000000	64.799141  
1240.000000	64.794421  
1239.000000	64.792084  
1238.000000	64.792323  
1237.000000	64.794993  
1236.000000	64.799690  
1235.000000	64.805817  
1234.000000	64.812684  
1233.000000	64.819550  
1232.000000	64.825820  
1231.000000	64.831280  
1230.000000	64.835858  
1229.000000	64.839911  
1228.000000	64.843845  
1227.000000	64.847922  
1226.000000	64.851975  
1225.000000	64.855360  
1224.000000	64.857101  
1223.000000	64.856481  
1222.000000	64.853239  
1221.000000	64.848017  
1220.000000	64.842295  
1219.000000	64.838361  
1218.000000	64.838409  
1217.000000	64.844083  
1216.000000	64.855599  
1215.000000	64.871716  
1214.000000	64.889574  
1213.000000	64.905238  
1212.000000	64.914727  
1211.000000	64.914941  
1210.000000	64.904427  
1209.000000	64.883828  
1208.000000	64.855957  
1207.000000	64.824962  
1206.000000	64.795541  
1205.000000	64.771842  
1204.000000	64.756870  
1203.000000	64.751505  
1202.000000	64.754819  
1201.000000	64.764285  
1200.000000	64.776206  
1199.000000	64.786672  
1198.000000	64.792037  
1197.000000	64.789676  
1196.000000	64.778375  
1195.000000	64.758467  
1194.000000	64.731669  
1193.000000	64.700603  
1192.000000	64.668440  
1191.000000	64.638233  
1190.000000	64.612579  
1189.000000	64.593219  
1188.000000	64.580941  
1187.000000	64.575695  
1186.000000	64.576530  
1185.000000	64.582180  
1184.000000	64.591145  
1183.000000	64.602303  
1182.000000	64.614677  
1181.000000	64.627981  
1180.000000	64.642333  
1179.000000	64.658331  
1178.000000	64.676356  
1177.000000	64.696550  
1176.000000	64.718508  
1175.000000	64.741158  
1174.000000	64.762878  
1173.000000	64.781475  
1172.000000	64.794921  
1171.000000	64.801502  
1170.000000	64.800333  
1169.000000	64.791703  
1168.000000	64.776849  
1167.000000	64.758086  
1166.000000	64.737844  
1165.000000	64.718556  
1164.000000	64.702010  
1163.000000	64.689135  
1162.000000	64.679765  
1161.000000	64.672946  
1160.000000	64.667081  
1159.000000	64.660859  
1158.000000	64.653491  
1157.000000	64.644813  
1156.000000	64.635753  
1155.000000	64.627671  
1154.000000	64.622163  
1153.000000	64.620447  
1152.000000	64.622950  
1151.000000	64.629125  
1150.000000	64.637470  
1149.000000	64.646100  
1148.000000	64.652800  
1147.000000	64.655637  
1146.000000	64.653277  
1145.000000	64.645314  
1144.000000	64.632034  
1143.000000	64.614462  
1142.000000	64.594173  
1141.000000	64.573073  
1140.000000	64.553284  
1139.000000	64.536738  
1138.000000	64.524912  
1137.000000	64.518952  
1136.000000	64.519166  
1135.000000	64.525127  
1134.000000	64.535593  
1133.000000	64.548778  
1132.000000	64.562416  
1131.000000	64.574456  
1130.000000	64.583277  
1129.000000	64.588165  
1128.000000	64.589190  
1127.000000	64.587450  
1126.000000	64.584493  
1125.000000	64.581990  
1124.000000	64.581370  
1123.000000	64.583396  
1122.000000	64.587974  
1121.000000	64.594316  
1120.000000	64.601111  
1119.000000	64.606881  
1118.000000	64.610266  
1117.000000	64.610362  
1116.000000	64.607000  
1115.000000	64.600896  
1114.000000	64.593458  
1113.000000	64.586615  
1112.000000	64.582276  
1111.000000	64.581823  
1110.000000	64.585614  
1109.000000	64.593005  
1108.000000	64.602208  
1107.000000	64.610719  
1106.000000	64.615702  
1105.000000	64.614653  
1104.000000	64.606022  
1103.000000	64.589452  
1102.000000	64.566254  
1101.000000	64.538860  
1100.000000	64.510726  
1099.000000	64.485788  
1098.000000	64.467811  
1097.000000	64.459633  
1096.000000	64.462757  
1095.000000	64.477109  
1094.000000	64.501070  
1093.000000	64.531683  
1092.000000	64.565134  
1091.000000	64.597439  
1090.000000	64.624881  
1089.000000	64.644670  
1088.000000	64.655423  
1087.000000	64.656996  
1086.000000	64.650678  
1085.000000	64.638280  
1084.000000	64.621973  
1083.000000	64.603567  
1082.000000	64.584422  
1081.000000	64.565205  
1080.000000	64.546108  
1079.000000	64.527344  
1078.000000	64.509558  
1077.000000	64.493751  
1076.000000	64.481353  
1075.000000	64.473938  
1074.000000	64.472794  
1073.000000	64.478611  
1072.000000	64.491200  
1071.000000	64.509296  
1070.000000	64.530754  
1069.000000	64.552593  
1068.000000	64.571619  
1067.000000	64.584851  
1066.000000	64.590191  
1065.000000	64.586758  
1064.000000	64.575028  
1063.000000	64.556717  
1062.000000	64.534258  
1061.000000	64.510464  
1060.000000	64.488029  
1059.000000	64.468884  
1058.000000	64.454269  
1057.000000	64.444923  
1056.000000	64.441418  
1055.000000	64.443993  
1054.000000	64.453029  
1053.000000	64.468669  
1052.000000	64.490795  
1051.000000	64.518523  
1050.000000	64.550209  
1049.000000	64.583086  
1048.000000	64.613890  
1047.000000	64.639282  
1046.000000	64.656591  
1045.000000	64.664435  
1044.000000	64.662933  
1043.000000	64.653825  
1042.000000	64.639830  
1041.000000	64.623737  
1040.000000	64.607715  
1039.000000	64.592814  
1038.000000	64.578652  
1037.000000	64.563751  
1036.000000	64.546251  
1035.000000	64.524769  
1034.000000	64.499044  
1033.000000	64.470171  
1032.000000	64.440655  
1031.000000	64.413738  
1030.000000	64.392614  
1029.000000	64.379477  
1028.000000	64.375114  
1027.000000	64.378643  
1026.000000	64.387583  
1025.000000	64.398765  
1024.000000	64.408969  
1023.000000	64.416003  
1022.000000	64.418888  
1021.000000	64.418292  
1020.000000	64.415931  
1019.000000	64.414095  
1018.000000	64.415073  
1017.000000	64.420270  
1016.000000	64.429974  
1015.000000	64.443254  
1014.000000	64.458346  
1013.000000	64.473056  
1012.000000	64.485263  
1011.000000	64.493417  
1010.000000	64.496564  
1009.000000	64.494681  
1008.000000	64.488649  
1007.000000	64.479637  
1006.000000	64.469122  
1005.000000	64.458632  
1004.000000	64.449405  
1003.000000	64.442515  
1002.000000	64.438581  
1001.000000	64.437913  
1000.000000	64.440321  
999.000000	 64.445328  
998.000000	 64.452195  
997.000000	 64.460134  
996.000000	 64.468240  
995.000000	 64.475512  
994.000000	 64.480972  
993.000000	 64.483833  
992.000000	 64.483571  
991.000000	 64.479899  
990.000000	 64.472913  
989.000000	 64.463114  
988.000000	 64.451479  
987.000000	 64.439558  
986.000000	 64.429211  
985.000000	 64.422345  
984.000000	 64.420676  
983.000000	 64.425206  
982.000000	 64.435911  
981.000000	 64.451408  
980.000000	 64.469337  
979.000000	 64.486551  
978.000000	 64.499640  
977.000000	 64.505743  
976.000000	 64.502882  
975.000000	 64.490985  
974.000000	 64.471578  
973.000000	 64.448189  
972.000000	 64.425349  
971.000000	 64.408206  
970.000000	 64.401054  
969.000000	 64.406752  
968.000000	 64.426302  
967.000000	 64.458036  
966.000000	 64.497876  
965.000000	 64.540219  
964.000000	 64.579224  
963.000000	 64.609313  
962.000000	 64.626336  
961.000000	 64.628219  
960.000000	 64.614915  
959.000000	 64.588499  
958.000000	 64.552259  
957.000000	 64.509987  
956.000000	 64.465117  
955.000000	 64.420819  
954.000000	 64.379644  
953.000000	 64.343285  
952.000000	 64.312744  
951.000000	 64.289164  
950.000000	 64.273476  
949.000000	 64.266157  
948.000000	 64.266896  
947.000000	 64.274477  
946.000000	 64.286184  
945.000000	 64.298152  
944.000000	 64.305496  
943.000000	 64.302897  
942.000000	 64.285588  
941.000000	 64.250326  
940.000000	 64.196157  
939.000000	 64.124441  
938.000000	 64.039683  
937.000000	 63.948917  
936.000000	 63.860511  
935.000000	 63.782763  
934.000000	 63.722968  
933.000000	 63.686656  
932.000000	 63.676738  
931.000000	 63.693571  
930.000000	 63.735342  
929.000000	 63.798952  
928.000000	 63.880515  
927.000000	 63.975811  
926.000000	 64.080500  
925.000000	 64.190244  
924.000000	 64.299893  
923.000000	 64.403915  
922.000000	 64.496660  
921.000000	 64.572620  
920.000000	 64.627909  
919.000000	 64.659810  
918.000000	 64.668750  
917.000000	 64.656233  
916.000000	 64.626932  
915.000000	 64.584445  
914.000000	 64.531898  
913.000000	 64.469718  
912.000000	 64.397478  
911.000000	 64.313459  
910.000000	 64.216017  
909.000000	 64.106011  
908.000000	 63.988447  
907.000000	 63.872122  
906.000000	 63.768553  
905.000000	 63.690114  
904.000000	 63.646984  
903.000000	 63.643980  
902.000000	 63.678669  
901.000000	 63.741230  
900.000000	 63.815808  
899.000000	 63.883614  
898.000000	 63.927102  
897.000000	 63.932991  
896.000000	 63.895964  
895.000000	 63.819026  
894.000000	 63.713765  
893.000000	 63.595652  
892.000000	 63.482952  
891.000000	 63.391947  
890.000000	 63.335704  
889.000000	 63.321089  
888.000000	 63.350272  
887.000000	 63.421058  
886.000000	 63.528513  
885.000000	 63.665938  
884.000000	 63.825917  
883.000000	 64.000082  
882.000000	 64.179563  
881.000000	 64.354395  
880.000000	 64.514088  
879.000000	 64.647960  
878.000000	 64.747333  
877.000000	 64.807033  
876.000000	 64.826607  
875.000000	 64.810323  
874.000000	 64.767408  
873.000000	 64.709591  
872.000000	 64.648795  
871.000000	 64.594292  
870.000000	 64.551663  
869.000000	 64.522075  
868.000000	 64.503788  
867.000000	 64.492917  
866.000000	 64.486098  
865.000000	 64.480805  
864.000000	 64.476084  
863.000000	 64.472222  
862.000000	 64.469265  
861.000000	 64.467167  
860.000000	 64.463996  
859.000000	 64.457631  
858.000000	 64.445495  
857.000000	 64.426398  
856.000000	 64.401006  
855.000000	 64.372086  
854.000000	 64.343714  
853.000000	 64.320397  
852.000000	 64.306235  
851.000000	 64.302301  
850.000000	 64.306139  
849.000000	 64.312696  
848.000000	 64.315581  
847.000000	 64.308071  
846.000000	 64.285278  
845.000000	 64.246010  
844.000000	 64.192986  
843.000000	 64.132285  
842.000000	 64.071893  
841.000000	 64.019989  
840.000000	 63.983201  
839.000000	 63.965249  
838.000000	 63.966274  
837.000000	 63.982796  
836.000000	 64.008855  
835.000000	 64.037728  
834.000000	 64.062786  
833.000000	 64.079046  
832.000000	 64.083528  
831.000000	 64.075255  
830.000000	 64.054799  
829.000000	 64.023590  
828.000000	 63.983511  
827.000000	 63.936614  
826.000000	 63.885045  
825.000000	 63.830995  
824.000000	 63.776898  
823.000000	 63.725590  
822.000000	 63.679599  
821.000000	 63.640785  
820.000000	 63.609766  
819.000000	 63.585901  
818.000000	 63.566827  
817.000000	 63.549423  
816.000000	 63.530254  
815.000000	 63.507342  
814.000000	 63.480353  
813.000000	 63.451409  
812.000000	 63.424491  
811.000000	 63.404488  
810.000000	 63.395237  
809.000000	 63.399052  
808.000000	 63.415408  
807.000000	 63.441729  
806.000000	 63.473486  
805.000000	 63.505959  
804.000000	 63.535284  
803.000000	 63.559651  
802.000000	 63.579463  
801.000000	 63.596892  
800.000000	 63.614749  
799.000000	 63.635134  
798.000000	 63.658428  
797.000000	 63.683462  
796.000000	 63.707733  
795.000000	 63.728308  
794.000000	 63.742899  
793.000000	 63.751006  
792.000000	 63.753795  
791.000000	 63.753437  
790.000000	 63.752388  
789.000000	 63.752126  
788.000000	 63.753151  
787.000000	 63.754987  
786.000000	 63.756537  
785.000000	 63.757300  
784.000000	 63.757061  
783.000000	 63.756728  
782.000000	 63.757109  
781.000000	 63.758897  
780.000000	 63.761591  
779.000000	 63.763618  
778.000000	 63.762402  
777.000000	 63.754940  
776.000000	 63.739252  
775.000000	 63.715386  
774.000000	 63.685846  
773.000000	 63.655424  
772.000000	 63.630151  
771.000000	 63.615965  
770.000000	 63.616847  
769.000000	 63.633751  
768.000000	 63.664150  
767.000000	 63.702368  
766.000000	 63.740825  
765.000000	 63.771533  
764.000000	 63.787770  
763.000000	 63.785266  
762.000000	 63.762569  
761.000000	 63.721489  
760.000000	 63.666367  
759.000000	 63.603377  
758.000000	 63.539052  
757.000000	 63.479113  
756.000000	 63.427805  
755.000000	 63.387060  
754.000000	 63.356733  
753.000000	 63.334798  
752.000000	 63.318252  
751.000000	 63.303947  
750.000000	 63.289308  
749.000000	 63.273262  
748.000000	 63.255858  
747.000000	 63.238835  
746.000000	 63.224506  
745.000000	 63.215351  
744.000000	 63.212990  
743.000000	 63.217520  
742.000000	 63.227415  
741.000000	 63.239860  
740.000000	 63.251209  
739.000000	 63.257932  
738.000000	 63.257384  
737.000000	 63.248324  
736.000000	 63.231039  
735.000000	 63.207316  
734.000000	 63.179850  
733.000000	 63.151645  
732.000000	 63.125157  
731.000000	 63.102006  
730.000000	 63.082551  
729.000000	 63.065862  
728.000000	 63.050460  
727.000000	 63.034915  
726.000000	 63.018965  
725.000000	 63.003611  
724.000000	 62.991738  
723.000000	 62.987232  
722.000000	 62.994050  
721.000000	 63.014650  
720.000000	 63.048934  
719.000000	 63.093686  
718.000000	 63.142919  
717.000000	 63.188886  
716.000000	 63.223624  
715.000000	 63.240551  
714.000000	 63.236403  
713.000000	 63.211917  
712.000000	 63.171553  
711.000000	 63.122487  
710.000000	 63.073158  
709.000000	 63.031244  
708.000000	 63.002204  
707.000000	 62.987971  
706.000000	 62.987208  
705.000000	 62.995743  
704.000000	 63.008141  
703.000000	 63.018941  
702.000000	 63.023614  
701.000000	 63.019990  
700.000000	 63.008093  
699.000000	 62.990427  
698.000000	 62.970614  
697.000000	 62.952589  
696.000000	 62.939572  
695.000000	 62.932705  
694.000000	 62.930727  
693.000000	 62.929892  
692.000000	 62.925148  
691.000000	 62.911057  
690.000000	 62.883424  
689.000000	 62.840342  
688.000000	 62.782931  
687.000000	 62.714838  
686.000000	 62.641668  
685.000000	 62.569522  
684.000000	 62.503981  
683.000000	 62.449121  
682.000000	 62.407374  
681.000000	 62.379169  
680.000000	 62.363839  
679.000000	 62.360072  
678.000000	 62.367033  
677.000000	 62.383913  
676.000000	 62.410640  
675.000000	 62.446641  
674.000000	 62.490916  
673.000000	 62.540745  
672.000000	 62.592434  
671.000000	 62.641477  
670.000000	 62.683248  
669.000000	 62.713670  
668.000000	 62.730145  
667.000000	 62.732076  
666.000000	 62.721180  
665.000000	 62.701129  
664.000000	 62.677049  
663.000000	 62.654447  
662.000000	 62.638306  
661.000000	 62.632155  
660.000000	 62.636995  
659.000000	 62.650942  
658.000000	 62.669992  
657.000000	 62.688803  
656.000000	 62.701821  
655.000000	 62.704682  
654.000000	 62.695431  
653.000000	 62.674784  
652.000000	 62.645936  
651.000000	 62.612986  
650.000000	 62.580561  
649.000000	 62.551307  
648.000000	 62.525844  
647.000000	 62.502074  
646.000000	 62.475967  
645.000000	 62.443041  
644.000000	 62.400317  
643.000000	 62.347221  
642.000000	 62.286257  
641.000000	 62.222552  
640.000000	 62.162494  
639.000000	 62.112355  
638.000000	 62.076210  
637.000000	 62.055969  
636.000000	 62.050986  
635.000000	 62.058877  
634.000000	 62.076187  
633.000000	 62.099933  
632.000000	 62.127804  
631.000000	 62.158560  
630.000000	 62.191367  
629.000000	 62.225079  
628.000000	 62.257695  
627.000000	 62.286210  
626.000000	 62.306666  
625.000000	 62.314939  
624.000000	 62.307381  
623.000000	 62.282395  
622.000000	 62.240576  
621.000000	 62.184977  
620.000000	 62.120628  
619.000000	 62.053632  
618.000000	 61.990213  
617.000000	 61.935853  
616.000000	 61.894392  
615.000000	 61.867809  
614.000000	 61.855983  
613.000000	 61.857247  
612.000000	 61.868453  
611.000000	 61.885666  
610.000000	 61.904001  
609.000000	 61.918282  
608.000000	 61.923408  
607.000000	 61.915278  
606.000000	 61.892223  
605.000000	 61.855459  
604.000000	 61.809468  
603.000000	 61.761045  
602.000000	 61.717891  
601.000000	 61.686778  
600.000000	 61.672163  
599.000000	 61.675095  
598.000000	 61.693716  
597.000000	 61.722755  
596.000000	 61.755895  
595.000000	 61.785340  
594.000000	 61.803197  
593.000000	 61.802530  
592.000000	 61.777973  
591.000000	 61.728048  
590.000000	 61.655068  
589.000000	 61.566019  
588.000000	 61.471772  
587.000000	 61.384129  
586.000000	 61.313652  
585.000000	 61.266803  
584.000000	 61.244797  
583.000000	 61.242651  
582.000000	 61.250948  
581.000000	 61.257958  
580.000000	 61.253190  
579.000000	 61.229991  
578.000000	 61.187720  
577.000000	 61.131358  
576.000000	 61.070537  
575.000000	 61.016988  
574.000000	 60.981726  
573.000000	 60.971903  
572.000000	 60.989379  
571.000000	 61.030435  
570.000000	 61.087059  
569.000000	 61.149120  
568.000000	 61.206793  
567.000000	 61.252760  
566.000000	 61.283230  
565.000000	 61.297726  
564.000000	 61.299180  
563.000000	 61.291980  
562.000000	 61.281228  
561.000000	 61.271047  
560.000000	 61.264300  
559.000000	 61.262440  
558.000000	 61.265707  
557.000000	 61.273741  
556.000000	 61.285543  
555.000000	 61.299729  
554.000000	 61.314558  
553.000000	 61.327934  
552.000000	 61.336803  
551.000000	 61.337685  
550.000000	 61.327481  
549.000000	 61.304140  
548.000000	 61.267709  
547.000000	 61.220121  
546.000000	 61.165833  
545.000000	 61.110091  
544.000000	 61.057734  
543.000000	 61.011886  
542.000000	 60.973238  
541.000000	 60.940194  
540.000000	 60.909819  
539.000000	 60.878920  
538.000000	 60.845041  
537.000000	 60.806870  
536.000000	 60.765004  
535.000000	 60.720825  
534.000000	 60.674881  
533.000000	 60.627722  
532.000000	 60.579204  
531.000000	 60.529112  
530.000000	 60.477018  
529.000000	 60.423970  
528.000000	 60.372805  
527.000000	 60.327863  
526.000000	 60.294198  
525.000000	 60.277462  
524.000000	 60.282635  
523.000000	 60.312104  
522.000000	 60.364866  
521.000000	 60.436415  
520.000000	 60.519003  
519.000000	 60.602760  
518.000000	 60.677433  
517.000000	 60.734820  
516.000000	 60.769462  
515.000000	 60.779953  
514.000000	 60.767340  
513.000000	 60.734486  
512.000000	 60.684394  
511.000000	 60.619974  
510.000000	 60.543465  
509.000000	 60.457324  
508.000000	 60.363817  
507.000000	 60.267591  
506.000000	 60.172295  
505.000000	 60.080933  
504.000000	 59.994387  
503.000000	 59.911537  
502.000000	 59.829759  
501.000000	 59.745573  
500.000000	 59.656238  
499.000000	 59.560871  
498.000000	 59.460473  
497.000000	 59.358215  
496.000000	 59.258008  
495.000000	 59.163856  
494.000000	 59.079146  
493.000000	 59.006142  
492.000000	 58.945441  
491.000000	 58.896255  
490.000000	 58.856391  
489.000000	 58.823418  
488.000000	 58.793473  
487.000000	 58.764314  
486.000000	 58.734416  
485.000000	 58.705449  
484.000000	 58.680224  
483.000000	 58.664369  
482.000000	 58.663678  
481.000000	 58.684015  
480.000000	 58.728837  
479.000000	 58.798193  
478.000000	 58.888483  
477.000000	 58.991289  
476.000000	 59.094882  
475.000000	 59.184575  
474.000000	 59.245443  
473.000000	 59.265279  
472.000000	 59.237313  
471.000000	 59.162998  
470.000000	 59.052062  
469.000000	 58.921313  
468.000000	 58.790326  
467.000000	 58.677220  
466.000000	 58.594131  
465.000000	 58.544087  
464.000000	 58.521747  
463.000000	 58.516955  
462.000000	 58.518576  
461.000000	 58.518195  
460.000000	 58.512425  
459.000000	 58.503723  
458.000000	 58.497595  
457.000000	 58.498811  
456.000000	 58.508729  
455.000000	 58.523654  
454.000000	 58.534121  
453.000000	 58.526921  
452.000000	 58.489131  
451.000000	 58.413314  
450.000000	 58.298850  
449.000000	 58.152961  
448.000000	 57.989835  
447.000000	 57.827901  
446.000000	 57.683086  
445.000000	 57.564759  
444.000000	 57.475042  
443.000000	 57.408046  
442.000000	 57.351827  
441.000000	 57.291054  
440.000000	 57.209086  
439.000000	 57.092308  
438.000000	 56.935429  
437.000000	 56.742095  
436.000000	 56.519722  
435.000000	 56.280636  
434.000000	 56.042432  
433.000000	 55.821871  
432.000000	 55.630779  
431.000000	 55.473947  
430.000000	 55.348563  
429.000000	 55.245351  
428.000000	 55.153560  
427.000000	 55.060911  
426.000000	 54.957556  
425.000000	 54.835057  
424.000000	 54.687881  
423.000000	 54.511332  
422.000000	 54.301738  
421.000000	 54.055356  
420.000000	 53.769874  
419.000000	 53.444814  
418.000000	 53.085327  
417.000000	 52.706313  
416.000000	 52.337312  
415.000000	 52.017188  
414.000000	 51.796126  
413.000000	 51.729941  
412.000000	 51.872682  
411.000000	 52.268481  
410.000000	 52.935576  
409.000000	 53.852558  
408.000000	 54.954290  
407.000000	 56.141877  
406.000000	 57.290482  
405.000000	 58.272552  
404.000000	 58.976387  
403.000000	 59.320950  
402.000000	 59.278011  
401.000000	 58.882045  
400.000000	 58.219504  
399.000000	 57.415223  
398.000000	 56.602716  
397.000000	 55.899143  
396.000000	 55.387067  
395.000000	 55.117940  
394.000000	 55.072188  
393.000000	 55.167055  
392.000000	 55.298185  
391.000000	 55.371308  
390.000000	 55.298852  
389.000000	 55.035233  
388.000000	 54.538846  
387.000000	 53.814053  
386.000000	 52.981758  
385.000000	 52.243232  
384.000000	 51.871514  
383.000000	 52.095556  
382.000000	 53.004503  
381.000000	 54.506778  
380.000000	 56.289172  
379.000000	 57.931113  
378.000000	 59.080433  
377.000000	 59.469699  
376.000000	 59.058284  
375.000000	 57.921838  
374.000000	 56.131792  
373.000000	 53.848385  
372.000000	 51.110529  
371.000000	 48.220753  
370.000000	 45.731067  

