PE IR       SPECTRUM    SPECTRUM    ASCII       PEDS        1.60        
  -1
C-4040~3.ASC
17/05/02
10:54:46.00
17/05/02
10:54:46.00
tln
$C-4040-8_t0001$<tbV0>[12.5,-13.0,8.0,0.0,22,1,0]
370.000000
64









2002,4.07    
MIRTGS : RIGHTBACK : INTERNAL 2
MIR : ON : INTERNAL 2
OPTKBR

0.200000
8
8.000000
FILLER
RATIO
SPECTRUM
UNLOCKED 256

DOUBLE
64
COMBINED
1
0
0


1.000000
RATIO


1
0
TRUE
51149
0
LEFT NOT FITTED RIGHT NOT FITTED 0
NONE
NONE
15600
12.000000
4.427000
51148
TRUE
1 0 8 72 0 0 0 0 

15798.010000






#HDR
-1
-1
#GR
CM-1
%T
0.00002384185791015625
0.0
7800.000000
-1.000000
7431
8
80.497789
52.341842
#DATA
7800.000000	74.157571 
7799.000000	72.972917 
7798.000000	71.067976 
7797.000000	68.566250 
7796.000000	65.680861 
7795.000000	62.681603 
7794.000000	59.855437 
7793.000000	57.461142 
7792.000000	55.720353 
7791.000000	54.789972 
7790.000000	54.750299 
7789.000000	55.593276 
7788.000000	57.216334 
7787.000000	59.434461 
7786.000000	61.977481 
7785.000000	64.544463 
7784.000000	66.832780 
7783.000000	68.604540 
7782.000000	69.708847 
7781.000000	70.117712 
7780.000000	69.908666 
7779.000000	69.254469 
7778.000000	68.373727 
7777.000000	67.495894 
7776.000000	66.835141 
7775.000000	66.533303 
7774.000000	66.672539 
7773.000000	67.223238 
7772.000000	68.080163 
7771.000000	69.056677 
7770.000000	69.939661 
7769.000000	70.516681 
7768.000000	70.623588 
7767.000000	70.183682 
7766.000000	69.226789 
7765.000000	67.886209 
7764.000000	66.373372 
7763.000000	64.951324 
7762.000000	63.879776 
7761.000000	63.368153 
7760.000000	63.526344 
7759.000000	64.356827 
7758.000000	65.738034 
7757.000000	67.456746 
7756.000000	69.237637 
7755.000000	70.788502 
7754.000000	71.861195 
7753.000000	72.297763 
7752.000000	72.057700 
7751.000000	71.199607 
7750.000000	69.881486 
7749.000000	68.317556 
7748.000000	66.741847 
7747.000000	65.362691 
7746.000000	64.336371 
7745.000000	63.756179 
7744.000000	63.644361 
7743.000000	63.972640 
7742.000000	64.659762 
7741.000000	65.594482 
7740.000000	66.647243 
7739.000000	67.688179 
7738.000000	68.605446 
7737.000000	69.316029 
7736.000000	69.771432 
7735.000000	69.956731 
7734.000000	69.890522 
7733.000000	69.611358 
7732.000000	69.174575 
7731.000000	68.632650 
7730.000000	68.031811 
7729.000000	67.401170 
7728.000000	66.765022 
7727.000000	66.136598 
7726.000000	65.533709 
7725.000000	64.971113 
7724.000000	64.466643 
7723.000000	64.033913 
7722.000000	63.675975 
7721.000000	63.390588 
7720.000000	63.156938 
7719.000000	62.963676 
7718.000000	62.805795 
7717.000000	62.702274 
7716.000000	62.692165 
7715.000000	62.817263 
7714.000000	63.102602 
7713.000000	63.546562 
7712.000000	64.111804 
7711.000000	64.723587 
7710.000000	65.281414 
7709.000000	65.681982 
7708.000000	65.840768 
7707.000000	65.713095 
7706.000000	65.303802 
7705.000000	64.662623 
7704.000000	63.877248 
7703.000000	63.048434 
7702.000000	62.280106 
7701.000000	61.661291 
7700.000000	61.258816 
7699.000000	61.115241 
7698.000000	61.240816 
7697.000000	61.625576 
7696.000000	62.225890 
7695.000000	62.965989 
7694.000000	63.750410 
7693.000000	64.463853 
7692.000000	65.013647 
7691.000000	65.336680 
7690.000000	65.433669 
7689.000000	65.362262 
7688.000000	65.236783 
7687.000000	65.198111 
7686.000000	65.374779 
7685.000000	65.847158 
7684.000000	66.614603 
7683.000000	67.593979 
7682.000000	68.635749 
7681.000000	69.566750 
7680.000000	70.246315 
7679.000000	70.602965 
7678.000000	70.657134 
7677.000000	70.506691 
7676.000000	70.293831 
7675.000000	70.157361 
7674.000000	70.186924 
7673.000000	70.399236 
7672.000000	70.741033 
7671.000000	71.104001 
7670.000000	71.387028 
7669.000000	71.499037 
7668.000000	71.397185 
7667.000000	71.080517 
7666.000000	70.589876 
7665.000000	69.985985 
7664.000000	69.325757 
7663.000000	68.655610 
7662.000000	67.998504 
7661.000000	67.374110 
7660.000000	66.806817 
7659.000000	66.330432 
7658.000000	65.987706 
7657.000000	65.813279 
7656.000000	65.821886 
7655.000000	65.982818 
7654.000000	66.223859 
7653.000000	66.443824 
7652.000000	66.541576 
7651.000000	66.437268 
7650.000000	66.105055 
7649.000000	65.581202 
7648.000000	64.967536 
7647.000000	64.393210 
7646.000000	64.001989 
7645.000000	63.916063 
7644.000000	64.211106 
7643.000000	64.899420 
7642.000000	65.923142 
7641.000000	67.169857 
7640.000000	68.488883 
7639.000000	69.723534 
7638.000000	70.737934 
7637.000000	71.440649 
7636.000000	71.795225 
7635.000000	71.818351 
7634.000000	71.568322 
7633.000000	71.125698 
7632.000000	70.574927 
7631.000000	69.988536 
7630.000000	69.413185 
7629.000000	68.868160 
7628.000000	68.352985 
7627.000000	67.856788 
7626.000000	67.370581 
7625.000000	66.894078 
7624.000000	66.438746 
7623.000000	66.024351 
7622.000000	65.670466 
7621.000000	65.389037 
7620.000000	65.174245 
7619.000000	65.005350 
7618.000000	64.843726 
7617.000000	64.650630 
7616.000000	64.396047 
7615.000000	64.071798 
7614.000000	63.692021 
7613.000000	63.293600 
7612.000000	62.928915 
7611.000000	62.644743 
7610.000000	62.466096 
7609.000000	62.387990 
7608.000000	62.373566 
7607.000000	62.367224 
7606.000000	62.310671 
7605.000000	62.158894 
7604.000000	61.893010 
7603.000000	61.518931 
7602.000000	61.064386 
7601.000000	60.566473 
7600.000000	60.064077 
7599.000000	59.584856 
7598.000000	59.147953 
7597.000000	58.766078 
7596.000000	58.454942 
7595.000000	58.232808 
7594.000000	58.128881 
7593.000000	58.173370 
7592.000000	58.399534 
7591.000000	58.823323 
7590.000000	59.448170 
7589.000000	60.247874 
7588.000000	61.181950 
7587.000000	62.190198 
7586.000000	63.214516 
7585.000000	64.204382 
7584.000000	65.127062 
7583.000000	65.967559 
7582.000000	66.725754 
7581.000000	67.409110 
7580.000000	68.024468 
7579.000000	68.573021 
7578.000000	69.046187 
7577.000000	69.429039 
7576.000000	69.702935 
7575.000000	69.852685 
7574.000000	69.877099 
7573.000000	69.790077 
7572.000000	69.618487 
7571.000000	69.394898 
7570.000000	69.154453 
7569.000000	68.924689 
7568.000000	68.721342 
7567.000000	68.547034 
7566.000000	68.395495 
7565.000000	68.258523 
7564.000000	68.129324 
7563.000000	68.012619 
7562.000000	67.923474 
7561.000000	67.887020 
7560.000000	67.936778 
7559.000000	68.092560 
7558.000000	68.353581 
7557.000000	68.682432 
7556.000000	69.012522 
7555.000000	69.250035 
7554.000000	69.291329 
7553.000000	69.061732 
7552.000000	68.539214 
7551.000000	67.769861 
7550.000000	66.862177 
7549.000000	65.970540 
7548.000000	65.258550 
7547.000000	64.857220 
7546.000000	64.831376 
7545.000000	65.163135 
7544.000000	65.758085 
7543.000000	66.466212 
7542.000000	67.125988 
7541.000000	67.606210 
7540.000000	67.839908 
7539.000000	67.834877 
7538.000000	67.664575 
7537.000000	67.436361 
7536.000000	67.254996 
7535.000000	67.188310 
7534.000000	67.244434 
7533.000000	67.376232 
7532.000000	67.490887 
7531.000000	67.490720 
7530.000000	67.295241 
7529.000000	66.872978 
7528.000000	66.249871 
7527.000000	65.504097 
7526.000000	64.750123 
7525.000000	64.107370 
7524.000000	63.676619 
7523.000000	63.514471 
7522.000000	63.623213 
7521.000000	63.950991 
7520.000000	64.408731 
7519.000000	64.891195 
7518.000000	65.295076 
7517.000000	65.542864 
7516.000000	65.593385 
7515.000000	65.450167 
7514.000000	65.150380 
7513.000000	64.756774 
7512.000000	64.341711 
7511.000000	63.968467 
7510.000000	63.683986 
7509.000000	63.503432 
7508.000000	63.415646 
7507.000000	63.384437 
7506.000000	63.365006 
7505.000000	63.315200 
7504.000000	63.206076 
7503.000000	63.033652 
7502.000000	62.815546 
7501.000000	62.592363 
7500.000000	62.410807 
7499.000000	62.321925 
7498.000000	62.365794 
7497.000000	62.564682 
7496.000000	62.916231 
7495.000000	63.394522 
7494.000000	63.954544 
7493.000000	64.542198 
7492.000000	65.104365 
7491.000000	65.595698 
7490.000000	65.985965 
7489.000000	66.265749 
7488.000000	66.442894 
7487.000000	66.535735 
7486.000000	66.565680 
7485.000000	66.555929 
7484.000000	66.521143 
7483.000000	66.471266 
7482.000000	66.404128 
7481.000000	66.320967 
7480.000000	66.214275 
7479.000000	66.075253 
7478.000000	65.892028 
7477.000000	65.659093 
7476.000000	65.372395 
7475.000000	65.032601 
7474.000000	64.645290 
7473.000000	64.223313 
7472.000000	63.782119 
7471.000000	63.339114 
7470.000000	62.909936 
7469.000000	62.507963 
7468.000000	62.147808 
7467.000000	61.848330 
7466.000000	61.629414 
7465.000000	61.514830 
7464.000000	61.535787 
7463.000000	61.725974 
7462.000000	62.107729 
7461.000000	62.686133 
7460.000000	63.439941 
7459.000000	64.322710 
7458.000000	65.259742 
7457.000000	66.167378 
7456.000000	66.963934 
7455.000000	67.591547 
7454.000000	68.027853 
7453.000000	68.288230 
7452.000000	68.417859 
7451.000000	68.480038 
7450.000000	68.541717 
7449.000000	68.654036 
7448.000000	68.847465 
7447.000000	69.117879 
7446.000000	69.438505 
7445.000000	69.754314 
7444.000000	70.002007 
7443.000000	70.114660 
7442.000000	70.039916 
7441.000000	69.743490 
7440.000000	69.218611 
7439.000000	68.487763 
7438.000000	67.602729 
7437.000000	66.635465 
7436.000000	65.671873 
7435.000000	64.799284 
7434.000000	64.098763 
7433.000000	63.632774 
7432.000000	63.442373 
7431.000000	63.537836 
7430.000000	63.904523 
7429.000000	64.503908 
7428.000000	65.279698 
7427.000000	66.160035 
7426.000000	67.064833 
7425.000000	67.913556 
7424.000000	68.627429 
7423.000000	69.132709 
7422.000000	69.372773 
7421.000000	69.316911 
7420.000000	68.965220 
7419.000000	68.351697 
7418.000000	67.543029 
7417.000000	66.632390 
7416.000000	65.725421 
7415.000000	64.925527 
7414.000000	64.316177 
7413.000000	63.949275 
7412.000000	63.835787 
7411.000000	63.948965 
7410.000000	64.229035 
7409.000000	64.602947 
7408.000000	64.995455 
7407.000000	65.352582 
7406.000000	65.645146 
7405.000000	65.877985 
7404.000000	66.078019 
7403.000000	66.284894 
7402.000000	66.533493 
7401.000000	66.838526 
7400.000000	67.190909 
7399.000000	67.550826 
7398.000000	67.863678 
7397.000000	68.065261 
7396.000000	68.106961 
7395.000000	67.959284 
7394.000000	67.624783 
7393.000000	67.133617 
7392.000000	66.538858 
7391.000000	65.905237 
7390.000000	65.297031 
7389.000000	64.767980 
7388.000000	64.354205 
7387.000000	64.073181 
7386.000000	63.924813 
7385.000000	63.898968 
7384.000000	63.978171 
7383.000000	64.136362 
7382.000000	64.340376 
7381.000000	64.551925 
7380.000000	64.729237 
7379.000000	64.827585 
7378.000000	64.808225 
7377.000000	64.640331 
7376.000000	64.314794 
7375.000000	63.843774 
7374.000000	63.270974 
7373.000000	62.659454 
7372.000000	62.093710 
7371.000000	61.664628 
7370.000000	61.453652 
7369.000000	61.517810 
7368.000000	61.871266 
7367.000000	62.481665 
7366.000000	63.268470 
7365.000000	64.116191 
7364.000000	64.898681 
7363.000000	65.504002 
7362.000000	65.858697 
7361.000000	65.940761 
7360.000000	65.782451 
7359.000000	65.458583 
7358.000000	65.069651 
7357.000000	64.716172 
7356.000000	64.477968 
7355.000000	64.396119 
7354.000000	64.474320 
7353.000000	64.679074 
7352.000000	64.954876 
7351.000000	65.239500 
7350.000000	65.482282 
7349.000000	65.655374 
7348.000000	65.754795 
7347.000000	65.799212 
7346.000000	65.819096 
7345.000000	65.844559 
7344.000000	65.891528 
7343.000000	65.957784 
7342.000000	66.026830 
7341.000000	66.069006 
7340.000000	66.054511 
7339.000000	65.960216 
7338.000000	65.780758 
7337.000000	65.527248 
7336.000000	65.227031 
7335.000000	64.912366 
7334.000000	64.612221 
7333.000000	64.346313 
7332.000000	64.122605 
7331.000000	63.935422 
7330.000000	63.772296 
7329.000000	63.623261 
7328.000000	63.488674 
7327.000000	63.379478 
7326.000000	63.319373 
7325.000000	63.332915 
7324.000000	63.445091 
7323.000000	63.665819 
7322.000000	63.995265 
7321.000000	64.420366 
7320.000000	64.919590 
7319.000000	65.466547 
7318.000000	66.030693 
7317.000000	66.584062 
7316.000000	67.094850 
7315.000000	67.531585 
7314.000000	67.859864 
7313.000000	68.047738 
7312.000000	68.070125 
7311.000000	67.917442 
7310.000000	67.598843 
7309.000000	67.145586 
7308.000000	66.610169 
7307.000000	66.060519 
7306.000000	65.566992 
7305.000000	65.190219 
7304.000000	64.969635 
7303.000000	64.916563 
7302.000000	65.014386 
7301.000000	65.223193 
7300.000000	65.489530 
7299.000000	65.757894 
7298.000000	65.979385 
7297.000000	66.121935 
7296.000000	66.168117 
7295.000000	66.120386 
7294.000000	65.995740 
7293.000000	65.820741 
7292.000000	65.623235 
7291.000000	65.426874 
7290.000000	65.248250 
7289.000000	65.095424 
7288.000000	64.969110 
7287.000000	64.869236 
7286.000000	64.799475 
7285.000000	64.768338 
7284.000000	64.788150 
7283.000000	64.870548 
7282.000000	65.021133 
7281.000000	65.231680 
7280.000000	65.477848 
7279.000000	65.719008 
7278.000000	65.905475 
7277.000000	65.989136 
7276.000000	65.935659 
7275.000000	65.735435 
7274.000000	65.406203 
7273.000000	64.993286 
7272.000000	64.555907 
7271.000000	64.152026 
7270.000000	63.824033 
7269.000000	63.588905 
7268.000000	63.438296 
7267.000000	63.344883 
7266.000000	63.275408 
7265.000000	63.203287 
7264.000000	63.119149 
7263.000000	63.031220 
7262.000000	62.965297 
7261.000000	62.950277 
7260.000000	63.013100 
7259.000000	63.163900 
7258.000000	63.396239 
7257.000000	63.685750 
7256.000000	63.995695 
7255.000000	64.284777 
7254.000000	64.516496 
7253.000000	64.666938 
7252.000000	64.722871 
7251.000000	64.682102 
7250.000000	64.549398 
7249.000000	64.334917 
7248.000000	64.051866 
7247.000000	63.717722 
7246.000000	63.354587 
7245.000000	62.990880 
7244.000000	62.662601 
7243.000000	62.408709 
7242.000000	62.264442 
7241.000000	62.254357 
7240.000000	62.385129 
7239.000000	62.643480 
7238.000000	62.995600 
7237.000000	63.394427 
7236.000000	63.783931 
7235.000000	64.115190 
7234.000000	64.352130 
7233.000000	64.483332 
7232.000000	64.519500 
7231.000000	64.493894 
7230.000000	64.451265 
7229.000000	64.438724 
7228.000000	64.493250 
7227.000000	64.635705 
7226.000000	64.866638 
7225.000000	65.166425 
7224.000000	65.499687 
7223.000000	65.821766 
7222.000000	66.086149 
7221.000000	66.252207 
7220.000000	66.290283 
7219.000000	66.184329 
7218.000000	65.934705 
7217.000000	65.555596 
7216.000000	65.076136 
7215.000000	64.539170 
7214.000000	63.995981 
7213.000000	63.500118 
7212.000000	63.100075 
7211.000000	62.834405 
7210.000000	62.724351 
7209.000000	62.770628 
7208.000000	62.954616 
7207.000000	63.236832 
7206.000000	63.573193 
7205.000000	63.921713 
7204.000000	64.251446 
7203.000000	64.541053 
7202.000000	64.787530 
7201.000000	65.000891 
7200.000000	65.194702 
7199.000000	65.377426 
7198.000000	65.543150 
7197.000000	65.670943 
7196.000000	65.729784 
7195.000000	65.689539 
7194.000000	65.534329 
7193.000000	65.271806 
7192.000000	64.938592 
7191.000000	64.593815 
7190.000000	64.306783 
7189.000000	64.140200 
7188.000000	64.133810 
7187.000000	64.294171 
7186.000000	64.596343 
7185.000000	64.984393 
7184.000000	65.392351 
7183.000000	65.746021 
7182.000000	65.981364 
7181.000000	66.048026 
7180.000000	65.919089 
7179.000000	65.589189 
7178.000000	65.070819 
7177.000000	64.397692 
7176.000000	63.618397 
7175.000000	62.799406 
7174.000000	62.018680 
7173.000000	61.356782 
7172.000000	60.885596 
7171.000000	60.653805 
7170.000000	60.678291 
7169.000000	60.934638 
7168.000000	61.363554 
7167.000000	61.883497 
7166.000000	62.408709 
7165.000000	62.865304 
7164.000000	63.204622 
7163.000000	63.404846 
7162.000000	63.471746 
7161.000000	63.426351 
7160.000000	63.300085 
7159.000000	63.121962 
7158.000000	62.917470 
7157.000000	62.709975 
7156.000000	62.518024 
7155.000000	62.361431 
7154.000000	62.256503 
7153.000000	62.220954 
7152.000000	62.263464 
7151.000000	62.382626 
7150.000000	62.562012 
7149.000000	62.770628 
7148.000000	62.970209 
7147.000000	63.121986 
7146.000000	63.198685 
7145.000000	63.190698 
7144.000000	63.105487 
7143.000000	62.964820 
7142.000000	62.800383 
7141.000000	62.646150 
7140.000000	62.529826 
7139.000000	62.468385 
7138.000000	62.468290 
7137.000000	62.525653 
7136.000000	62.631487 
7135.000000	62.773656 
7134.000000	62.938404 
7133.000000	63.114094 
7132.000000	63.290786 
7131.000000	63.462305 
7130.000000	63.623166 
7129.000000	63.770365 
7128.000000	63.901209 
7127.000000	64.013957 
7126.000000	64.108920 
7125.000000	64.185619 
7124.000000	64.243936 
7123.000000	64.282131 
7122.000000	64.297962 
7121.000000	64.290118 
7120.000000	64.259529 
7119.000000	64.212441 
7118.000000	64.160227 
7117.000000	64.118051 
7116.000000	64.100885 
7115.000000	64.118337 
7114.000000	64.170885 
7113.000000	64.248156 
7112.000000	64.331316 
7111.000000	64.393877 
7110.000000	64.413022 
7109.000000	64.375615 
7108.000000	64.287209 
7107.000000	64.171504 
7106.000000	64.067363 
7105.000000	64.020991 
7104.000000	64.070105 
7103.000000	64.236617 
7102.000000	64.511919 
7101.000000	64.856767 
7100.000000	65.207600 
7099.000000	65.490937 
7098.000000	65.643835 
7097.000000	65.629577 
7096.000000	65.451288 
7095.000000	65.151453 
7094.000000	64.802265 
7093.000000	64.486718 
7092.000000	64.276957 
7091.000000	64.215064 
7090.000000	64.303421 
7089.000000	64.504504 
7088.000000	64.751529 
7087.000000	64.965772 
7086.000000	65.074944 
7085.000000	65.031814 
7084.000000	64.821100 
7083.000000	64.466428 
7082.000000	64.017796 
7081.000000	63.546943 
7080.000000	63.125872 
7079.000000	62.819528 
7078.000000	62.674355 
7077.000000	62.713027 
7076.000000	62.932968 
7075.000000	63.309288 
7074.000000	63.803029 
7073.000000	64.365506 
7072.000000	64.942359 
7071.000000	65.484571 
7070.000000	65.952539 
7069.000000	66.319870 
7068.000000	66.571950 
7067.000000	66.707253 
7066.000000	66.734719 
7065.000000	66.668844 
7064.000000	66.527247 
7063.000000	66.326880 
7062.000000	66.083812 
7061.000000	65.815877 
7060.000000	65.543746 
7059.000000	65.290999 
7058.000000	65.082597 
7057.000000	64.944267 
7056.000000	64.895510 
7055.000000	64.947175 
7054.000000	65.092396 
7053.000000	65.307450 
7052.000000	65.548777 
7051.000000	65.760207 
7050.000000	65.881156 
7049.000000	65.859770 
7048.000000	65.663313 
7047.000000	65.287137 
7046.000000	64.755463 
7045.000000	64.116978 
7044.000000	63.435101 
7043.000000	62.776350 
7042.000000	62.196755 
7041.000000	61.730980 
7040.000000	61.395549 
7039.000000	61.191153 
7038.000000	61.107277 
7037.000000	61.127805 
7036.000000	61.234641 
7035.000000	61.410379 
7034.000000	61.635303 
7033.000000	61.888670 
7032.000000	62.144279 
7031.000000	62.375593 
7030.000000	62.559890 
7029.000000	62.683343 
7028.000000	62.743043 
7027.000000	62.746500 
7026.000000	62.716627 
7025.000000	62.676620 
7024.000000	62.644529 
7023.000000	62.622308 
7022.000000	62.599778 
7021.000000	62.550449 
7020.000000	62.442183 
7019.000000	62.244343 
7018.000000	61.941361 
7017.000000	61.537170 
7016.000000	61.057090 
7015.000000	60.545802 
7014.000000	60.057520 
7013.000000	59.647583 
7012.000000	59.359192 
7011.000000	59.221625 
7010.000000	59.245061 
7009.000000	59.422636 
7008.000000	59.733700 
7007.000000	60.148882 
7006.000000	60.636663 
7005.000000	61.165857 
7004.000000	61.711955 
7003.000000	62.251877 
7002.000000	62.770390 
7001.000000	63.260078 
7000.000000	63.720655 
6999.000000	64.158082 
6998.000000	64.576673 
6997.000000	64.979434 
6996.000000	65.358591 
6995.000000	65.700912 
6994.000000	65.983343 
6993.000000	66.182613 
6992.000000	66.277980 
6991.000000	66.263747 
6990.000000	66.147518 
6989.000000	65.954017 
6988.000000	65.718770 
6987.000000	65.484285 
6986.000000	65.288329 
6985.000000	65.158176 
6984.000000	65.103387 
6983.000000	65.115809 
6982.000000	65.171122 
6981.000000	65.235924 
6980.000000	65.275573 
6979.000000	65.262675 
6978.000000	65.181684 
6977.000000	65.032982 
6976.000000	64.828109 
6975.000000	64.589953 
6974.000000	64.348864 
6973.000000	64.136934 
6972.000000	63.979935 
6971.000000	63.893532 
6970.000000	63.882851 
6969.000000	63.940930 
6968.000000	64.049291 
6967.000000	64.184451 
6966.000000	64.324259 
6965.000000	64.450454 
6964.000000	64.551448 
6963.000000	64.620447 
6962.000000	64.654278 
6961.000000	64.649534 
6960.000000	64.600872 
6959.000000	64.502000 
6958.000000	64.348220 
6957.000000	64.140057 
6956.000000	63.886523 
6955.000000	63.605403 
6954.000000	63.321805 
6953.000000	63.064885 
6952.000000	62.862253 
6951.000000	62.732410 
6950.000000	62.681841 
6949.000000	62.702584 
6948.000000	62.776446 
6947.000000	62.877964 
6946.000000	62.983202 
6945.000000	63.073849 
6944.000000	63.143253 
6943.000000	63.193249 
6942.000000	63.235759 
6941.000000	63.284969 
6940.000000	63.355350 
6939.000000	63.456225 
6938.000000	63.588929 
6937.000000	63.746929 
6936.000000	63.915324 
6935.000000	64.076709 
6934.000000	64.211130 
6933.000000	64.301419 
6932.000000	64.335250 
6931.000000	64.308166 
6930.000000	64.224720 
6929.000000	64.098286 
6928.000000	63.949036 
6927.000000	63.800549 
6926.000000	63.677859 
6925.000000	63.603067 
6924.000000	63.590693 
6923.000000	63.645482 
6922.000000	63.762402 
6921.000000	63.928055 
6920.000000	64.123988 
6919.000000	64.329838 
6918.000000	64.527678 
6917.000000	64.702033 
6916.000000	64.842128 
6915.000000	64.938664 
6914.000000	64.983963 
6913.000000	64.970016 
6912.000000	64.890813 
6911.000000	64.742493 
6910.000000	64.526796 
6909.000000	64.252734 
6908.000000	63.937973 
6907.000000	63.609099 
6906.000000	63.298559 
6905.000000	63.041901 
6904.000000	62.871646 
6903.000000	62.811589 
6902.000000	62.871289 
6901.000000	63.044428 
6900.000000	63.308739 
6899.000000	63.628339 
6898.000000	63.959646 
6897.000000	64.258122 
6896.000000	64.486193 
6895.000000	64.617967 
6894.000000	64.643549 
6893.000000	64.569091 
6892.000000	64.414215 
6891.000000	64.208006 
6890.000000	63.981842 
6889.000000	63.764381 
6888.000000	63.576388 
6887.000000	63.431072 
6886.000000	63.332414 
6885.000000	63.278532 
6884.000000	63.263773 
6883.000000	63.282561 
6882.000000	63.330173 
6881.000000	63.402223 
6880.000000	63.494753 
6879.000000	63.601636 
6878.000000	63.715004 
6877.000000	63.824176 
6876.000000	63.917779 
6875.000000	63.984918 
6874.000000	64.018154 
6873.000000	64.014482 
6872.000000	63.975787 
6871.000000	63.907909 
6870.000000	63.819241 
6869.000000	63.718986 
6868.000000	63.614439 
6867.000000	63.511967 
6866.000000	63.416767 
6865.000000	63.336062 
6864.000000	63.278651 
6863.000000	63.257002 
6862.000000	63.283991 
6861.000000	63.371992 
6860.000000	63.528442 
6859.000000	63.753175 
6858.000000	64.035582 
6857.000000	64.354753 
6856.000000	64.682292 
6855.000000	64.985370 
6854.000000	65.232777 
6853.000000	65.398979 
6852.000000	65.470266 
6851.000000	65.443134 
6850.000000	65.324831 
6849.000000	65.129232 
6848.000000	64.874577 
6847.000000	64.578509 
6846.000000	64.257264 
6845.000000	63.924455 
6844.000000	63.593912 
6843.000000	63.281559 
6842.000000	63.008522 
6841.000000	62.798357 
6840.000000	62.676978 
6839.000000	62.668108 
6838.000000	62.787628 
6837.000000	63.036632 
6836.000000	63.397812 
6835.000000	63.832926 
6834.000000	64.289402 
6833.000000	64.706444 
6832.000000	65.029573 
6831.000000	65.219831 
6830.000000	65.263867 
6829.000000	65.174913 
6828.000000	64.989900 
6827.000000	64.760184 
6826.000000	64.539241 
6825.000000	64.371299 
6824.000000	64.282846 
6823.000000	64.280271 
6822.000000	64.350414 
6821.000000	64.467835 
6820.000000	64.600038 
6819.000000	64.716100 
6818.000000	64.791083 
6817.000000	64.810442 
6816.000000	64.766240 
6815.000000	64.659523 
6814.000000	64.497590 
6813.000000	64.295697 
6812.000000	64.075779 
6811.000000	63.864231 
6810.000000	63.691854 
6809.000000	63.584542 
6808.000000	63.559293 
6807.000000	63.617587 
6806.000000	63.743376 
6805.000000	63.907504 
6804.000000	64.072728 
6803.000000	64.204955 
6802.000000	64.279365 
6801.000000	64.289045 
6800.000000	64.244866 
6799.000000	64.172506 
6798.000000	64.103055 
6797.000000	64.065337 
6796.000000	64.077496 
6795.000000	64.144086 
6794.000000	64.255881 
6793.000000	64.396619 
6792.000000	64.548301 
6791.000000	64.697813 
6790.000000	64.838743 
6789.000000	64.969635 
6788.000000	65.090990 
6787.000000	65.198826 
6786.000000	65.284609 
6785.000000	65.336728 
6784.000000	65.344285 
6783.000000	65.302133 
6782.000000	65.213847 
6781.000000	65.093445 
6780.000000	64.963960 
6779.000000	64.852929 
6778.000000	64.787435 
6777.000000	64.787054 
6776.000000	64.861083 
6775.000000	65.006923 
6774.000000	65.210151 
6773.000000	65.449023 
6772.000000	65.695762 
6771.000000	65.922951 
6770.000000	66.104030 
6769.000000	66.217565 
6768.000000	66.248083 
6767.000000	66.187810 
6766.000000	66.040682 
6765.000000	65.821886 
6764.000000	65.557241 
6763.000000	65.277600 
6762.000000	65.012645 
6761.000000	64.784240 
6760.000000	64.602160 
6759.000000	64.463853 
6758.000000	64.356613 
6757.000000	64.264678 
6756.000000	64.175438 
6755.000000	64.085531 
6754.000000	63.999676 
6753.000000	63.932204 
6752.000000	63.898992 
6751.000000	63.915228 
6750.000000	63.986778 
6749.000000	64.110064 
6748.000000	64.269042 
6747.000000	64.441609 
6746.000000	64.605593 
6745.000000	64.740991 
6744.000000	64.834880 
6743.000000	64.879107 
6742.000000	64.871239 
6741.000000	64.809727 
6740.000000	64.693427 
6739.000000	64.524698 
6738.000000	64.311742 
6737.000000	64.071035 
6736.000000	63.828396 
6735.000000	63.615369 
6734.000000	63.466048 
6733.000000	63.411068 
6732.000000	63.473010 
6731.000000	63.658928 
6730.000000	63.960337 
6729.000000	64.355421 
6728.000000	64.810562 
6727.000000	65.286231 
6726.000000	65.739035 
6725.000000	66.129636 
6724.000000	66.421961 
6723.000000	66.588401 
6722.000000	66.610217 
6721.000000	66.481304 
6720.000000	66.208505 
6719.000000	65.814375 
6718.000000	65.333080 
6717.000000	64.810252 
6716.000000	64.292526 
6715.000000	63.823771 
6714.000000	63.435506 
6713.000000	63.144612 
6712.000000	62.954616 
6711.000000	62.860202 
6710.000000	62.851238 
6709.000000	62.918615 
6708.000000	63.058757 
6707.000000	63.273310 
6706.000000	63.563609 
6705.000000	63.925480 
6704.000000	64.340996 
6703.000000	64.778256 
6702.000000	65.192222 
6701.000000	65.533089 
6700.000000	65.756702 
6699.000000	65.833926 
6698.000000	65.760612 
6697.000000	65.555810 
6696.000000	65.262651 
6695.000000	64.932751 
6694.000000	64.616703 
6693.000000	64.351224 
6692.000000	64.156007 
6691.000000	64.029431 
6690.000000	63.955283 
6689.000000	63.907957 
6688.000000	63.863611 
6687.000000	63.804078 
6686.000000	63.722229 
6685.000000	63.616824 
6684.000000	63.491177 
6683.000000	63.348865 
6682.000000	63.194155 
6681.000000	63.031744 
6680.000000	62.869763 
6679.000000	62.723517 
6678.000000	62.613797 
6677.000000	62.565135 
6676.000000	62.597227 
6675.000000	62.720012 
6674.000000	62.925362 
6673.000000	63.184976 
6672.000000	63.453912 
6671.000000	63.678884 
6670.000000	63.810753 
6669.000000	63.816690 
6668.000000	63.687705 
6667.000000	63.441681 
6666.000000	63.117313 
6665.000000	62.764739 
6664.000000	62.432575 
6663.000000	62.156391 
6662.000000	61.954450 
6661.000000	61.827278 
6660.000000	61.761736 
6659.000000	61.739110 
6658.000000	61.739540 
6657.000000	61.748886 
6656.000000	61.759209 
6655.000000	61.771011 
6654.000000	61.788249 
6653.000000	61.819171 
6652.000000	61.872315 
6651.000000	61.958003 
6650.000000	62.084269 
6649.000000	62.258005 
6648.000000	62.484574 
6647.000000	62.765049 
6646.000000	63.095045 
6645.000000	63.461089 
6644.000000	63.843369 
6643.000000	64.212656 
6642.000000	64.537429 
6641.000000	64.782381 
6640.000000	64.920735 
6639.000000	64.929199 
6638.000000	64.795112 
6637.000000	64.516115 
6636.000000	64.104390 
6635.000000	63.585567 
6634.000000	62.997651 
6633.000000	62.391185 
6632.000000	61.824607 
6631.000000	61.356306 
6630.000000	61.036992 
6629.000000	60.902070 
6628.000000	60.966181 
6627.000000	61.220979 
6626.000000	61.636447 
6625.000000	62.163591 
6624.000000	62.743139 
6623.000000	63.311886 
6622.000000	63.814520 
6621.000000	64.205408 
6620.000000	64.459943 
6619.000000	64.573764 
6618.000000	64.565157 
6617.000000	64.466857 
6616.000000	64.322590 
6615.000000	64.180397 
6614.000000	64.082837 
6613.000000	64.063310 
6612.000000	64.138221 
6611.000000	64.309740 
6610.000000	64.562344 
6609.000000	64.869952 
6608.000000	65.197300 
6607.000000	65.507602 
6606.000000	65.767383 
6605.000000	65.952110 
6604.000000	66.049885 
6603.000000	66.062164 
6602.000000	66.004920 
6601.000000	65.903735 
6600.000000	65.788817 
6599.000000	65.686964 
6598.000000	65.619587 
6597.000000	65.595197 
6596.000000	65.610623 
6595.000000	65.649080 
6594.000000	65.686631 
6593.000000	65.696907 
6592.000000	65.658760 
6591.000000	65.562438 
6590.000000	65.407776 
6589.000000	65.210771 
6588.000000	64.999580 
6587.000000	64.810276 
6586.000000	64.676451 
6585.000000	64.624333 
6584.000000	64.666914 
6583.000000	64.799952 
6582.000000	65.003633 
6581.000000	65.244340 
6580.000000	65.481853 
6579.000000	65.676236 
6578.000000	65.795660 
6577.000000	65.821862 
6576.000000	65.752863 
6575.000000	65.601563 
6574.000000	65.392398 
6573.000000	65.156412 
6572.000000	64.925670 
6571.000000	64.728856 
6570.000000	64.587116 
6569.000000	64.514136 
6568.000000	64.513039 
6567.000000	64.580750 
6566.000000	64.703774 
6565.000000	64.860939 
6564.000000	65.024161 
6563.000000	65.160346 
6562.000000	65.239477 
6561.000000	65.237712 
6560.000000	65.146279 
6559.000000	64.971780 
6558.000000	64.738774 
6557.000000	64.483714 
6556.000000	64.249730 
6555.000000	64.077448 
6554.000000	63.996624 
6553.000000	64.020252 
6552.000000	64.142203 
6551.000000	64.339685 
6550.000000	64.579153 
6549.000000	64.824533 
6548.000000	65.043807 
6547.000000	65.215539 
6546.000000	65.332341 
6545.000000	65.399718 
6544.000000	65.431857 
6543.000000	65.445160 
6542.000000	65.453457 
6541.000000	65.462183 
6540.000000	65.470147 
6539.000000	65.467929 
6538.000000	65.443563 
6537.000000	65.385794 
6536.000000	65.290164 
6535.000000	65.160775 
6534.000000	65.011358 
6533.000000	64.862370 
6532.000000	64.736461 
6531.000000	64.652895 
6530.000000	64.622378 
6529.000000	64.644503 
6528.000000	64.708209 
6527.000000	64.793848 
6526.000000	64.878249 
6525.000000	64.940524 
6524.000000	64.966797 
6523.000000	64.952492 
6522.000000	64.902353 
6521.000000	64.827847 
6520.000000	64.743351 
6519.000000	64.663743 
6518.000000	64.599847 
6517.000000	64.556121 
6516.000000	64.529228 
6515.000000	64.511513 
6514.000000	64.491868 
6513.000000	64.458751 
6512.000000	64.403748 
6511.000000	64.322733 
6510.000000	64.218902 
6509.000000	64.100217 
6508.000000	63.981246 
6507.000000	63.877987 
6506.000000	63.808035 
6505.000000	63.785767 
6504.000000	63.820481 
6503.000000	63.913846 
6502.000000	64.059281 
6501.000000	64.243197 
6500.000000	64.445257 
6499.000000	64.641332 
6498.000000	64.807033 
6497.000000	64.921951 
6496.000000	64.970088 
6495.000000	64.942455 
6494.000000	64.838290 
6493.000000	64.665126 
6492.000000	64.439105 
6491.000000	64.182043 
6490.000000	63.919520 
6489.000000	63.676357 
6488.000000	63.472986 
6487.000000	63.322639 
6486.000000	63.230490 
6485.000000	63.194465 
6484.000000	63.204956 
6483.000000	63.250112 
6482.000000	63.317489 
6481.000000	63.397908 
6480.000000	63.483572 
6479.000000	63.571310 
6478.000000	63.657999 
6477.000000	63.743543 
6476.000000	63.826870 
6475.000000	63.908720 
6474.000000	63.989472 
6473.000000	64.072370 
6472.000000	64.163017 
6471.000000	64.267683 
6470.000000	64.391231 
6469.000000	64.533209 
6468.000000	64.686322 
6467.000000	64.834332 
6466.000000	64.955258 
6465.000000	65.025973 
6464.000000	65.029454 
6463.000000	64.959955 
6462.000000	64.827799 
6461.000000	64.658236 
6460.000000	64.488410 
6459.000000	64.360308 
6458.000000	64.311408 
6457.000000	64.366126 
6456.000000	64.529013 
6455.000000	64.786410 
6454.000000	65.105104 
6453.000000	65.441179 
6452.000000	65.746092 
6451.000000	65.977787 
6450.000000	66.106319 
6449.000000	66.118621 
6448.000000	66.019177 
6447.000000	65.826797 
6446.000000	65.570664 
6445.000000	65.284180 
6444.000000	64.999341 
6443.000000	64.742684 
6442.000000	64.532160 
6441.000000	64.376878 
6440.000000	64.276790 
6439.000000	64.225292 
6438.000000	64.211845 
6437.000000	64.226031 
6436.000000	64.255928 
6435.000000	64.292716 
6434.000000	64.331245 
6433.000000	64.371609 
6432.000000	64.414453 
6431.000000	64.462685 
6430.000000	64.518713 
6429.000000	64.584064 
6428.000000	64.657735 
6427.000000	64.736819 
6426.000000	64.816761 
6425.000000	64.892244 
6424.000000	64.958453 
6423.000000	65.012121 
6422.000000	65.052986 
6421.000000	65.082502 
6420.000000	65.102934 
6419.000000	65.117216 
6418.000000	65.128326 
6417.000000	65.138030 
6416.000000	65.146565 
6415.000000	65.151214 
6414.000000	65.145850 
6413.000000	65.123271 
6412.000000	65.075397 
6411.000000	64.992070 
6410.000000	64.863252 
6409.000000	64.682292 
6408.000000	64.448857 
6407.000000	64.170193 
6406.000000	63.862562 
6405.000000	63.549494 
6404.000000	63.258671 
6403.000000	63.017177 
6402.000000	62.845706 
6401.000000	62.753438 
6400.000000	62.736773 
6399.000000	62.779307 
6398.000000	62.856507 
6397.000000	62.940073 
6396.000000	63.005352 
6395.000000	63.034057 
6394.000000	63.020563 
6393.000000	62.969756 
6392.000000	62.897491 
6391.000000	62.823867 
6390.000000	62.770652 
6389.000000	62.755227 
6388.000000	62.788295 
6387.000000	62.871408 
6386.000000	62.999176 
6385.000000	63.160181 
6384.000000	63.338947 
6383.000000	63.518142 
6382.000000	63.681197 
6381.000000	63.813924 
6380.000000	63.905262 
6379.000000	63.948488 
6378.000000	63.941788 
6377.000000	63.889050 
6376.000000	63.797521 
6375.000000	63.680481 
6374.000000	63.555502 
6373.000000	63.444590 
6372.000000	63.371014 
6371.000000	63.356709 
6370.000000	63.418960 
6369.000000	63.565659 
6368.000000	63.792657 
6367.000000	64.083504 
6366.000000	64.410257 
6365.000000	64.740681 
6364.000000	65.043878 
6363.000000	65.296602 
6362.000000	65.486621 
6361.000000	65.614962 
6360.000000	65.692853 
6359.000000	65.737271 
6358.000000	65.764379 
6357.000000	65.785026 
6356.000000	65.801334 
6355.000000	65.808010 
6354.000000	65.794897 
6353.000000	65.754771 
6352.000000	65.685391 
6351.000000	65.593934 
6350.000000	65.493917 
6349.000000	65.403985 
6348.000000	65.340209 
6347.000000	65.310811 
6346.000000	65.313506 
6345.000000	65.335583 
6344.000000	65.357375 
6343.000000	65.358400 
6342.000000	65.322899 
6341.000000	65.244293 
6340.000000	65.127611 
6339.000000	64.988207 
6338.000000	64.847016 
6337.000000	64.724516 
6336.000000	64.635062 
6335.000000	64.582467 
6334.000000	64.561367 
6333.000000	64.559221 
6332.000000	64.558577 
6331.000000	64.542126 
6330.000000	64.498186 
6329.000000	64.423274 
6328.000000	64.320588 
6327.000000	64.199352 
6326.000000	64.070892 
6325.000000	63.946580 
6324.000000	63.834881 
6323.000000	63.740468 
6322.000000	63.663220 
6321.000000	63.600897 
6320.000000	63.550734 
6319.000000	63.512301 
6318.000000	63.485503 
6317.000000	63.474988 
6316.000000	63.486528 
6315.000000	63.528466 
6314.000000	63.608264 
6313.000000	63.729596 
6312.000000	63.890457 
6311.000000	64.078497 
6310.000000	64.271879 
6309.000000	64.440703 
6308.000000	64.552998 
6307.000000	64.580416 
6306.000000	64.505290 
6305.000000	64.327120 
6304.000000	64.064049 
6303.000000	63.748574 
6302.000000	63.422274 
6301.000000	63.127398 
6300.000000	62.900328 
6299.000000	62.764930 
6298.000000	62.731432 
6297.000000	62.796306 
6296.000000	62.946557 
6295.000000	63.164329 
6294.000000	63.430261 
6293.000000	63.725423 
6292.000000	64.031982 
6291.000000	64.330768 
6290.000000	64.602160 
6289.000000	64.823484 
6288.000000	64.975333 
6287.000000	65.044212 
6286.000000	65.027427 
6285.000000	64.935708 
6284.000000	64.791393 
6283.000000	64.625644 
6282.000000	64.471888 
6281.000000	64.360022 
6280.000000	64.310979 
6279.000000	64.333415 
6278.000000	64.423108 
6277.000000	64.564514 
6276.000000	64.735150 
6275.000000	64.910054 
6274.000000	65.066051 
6273.000000	65.185856 
6272.000000	65.259265 
6271.000000	65.283799 
6270.000000	65.264248 
6269.000000	65.208888 
6268.000000	65.127539 
6267.000000	65.026831 
6266.000000	64.912199 
6265.000000	64.783763 
6264.000000	64.639687 
6263.000000	64.476919 
6262.000000	64.293742 
6261.000000	64.094471 
6260.000000	63.890910 
6259.000000	63.701701 
6258.000000	63.548517 
6257.000000	63.451719 
6256.000000	63.424873 
6255.000000	63.469624 
6254.000000	63.573884 
6253.000000	63.714432 
6252.000000	63.861989 
6251.000000	63.988256 
6250.000000	64.072489 
6249.000000	64.105486 
6248.000000	64.090919 
6247.000000	64.043450 
6246.000000	63.983535 
6245.000000	63.931155 
6244.000000	63.900113 
6243.000000	63.894486 
6242.000000	63.908863 
6241.000000	63.932490 
6240.000000	63.952708 
6239.000000	63.960361 
6238.000000	63.952326 
6237.000000	63.932847 
6236.000000	63.912129 
6235.000000	63.902354 
6234.000000	63.914585 
6233.000000	63.953828 
6232.000000	64.018535 
6231.000000	64.100980 
6230.000000	64.188218 
6229.000000	64.265322 
6228.000000	64.319467 
6227.000000	64.343357 
6226.000000	64.336609 
6225.000000	64.305639 
6224.000000	64.263033 
6223.000000	64.224195 
6222.000000	64.204239 
6221.000000	64.213275 
6220.000000	64.255046 
6219.000000	64.324116 
6218.000000	64.408206 
6217.000000	64.488744 
6216.000000	64.545512 
6215.000000	64.560484 
6214.000000	64.521646 
6213.000000	64.426660 
6212.000000	64.283514 
6211.000000	64.109826 
6210.000000	63.928747 
6209.000000	63.765263 
6208.000000	63.640975 
6207.000000	63.569903 
6206.000000	63.555908 
6205.000000	63.593006 
6204.000000	63.667964 
6203.000000	63.763451 
6202.000000	63.862395 
6201.000000	63.951802 
6200.000000	64.024591 
6199.000000	64.081668 
6198.000000	64.129638 
6197.000000	64.177012 
6196.000000	64.230155 
6195.000000	64.290618 
6194.000000	64.353728 
6193.000000	64.409708 
6192.000000	64.446401 
6191.000000	64.454197 
6190.000000	64.428758 
6189.000000	64.374160 
6188.000000	64.301466 
6187.000000	64.225459 
6186.000000	64.162135 
6185.000000	64.123034 
6184.000000	64.116048 
6183.000000	64.142894 
6182.000000	64.202260 
6181.000000	64.291310 
6180.000000	64.406943 
6179.000000	64.547419 
6178.000000	64.709043 
6177.000000	64.885902 
6176.000000	65.065622 
6175.000000	65.229725 
6174.000000	65.354919 
6173.000000	65.417289 
6172.000000	65.398788 
6171.000000	65.292477 
6170.000000	65.107250 
6169.000000	64.866995 
6168.000000	64.605498 
6167.000000	64.359426 
6166.000000	64.160561 
6165.000000	64.029550 
6164.000000	63.972282 
6163.000000	63.981342 
6162.000000	64.039182 
6161.000000	64.125180 
6160.000000	64.222264 
6159.000000	64.320039 
6158.000000	64.414525 
6157.000000	64.506602 
6156.000000	64.597630 
6155.000000	64.685678 
6154.000000	64.762449 
6153.000000	64.813756 
6152.000000	64.822101 
6151.000000	64.772343 
6150.000000	64.657855 
6149.000000	64.483642 
6148.000000	64.267492 
6147.000000	64.038157 
6146.000000	63.829946 
6145.000000	63.678455 
6144.000000	63.613104 
6143.000000	63.651657 
6142.000000	63.796067 
6141.000000	64.034318 
6140.000000	64.340662 
6139.000000	64.679932 
6138.000000	65.011787 
6137.000000	65.296030 
6136.000000	65.498232 
6135.000000	65.594410 
6134.000000	65.574836 
6133.000000	65.443062 
6132.000000	65.217781 
6131.000000	64.930176 
6130.000000	64.619302 
6129.000000	64.326262 
6128.000000	64.088225 
6127.000000	63.934206 
6126.000000	63.881158 
6125.000000	63.933396 
6124.000000	64.081978 
6123.000000	64.307332 
6122.000000	64.581727 
6121.000000	64.873909 
6120.000000	65.150618 
6119.000000	65.380120 
6118.000000	65.535306 
6117.000000	65.596628 
6116.000000	65.554141 
6115.000000	65.409231 
6114.000000	65.174889 
6113.000000	64.874672 
6112.000000	64.541983 
6111.000000	64.215016 
6110.000000	63.931632 
6109.000000	63.724088 
6108.000000	63.613462 
6107.000000	63.608121 
6106.000000	63.703823 
6105.000000	63.885807 
6104.000000	64.129996 
6103.000000	64.409208 
6102.000000	64.696216 
6101.000000	64.967489 
6100.000000	65.204310 
6099.000000	65.392732 
6098.000000	65.522527 
6097.000000	65.586853 
6096.000000	65.582752 
6095.000000	65.509247 
6094.000000	65.368843 
6093.000000	65.168547 
6092.000000	64.921617 
6091.000000	64.647722 
6090.000000	64.372253 
6089.000000	64.122915 
6088.000000	63.925981 
6087.000000	63.803029 
6086.000000	63.766694 
6085.000000	63.817214 
6084.000000	63.942575 
6083.000000	64.119505 
6082.000000	64.318513 
6081.000000	64.508056 
6080.000000	64.661860 
6079.000000	64.760661 
6078.000000	64.797997 
6077.000000	64.778757 
6076.000000	64.718341 
6075.000000	64.636874 
6074.000000	64.555191 
6073.000000	64.490652 
6072.000000	64.453291 
6071.000000	64.446425 
6070.000000	64.465332 
6069.000000	64.500880 
6068.000000	64.541411 
6067.000000	64.577007 
6066.000000	64.600515 
6065.000000	64.608883 
6064.000000	64.602637 
6063.000000	64.584755 
6062.000000	64.559483 
6061.000000	64.530634 
6060.000000	64.500093 
6059.000000	64.467549 
6058.000000	64.431977 
6057.000000	64.392471 
6056.000000	64.348888 
6055.000000	64.303398 
6054.000000	64.260005 
6053.000000	64.225268 
6052.000000	64.207339 
6051.000000	64.214086 
6050.000000	64.249849 
6049.000000	64.315056 
6048.000000	64.405250 
6047.000000	64.511728 
6046.000000	64.621949 
6045.000000	64.723324 
6044.000000	64.805245 
6043.000000	64.861798 
6042.000000	64.892864 
6041.000000	64.903283 
6040.000000	64.900922 
6039.000000	64.894461 
6038.000000	64.890956 
6037.000000	64.894223 
6036.000000	64.904260 
6035.000000	64.918327 
6034.000000	64.932107 
6033.000000	64.941406 
6032.000000	64.942646 
6031.000000	64.934563 
6030.000000	64.916443 
6029.000000	64.886927 
6028.000000	64.843440 
6027.000000	64.782023 
6026.000000	64.699196 
6025.000000	64.593029 
6024.000000	64.465880 
6023.000000	64.325428 
6022.000000	64.184379 
6021.000000	64.058256 
6020.000000	63.962602 
6019.000000	63.908743 
6018.000000	63.901662 
6017.000000	63.938617 
6016.000000	64.009428 
6015.000000	64.097785 
6014.000000	64.186072 
6013.000000	64.259409 
6012.000000	64.307975 
6011.000000	64.328169 
6010.000000	64.323973 
6009.000000	64.304947 
6008.000000	64.283680 
6007.000000	64.272212 
6006.000000	64.279508 
6005.000000	64.309453 
6004.000000	64.361453 
6003.000000	64.430522 
6002.000000	64.509010 
6001.000000	64.588475 
6000.000000	64.661502 
5999.000000	64.723300 
5998.000000	64.771747 
5997.000000	64.807200 
5996.000000	64.832091 
5995.000000	64.848637 
5994.000000	64.858555 
5993.000000	64.860606 
5992.000000	64.852786 
5991.000000	64.829945 
5990.000000	64.786553 
5989.000000	64.716792 
5988.000000	64.618086 
5987.000000	64.490461 
5986.000000	64.337944 
5985.000000	64.168906 
5984.000000	63.995289 
5983.000000	63.832497 
5982.000000	63.697099 
5981.000000	63.604116 
5980.000000	63.564181 
5979.000000	63.581585 
5978.000000	63.653421 
5977.000000	63.768863 
5976.000000	63.911628 
5975.000000	64.062118 
5974.000000	64.201664 
5973.000000	64.314436 
5972.000000	64.390492 
5971.000000	64.426541 
5970.000000	64.425539 
5969.000000	64.394140 
5968.000000	64.341545 
5967.000000	64.277482 
5966.000000	64.210939 
5965.000000	64.149618 
5964.000000	64.099740 
5963.000000	64.067625 
5962.000000	64.057517 
5961.000000	64.073014 
5960.000000	64.113211 
5959.000000	64.172840 
5958.000000	64.241600 
5957.000000	64.305973 
5956.000000	64.352655 
5955.000000	64.371824 
5954.000000	64.360880 
5953.000000	64.325213 
5952.000000	64.275908 
5951.000000	64.226746 
5950.000000	64.191079 
5949.000000	64.177346 
5948.000000	64.186096 
5947.000000	64.209699 
5946.000000	64.235949 
5945.000000	64.250564 
5944.000000	64.241933 
5943.000000	64.203858 
5942.000000	64.137363 
5941.000000	64.050102 
5940.000000	63.953495 
5939.000000	63.860392 
5938.000000	63.780617 
5937.000000	63.720512 
5936.000000	63.682126 
5935.000000	63.663268 
5934.000000	63.659644 
5933.000000	63.664793 
5932.000000	63.672089 
5931.000000	63.675308 
5930.000000	63.669538 
5929.000000	63.654136 
5928.000000	63.633251 
5927.000000	63.615179 
5926.000000	63.611245 
5925.000000	63.634514 
5924.000000	63.696694 
5923.000000	63.804268 
5922.000000	63.956975 
5921.000000	64.146494 
5920.000000	64.358329 
5919.000000	64.574432 
5918.000000	64.776706 
5917.000000	64.950919 
5916.000000	65.087819 
5915.000000	65.186262 
5914.000000	65.249133 
5913.000000	65.281939 
5912.000000	65.289235 
5911.000000	65.274524 
5910.000000	65.238475 
5909.000000	65.181279 
5908.000000	65.103101 
5907.000000	65.008568 
5906.000000	64.902615 
5905.000000	64.791655 
5904.000000	64.679932 
5903.000000	64.569330 
5902.000000	64.457750 
5901.000000	64.340639 
5900.000000	64.212679 
5899.000000	64.071035 
5898.000000	63.917875 
5897.000000	63.762068 
5896.000000	63.617444 
5895.000000	63.501310 
5894.000000	63.429641 
5893.000000	63.414025 
5892.000000	63.456511 
5891.000000	63.550615 
5890.000000	63.681912 
5889.000000	63.832569 
5888.000000	63.983368 
5887.000000	64.119935 
5886.000000	64.234280 
5885.000000	64.326453 
5884.000000	64.401316 
5883.000000	64.467358 
5882.000000	64.533162 
5881.000000	64.603900 
5880.000000	64.679932 
5879.000000	64.756298 
5878.000000	64.824700 
5877.000000	64.875435 
5876.000000	64.900803 
5875.000000	64.897394 
5874.000000	64.867854 
5873.000000	64.820408 
5872.000000	64.766955 
5871.000000	64.719700 
5870.000000	64.687848 
5869.000000	64.676833 
5868.000000	64.686512 
5867.000000	64.710474 
5866.000000	64.738559 
5865.000000	64.760708 
5864.000000	64.769649 
5863.000000	64.762091 
5862.000000	64.740538 
5861.000000	64.712142 
5860.000000	64.686536 
5859.000000	64.673781 
5858.000000	64.679741 
5857.000000	64.704799 
5856.000000	64.741849 
5855.000000	64.779376 
5854.000000	64.801263 
5853.000000	64.791417 
5852.000000	64.736127 
5851.000000	64.628076 
5850.000000	64.467430 
5849.000000	64.262342 
5848.000000	64.028739 
5847.000000	63.788342 
5846.000000	63.565301 
5845.000000	63.383293 
5844.000000	63.263535 
5843.000000	63.222241 
5842.000000	63.267946 
5841.000000	63.400435 
5840.000000	63.609862 
5839.000000	63.877749 
5838.000000	64.178800 
5837.000000	64.484047 
5836.000000	64.763212 
5835.000000	64.989471 
5834.000000	65.143203 
5833.000000	65.214109 
5832.000000	65.201568 
5831.000000	65.114402 
5830.000000	64.969897 
5829.000000	64.789724 
5828.000000	64.597892 
5827.000000	64.415979 
5826.000000	64.262366 
5825.000000	64.147686 
5824.000000	64.075541 
5823.000000	64.041495 
5822.000000	64.035654 
5821.000000	64.044237 
5820.000000	64.053225 
5819.000000	64.050412 
5818.000000	64.028501 
5817.000000	63.985395 
5816.000000	63.925766 
5815.000000	63.859581 
5814.000000	63.801646 
5813.000000	63.767123 
5812.000000	63.770103 
5811.000000	63.820624 
5810.000000	63.922452 
5809.000000	64.073252 
5808.000000	64.263081 
5807.000000	64.475345 
5806.000000	64.689254 
5805.000000	64.884114 
5804.000000	65.041279 
5803.000000	65.146398 
5802.000000	65.192580 
5801.000000	65.181970 
5800.000000	65.123891 
5799.000000	65.033984 
5798.000000	64.928650 
5797.000000	64.822077 
5796.000000	64.724016 
5795.000000	64.639878 
5794.000000	64.569854 
5793.000000	64.511489 
5792.000000	64.463067 
5791.000000	64.426112 
5790.000000	64.405846 
5789.000000	64.410352 
5788.000000	64.447355 
5787.000000	64.521026 
5786.000000	64.629960 
5785.000000	64.764451 
5784.000000	64.907336 
5783.000000	65.035772 
5782.000000	65.126252 
5781.000000	65.159034 
5780.000000	65.122938 
5779.000000	65.017747 
5778.000000	64.854097 
5777.000000	64.652276 
5776.000000	64.437246 
5775.000000	64.235615 
5774.000000	64.070677 
5773.000000	63.959455 
5772.000000	63.910508 
5771.000000	63.924717 
5770.000000	63.996911 
5769.000000	64.117145 
5768.000000	64.272594 
5767.000000	64.449357 
5766.000000	64.633131 
5765.000000	64.809465 
5764.000000	64.963793 
5763.000000	65.081262 
5762.000000	65.148115 
5761.000000	65.153861 
5760.000000	65.093874 
5759.000000	64.971208 
5758.000000	64.797568 
5757.000000	64.593434 
5756.000000	64.384984 
5755.000000	64.199972 
5754.000000	64.062809 
5753.000000	63.990497 
5752.000000	63.989734 
5751.000000	64.056491 
5750.000000	64.176940 
5749.000000	64.330768 
5748.000000	64.494800 
5747.000000	64.646959 
5746.000000	64.769244 
5745.000000	64.849758 
5744.000000	64.882493 
5743.000000	64.865922 
5742.000000	64.803218 
5741.000000	64.701366 
5740.000000	64.570164 
5739.000000	64.421391 
5738.000000	64.268946 
5737.000000	64.127635 
5736.000000	64.011883 
5735.000000	63.933873 
5734.000000	63.900566 
5733.000000	63.913226 
5732.000000	63.967561 
5731.000000	64.054894 
5730.000000	64.162325 
5729.000000	64.276599 
5728.000000	64.385080 
5727.000000	64.479017 
5726.000000	64.552950 
5725.000000	64.606165 
5724.000000	64.640712 
5723.000000	64.661407 
5722.000000	64.673852 
5721.000000	64.683508 
5720.000000	64.694523 
5719.000000	64.709782 
5718.000000	64.731216 
5717.000000	64.759898 
5716.000000	64.796972 
5715.000000	64.842963 
5714.000000	64.897751 
5713.000000	64.959526 
5712.000000	65.024542 
5711.000000	65.087127 
5710.000000	65.140318 
5709.000000	65.175843 
5708.000000	65.185904 
5707.000000	65.165805 
5706.000000	65.114855 
5705.000000	65.037059 
5704.000000	64.940047 
5703.000000	64.835190 
5702.000000	64.733767 
5701.000000	64.645671 
5700.000000	64.576506 
5699.000000	64.526462 
5698.000000	64.491581 
5697.000000	64.466094 
5696.000000	64.444041 
5695.000000	64.420342 
5694.000000	64.393305 
5693.000000	64.364624 
5692.000000	64.339280 
5691.000000	64.322376 
5690.000000	64.319849 
5689.000000	64.335846 
5688.000000	64.372849 
5687.000000	64.430546 
5686.000000	64.506816 
5685.000000	64.597964 
5684.000000	64.699554 
5683.000000	64.806771 
5682.000000	64.914608 
5681.000000	65.017771 
5680.000000	65.111565 
5679.000000	65.191292 
5678.000000	65.253424 
5677.000000	65.294075 
5676.000000	65.311455 
5675.000000	65.302991 
5674.000000	65.266585 
5673.000000	65.199589 
5672.000000	65.101337 
5671.000000	64.973258 
5670.000000	64.820337 
5669.000000	64.651465 
5668.000000	64.480161 
5667.000000	64.321494 
5666.000000	64.189934 
5665.000000	64.096260 
5664.000000	64.045071 
5663.000000	64.034652 
5662.000000	64.057469 
5661.000000	64.102768 
5660.000000	64.158844 
5659.000000	64.217376 
5658.000000	64.274859 
5657.000000	64.332532 
5656.000000	64.394712 
5655.000000	64.466166 
5654.000000	64.549589 
5653.000000	64.642858 
5652.000000	64.739274 
5651.000000	64.829730 
5650.000000	64.904856 
5649.000000	64.958500 
5648.000000	64.988350 
5647.000000	64.997172 
5646.000000	64.990806 
5645.000000	64.976787 
5644.000000	64.961671 
5643.000000	64.949727 
5642.000000	64.941906 
5641.000000	64.937114 
5640.000000	64.931893 
5639.000000	64.922857 
5638.000000	64.906644 
5637.000000	64.882111 
5636.000000	64.849281 
5635.000000	64.809608 
5634.000000	64.765357 
5633.000000	64.719223 
5632.000000	64.673590 
5631.000000	64.630317 
5630.000000	64.591288 
5629.000000	64.558482 
5628.000000	64.533615 
5627.000000	64.517879 
5626.000000	64.511370 
5625.000000	64.513349 
5624.000000	64.522242 
5623.000000	64.536476 
5622.000000	64.553928 
5621.000000	64.573144 
5620.000000	64.593315 
5619.000000	64.614224 
5618.000000	64.636015 
5617.000000	64.658331 
5616.000000	64.680290 
5615.000000	64.698958 
5614.000000	64.710831 
5613.000000	64.710307 
5612.000000	64.691114 
5611.000000	64.648246 
5610.000000	64.579534 
5609.000000	64.488244 
5608.000000	64.383006 
5607.000000	64.278388 
5606.000000	64.191913 
5605.000000	64.141869 
5604.000000	64.143013 
5603.000000	64.202928 
5602.000000	64.319276 
5601.000000	64.479565 
5600.000000	64.663100 
5599.000000	64.844870 
5598.000000	65.001058 
5597.000000	65.113067 
5596.000000	65.172243 
5595.000000	65.180563 
5594.000000	65.150046 
5593.000000	65.098524 
5592.000000	65.045738 
5591.000000	65.008330 
5590.000000	64.997076 
5589.000000	65.016865 
5588.000000	65.065407 
5587.000000	65.136551 
5586.000000	65.220689 
5585.000000	65.309119 
5584.000000	65.393090 
5583.000000	65.465593 
5582.000000	65.520238 
5581.000000	65.551376 
5580.000000	65.553975 
5579.000000	65.524291 
5578.000000	65.460920 
5577.000000	65.365958 
5576.000000	65.246391 
5575.000000	65.114212 
5574.000000	64.984774 
5573.000000	64.874529 
5572.000000	64.798760 
5571.000000	64.768314 
5570.000000	64.788246 
5569.000000	64.855599 
5568.000000	64.960169 
5567.000000	65.084886 
5566.000000	65.209054 
5565.000000	65.310955 
5564.000000	65.370368 
5563.000000	65.373301 
5562.000000	65.313816 
5561.000000	65.196228 
5560.000000	65.033411 
5559.000000	64.845418 
5558.000000	64.655518 
5557.000000	64.486289 
5556.000000	64.356040 
5555.000000	64.275956 
5554.000000	64.249253 
5553.000000	64.271259 
5552.000000	64.331436 
5551.000000	64.416623 
5550.000000	64.514398 
5549.000000	64.614319 
5548.000000	64.709639 
5547.000000	64.796924 
5546.000000	64.875602 
5545.000000	64.946627 
5544.000000	65.011334 
5543.000000	65.070557 
5542.000000	65.123224 
5541.000000	65.168952 
5540.000000	65.205216 
5539.000000	65.228986 
5538.000000	65.235757 
5537.000000	65.221571 
5536.000000	65.183711 
5535.000000	65.122032 
5534.000000	65.040040 
5533.000000	64.945197 
5532.000000	64.847946 
5531.000000	64.760923 
5530.000000	64.695262 
5529.000000	64.658737 
5528.000000	64.652919 
5527.000000	64.672923 
5526.000000	64.708113 
5525.000000	64.744925 
5524.000000	64.769864 
5523.000000	64.773082 
5522.000000	64.751362 
5521.000000	64.709353 
5520.000000	64.658331 
5519.000000	64.613509 
5518.000000	64.589548 
5517.000000	64.596962 
5516.000000	64.639139 
5515.000000	64.711570 
5514.000000	64.803147 
5513.000000	64.899063 
5512.000000	64.985442 
5511.000000	65.051722 
5510.000000	65.093278 
5509.000000	65.110659 
5508.000000	65.109205 
5507.000000	65.095162 
5506.000000	65.073299 
5505.000000	65.044641 
5504.000000	65.006685 
5503.000000	64.954757 
5502.000000	64.884877 
5501.000000	64.796280 
5500.000000	64.693641 
5499.000000	64.586949 
5498.000000	64.490270 
5497.000000	64.418005 
5496.000000	64.381790 
5495.000000	64.386940 
5494.000000	64.431762 
5493.000000	64.508891 
5492.000000	64.607572 
5491.000000	64.716482 
5490.000000	64.825701 
5489.000000	64.928579 
5488.000000	65.020847 
5487.000000	65.099835 
5486.000000	65.162348 
5485.000000	65.203547 
5484.000000	65.216684 
5483.000000	65.195655 
5482.000000	65.135836 
5481.000000	65.037274 
5480.000000	64.904952 
5479.000000	64.750742 
5478.000000	64.590096 
5477.000000	64.440226 
5476.000000	64.315962 
5475.000000	64.227342 
5474.000000	64.177370 
5473.000000	64.161682 
5472.000000	64.170312 
5471.000000	64.190602 
5470.000000	64.209342 
5469.000000	64.215731 
5468.000000	64.202427 
5467.000000	64.166545 
5466.000000	64.109134 
5465.000000	64.035248 
5464.000000	63.951086 
5463.000000	63.864445 
5462.000000	63.783693 
5461.000000	63.718104 
5460.000000	63.675737 
5459.000000	63.663697 
5458.000000	63.687062 
5457.000000	63.748145 
5456.000000	63.844633 
5455.000000	63.970637 
5454.000000	64.115929 
5453.000000	64.268517 
5452.000000	64.415168 
5451.000000	64.544844 
5450.000000	64.649796 
5449.000000	64.727020 
5448.000000	64.778304 
5447.000000	64.808583 
5446.000000	64.824032 
5445.000000	64.830350 
5444.000000	64.831805 
5443.000000	64.827799 
5442.000000	64.813351 
5441.000000	64.780759 
5440.000000	64.721798 
5439.000000	64.629602 
5438.000000	64.501333 
5437.000000	64.339566 
5436.000000	64.153552 
5435.000000	63.957524 
5434.000000	63.769721 
5433.000000	63.609170 
5432.000000	63.492441 
5431.000000	63.430500 
5430.000000	63.426351 
5429.000000	63.475131 
5428.000000	63.563966 
5427.000000	63.673710 
5426.000000	63.782763 
5425.000000	63.869595 
5424.000000	63.918709 
5423.000000	63.921904 
5422.000000	63.881397 
5421.000000	63.807582 
5420.000000	63.718748 
5419.000000	63.636445 
5418.000000	63.581323 
5417.000000	63.568449 
5416.000000	63.603973 
5415.000000	63.684201 
5414.000000	63.796162 
5413.000000	63.920974 
5412.000000	64.037823 
5411.000000	64.129185 
5410.000000	64.184045 
5409.000000	64.201450 
5408.000000	64.188814 
5407.000000	64.160943 
5406.000000	64.136004 
5405.000000	64.131045 
5404.000000	64.158129 
5403.000000	64.221119 
5402.000000	64.316940 
5401.000000	64.434790 
5400.000000	64.559841 
5399.000000	64.676117 
5398.000000	64.770483 
5397.000000	64.835643 
5396.000000	64.871096 
5395.000000	64.882588 
5394.000000	64.879417 
5393.000000	64.872074 
5392.000000	64.869594 
5391.000000	64.876747 
5390.000000	64.893460 
5389.000000	64.915037 
5388.000000	64.934349 
5387.000000	64.944028 
5386.000000	64.939022 
5385.000000	64.917922 
5384.000000	64.883637 
5383.000000	64.841699 
5382.000000	64.799237 
5381.000000	64.763236 
5380.000000	64.738988 
5379.000000	64.728331 
5378.000000	64.729833 
5377.000000	64.739727 
5376.000000	64.752602 
5375.000000	64.763855 
5374.000000	64.769339 
5373.000000	64.765930 
5372.000000	64.751505 
5371.000000	64.724993 
5370.000000	64.686250 
5369.000000	64.635610 
5368.000000	64.574742 
5367.000000	64.506220 
5366.000000	64.434242 
5365.000000	64.364385 
5364.000000	64.302468 
5363.000000	64.253616 
5362.000000	64.220881 
5361.000000	64.204382 
5360.000000	64.200186 
5359.000000	64.200782 
5358.000000	64.195942 
5357.000000	64.175868 
5356.000000	64.132118 
5355.000000	64.062118 
5354.000000	63.969993 
5353.000000	63.867926 
5352.000000	63.773059 
5351.000000	63.705253 
5350.000000	63.681793 
5349.000000	63.714289 
5348.000000	63.805198 
5347.000000	63.947725 
5346.000000	64.126706 
5345.000000	64.322280 
5344.000000	64.513850 
5343.000000	64.684057 
5342.000000	64.821529 
5341.000000	64.921975 
5340.000000	64.987564 
5339.000000	65.023636 
5338.000000	65.035629 
5337.000000	65.027999 
5336.000000	65.003752 
5335.000000	64.963221 
5334.000000	64.905214 
5333.000000	64.830183 
5332.000000	64.741373 
5331.000000	64.643359 
5330.000000	64.542365 
5329.000000	64.444565 
5328.000000	64.355826 
5327.000000	64.281010 
5326.000000	64.224195 
5325.000000	64.187788 
5324.000000	64.173197 
5323.000000	64.180922 
5322.000000	64.210343 
5321.000000	64.257740 
5320.000000	64.317846 
5319.000000	64.383053 
5318.000000	64.446091 
5317.000000	64.499115 
5316.000000	64.538574 
5315.000000	64.564514 
5314.000000	64.583396 
5313.000000	64.605283 
5312.000000	64.644312 
5311.000000	64.714670 
5310.000000	64.827442 
5309.000000	64.986801 
5308.000000	65.189409 
5307.000000	65.423965 
5306.000000	65.673089 
5305.000000	65.915203 
5304.000000	66.127181 
5303.000000	66.287136 
5302.000000	66.379761 
5301.000000	66.396880 
5300.000000	66.338396 
5299.000000	66.210913 
5298.000000	66.028213 
5297.000000	65.807008 
5296.000000	65.565919 
5295.000000	65.322351 
5294.000000	65.090608 
5293.000000	64.882588 
5292.000000	64.709758 
5291.000000	64.581990 
5290.000000	64.506244 
5289.000000	64.487171 
5288.000000	64.527249 
5287.000000	64.622235 
5286.000000	64.759159 
5285.000000	64.917898 
5284.000000	65.072846 
5283.000000	65.197753 
5282.000000	65.270113 
5281.000000	65.279841 
5280.000000	65.231847 
5279.000000	65.147447 
5278.000000	65.059256 
5277.000000	65.006732 
5276.000000	65.024232 
5275.000000	65.131592 
5274.000000	65.325403 
5273.000000	65.582776 
5272.000000	65.860486 
5271.000000	66.105747 
5270.000000	66.264128 
5269.000000	66.295409 
5268.000000	66.177129 
5267.000000	65.912485 
5266.000000	65.523457 
5265.000000	65.044498 
5264.000000	64.515352 
5263.000000	63.974237 
5262.000000	63.453078 
5261.000000	62.975621 
5260.000000	62.559199 
5259.000000	62.217569 
5258.000000	61.962437 
5257.000000	61.804223 
5256.000000	61.749172 
5255.000000	61.796069 
5254.000000	61.932492 
5253.000000	62.132143 
5252.000000	62.357401 
5251.000000	62.562394 
5250.000000	62.696480 
5249.000000	62.712883 
5248.000000	62.578701 
5247.000000	62.282323 
5246.000000	61.833000 
5245.000000	61.265015 
5244.000000	60.631346 
5243.000000	59.999537 
5242.000000	59.440827 
5241.000000	59.019231 
5240.000000	58.782482 
5239.000000	58.751177 
5238.000000	58.917617 
5237.000000	59.243369 
5236.000000	59.665536 
5235.000000	60.108733 
5234.000000	60.495448 
5233.000000	60.765218 
5232.000000	60.880541 
5231.000000	60.840010 
5230.000000	60.672402 
5229.000000	60.437035 
5228.000000	60.207748 
5227.000000	60.063028 
5226.000000	60.068511 
5225.000000	60.268855 
5224.000000	60.678052 
5223.000000	61.278343 
5222.000000	62.022352 
5221.000000	62.843084 
5220.000000	63.663673 
5219.000000	64.409303 
5218.000000	65.017509 
5217.000000	65.445637 
5216.000000	65.675115 
5215.000000	65.710210 
5214.000000	65.574979 
5213.000000	65.313673 
5212.000000	64.975261 
5211.000000	64.610648 
5210.000000	64.258790 
5209.000000	63.954567 
5208.000000	63.711214 
5207.000000	63.527083 
5206.000000	63.383793 
5205.000000	63.256072 
5204.000000	63.118481 
5203.000000	62.953758 
5202.000000	62.758302 
5201.000000	62.541842 
5200.000000	62.329769 
5199.000000	62.155556 
5198.000000	62.051439 
5197.000000	62.038803 
5196.000000	62.123060 
5195.000000	62.291288 
5194.000000	62.512421 
5193.000000	62.746000 
5192.000000	62.951540 
5191.000000	63.100504 
5190.000000	63.177466 
5189.000000	63.189315 
5188.000000	63.161993 
5187.000000	63.135719 
5186.000000	63.149857 
5185.000000	63.237118 
5184.000000	63.416028 
5183.000000	63.685560 
5182.000000	64.027833 
5181.000000	64.409565 
5180.000000	64.791250 
5179.000000	65.134119 
5178.000000	65.410304 
5177.000000	65.602970 
5176.000000	65.707826 
5175.000000	65.731120 
5174.000000	65.686583 
5173.000000	65.589070 
5172.000000	65.451145 
5171.000000	65.282845 
5170.000000	65.091514 
5169.000000	64.883518 
5168.000000	64.665770 
5167.000000	64.448547 
5166.000000	64.244461 
5165.000000	64.066958 
5164.000000	63.927721 
5163.000000	63.832545 
5162.000000	63.781571 
5161.000000	63.767814 
5160.000000	63.780999 
5159.000000	63.806772 
5158.000000	63.833856 
5157.000000	63.855457 
5156.000000	63.871502 
5155.000000	63.886404 
5154.000000	63.907933 
5153.000000	63.943004 
5152.000000	63.995242 
5151.000000	64.062023 
5150.000000	64.136266 
5149.000000	64.208245 
5148.000000	64.267873 
5147.000000	64.307308 
5146.000000	64.323735 
5145.000000	64.319992 
5144.000000	64.302659 
5143.000000	64.280176 
5142.000000	64.259552 
5141.000000	64.244580 
5140.000000	64.235734 
5139.000000	64.230918 
5138.000000	64.226531 
5137.000000	64.219737 
5136.000000	64.210915 
5135.000000	64.203572 
5134.000000	64.202904 
5133.000000	64.214849 
5132.000000	64.243412 
5131.000000	64.289855 
5130.000000	64.351415 
5129.000000	64.422011 
5128.000000	64.493656 
5127.000000	64.557909 
5126.000000	64.607906 
5125.000000	64.639520 
5124.000000	64.651632 
5123.000000	64.646816 
5122.000000	64.630508 
5121.000000	64.610099 
5120.000000	64.593172 
5119.000000	64.586830 
5118.000000	64.596271 
5117.000000	64.623928 
5116.000000	64.668560 
5115.000000	64.726042 
5114.000000	64.789533 
5113.000000	64.850687 
5112.000000	64.900588 
5111.000000	64.931464 
5110.000000	64.937663 
5109.000000	64.917206 
5108.000000	64.871859 
5107.000000	64.806580 
5106.000000	64.728713 
5105.000000	64.646816 
5104.000000	64.568924 
5103.000000	64.501976 
5102.000000	64.450550 
5101.000000	64.416742 
5100.000000	64.400458 
5099.000000	64.399909 
5098.000000	64.412093 
5097.000000	64.433097 
5096.000000	64.458632 
5095.000000	64.484572 
5094.000000	64.506483 
5093.000000	64.519882 
5092.000000	64.521026 
5091.000000	64.507341 
5090.000000	64.478063 
5089.000000	64.434933 
5088.000000	64.382600 
5087.000000	64.328241 
5086.000000	64.280414 
5085.000000	64.247322 
5084.000000	64.235377 
5083.000000	64.247298 
5082.000000	64.281654 
5081.000000	64.332604 
5080.000000	64.390945 
5079.000000	64.446115 
5078.000000	64.488482 
5077.000000	64.511275 
5076.000000	64.511275 
5075.000000	64.489674 
5074.000000	64.451289 
5073.000000	64.403295 
5072.000000	64.353203 
5071.000000	64.307641 
5070.000000	64.271235 
5069.000000	64.246344 
5068.000000	64.233565 
5067.000000	64.231586 
5066.000000	64.238333 
5065.000000	64.250802 
5064.000000	64.265775 
5063.000000	64.279389 
5062.000000	64.287900 
5061.000000	64.287948 
5060.000000	64.277911 
5059.000000	64.258003 
5058.000000	64.231300 
5057.000000	64.203262 
5056.000000	64.181327 
5055.000000	64.173674 
5054.000000	64.187312 
5053.000000	64.226460 
5052.000000	64.291024 
5051.000000	64.376974 
5050.000000	64.475440 
5049.000000	64.574933 
5048.000000	64.662194 
5047.000000	64.725470 
5046.000000	64.755606 
5045.000000	64.747881 
5044.000000	64.702320 
5043.000000	64.623975 
5042.000000	64.521241 
5041.000000	64.404726 
5040.000000	64.285612 
5039.000000	64.174318 
5038.000000	64.079022 
5037.000000	64.005136 
5036.000000	63.955020 
5035.000000	63.928246 
5034.000000	63.922119 
5033.000000	63.932681 
5032.000000	63.954687 
5031.000000	63.983488 
5030.000000	64.014434 
5029.000000	64.044880 
5028.000000	64.072990 
5027.000000	64.098882 
5026.000000	64.123725 
5025.000000	64.149689 
5024.000000	64.179134 
5023.000000	64.213705 
5022.000000	64.254045 
5021.000000	64.299154 
5020.000000	64.346528 
5019.000000	64.392590 
5018.000000	64.433836 
5017.000000	64.467096 
5016.000000	64.490318 
5015.000000	64.502811 
5014.000000	64.505624 
5013.000000	64.500975 
5012.000000	64.491820 
5011.000000	64.480924 
5010.000000	64.470338 
5009.000000	64.461469 
5008.000000	64.455127 
5007.000000	64.451527 
5006.000000	64.450430 
5005.000000	64.451742 
5004.000000	64.455723 
5003.000000	64.462780 
5002.000000	64.473247 
5001.000000	64.487218 
5000.000000	64.504146 
4999.000000	64.522862 
4998.000000	64.541220 
4997.000000	64.556694 
4996.000000	64.566206 
4995.000000	64.567017 
4994.000000	64.556765 
4993.000000	64.534091 
4992.000000	64.498901 
4991.000000	64.452648 
4990.000000	64.398527 
4989.000000	64.341068 
4988.000000	64.285898 
4987.000000	64.238905 
4986.000000	64.205193 
4985.000000	64.188432 
4984.000000	64.189291 
4983.000000	64.205193 
4982.000000	64.230394 
4981.000000	64.257144 
4980.000000	64.277434 
4979.000000	64.284944 
4978.000000	64.276361 
4977.000000	64.252614 
4976.000000	64.218330 
4975.000000	64.181375 
4974.000000	64.150524 
4973.000000	64.133548 
4972.000000	64.135360 
4971.000000	64.156699 
4970.000000	64.194202 
4969.000000	64.241147 
4968.000000	64.289140 
4967.000000	64.330291 
4966.000000	64.358592 
4965.000000	64.372372 
4964.000000	64.373564 
4963.000000	64.368367 
4962.000000	64.364790 
4961.000000	64.371991 
4960.000000	64.397311 
4959.000000	64.445114 
4958.000000	64.515566 
4957.000000	64.603304 
4956.000000	64.698672 
4955.000000	64.789128 
4954.000000	64.862227 
4953.000000	64.907979 
4952.000000	64.921236 
4951.000000	64.902830 
4950.000000	64.859080 
4949.000000	64.800477 
4948.000000	64.738774 
4947.000000	64.684367 
4946.000000	64.644098 
4945.000000	64.620590 
4944.000000	64.612054 
4943.000000	64.613938 
4942.000000	64.620137 
4941.000000	64.625573 
4940.000000	64.627027 
4939.000000	64.623427 
4938.000000	64.616107 
4937.000000	64.607310 
4936.000000	64.599823 
4935.000000	64.595174 
4934.000000	64.594340 
4933.000000	64.597272 
4932.000000	64.603757 
4931.000000	64.613509 
4930.000000	64.626121 
4929.000000	64.640951 
4928.000000	64.656782 
4927.000000	64.671564 
4926.000000	64.682412 
4925.000000	64.685988 
4924.000000	64.679312 
4923.000000	64.660286 
4922.000000	64.628767 
4921.000000	64.586114 
4920.000000	64.535593 
4919.000000	64.481091 
4918.000000	64.426088 
4917.000000	64.373350 
4916.000000	64.324212 
4915.000000	64.279556 
4914.000000	64.239716 
4913.000000	64.205908 
4912.000000	64.180183 
4911.000000	64.165687 
4910.000000	64.165925 
4909.000000	64.183640 
4908.000000	64.219236 
4907.000000	64.270877 
4906.000000	64.334034 
4905.000000	64.402556 
4904.000000	64.469504 
4903.000000	64.529323 
4902.000000	64.578843 
4901.000000	64.618015 
4900.000000	64.649558 
4899.000000	64.678001 
4898.000000	64.708018 
4897.000000	64.743280 
4896.000000	64.785337 
4895.000000	64.833641 
4894.000000	64.885306 
4893.000000	64.936828 
4892.000000	64.983844 
4891.000000	65.022778 
4890.000000	65.050172 
4889.000000	65.063810 
4888.000000	65.062355 
4887.000000	65.046143 
4886.000000	65.016269 
4885.000000	64.975404 
4884.000000	64.926362 
4883.000000	64.872431 
4882.000000	64.816069 
4881.000000	64.759373 
4880.000000	64.703488 
4879.000000	64.649415 
4878.000000	64.597773 
4877.000000	64.549422 
4876.000000	64.505696 
4875.000000	64.468669 
4874.000000	64.440679 
4873.000000	64.423918 
4872.000000	64.420104 
4871.000000	64.429903 
4870.000000	64.452338 
4869.000000	64.484429 
4868.000000	64.521765 
4867.000000	64.558339 
4866.000000	64.587879 
4865.000000	64.604139 
4864.000000	64.601635 
4863.000000	64.576411 
4862.000000	64.526963 
4861.000000	64.454627 
4860.000000	64.364099 
4859.000000	64.262557 
4858.000000	64.159226 
4857.000000	64.063167 
4856.000000	63.981842 
4855.000000	63.919925 
4854.000000	63.878679 
4853.000000	63.856554 
4852.000000	63.850021 
4851.000000	63.855290 
4850.000000	63.869261 
4849.000000	63.890075 
4848.000000	63.916850 
4847.000000	63.949465 
4846.000000	63.987898 
4845.000000	64.031386 
4844.000000	64.078307 
4843.000000	64.126372 
4842.000000	64.173126 
4841.000000	64.216566 
4840.000000	64.255404 
4839.000000	64.289593 
4838.000000	64.319658 
4837.000000	64.346694 
4836.000000	64.371514 
4835.000000	64.394354 
4834.000000	64.414858 
4833.000000	64.432477 
4832.000000	64.446592 
4831.000000	64.457416 
4830.000000	64.465165 
4829.000000	64.470219 
4828.000000	64.472866 
4827.000000	64.473438 
4826.000000	64.472103 
4825.000000	64.468860 
4824.000000	64.464139 
4823.000000	64.459013 
4822.000000	64.455127 
4821.000000	64.454174 
4820.000000	64.457559 
4819.000000	64.465498 
4818.000000	64.476847 
4817.000000	64.488816 
4816.000000	64.497542 
4815.000000	64.498949 
4814.000000	64.489603 
4813.000000	64.467763 
4812.000000	64.433789 
4811.000000	64.390230 
4810.000000	64.341282 
4809.000000	64.292263 
4808.000000	64.247918 
4807.000000	64.212298 
4806.000000	64.188456 
4805.000000	64.178061 
4804.000000	64.181494 
4803.000000	64.197945 
4802.000000	64.225864 
4801.000000	64.262390 
4800.000000	64.303708 
4799.000000	64.344835 
4798.000000	64.380168 
4797.000000	64.404702 
4796.000000	64.414668 
4795.000000	64.409208 
4794.000000	64.390707 
4793.000000	64.365100 
4792.000000	64.340591 
4791.000000	64.326071 
4790.000000	64.328694 
4789.000000	64.352297 
4788.000000	64.396023 
4787.000000	64.454770 
4786.000000	64.520168 
4785.000000	64.582729 
4784.000000	64.633798 
4783.000000	64.667773 
4782.000000	64.682626 
4781.000000	64.679980 
4780.000000	64.663982 
4779.000000	64.639282 
4778.000000	64.610266 
4777.000000	64.580082 
4776.000000	64.550614 
4775.000000	64.522957 
4774.000000	64.498329 
4773.000000	64.479207 
4772.000000	64.468789 
4771.000000	64.470577 
4770.000000	64.487195 
4769.000000	64.519119 
4768.000000	64.564538 
4767.000000	64.619040 
4766.000000	64.676237 
4765.000000	64.728569 
4764.000000	64.769291 
4763.000000	64.793467 
4762.000000	64.798688 
4761.000000	64.785146 
4760.000000	64.755058 
4759.000000	64.712262 
4758.000000	64.661288 
4757.000000	64.607048 
4756.000000	64.554572 
4755.000000	64.508676 
4754.000000	64.473891 
4753.000000	64.453935 
4752.000000	64.451503 
4751.000000	64.467835 
4750.000000	64.501595 
4749.000000	64.549756 
4748.000000	64.607596 
4747.000000	64.669632 
4746.000000	64.730453 
4745.000000	64.784860 
4744.000000	64.828467 
4743.000000	64.857721 
4742.000000	64.870262 
4741.000000	64.864659 
4740.000000	64.840722 
4739.000000	64.799714 
4738.000000	64.744639 
4737.000000	64.680314 
4736.000000	64.613151 
4735.000000	64.550733 
4734.000000	64.500403 
4733.000000	64.468240 
4732.000000	64.457535 
4731.000000	64.468050 
4730.000000	64.496135 
4729.000000	64.535284 
4728.000000	64.577627 
4727.000000	64.615345 
4726.000000	64.642763 
4725.000000	64.656496 
4724.000000	64.656877 
4723.000000	64.646697 
4722.000000	64.631104 
4721.000000	64.615774 
4720.000000	64.605903 
4719.000000	64.604902 
4718.000000	64.613842 
4717.000000	64.631772 
4716.000000	64.655733 
4715.000000	64.681696 
4714.000000	64.705848 
4713.000000	64.725589 
4712.000000	64.739727 
4711.000000	64.748716 
4710.000000	64.754891 
4709.000000	64.761853 
4708.000000	64.773297 
4707.000000	64.792180 
4706.000000	64.819645 
4705.000000	64.854788 
4704.000000	64.895081 
4703.000000	64.936399 
4702.000000	64.974141 
4701.000000	65.003824 
4700.000000	65.022563 
4699.000000	65.028953 
4698.000000	65.023565 
4697.000000	65.007925 
4696.000000	64.984488 
4695.000000	64.955568 
4694.000000	64.923381 
4693.000000	64.889407 
4692.000000	64.854907 
4691.000000	64.820814 
4690.000000	64.788389 
4689.000000	64.758563 
4688.000000	64.732360 
4687.000000	64.709663 
4686.000000	64.689445 
4685.000000	64.669060 
4684.000000	64.645266 
4683.000000	64.615273 
4682.000000	64.578175 
4681.000000	64.535307 
4680.000000	64.490699 
4679.000000	64.450240 
4678.000000	64.420914 
4677.000000	64.408206 
4676.000000	64.415359 
4675.000000	64.442205 
4674.000000	64.485311 
4673.000000	64.538264 
4672.000000	64.593505 
4671.000000	64.644241 
4670.000000	64.685463 
4669.000000	64.714789 
4668.000000	64.732575 
4667.000000	64.741015 
4666.000000	64.743041 
4665.000000	64.741396 
4664.000000	64.737629 
4663.000000	64.731550 
4662.000000	64.721894 
4661.000000	64.707446 
4660.000000	64.686655 
4659.000000	64.658665 
4658.000000	64.623808 
4657.000000	64.584159 
4656.000000	64.543151 
4655.000000	64.505195 
4654.000000	64.474940 
4653.000000	64.456105 
4652.000000	64.450645 
4651.000000	64.457941 
4650.000000	64.474844 
4649.000000	64.496111 
4648.000000	64.515352 
4647.000000	64.526557 
4646.000000	64.525389 
4645.000000	64.510416 
4644.000000	64.482784 
4643.000000	64.446520 
4642.000000	64.406752 
4641.000000	64.369559 
4640.000000	64.340329 
4639.000000	64.323282 
4638.000000	64.320564 
4637.000000	64.332890 
4636.000000	64.359903 
4635.000000	64.400458 
4634.000000	64.452958 
4633.000000	64.514636 
4632.000000	64.581370 
4631.000000	64.647674 
4630.000000	64.707040 
4629.000000	64.752292 
4628.000000	64.776968 
4627.000000	64.776968 
4626.000000	64.751696 
4625.000000	64.704799 
4624.000000	64.643716 
4623.000000	64.578843 
4622.000000	64.521098 
4621.000000	64.479923 
4620.000000	64.460849 
4619.000000	64.464640 
4618.000000	64.486885 
4617.000000	64.519524 
4616.000000	64.552664 
4615.000000	64.576649 
4614.000000	64.584970 
4613.000000	64.575028 
4612.000000	64.549589 
4611.000000	64.515113 
4610.000000	64.481234 
4609.000000	64.457845 
4608.000000	64.453554 
4607.000000	64.473438 
4606.000000	64.518332 
4605.000000	64.584493 
4604.000000	64.664483 
4603.000000	64.748692 
4602.000000	64.826965 
4601.000000	64.890766 
4600.000000	64.934277 
4599.000000	64.955163 
4598.000000	64.955186 
4597.000000	64.938688 
4596.000000	64.911961 
4595.000000	64.880490 
4594.000000	64.848232 
4593.000000	64.816403 
4592.000000	64.784240 
4591.000000	64.749646 
4590.000000	64.710712 
4589.000000	64.667105 
4588.000000	64.621496 
4587.000000	64.578509 
4586.000000	64.543914 
4585.000000	64.522671 
4584.000000	64.517521 
4583.000000	64.527606 
4582.000000	64.548254 
4581.000000	64.572477 
4580.000000	64.592480 
4579.000000	64.602422 
4578.000000	64.599847 
4577.000000	64.586424 
4576.000000	64.567232 
4575.000000	64.548945 
4574.000000	64.537906 
4573.000000	64.537167 
4572.000000	64.545965 
4571.000000	64.560675 
4570.000000	64.575719 
4569.000000	64.585494 
4568.000000	64.586162 
4567.000000	64.576959 
4566.000000	64.560651 
4565.000000	64.541959 
4564.000000	64.527273 
4563.000000	64.522361 
4562.000000	64.532208 
4561.000000	64.559245 
4560.000000	64.603972 
4559.000000	64.665222 
4558.000000	64.740276 
4557.000000	64.825773 
4556.000000	64.917278 
4555.000000	65.009617 
4554.000000	65.096688 
4553.000000	65.171885 
4552.000000	65.228319 
4551.000000	65.259599 
4550.000000	65.260958 
4549.000000	65.230369 
4548.000000	65.168690 
4547.000000	65.079855 
4546.000000	64.970684 
4545.000000	64.849925 
4544.000000	64.727258 
4543.000000	64.611816 
4542.000000	64.511752 
4541.000000	64.432358 
4540.000000	64.376187 
4539.000000	64.341998 
4538.000000	64.325737 
4537.000000	64.320802 
4536.000000	64.318871 
4535.000000	64.312195 
4534.000000	64.293861 
4533.000000	64.260792 
4532.000000	64.213013 
4531.000000	64.155101 
4530.000000	64.094424 
4529.000000	64.039945 
4528.000000	63.999700 
4527.000000	63.979315 
4526.000000	63.980531 
4525.000000	64.001154 
4524.000000	64.035820 
4523.000000	64.077353 
4522.000000	64.118552 
4521.000000	64.154005 
4520.000000	64.180970 
4519.000000	64.199185 
4518.000000	64.210534 
4517.000000	64.217567 
4516.000000	64.223051 
4515.000000	64.228701 
4514.000000	64.235448 
4513.000000	64.243555 
4512.000000	64.253282 
4511.000000	64.266014 
4510.000000	64.283895 
4509.000000	64.309287 
4508.000000	64.344525 
4507.000000	64.390850 
4506.000000	64.448499 
4505.000000	64.515900 
4504.000000	64.590525 
4503.000000	64.669418 
4502.000000	64.749097 
4501.000000	64.826202 
4500.000000	64.897584 
4499.000000	64.960575 
4498.000000	65.012693 
4497.000000	65.051555 
4496.000000	65.075278 
4495.000000	65.082573 
4494.000000	65.072655 
4493.000000	65.045309 
4492.000000	65.001678 
4491.000000	64.943981 
4490.000000	64.876461 
4489.000000	64.804267 
4488.000000	64.733338 
4487.000000	64.668822 
4486.000000	64.614653 
4485.000000	64.572739 
4484.000000	64.542555 
4483.000000	64.522504 
4482.000000	64.510488 
4481.000000	64.505147 
4480.000000	64.505982 
4479.000000	64.514040 
4478.000000	64.530968 
4477.000000	64.558434 
4476.000000	64.596295 
4475.000000	64.643096 
4474.000000	64.695572 
4473.000000	64.749264 
4472.000000	64.799046 
4471.000000	64.840817 
4470.000000	64.872407 
4469.000000	64.893579 
4468.000000	64.905595 
4467.000000	64.910745 
4466.000000	64.911317 
4465.000000	64.908909 
4464.000000	64.904117 
4463.000000	64.897131 
4462.000000	64.887809 
4461.000000	64.876770 
4460.000000	64.864969 
4459.000000	64.854264 
4458.000000	64.846539 
4457.000000	64.842939 
4456.000000	64.843869 
4455.000000	64.848470 
4454.000000	64.855146 
4453.000000	64.862918 
4452.000000	64.870214 
4451.000000	64.875102 
4450.000000	64.875411 
4449.000000	64.869284 
4448.000000	64.855217 
4447.000000	64.832735 
4446.000000	64.802360 
4445.000000	64.765691 
4444.000000	64.724779 
4443.000000	64.681673 
4442.000000	64.639139 
4441.000000	64.600563 
4440.000000	64.569187 
4439.000000	64.546680 
4438.000000	64.537024 
4437.000000	64.542818 
4436.000000	64.557075 
4435.000000	64.566636 
4434.000000	64.560103 
4433.000000	64.528965 
4432.000000	64.463114 
4431.000000	64.361858 
4430.000000	64.236450 
4429.000000	64.109134 
4428.000000	64.010143 
4427.000000	63.968420 
4426.000000	63.998770 
4425.000000	64.103126 
4424.000000	64.275169 
4423.000000	64.492344 
4422.000000	64.715576 
4421.000000	64.908099 
4420.000000	65.046811 
4419.000000	65.121436 
4418.000000	65.135574 
4417.000000	65.107679 
4416.000000	65.067124 
4415.000000	65.047788 
4414.000000	65.087056 
4413.000000	65.220475 
4412.000000	65.487670 
4411.000000	65.927553 
4410.000000	66.583275 
4409.000000	67.500066 
4408.000000	68.710851 
4407.000000	70.233464 
4406.000000	72.035431 
4405.000000	74.035668 
4404.000000	76.077985 
4403.000000	77.970123 
4402.000000	79.475927 
4401.000000	80.381155 
4400.000000	80.497789 
4399.000000	79.736089 
4398.000000	78.085255 
4397.000000	75.633144 
4396.000000	72.549724 
4395.000000	69.071006 
4394.000000	65.478467 
4393.000000	62.070441 
4392.000000	59.128975 
4391.000000	56.889748 
4390.000000	55.502104 
4389.000000	55.013799 
4388.000000	55.351758 
4387.000000	56.344246 
4386.000000	57.755231 
4385.000000	59.337472 
4384.000000	60.861921 
4383.000000	62.166452 
4382.000000	63.159275 
4381.000000	63.833165 
4380.000000	64.226675 
4379.000000	64.416527 
4378.000000	64.488196 
4377.000000	64.514851 
4376.000000	64.551019 
4375.000000	64.617586 
4374.000000	64.723968 
4373.000000	64.856290 
4372.000000	65.002012 
4371.000000	65.143609 
4370.000000	65.274000 
4369.000000	65.387272 
4368.000000	65.480589 
4367.000000	65.548300 
4366.000000	65.578722 
4365.000000	65.563011 
4364.000000	65.500402 
4363.000000	65.390777 
4362.000000	65.235495 
4361.000000	65.049242 
4360.000000	64.858412 
4359.000000	64.687728 
4358.000000	64.557290 
4357.000000	64.482283 
4356.000000	64.469337 
4355.000000	64.516806 
4354.000000	64.615106 
4353.000000	64.744019 
4352.000000	64.880180 
4351.000000	65.006422 
4350.000000	65.111446 
4349.000000	65.186500 
4348.000000	65.229129 
4347.000000	65.241599 
4346.000000	65.229678 
4345.000000	65.199637 
4344.000000	65.158176 
4343.000000	65.112042 
4342.000000	65.066742 
4341.000000	65.027523 
4340.000000	64.997482 
4339.000000	64.978671 
4338.000000	64.969944 
4337.000000	64.967727 
4336.000000	64.966702 
4335.000000	64.961433 
4334.000000	64.947295 
4333.000000	64.921903 
4332.000000	64.885640 
4331.000000	64.841437 
4330.000000	64.794230 
4329.000000	64.749479 
4328.000000	64.711546 
4327.000000	64.683055 
4326.000000	64.665079 
4325.000000	64.656877 
4324.000000	64.656329 
4323.000000	64.660549 
4322.000000	64.666986 
4321.000000	64.673209 
4320.000000	64.677381 
4319.000000	64.677977 
4318.000000	64.672899 
4317.000000	64.660859 
4316.000000	64.641356 
4315.000000	64.615249 
4314.000000	64.584922 
4313.000000	64.553427 
4312.000000	64.523911 
4311.000000	64.498591 
4310.000000	64.478564 
4309.000000	64.462566 
4308.000000	64.447522 
4307.000000	64.429450 
4306.000000	64.404892 
4305.000000	64.371633 
4304.000000	64.329981 
4303.000000	64.282798 
4302.000000	64.235758 
4301.000000	64.195799 
4300.000000	64.170098 
4299.000000	64.164304 
4298.000000	64.181232 
4297.000000	64.220404 
4296.000000	64.277911 
4295.000000	64.347362 
4294.000000	64.420604 
4293.000000	64.489078 
4292.000000	64.545297 
4291.000000	64.583873 
4290.000000	64.602875 
4289.000000	64.603829 
4288.000000	64.591789 
4287.000000	64.574122 
4286.000000	64.558887 
4285.000000	64.553380 
4284.000000	64.562749 
4283.000000	64.589333 
4282.000000	64.632320 
4281.000000	64.688396 
4280.000000	64.752721 
4279.000000	64.819693 
4278.000000	64.883446 
4277.000000	64.938426 
4276.000000	64.979887 
4275.000000	65.004324 
4274.000000	65.009856 
4273.000000	64.996361 
4272.000000	64.966058 
4271.000000	64.922976 
4270.000000	64.873099 
4269.000000	64.823031 
4268.000000	64.779615 
4267.000000	64.748072 
4266.000000	64.731764 
4265.000000	64.730954 
4264.000000	64.743065 
4263.000000	64.763593 
4262.000000	64.787602 
4261.000000	64.810490 
4260.000000	64.828753 
4259.000000	64.840555 
4258.000000	64.845633 
4257.000000	64.845013 
4256.000000	64.840078 
4255.000000	64.832544 
4254.000000	64.823818 
4253.000000	64.815235 
4252.000000	64.807677 
4251.000000	64.801716 
4250.000000	64.797306 
4249.000000	64.793729 
4248.000000	64.789938 
4247.000000	64.784765 
4246.000000	64.777636 
4245.000000	64.768409 
4244.000000	64.757800 
4243.000000	64.747262 
4242.000000	64.738559 
4241.000000	64.733266 
4240.000000	64.731860 
4239.000000	64.732933 
4238.000000	64.733719 
4237.000000	64.730024 
4236.000000	64.718389 
4235.000000	64.696812 
4234.000000	64.666104 
4233.000000	64.629983 
4232.000000	64.594602 
4231.000000	64.566969 
4230.000000	64.553356 
4229.000000	64.557242 
4228.000000	64.578747 
4227.000000	64.614415 
4226.000000	64.658117 
4225.000000	64.702486 
4224.000000	64.740586 
4223.000000	64.767622 
4222.000000	64.781379 
4221.000000	64.783024 
4220.000000	64.775919 
4219.000000	64.765048 
4218.000000	64.755749 
4217.000000	64.752292 
4216.000000	64.757871 
4215.000000	64.772915 
4214.000000	64.796590 
4213.000000	64.825105 
4212.000000	64.853644 
4211.000000	64.876008 
4210.000000	64.886045 
4209.000000	64.878892 
4208.000000	64.852023 
4207.000000	64.806389 
4206.000000	64.746689 
4205.000000	64.680337 
4204.000000	64.616084 
4203.000000	64.562225 
4202.000000	64.525270 
4201.000000	64.508008 
4200.000000	64.509272 
4199.000000	64.524412 
4198.000000	64.546585 
4197.000000	64.568710 
4196.000000	64.585590 
4195.000000	64.594578 
4194.000000	64.596319 
4193.000000	64.594483 
4192.000000	64.594030 
4191.000000	64.599466 
4190.000000	64.612722 
4189.000000	64.632678 
4188.000000	64.654588 
4187.000000	64.671778 
4186.000000	64.677071 
4185.000000	64.664983 
4184.000000	64.633965 
4183.000000	64.586901 
4182.000000	64.531779 
4181.000000	64.479804 
4180.000000	64.443635 
4179.000000	64.434027 
4178.000000	64.457416 
4177.000000	64.514136 
4176.000000	64.597749 
4175.000000	64.696550 
4174.000000	64.795112 
4173.000000	64.877605 
4172.000000	64.930891 
4171.000000	64.947104 
4170.000000	64.924120 
4169.000000	64.865851 
4168.000000	64.781188 
4167.000000	64.682173 
4166.000000	64.581990 
4165.000000	64.492249 
4164.000000	64.422273 
4163.000000	64.376902 
4162.000000	64.357161 
4161.000000	64.360117 
4160.000000	64.379978 
4159.000000	64.409828 
4158.000000	64.442563 
4157.000000	64.473009 
4156.000000	64.497470 
4155.000000	64.515137 
4154.000000	64.526844 
4153.000000	64.534902 
4152.000000	64.541697 
4151.000000	64.548969 
4150.000000	64.557194 
4149.000000	64.566016 
4148.000000	64.574623 
4147.000000	64.582920 
4146.000000	64.592027 
4145.000000	64.604544 
4144.000000	64.623856 
4143.000000	64.653277 
4142.000000	64.694666 
4141.000000	64.747190 
4140.000000	64.807081 
4139.000000	64.868474 
4138.000000	64.924359 
4137.000000	64.968657 
4136.000000	64.996886 
4135.000000	65.007257 
4134.000000	65.000534 
4133.000000	64.980006 
4132.000000	64.950275 
4131.000000	64.916229 
4130.000000	64.882302 
4129.000000	64.852118 
4128.000000	64.828395 
4127.000000	64.813208 
4126.000000	64.807748 
4125.000000	64.812707 
4124.000000	64.827775 
4123.000000	64.851450 
4122.000000	64.880919 
4121.000000	64.911890 
4120.000000	64.939618 
4119.000000	64.959788 
4118.000000	64.969491 
4117.000000	64.967966 
4116.000000	64.956879 
4115.000000	64.939832 
4114.000000	64.921307 
4113.000000	64.905333 
4112.000000	64.894866 
4111.000000	64.890527 
4110.000000	64.890837 
4109.000000	64.892458 
4108.000000	64.891481 
4107.000000	64.884352 
4106.000000	64.868974 
4105.000000	64.845371 
4104.000000	64.815783 
4103.000000	64.784193 
4102.000000	64.755058 
4101.000000	64.732336 
4100.000000	64.718413 
4099.000000	64.713644 
4098.000000	64.716529 
4097.000000	64.724087 
4096.000000	64.732933 
4095.000000	64.740037 
4094.000000	64.743518 
4093.000000	64.742994 
4092.000000	64.739465 
4091.000000	64.734530 
4090.000000	64.729857 
4089.000000	64.726567 
4088.000000	64.724826 
4087.000000	64.723753 
4086.000000	64.722013 
4085.000000	64.718294 
4084.000000	64.711976 
4083.000000	64.703512 
4082.000000	64.694476 
4081.000000	64.687037 
4080.000000	64.683437 
4079.000000	64.685487 
4078.000000	64.694094 
4077.000000	64.708948 
4076.000000	64.728760 
4075.000000	64.751482 
4074.000000	64.774608 
4073.000000	64.795756 
4072.000000	64.812970 
4071.000000	64.824938 
4070.000000	64.830946 
4069.000000	64.830923 
4068.000000	64.825415 
4067.000000	64.815545 
4066.000000	64.802837 
4065.000000	64.788913 
4064.000000	64.775419 
4063.000000	64.763665 
4062.000000	64.754319 
4061.000000	64.747357 
4060.000000	64.741921 
4059.000000	64.736747 
4058.000000	64.730715 
4057.000000	64.723062 
4056.000000	64.713954 
4055.000000	64.704132 
4054.000000	64.695143 
4053.000000	64.688515 
4052.000000	64.685177 
4051.000000	64.685106 
4050.000000	64.687204 
4049.000000	64.689397 
4048.000000	64.689159 
4047.000000	64.684438 
4046.000000	64.674210 
4045.000000	64.659166 
4044.000000	64.641404 
4043.000000	64.624285 
4042.000000	64.611816 
4041.000000	64.607453 
4040.000000	64.613199 
4039.000000	64.629435 
4038.000000	64.654636 
4037.000000	64.685869 
4036.000000	64.719295 
4035.000000	64.750742 
4034.000000	64.776444 
4033.000000	64.793586 
4032.000000	64.800643 
4031.000000	64.797019 
4030.000000	64.783143 
4029.000000	64.760375 
4028.000000	64.730572 
4027.000000	64.695763 
4026.000000	64.658069 
4025.000000	64.620065 
4024.000000	64.584112 
4023.000000	64.552640 
4022.000000	64.527416 
4021.000000	64.509701 
4020.000000	64.499807 
4019.000000	64.496898 
4018.000000	64.498972 
4017.000000	64.503073 
4016.000000	64.506268 
4015.000000	64.505863 
4014.000000	64.500403 
4013.000000	64.489722 
4012.000000	64.475584 
4011.000000	64.460945 
4010.000000	64.449667 
4009.000000	64.445304 
4008.000000	64.450311 
4007.000000	64.465737 
4006.000000	64.490532 
4005.000000	64.522600 
4004.000000	64.559197 
4003.000000	64.597964 
4002.000000	64.637374 
4001.000000	64.677000 
4000.000000	64.717364 
3999.000000	64.759135 
3998.000000	64.802598 
3997.000000	64.846944 
3996.000000	64.890074 
3995.000000	64.928507 
3994.000000	64.958810 
3993.000000	64.977598 
3992.000000	64.982914 
3991.000000	64.974546 
3990.000000	64.954423 
3989.000000	64.925813 
3988.000000	64.893007 
3987.000000	64.860296 
3986.000000	64.831352 
3985.000000	64.808821 
3984.000000	64.794254 
3983.000000	64.788269 
3982.000000	64.790630 
3981.000000	64.800500 
3980.000000	64.816737 
3979.000000	64.837622 
3978.000000	64.861178 
3977.000000	64.885234 
3976.000000	64.907717 
3975.000000	64.926481 
3974.000000	64.939761 
3973.000000	64.946389 
3972.000000	64.945745 
3971.000000	64.937758 
3970.000000	64.922857 
3969.000000	64.902091 
3968.000000	64.876794 
3967.000000	64.848613 
3966.000000	64.819288 
3965.000000	64.790892 
3964.000000	64.765501 
3963.000000	64.745020 
3962.000000	64.730882 
3961.000000	64.723563 
3960.000000	64.722681 
3959.000000	64.726829 
3958.000000	64.733934 
3957.000000	64.741516 
3956.000000	64.747357 
3955.000000	64.749741 
3954.000000	64.747524 
3953.000000	64.740085 
3952.000000	64.727425 
3951.000000	64.709854 
3950.000000	64.688181 
3949.000000	64.663338 
3948.000000	64.636492 
3947.000000	64.609265 
3946.000000	64.583396 
3945.000000	64.560985 
3944.000000	64.543795 
3943.000000	64.533400 
3942.000000	64.530634 
3941.000000	64.536023 
3940.000000	64.549016 
3939.000000	64.568829 
3938.000000	64.594316 
3937.000000	64.624428 
3936.000000	64.658331 
3935.000000	64.695191 
3934.000000	64.733695 
3933.000000	64.772057 
3932.000000	64.808082 
3931.000000	64.839386 
3930.000000	64.863967 
3929.000000	64.880418 
3928.000000	64.888453 
3927.000000	64.888834 
3926.000000	64.883184 
3925.000000	64.873838 
3924.000000	64.863109 
3923.000000	64.853167 
3922.000000	64.845347 
3921.000000	64.840507 
3920.000000	64.838457 
3919.000000	64.838147 
3918.000000	64.838075 
3917.000000	64.836788 
3916.000000	64.833545 
3915.000000	64.828252 
3914.000000	64.822268 
3913.000000	64.818024 
3912.000000	64.818763 
3911.000000	64.827632 
3910.000000	64.846587 
3909.000000	64.875817 
3908.000000	64.912843 
3907.000000	64.953088 
3906.000000	64.989805 
3905.000000	65.015769 
3904.000000	65.024781 
3903.000000	65.013241 
3902.000000	64.980697 
3901.000000	64.930295 
3900.000000	64.868140 
3899.000000	64.802026 
3898.000000	64.739632 
3897.000000	64.687228 
3896.000000	64.648938 
3895.000000	64.626431 
3894.000000	64.619088 
3893.000000	64.625000 
3892.000000	64.641642 
3891.000000	64.666843 
3890.000000	64.698624 
3889.000000	64.735865 
3888.000000	64.777541 
3887.000000	64.822697 
3886.000000	64.869427 
3885.000000	64.915204 
3884.000000	64.956951 
3883.000000	64.991211 
3882.000000	65.015196 
3881.000000	65.026712 
3880.000000	65.024876 
3879.000000	65.010023 
3878.000000	64.984154 
3877.000000	64.949941 
3876.000000	64.910459 
3875.000000	64.868927 
3874.000000	64.828395 
3873.000000	64.791131 
3872.000000	64.758491 
3871.000000	64.731097 
3870.000000	64.709186 
3869.000000	64.692473 
3868.000000	64.680600 
3867.000000	64.673066 
3866.000000	64.669537 
3865.000000	64.669156 
3864.000000	64.670896 
3863.000000	64.673280 
3862.000000	64.674735 
3861.000000	64.673590 
3860.000000	64.668750 
3859.000000	64.659190 
3858.000000	64.645314 
3857.000000	64.628505 
3856.000000	64.611625 
3855.000000	64.597702 
3854.000000	64.590716 
3853.000000	64.594507 
3852.000000	64.612293 
3851.000000	64.645743 
3850.000000	64.695048 
3849.000000	64.758515 
3848.000000	64.832711 
3847.000000	64.912414 
3846.000000	64.991331 
3845.000000	65.062594 
3844.000000	65.120100 
3843.000000	65.158963 
3842.000000	65.176558 
3841.000000	65.172314 
3840.000000	65.148711 
3839.000000	65.110015 
3838.000000	65.061664 
3837.000000	65.008950 
3836.000000	64.956974 
3835.000000	64.909124 
3834.000000	64.867377 
3833.000000	64.832043 
3832.000000	64.802694 
3831.000000	64.778256 
3830.000000	64.757800 
3829.000000	64.740562 
3828.000000	64.726018 
3827.000000	64.713954 
3826.000000	64.704012 
3825.000000	64.695644 
3824.000000	64.687919 
3823.000000	64.679765 
3822.000000	64.670276 
3821.000000	64.658904 
3820.000000	64.645671 
3819.000000	64.631319 
3818.000000	64.617300 
3817.000000	64.605188 
3816.000000	64.596796 
3815.000000	64.593982 
3814.000000	64.598512 
3813.000000	64.611458 
3812.000000	64.633226 
3811.000000	64.663863 
3810.000000	64.702272 
3809.000000	64.746451 
3808.000000	64.793395 
3807.000000	64.839220 
3806.000000	64.879727 
3805.000000	64.911150 
3804.000000	64.930629 
3803.000000	64.936947 
3802.000000	64.930939 
3801.000000	64.915561 
3800.000000	64.895057 
3799.000000	64.874196 
3798.000000	64.857316 
3797.000000	64.847612 
3796.000000	64.846301 
3795.000000	64.852666 
3794.000000	64.864516 
3793.000000	64.878892 
3792.000000	64.892792 
3791.000000	64.903712 
3790.000000	64.910364 
3789.000000	64.912462 
3788.000000	64.910459 
3787.000000	64.904975 
3786.000000	64.896678 
3785.000000	64.885735 
3784.000000	64.872169 
3783.000000	64.855599 
3782.000000	64.835953 
3781.000000	64.813518 
3780.000000	64.789175 
3779.000000	64.764404 
3778.000000	64.740896 
3777.000000	64.720726 
3776.000000	64.706206 
3775.000000	64.699506 
3774.000000	64.701986 
3773.000000	64.714288 
3772.000000	64.735960 
3771.000000	64.765381 
3770.000000	64.799737 
3769.000000	64.835476 
3768.000000	64.868903 
3767.000000	64.896774 
3766.000000	64.917111 
3765.000000	64.929199 
3764.000000	64.933872 
3763.000000	64.933085 
3762.000000	64.929223 
3761.000000	64.924621 
3760.000000	64.920592 
3759.000000	64.917325 
3758.000000	64.913749 
3757.000000	64.908313 
3756.000000	64.899325 
3755.000000	64.885878 
3754.000000	64.867901 
3753.000000	64.846515 
3752.000000	64.823412 
3751.000000	64.800691 
3750.000000	64.779925 
3749.000000	64.761972 
3748.000000	64.746880 
3747.000000	64.734053 
3746.000000	64.722895 
3745.000000	64.713144 
3744.000000	64.705491 
3743.000000	64.701414 
3742.000000	64.702892 
3741.000000	64.711856 
3740.000000	64.729452 
3739.000000	64.755487 
3738.000000	64.788126 
3737.000000	64.824175 
3736.000000	64.859580 
3735.000000	64.890170 
3734.000000	64.912533 
3733.000000	64.924597 
3732.000000	64.926028 
3731.000000	64.918136 
3730.000000	64.903450 
3729.000000	64.885115 
3728.000000	64.866495 
3727.000000	64.850139 
3726.000000	64.837884 
3725.000000	64.830112 
3724.000000	64.826393 
3723.000000	64.825177 
3722.000000	64.824557 
3721.000000	64.822387 
3720.000000	64.816856 
3719.000000	64.806866 
3718.000000	64.792060 
3717.000000	64.773368 
3716.000000	64.752697 
3715.000000	64.733004 
3714.000000	64.717745 
3713.000000	64.710283 
3712.000000	64.713120 
3711.000000	64.727401 
3710.000000	64.752388 
3709.000000	64.785456 
3708.000000	64.822459 
3707.000000	64.858531 
3706.000000	64.889049 
3705.000000	64.910387 
3704.000000	64.920663 
3703.000000	64.919853 
3702.000000	64.909338 
3701.000000	64.891767 
3700.000000	64.869832 
3699.000000	64.845728 
3698.000000	64.820766 
3697.000000	64.795517 
3696.000000	64.770221 
3695.000000	64.745306 
3694.000000	64.721584 
3693.000000	64.700651 
3692.000000	64.684391 
3691.000000	64.674472 
3690.000000	64.671587 
3689.000000	64.675045 
3688.000000	64.682912 
3687.000000	64.692401 
3686.000000	64.700579 
3685.000000	64.705204 
3684.000000	64.705228 
3683.000000	64.701199 
3682.000000	64.695048 
3681.000000	64.689755 
3680.000000	64.688229 
3679.000000	64.692878 
3678.000000	64.705061 
3677.000000	64.724779 
3676.000000	64.751291 
3675.000000	64.782905 
3674.000000	64.817738 
3673.000000	64.853453 
3672.000000	64.887666 
3671.000000	64.917826 
3670.000000	64.941477 
3669.000000	64.956307 
3668.000000	64.960598 
3667.000000	64.953613 
3666.000000	64.935970 
3665.000000	64.909410 
3664.000000	64.876651 
3663.000000	64.840817 
3662.000000	64.805221 
3661.000000	64.772748 
3660.000000	64.745736 
3659.000000	64.725947 
3658.000000	64.714717 
3657.000000	64.713144 
3656.000000	64.722299 
3655.000000	64.742755 
3654.000000	64.774346 
3653.000000	64.815711 
3652.000000	64.863991 
3651.000000	64.914751 
3650.000000	64.962792 
3649.000000	65.002775 
3648.000000	65.030431 
3647.000000	65.043592 
3646.000000	65.042304 
3645.000000	65.029048 
3644.000000	65.007686 
3643.000000	64.982604 
3642.000000	64.957761 
3641.000000	64.936113 
3640.000000	64.919090 
3639.000000	64.906787 
3638.000000	64.898204 
3637.000000	64.892196 
3636.000000	64.887809 
3635.000000	64.884686 
3634.000000	64.882636 
3633.000000	64.881777 
3632.000000	64.881849 
3631.000000	64.882302 
3630.000000	64.882135 
3629.000000	64.880394 
3628.000000	64.876365 
3627.000000	64.870214 
3626.000000	64.862990 
3625.000000	64.856600 
3624.000000	64.853382 
3623.000000	64.855337 
3622.000000	64.863920 
3621.000000	64.878940 
3620.000000	64.898800 
3619.000000	64.919996 
3618.000000	64.938330 
3617.000000	64.949321 
3616.000000	64.949083 
3615.000000	64.935564 
3614.000000	64.908957 
3613.000000	64.872217 
3612.000000	64.830136 
3611.000000	64.788866 
3610.000000	64.754462 
3609.000000	64.731717 
3608.000000	64.723467 
3607.000000	64.729642 
3606.000000	64.747595 
3605.000000	64.772558 
3604.000000	64.799070 
3603.000000	64.821934 
3602.000000	64.837455 
3601.000000	64.843988 
3600.000000	64.842176 
3599.000000	64.834260 
3598.000000	64.823532 
3597.000000	64.813327 
3596.000000	64.806079 
3595.000000	64.803194 
3594.000000	64.804577 
3593.000000	64.809226 
3592.000000	64.815163 
3591.000000	64.820575 
3590.000000	64.823865 
3589.000000	64.823961 
3588.000000	64.820766 
3587.000000	64.814996 
3586.000000	64.808225 
3585.000000	64.802217 
3584.000000	64.798998 
3583.000000	64.800405 
3582.000000	64.807724 
3581.000000	64.821577 
3580.000000	64.841389 
3579.000000	64.865517 
3578.000000	64.891505 
3577.000000	64.916467 
3576.000000	64.937734 
3575.000000	64.953184 
3574.000000	64.961838 
3573.000000	64.963674 
3572.000000	64.959764 
3571.000000	64.951539 
3570.000000	64.940500 
3569.000000	64.927768 
3568.000000	64.913868 
3567.000000	64.898729 
3566.000000	64.882206 
3565.000000	64.863586 
3564.000000	64.842629 
3563.000000	64.819025 
3562.000000	64.793157 
3561.000000	64.765977 
3560.000000	64.738750 
3559.000000	64.713168 
3558.000000	64.691019 
3557.000000	64.674496 
3556.000000	64.665555 
3555.000000	64.665651 
3554.000000	64.675474 
3553.000000	64.694285 
3552.000000	64.720034 
3551.000000	64.749193 
3550.000000	64.777493 
3549.000000	64.800548 
3548.000000	64.814925 
3547.000000	64.818859 
3546.000000	64.812493 
3545.000000	64.798021 
3544.000000	64.778947 
3543.000000	64.759302 
3542.000000	64.742660 
3541.000000	64.731693 
3540.000000	64.727711 
3539.000000	64.730644 
3538.000000	64.739584 
3537.000000	64.753222 
3536.000000	64.770054 
3535.000000	64.788913 
3534.000000	64.808940 
3533.000000	64.829087 
3532.000000	64.848256 
3531.000000	64.864993 
3530.000000	64.877843 
3529.000000	64.885568 
3528.000000	64.887762 
3527.000000	64.885067 
3526.000000	64.879035 
3525.000000	64.871907 
3524.000000	64.865875 
3523.000000	64.862775 
3522.000000	64.863419 
3521.000000	64.867353 
3520.000000	64.873147 
3519.000000	64.878606 
3518.000000	64.881372 
3517.000000	64.879465 
3516.000000	64.871764 
3515.000000	64.858198 
3514.000000	64.839720 
3513.000000	64.818143 
3512.000000	64.795541 
3511.000000	64.773821 
3510.000000	64.754223 
3509.000000	64.737200 
3508.000000	64.722704 
3507.000000	64.710593 
3506.000000	64.700746 
3505.000000	64.693665 
3504.000000	64.690089 
3503.000000	64.690947 
3502.000000	64.696836 
3501.000000	64.707636 
3500.000000	64.722084 
3499.000000	64.738273 
3498.000000	64.753723 
3497.000000	64.766168 
3496.000000	64.774012 
3495.000000	64.776825 
3494.000000	64.775514 
3493.000000	64.771723 
3492.000000	64.767765 
3491.000000	64.765501 
3490.000000	64.766097 
3489.000000	64.769816 
3488.000000	64.776134 
3487.000000	64.784169 
3486.000000	64.793086 
3485.000000	64.802598 
3484.000000	64.812755 
3483.000000	64.823985 
3482.000000	64.836788 
3481.000000	64.851069 
3480.000000	64.866209 
3479.000000	64.880800 
3478.000000	64.893031 
3477.000000	64.901256 
3476.000000	64.904046 
3475.000000	64.900660 
3474.000000	64.891004 
3473.000000	64.875793 
3472.000000	64.855837 
3471.000000	64.832139 
3470.000000	64.805579 
3469.000000	64.777112 
3468.000000	64.748048 
3467.000000	64.720129 
3466.000000	64.695644 
3465.000000	64.677095 
3464.000000	64.667177 
3463.000000	64.667725 
3462.000000	64.679217 
3461.000000	64.700317 
3460.000000	64.728093 
3459.000000	64.758229 
3458.000000	64.785742 
3457.000000	64.806127 
3456.000000	64.815950 
3455.000000	64.813494 
3454.000000	64.799022 
3453.000000	64.774799 
3452.000000	64.744400 
3451.000000	64.712262 
3450.000000	64.682698 
3449.000000	64.659643 
3448.000000	64.645981 
3447.000000	64.643526 
3446.000000	64.652752 
3445.000000	64.672970 
3444.000000	64.702391 
3443.000000	64.738178 
3442.000000	64.776897 
3441.000000	64.814686 
3440.000000	64.847636 
3439.000000	64.872574 
3438.000000	64.887332 
3437.000000	64.890885 
3436.000000	64.883685 
3435.000000	64.867663 
3434.000000	64.845752 
3433.000000	64.821743 
3432.000000	64.799070 
3431.000000	64.781141 
3430.000000	64.769816 
3429.000000	64.765715 
3428.000000	64.767742 
3427.000000	64.773702 
3426.000000	64.780592 
3425.000000	64.785456 
3424.000000	64.785909 
3423.000000	64.780473 
3422.000000	64.769053 
3421.000000	64.752626 
3420.000000	64.733219 
3419.000000	64.713335 
3418.000000	64.695429 
3417.000000	64.681553 
3416.000000	64.673018 
3415.000000	64.670276 
3414.000000	64.673280 
3413.000000	64.681410 
3412.000000	64.693403 
3411.000000	64.707708 
3410.000000	64.722418 
3409.000000	64.735984 
3408.000000	64.746642 
3407.000000	64.753389 
3406.000000	64.756155 
3405.000000	64.756035 
3404.000000	64.755034 
3403.000000	64.755606 
3402.000000	64.759969 
3401.000000	64.769291 
3400.000000	64.783620 
3399.000000	64.801573 
3398.000000	64.820599 
3397.000000	64.837813 
3396.000000	64.850759 
3395.000000	64.858269 
3394.000000	64.860701 
3393.000000	64.859628 
3392.000000	64.857530 
3391.000000	64.856719 
3390.000000	64.858722 
3389.000000	64.863657 
3388.000000	64.870190 
3387.000000	64.876103 
3386.000000	64.879107 
3385.000000	64.877676 
3384.000000	64.871549 
3383.000000	64.861798 
3382.000000	64.850497 
3381.000000	64.840006 
3380.000000	64.832353 
3379.000000	64.828681 
3378.000000	64.828944 
3377.000000	64.832186 
3376.000000	64.836835 
3375.000000	64.841628 
3374.000000	64.845848 
3373.000000	64.849615 
3372.000000	64.853692 
3371.000000	64.859318 
3370.000000	64.867520 
3369.000000	64.878654 
3368.000000	64.892125 
3367.000000	64.906263 
3366.000000	64.918494 
3365.000000	64.926171 
3364.000000	64.926671 
3363.000000	64.918303 
3362.000000	64.900517 
3361.000000	64.874243 
3360.000000	64.841866 
3359.000000	64.806914 
3358.000000	64.773678 
3357.000000	64.746379 
3356.000000	64.728569 
3355.000000	64.722251 
3354.000000	64.727807 
3353.000000	64.743614 
3352.000000	64.766216 
3351.000000	64.791059 
3350.000000	64.813184 
3349.000000	64.828586 
3348.000000	64.834499 
3347.000000	64.830517 
3346.000000	64.818215 
3345.000000	64.801049 
3344.000000	64.783024 
3343.000000	64.768266 
3342.000000	64.759778 
3341.000000	64.759063 
3340.000000	64.765763 
3339.000000	64.777922 
3338.000000	64.792847 
3337.000000	64.807271 
3336.000000	64.818239 
3335.000000	64.823365 
3334.000000	64.821434 
3333.000000	64.812326 
3332.000000	64.797258 
3331.000000	64.778208 
3330.000000	64.757847 
3329.000000	64.739251 
3328.000000	64.725232 
3327.000000	64.718270 
3326.000000	64.719653 
3325.000000	64.729571 
3324.000000	64.746952 
3323.000000	64.769577 
3322.000000	64.794826 
3321.000000	64.819979 
3320.000000	64.843153 
3319.000000	64.863300 
3318.000000	64.880561 
3317.000000	64.895963 
3316.000000	64.911055 
3315.000000	64.927220 
3314.000000	64.945220 
3313.000000	64.964914 
3312.000000	64.985251 
3311.000000	65.004515 
3310.000000	65.020418 
3309.000000	65.030813 
3308.000000	65.033721 
3307.000000	65.028071 
3306.000000	65.013527 
3305.000000	64.990782 
3304.000000	64.961218 
3303.000000	64.926767 
3302.000000	64.889764 
3301.000000	64.852595 
3300.000000	64.817619 
3299.000000	64.786767 
3298.000000	64.761686 
3297.000000	64.743542 
3296.000000	64.732789 
3295.000000	64.729547 
3294.000000	64.733219 
3293.000000	64.743041 
3292.000000	64.757728 
3291.000000	64.776062 
3290.000000	64.796686 
3289.000000	64.818620 
3288.000000	64.840817 
3287.000000	64.862394 
3286.000000	64.882516 
3285.000000	64.900302 
3284.000000	64.914655 
3283.000000	64.924335 
3282.000000	64.928054 
3281.000000	64.924621 
3280.000000	64.913392 
3279.000000	64.894342 
3278.000000	64.868426 
3277.000000	64.837479 
3276.000000	64.804100 
3275.000000	64.771151 
3274.000000	64.741635 
3273.000000	64.718031 
3272.000000	64.702153 
3271.000000	64.694952 
3270.000000	64.696526 
3269.000000	64.706110 
3268.000000	64.722394 
3267.000000	64.743518 
3266.000000	64.767479 
3265.000000	64.792060 
3264.000000	64.815425 
3263.000000	64.836120 
3262.000000	64.853358 
3261.000000	64.866638 
3260.000000	64.875841 
3259.000000	64.881300 
3258.000000	64.883279 
3257.000000	64.881992 
3256.000000	64.877724 
3255.000000	64.870905 
3254.000000	64.862203 
3253.000000	64.852786 
3252.000000	64.844226 
3251.000000	64.838099 
3250.000000	64.835953 
3249.000000	64.838743 
3248.000000	64.846301 
3247.000000	64.857506 
3246.000000	64.870262 
3245.000000	64.882087 
3244.000000	64.890789 
3243.000000	64.894962 
3242.000000	64.894485 
3241.000000	64.890241 
3240.000000	64.883899 
3239.000000	64.877033 
3238.000000	64.870619 
3237.000000	64.864611 
3236.000000	64.858055 
3235.000000	64.849400 
3234.000000	64.836955 
3233.000000	64.819908 
3232.000000	64.798951 
3231.000000	64.776253 
3230.000000	64.755105 
3229.000000	64.739298 
3228.000000	64.732193 
3227.000000	64.735817 
3226.000000	64.750409 
3225.000000	64.774274 
3224.000000	64.804148 
3223.000000	64.836120 
3222.000000	64.866161 
3221.000000	64.890813 
3220.000000	64.907741 
3219.000000	64.915800 
3218.000000	64.914965 
3217.000000	64.906191 
3216.000000	64.891028 
3215.000000	64.871478 
3214.000000	64.849567 
3213.000000	64.827537 
3212.000000	64.807128 
3211.000000	64.789962 
3210.000000	64.777040 
3209.000000	64.768910 
3208.000000	64.765501 
3207.000000	64.766097 
3206.000000	64.769816 
3205.000000	64.775609 
3204.000000	64.782762 
3203.000000	64.790821 
3202.000000	64.799976 
3201.000000	64.810609 
3200.000000	64.823246 
3199.000000	64.837980 
3198.000000	64.854598 
3197.000000	64.872193 
3196.000000	64.889287 
3195.000000	64.904308 
3194.000000	64.915823 
3193.000000	64.923024 
3192.000000	64.925837 
3191.000000	64.925146 
3190.000000	64.922571 
3189.000000	64.919805 
3188.000000	64.918494 
3187.000000	64.919424 
3186.000000	64.922451 
3185.000000	64.926290 
3184.000000	64.929032 
3183.000000	64.928770 
3182.000000	64.923858 
3181.000000	64.913725 
3180.000000	64.899158 
3179.000000	64.882206 
3178.000000	64.865517 
3177.000000	64.851999 
3176.000000	64.843893 
3175.000000	64.842128 
3174.000000	64.845871 
3173.000000	64.852738 
3172.000000	64.859485 
3171.000000	64.862751 
3170.000000	64.860320 
3169.000000	64.851379 
3168.000000	64.837217 
3167.000000	64.821028 
3166.000000	64.807343 
3165.000000	64.800500 
3164.000000	64.803862 
3163.000000	64.818739 
3162.000000	64.844012 
3161.000000	64.876127 
3160.000000	64.909744 
3159.000000	64.939069 
3158.000000	64.958763 
3157.000000	64.965415 
3156.000000	64.957952 
3155.000000	64.937686 
3154.000000	64.908313 
3153.000000	64.874815 
3152.000000	64.842915 
3151.000000	64.817619 
3150.000000	64.802837 
3149.000000	64.800643 
3148.000000	64.810991 
3147.000000	64.831876 
3146.000000	64.859509 
3145.000000	64.889287 
3144.000000	64.916157 
3143.000000	64.935684 
3142.000000	64.944458 
3141.000000	64.940738 
3140.000000	64.924716 
3139.000000	64.898204 
3138.000000	64.864373 
3137.000000	64.826846 
3136.000000	64.789247 
3135.000000	64.754557 
3134.000000	64.724850 
3133.000000	64.701414 
3132.000000	64.684557 
3131.000000	64.674448 
3130.000000	64.671111 
3129.000000	64.674782 
3128.000000	64.685630 
3127.000000	64.703536 
3126.000000	64.727616 
3125.000000	64.756131 
3124.000000	64.786291 
3123.000000	64.814949 
3122.000000	64.838743 
3121.000000	64.855194 
3120.000000	64.863133 
3119.000000	64.863181 
3118.000000	64.857459 
3117.000000	64.849090 
3116.000000	64.841175 
3115.000000	64.835882 
3114.000000	64.833903 
3113.000000	64.834547 
3112.000000	64.835786 
3111.000000	64.835262 
3110.000000	64.831066 
3109.000000	64.822411 
3108.000000	64.810061 
3107.000000	64.796185 
3106.000000	64.784097 
3105.000000	64.776992 
3104.000000	64.777541 
3103.000000	64.786839 
3102.000000	64.804410 
3101.000000	64.828157 
3100.000000	64.854645 
3099.000000	64.880251 
3098.000000	64.901423 
3097.000000	64.915633 
3096.000000	64.921450 
3095.000000	64.918708 
3094.000000	64.908313 
3093.000000	64.892053 
3092.000000	64.872002 
3091.000000	64.850187 
3090.000000	64.828538 
3089.000000	64.808750 
3088.000000	64.792180 
3087.000000	64.779901 
3086.000000	64.772915 
3085.000000	64.771842 
3084.000000	64.777088 
3083.000000	64.788389 
3082.000000	64.804768 
3081.000000	64.824533 
3080.000000	64.845204 
3079.000000	64.864087 
3078.000000	64.878559 
3077.000000	64.886760 
3076.000000	64.887809 
3075.000000	64.882349 
3074.000000	64.872074 
3073.000000	64.859461 
3072.000000	64.847517 
3071.000000	64.838719 
3070.000000	64.834642 
3069.000000	64.835500 
3068.000000	64.840364 
3067.000000	64.847230 
3066.000000	64.853596 
3065.000000	64.857053 
3064.000000	64.855909 
3063.000000	64.849352 
3062.000000	64.837574 
3061.000000	64.821624 
3060.000000	64.803218 
3059.000000	64.784121 
3058.000000	64.766144 
3057.000000	64.750695 
3056.000000	64.738893 
3055.000000	64.731502 
3054.000000	64.729118 
3053.000000	64.732098 
3052.000000	64.740777 
3051.000000	64.755153 
3050.000000	64.775109 
3049.000000	64.799785 
3048.000000	64.828038 
3047.000000	64.858102 
3046.000000	64.888143 
3045.000000	64.916062 
3044.000000	64.940285 
3043.000000	64.959859 
3042.000000	64.974641 
3041.000000	64.985203 
3040.000000	64.992380 
3039.000000	64.997076 
3038.000000	64.999890 
3037.000000	65.000939 
3036.000000	64.999866 
3035.000000	64.995932 
3034.000000	64.988613 
3033.000000	64.977645 
3032.000000	64.963388 
3031.000000	64.946722 
3030.000000	64.929103 
3029.000000	64.912128 
3028.000000	64.897179 
3027.000000	64.885234 
3026.000000	64.876627 
3025.000000	64.871001 
3024.000000	64.867591 
3023.000000	64.865350 
3022.000000	64.863157 
3021.000000	64.860343 
3020.000000	64.856696 
3019.000000	64.852452 
3018.000000	64.847898 
3017.000000	64.843487 
3016.000000	64.839553 
3015.000000	64.836120 
3014.000000	64.832782 
3013.000000	64.828920 
3012.000000	64.824175 
3011.000000	64.818215 
3010.000000	64.811253 
3009.000000	64.804124 
3008.000000	64.798164 
3007.000000	64.794945 
3006.000000	64.795994 
3005.000000	64.802217 
3004.000000	64.813995 
3003.000000	64.830756 
3002.000000	64.851331 
3001.000000	64.874100 
3000.000000	64.897298 
2999.000000	64.919400 
2998.000000	64.938759 
2997.000000	64.953970 
2996.000000	64.963674 
2995.000000	64.966630 
2994.000000	64.961695 
2993.000000	64.948272 
2992.000000	64.926528 
2991.000000	64.897799 
2990.000000	64.864444 
2989.000000	64.829730 
2988.000000	64.797091 
2987.000000	64.769673 
2986.000000	64.749670 
2985.000000	64.737725 
2984.000000	64.733099 
2983.000000	64.733934 
2982.000000	64.737963 
2981.000000	64.743113 
2980.000000	64.748215 
2979.000000	64.752984 
2978.000000	64.757895 
2977.000000	64.763474 
2976.000000	64.769768 
2975.000000	64.775872 
2974.000000	64.779734 
2973.000000	64.778733 
2972.000000	64.770174 
2971.000000	64.752459 
2970.000000	64.725685 
2969.000000	64.692068 
2968.000000	64.655470 
2967.000000	64.620709 
2966.000000	64.592361 
2965.000000	64.573621 
2964.000000	64.565539 
2963.000000	64.566993 
2962.000000	64.575099 
2961.000000	64.586186 
2960.000000	64.596676 
2959.000000	64.604091 
2958.000000	64.607405 
2957.000000	64.607071 
2956.000000	64.604568 
2955.000000	64.601826 
2954.000000	64.600539 
2953.000000	64.601659 
2952.000000	64.605307 
2951.000000	64.611101 
2950.000000	64.618039 
2949.000000	64.625215 
2948.000000	64.631772 
2947.000000	64.637064 
2946.000000	64.640688 
2945.000000	64.642333 
2944.000000	64.642047 
2943.000000	64.639925 
2942.000000	64.636540 
2941.000000	64.632987 
2940.000000	64.630436 
2939.000000	64.629697 
2938.000000	64.631056 
2937.000000	64.634251 
2936.000000	64.638304 
2935.000000	64.641642 
2934.000000	64.642786 
2933.000000	64.640522 
2932.000000	64.634370 
2931.000000	64.624619 
2930.000000	64.612293 
2929.000000	64.598751 
2928.000000	64.585566 
2927.000000	64.573884 
2926.000000	64.564180 
2925.000000	64.556312 
2924.000000	64.549684 
2923.000000	64.543652 
2922.000000	64.537787 
2921.000000	64.532470 
2920.000000	64.528489 
2919.000000	64.527606 
2918.000000	64.531588 
2917.000000	64.542603 
2916.000000	64.562439 
2915.000000	64.592123 
2914.000000	64.631676 
2913.000000	64.679479 
2912.000000	64.732694 
2911.000000	64.787077 
2910.000000	64.837718 
2909.000000	64.879679 
2908.000000	64.909076 
2907.000000	64.923596 
2906.000000	64.923024 
2905.000000	64.909100 
2904.000000	64.885163 
2903.000000	64.855313 
2902.000000	64.823794 
2901.000000	64.794158 
2900.000000	64.768862 
2899.000000	64.749336 
2898.000000	64.736127 
2897.000000	64.729380 
2896.000000	64.729070 
2895.000000	64.735412 
2894.000000	64.748764 
2893.000000	64.768958 
2892.000000	64.795231 
2891.000000	64.825558 
2890.000000	64.856886 
2889.000000	64.885449 
2888.000000	64.907336 
2887.000000	64.919257 
2886.000000	64.919328 
2885.000000	64.907455 
2884.000000	64.885449 
2883.000000	64.856410 
2882.000000	64.824247 
2881.000000	64.793181 
2880.000000	64.766454 
2879.000000	64.745998 
2878.000000	64.732480 
2877.000000	64.725565 
2876.000000	64.724016 
2875.000000	64.726448 
2874.000000	64.731740 
2873.000000	64.739394 
2872.000000	64.749288 
2871.000000	64.761877 
2870.000000	64.777398 
2869.000000	64.795875 
2868.000000	64.816784 
2867.000000	64.838862 
2866.000000	64.860224 
2865.000000	64.878535 
2864.000000	64.891767 
2863.000000	64.898324 
2862.000000	64.897751 
2861.000000	64.890456 
2860.000000	64.878034 
2859.000000	64.862561 
2858.000000	64.846301 
2857.000000	64.830875 
2856.000000	64.817309 
2855.000000	64.805626 
2854.000000	64.795327 
2853.000000	64.785504 
2852.000000	64.775371 
2851.000000	64.764571 
2850.000000	64.753222 
2849.000000	64.741754 
2848.000000	64.731073 
2847.000000	64.721941 
2846.000000	64.715051 
2845.000000	64.710593 
2844.000000	64.708614 
2843.000000	64.709162 
2842.000000	64.712548 
2841.000000	64.719200 
2840.000000	64.729619 
2839.000000	64.744353 
2838.000000	64.763569 
2837.000000	64.786720 
2836.000000	64.812707 
2835.000000	64.839982 
2834.000000	64.866805 
2833.000000	64.891648 
2832.000000	64.913463 
2831.000000	64.931750 
2830.000000	64.946579 
2829.000000	64.958429 
2828.000000	64.967870 
2827.000000	64.975261 
2826.000000	64.980554 
2825.000000	64.983558 
2824.000000	64.983582 
2823.000000	64.979934 
2822.000000	64.972114 
2821.000000	64.960122 
2820.000000	64.944434 
2819.000000	64.925956 
2818.000000	64.906024 
2817.000000	64.885950 
2816.000000	64.867091 
2815.000000	64.850378 
2814.000000	64.836406 
2813.000000	64.825487 
2812.000000	64.817500 
2811.000000	64.812326 
2810.000000	64.809703 
2809.000000	64.809560 
2808.000000	64.812111 
2807.000000	64.817738 
2806.000000	64.826607 
2805.000000	64.838838 
2804.000000	64.854025 
2803.000000	64.871358 
2802.000000	64.889264 
2801.000000	64.906167 
2800.000000	64.920520 
2799.000000	64.931368 
2798.000000	64.938306 
2797.000000	64.941787 
2796.000000	64.942860 
2795.000000	64.942908 
2794.000000	64.943242 
2793.000000	64.944720 
2792.000000	64.947533 
2791.000000	64.951372 
2790.000000	64.955568 
2789.000000	64.959383 
2788.000000	64.962339 
2787.000000	64.964580 
2786.000000	64.966630 
2785.000000	64.969420 
2784.000000	64.973807 
2783.000000	64.980101 
2782.000000	64.988255 
2781.000000	64.997339 
2780.000000	65.006089 
2779.000000	65.013122 
2778.000000	65.017294 
2777.000000	65.018010 
2776.000000	65.015363 
2775.000000	65.010070 
2774.000000	65.003395 
2773.000000	64.996552 
2772.000000	64.990687 
2771.000000	64.986419 
2770.000000	64.983892 
2769.000000	64.983010 
2768.000000	64.983534 
2767.000000	64.985251 
2766.000000	64.988112 
2765.000000	64.992213 
2764.000000	64.997553 
2763.000000	65.004014 
2762.000000	65.010809 
2761.000000	65.016770 
2760.000000	65.020227 
2759.000000	65.019345 
2758.000000	65.012836 
2757.000000	65.000128 
2756.000000	64.981555 
2755.000000	64.958882 
2754.000000	64.934802 
2753.000000	64.912629 
2752.000000	64.895582 
2751.000000	64.886045 
2750.000000	64.885234 
2749.000000	64.892745 
2748.000000	64.906716 
2747.000000	64.924407 
2746.000000	64.942669 
2745.000000	64.958858 
2744.000000	64.971017 
2743.000000	64.978528 
2742.000000	64.981985 
2741.000000	64.982771 
2740.000000	64.982676 
2739.000000	64.983415 
2738.000000	64.986276 
2737.000000	64.991879 
2736.000000	64.999890 
2735.000000	65.009260 
2734.000000	65.018248 
2733.000000	65.025019 
2732.000000	65.028047 
2731.000000	65.026330 
2730.000000	65.019965 
2729.000000	65.009832 
2728.000000	64.997720 
2727.000000	64.985823 
2726.000000	64.976239 
2725.000000	64.970612 
2724.000000	64.969706 
2723.000000	64.973306 
2722.000000	64.980220 
2721.000000	64.988589 
2720.000000	64.996075 
2719.000000	65.000534 
2718.000000	65.000152 
2717.000000	64.993810 
2716.000000	64.981269 
2715.000000	64.963102 
2714.000000	64.940547 
2713.000000	64.915251 
2712.000000	64.889144 
2711.000000	64.864420 
2710.000000	64.843225 
2709.000000	64.827418 
2708.000000	64.818644 
2707.000000	64.817953 
2706.000000	64.825749 
2705.000000	64.841628 
2704.000000	64.864349 
2703.000000	64.891862 
2702.000000	64.921545 
2701.000000	64.950251 
2700.000000	64.974784 
2699.000000	64.992356 
2698.000000	65.000891 
2697.000000	64.999461 
2696.000000	64.988350 
2695.000000	64.968991 
2694.000000	64.944076 
2693.000000	64.916563 
2692.000000	64.889502 
2691.000000	64.865374 
2690.000000	64.845967 
2689.000000	64.832234 
2688.000000	64.824295 
2687.000000	64.821720 
2686.000000	64.823746 
2685.000000	64.829540 
2684.000000	64.838457 
2683.000000	64.849805 
2682.000000	64.862918 
2681.000000	64.876747 
2680.000000	64.890193 
2679.000000	64.901876 
2678.000000	64.910674 
2677.000000	64.915847 
2676.000000	64.917373 
2675.000000	64.916229 
2674.000000	64.913868 
2673.000000	64.912104 
2672.000000	64.912581 
2671.000000	64.916324 
2670.000000	64.923644 
2669.000000	64.934134 
2668.000000	64.946794 
2667.000000	64.960455 
2666.000000	64.973950 
2665.000000	64.986371 
2664.000000	64.997029 
2663.000000	65.005421 
2662.000000	65.010952 
2661.000000	65.012884 
2660.000000	65.010452 
2659.000000	65.002989 
2658.000000	64.990210 
2657.000000	64.972567 
2656.000000	64.951419 
2655.000000	64.928936 
2654.000000	64.907741 
2653.000000	64.890480 
2652.000000	64.879226 
2651.000000	64.875173 
2650.000000	64.878273 
2649.000000	64.887547 
2648.000000	64.901328 
2647.000000	64.917445 
2646.000000	64.933991 
2645.000000	64.949321 
2644.000000	64.962410 
2643.000000	64.972639 
2642.000000	64.979577 
2641.000000	64.982914 
2640.000000	64.982342 
2639.000000	64.977598 
2638.000000	64.968633 
2637.000000	64.955472 
2636.000000	64.938807 
2635.000000	64.919686 
2634.000000	64.899516 
2633.000000	64.879989 
2632.000000	64.862442 
2631.000000	64.848089 
2630.000000	64.837574 
2629.000000	64.831018 
2628.000000	64.828252 
2627.000000	64.828729 
2626.000000	64.831829 
2625.000000	64.836859 
2624.000000	64.843201 
2623.000000	64.850187 
2622.000000	64.857411 
2621.000000	64.864373 
2620.000000	64.870929 
2619.000000	64.877128 
2618.000000	64.883542 
2617.000000	64.890837 
2616.000000	64.899754 
2615.000000	64.910840 
2614.000000	64.924001 
2613.000000	64.938426 
2612.000000	64.952468 
2611.000000	64.963841 
2610.000000	64.970088 
2609.000000	64.969158 
2608.000000	64.959883 
2607.000000	64.942550 
2606.000000	64.918947 
2605.000000	64.892292 
2604.000000	64.866638 
2603.000000	64.846014 
2602.000000	64.833760 
2601.000000	64.831829 
2600.000000	64.840292 
2599.000000	64.857172 
2598.000000	64.878940 
2597.000000	64.901113 
2596.000000	64.918947 
2595.000000	64.928412 
2594.000000	64.926767 
2593.000000	64.913439 
2592.000000	64.889836 
2591.000000	64.859318 
2590.000000	64.826440 
2589.000000	64.795947 
2588.000000	64.772081 
2587.000000	64.757394 
2586.000000	64.752578 
2585.000000	64.756464 
2584.000000	64.766621 
2583.000000	64.779901 
2582.000000	64.793372 
2581.000000	64.805102 
2580.000000	64.814710 
2579.000000	64.822936 
2578.000000	64.831256 
2577.000000	64.841365 
2576.000000	64.854431 
2575.000000	64.870667 
2574.000000	64.889097 
2573.000000	64.908099 
2572.000000	64.925622 
2571.000000	64.940190 
2570.000000	64.951181 
2569.000000	64.958786 
2568.000000	64.963936 
2567.000000	64.968037 
2566.000000	64.972376 
2565.000000	64.977860 
2564.000000	64.984583 
2563.000000	64.992213 
2562.000000	64.999747 
2561.000000	65.006279 
2560.000000	65.011024 
2559.000000	65.013742 
2558.000000	65.014433 
2557.000000	65.013217 
2556.000000	65.009927 
2555.000000	65.004515 
2554.000000	64.996528 
2553.000000	64.985728 
2552.000000	64.971899 
2551.000000	64.955186 
2550.000000	64.936232 
2549.000000	64.916133 
2548.000000	64.896130 
2547.000000	64.877676 
2546.000000	64.862418 
2545.000000	64.851999 
2544.000000	64.847779 
2543.000000	64.850878 
2542.000000	64.861726 
2541.000000	64.879965 
2540.000000	64.904236 
2539.000000	64.932250 
2538.000000	64.961171 
2537.000000	64.988064 
2536.000000	65.010190 
2535.000000	65.025520 
2534.000000	65.032958 
2533.000000	65.032577 
2532.000000	65.025472 
2531.000000	65.013599 
2530.000000	64.999365 
2529.000000	64.985084 
2528.000000	64.972901 
2527.000000	64.964032 
2526.000000	64.958643 
2525.000000	64.956188 
2524.000000	64.955472 
2523.000000	64.955091 
2522.000000	64.953875 
2521.000000	64.951062 
2520.000000	64.946389 
2519.000000	64.940023 
2518.000000	64.932274 
2517.000000	64.923262 
2516.000000	64.913058 
2515.000000	64.901399 
2514.000000	64.888286 
2513.000000	64.873862 
2512.000000	64.858770 
2511.000000	64.843964 
2510.000000	64.831042 
2509.000000	64.821481 
2508.000000	64.816999 
2507.000000	64.818692 
2506.000000	64.827322 
2505.000000	64.842653 
2504.000000	64.863824 
2503.000000	64.889454 
2502.000000	64.917707 
2501.000000	64.946556 
2500.000000	64.973998 
2499.000000	64.998126 
2498.000000	65.017294 
2497.000000	65.030169 
2496.000000	65.035915 
2495.000000	65.034008 
2494.000000	65.024518 
2493.000000	65.008091 
2492.000000	64.986109 
2491.000000	64.960241 
2490.000000	64.932799 
2489.000000	64.906144 
2488.000000	64.882826 
2487.000000	64.865112 
2486.000000	64.854621 
2485.000000	64.852190 
2484.000000	64.857673 
2483.000000	64.870047 
2482.000000	64.887166 
2481.000000	64.906620 
2480.000000	64.926028 
2479.000000	64.943528 
2478.000000	64.957976 
2477.000000	64.969205 
2476.000000	64.977860 
2475.000000	64.985203 
2474.000000	64.992666 
2473.000000	65.001368 
2472.000000	65.011739 
2471.000000	65.023374 
2470.000000	65.035271 
2469.000000	65.045881 
2468.000000	65.053820 
2467.000000	65.057921 
2466.000000	65.057587 
2465.000000	65.053153 
2464.000000	65.045619 
2463.000000	65.036273 
2462.000000	65.026378 
2461.000000	65.016865 
2460.000000	65.007853 
2459.000000	64.999055 
2458.000000	64.989614 
2457.000000	64.978194 
2456.000000	64.963626 
2455.000000	64.945435 
2454.000000	64.924001 
2453.000000	64.900684 
2452.000000	64.877939 
2451.000000	64.858675 
2450.000000	64.846158 
2449.000000	64.843201 
2448.000000	64.851617 
2447.000000	64.871621 
2446.000000	64.901852 
2445.000000	64.939332 
2444.000000	64.979767 
2443.000000	65.017986 
2442.000000	65.048766 
2441.000000	65.067768 
2440.000000	65.072035 
2439.000000	65.060830 
2438.000000	65.035629 
2437.000000	65.000200 
2436.000000	64.959979 
2435.000000	64.921164 
2434.000000	64.889788 
2433.000000	64.870595 
2432.000000	64.866375 
2431.000000	64.877557 
2430.000000	64.902234 
2429.000000	64.936685 
2428.000000	64.976096 
2427.000000	65.015673 
2426.000000	65.051054 
2425.000000	65.079212 
2424.000000	65.098404 
2423.000000	65.108323 
2422.000000	65.109443 
2421.000000	65.102887 
2420.000000	65.089964 
2419.000000	65.071916 
2418.000000	65.050029 
2417.000000	65.025711 
2416.000000	65.000581 
2415.000000	64.976501 
2414.000000	64.955449 
2413.000000	64.939427 
2412.000000	64.929914 
2411.000000	64.927744 
2410.000000	64.933133 
2409.000000	64.945173 
2408.000000	64.962315 
2407.000000	64.982175 
2406.000000	65.002489 
2405.000000	65.020871 
2404.000000	65.035867 
2403.000000	65.046453 
2402.000000	65.052771 
2401.000000	65.055584 
2400.000000	65.056133 
2399.000000	65.055656 
2398.000000	65.055012 
2397.000000	65.054535 
2396.000000	65.053796 
2395.000000	65.051817 
2394.000000	65.047311 
2393.000000	65.039062 
2392.000000	65.026187 
2391.000000	65.008592 
2390.000000	64.986824 
2389.000000	64.962339 
2388.000000	64.936685 
2387.000000	64.911580 
2386.000000	64.888596 
2385.000000	64.869022 
2384.000000	64.853811 
2383.000000	64.843559 
2382.000000	64.838719 
2381.000000	64.839339 
2380.000000	64.845156 
2379.000000	64.855599 
2378.000000	64.869356 
2377.000000	64.884901 
2376.000000	64.900565 
2375.000000	64.914870 
2374.000000	64.926624 
2373.000000	64.935231 
2372.000000	64.940834 
2371.000000	64.944076 
2370.000000	64.945888 
2369.000000	64.947080 
2368.000000	64.948153 
2367.000000	64.949178 
2366.000000	64.949893 
2365.000000	64.949870 
2364.000000	64.948844 
2363.000000	64.947056 
2362.000000	64.945363 
2361.000000	64.944839 
2360.000000	64.946603 
2359.000000	64.951634 
2358.000000	64.960122 
2357.000000	64.971446 
2356.000000	64.984107 
2355.000000	64.996242 
2354.000000	65.005803 
2353.000000	65.011024 
2352.000000	65.010595 
2351.000000	65.004134 
2350.000000	64.991879 
2349.000000	64.974808 
2348.000000	64.954423 
2347.000000	64.932465 
2346.000000	64.910721 
2345.000000	64.890909 
2344.000000	64.874744 
2343.000000	64.863562 
2342.000000	64.858508 
2341.000000	64.860367 
2340.000000	64.869451 
2339.000000	64.885306 
2338.000000	64.906954 
2337.000000	64.932799 
2336.000000	64.960789 
2335.000000	64.988660 
2334.000000	65.014266 
2333.000000	65.035772 
2332.000000	65.052008 
2331.000000	65.062427 
2330.000000	65.067148 
2329.000000	65.066671 
2328.000000	65.061902 
2327.000000	65.053749 
2326.000000	65.043187 
2325.000000	65.031075 
2324.000000	65.018343 
2323.000000	65.005779 
2322.000000	64.994597 
2321.000000	64.986014 
2320.000000	64.981269 
2319.000000	64.981460 
2318.000000	64.987206 
2317.000000	64.998435 
2316.000000	65.014195 
2315.000000	65.032720 
2314.000000	65.051484 
2313.000000	65.067648 
2312.000000	65.078663 
2311.000000	65.082573 
2310.000000	65.078496 
2309.000000	65.066957 
2308.000000	65.049648 
2307.000000	65.029311 
2306.000000	65.009164 
2305.000000	64.992189 
2304.000000	64.980530 
2303.000000	64.975237 
2302.000000	64.975976 
2301.000000	64.981389 
2300.000000	64.989161 
2299.000000	64.996886 
2298.000000	65.002369 
2297.000000	65.004420 
2296.000000	65.002679 
2295.000000	64.997696 
2294.000000	64.990639 
2293.000000	64.982700 
2292.000000	64.975142 
2291.000000	64.968657 
2290.000000	64.963483 
2289.000000	64.959430 
2288.000000	64.956045 
2287.000000	64.953064 
2286.000000	64.950323 
2285.000000	64.947843 
2284.000000	64.945721 
2283.000000	64.943981 
2282.000000	64.942240 
2281.000000	64.939737 
2280.000000	64.935612 
2279.000000	64.929127 
2278.000000	64.919900 
2277.000000	64.908552 
2276.000000	64.896440 
2275.000000	64.885902 
2274.000000	64.879846 
2273.000000	64.880895 
2272.000000	64.890789 
2271.000000	64.909934 
2270.000000	64.937114 
2269.000000	64.969468 
2268.000000	65.003252 
2267.000000	65.034127 
2266.000000	65.058302 
2265.000000	65.072965 
2264.000000	65.076875 
2263.000000	65.070223 
2262.000000	65.054678 
2261.000000	65.032649 
2260.000000	65.006780 
2259.000000	64.979434 
2258.000000	64.952492 
2257.000000	64.927172 
2256.000000	64.904141 
2255.000000	64.883685 
2254.000000	64.866089 
2253.000000	64.851498 
2252.000000	64.840412 
2251.000000	64.833140 
2250.000000	64.830183 
2249.000000	64.831781 
2248.000000	64.838147 
2247.000000	64.849162 
2246.000000	64.864206 
2245.000000	64.882397 
2244.000000	64.902448 
2243.000000	64.922690 
2242.000000	64.941477 
2241.000000	64.957046 
2240.000000	64.968180 
2239.000000	64.974069 
2238.000000	64.974570 
2237.000000	64.970421 
2236.000000	64.962887 
2235.000000	64.953517 
2234.000000	64.943885 
2233.000000	64.935374 
2232.000000	64.928722 
2231.000000	64.924073 
2230.000000	64.921021 
2229.000000	64.918804 
2228.000000	64.916443 
2227.000000	64.913368 
2226.000000	64.909100 
2225.000000	64.903450 
2224.000000	64.896512 
2223.000000	64.888644 
2222.000000	64.880537 
2221.000000	64.872956 
2220.000000	64.866805 
2219.000000	64.863014 
2218.000000	64.862346 
2217.000000	64.865279 
2216.000000	64.871883 
2215.000000	64.881706 
2214.000000	64.893794 
2213.000000	64.906835 
2212.000000	64.919328 
2211.000000	64.929747 
2210.000000	64.936971 
2209.000000	64.940261 
2208.000000	64.939475 
2207.000000	64.935064 
2206.000000	64.927840 
2205.000000	64.918947 
2204.000000	64.909648 
2203.000000	64.901089 
2202.000000	64.894104 
2201.000000	64.889073 
2200.000000	64.886236 
2199.000000	64.885282 
2198.000000	64.885640 
2197.000000	64.886498 
2196.000000	64.887118 
2195.000000	64.886856 
2194.000000	64.885449 
2193.000000	64.882993 
2192.000000	64.880013 
2191.000000	64.877295 
2190.000000	64.875555 
2189.000000	64.875578 
2188.000000	64.877748 
2187.000000	64.881968 
2186.000000	64.887833 
2185.000000	64.894509 
2184.000000	64.901208 
2183.000000	64.907288 
2182.000000	64.912605 
2181.000000	64.917325 
2180.000000	64.921975 
2179.000000	64.927220 
2178.000000	64.933705 
2177.000000	64.941716 
2176.000000	64.951348 
2175.000000	64.962434 
2174.000000	64.974713 
2173.000000	64.987707 
2172.000000	65.000724 
2171.000000	65.012788 
2170.000000	65.022850 
2169.000000	65.029907 
2168.000000	65.033364 
2167.000000	65.033221 
2166.000000	65.030241 
2165.000000	65.026068 
2164.000000	65.022659 
2163.000000	65.021872 
2162.000000	65.025067 
2161.000000	65.032291 
2160.000000	65.042495 
2159.000000	65.053296 
2158.000000	65.061664 
2157.000000	65.064382 
2156.000000	65.058851 
2155.000000	65.043902 
2154.000000	65.019869 
2153.000000	64.988756 
2152.000000	64.953851 
2151.000000	64.919090 
2150.000000	64.888072 
2149.000000	64.863896 
2148.000000	64.848327 
2147.000000	64.841842 
2146.000000	64.843654 
2145.000000	64.852118 
2144.000000	64.865040 
2143.000000	64.880084 
2142.000000	64.895129 
2141.000000	64.908385 
2140.000000	64.918804 
2139.000000	64.925527 
2138.000000	64.928388 
2137.000000	64.927315 
2136.000000	64.922547 
2135.000000	64.914608 
2134.000000	64.904069 
2133.000000	64.891767 
2132.000000	64.878439 
2131.000000	64.865064 
2130.000000	64.852428 
2129.000000	64.841079 
2128.000000	64.831352 
2127.000000	64.823222 
2126.000000	64.816498 
2125.000000	64.810967 
2124.000000	64.806342 
2123.000000	64.802575 
2122.000000	64.799785 
2121.000000	64.798235 
2120.000000	64.798331 
2119.000000	64.800429 
2118.000000	64.804720 
2117.000000	64.811062 
2116.000000	64.819145 
2115.000000	64.828491 
2114.000000	64.838528 
2113.000000	64.848828 
2112.000000	64.859008 
2111.000000	64.868903 
2110.000000	64.878678 
2109.000000	64.888501 
2108.000000	64.898753 
2107.000000	64.909720 
2106.000000	64.921331 
2105.000000	64.933395 
2104.000000	64.945626 
2103.000000	64.957737 
2102.000000	64.969348 
2101.000000	64.980196 
2100.000000	64.990234 
2099.000000	64.999341 
2098.000000	65.007209 
2097.000000	65.013408 
2096.000000	65.017557 
2095.000000	65.019226 
2094.000000	65.018200 
2093.000000	65.014648 
2092.000000	65.009117 
2091.000000	65.002608 
2090.000000	64.996099 
2089.000000	64.990329 
2088.000000	64.985704 
2087.000000	64.982008 
2086.000000	64.978718 
2085.000000	64.974999 
2084.000000	64.970374 
2083.000000	64.964818 
2082.000000	64.959311 
2081.000000	64.955353 
2080.000000	64.954829 
2079.000000	64.959359 
2078.000000	64.969921 
2077.000000	64.986205 
2076.000000	65.006899 
2075.000000	65.029692 
2074.000000	65.052199 
2073.000000	65.072250 
2072.000000	65.088438 
2071.000000	65.100598 
2070.000000	65.109205 
2069.000000	65.115499 
2068.000000	65.120530 
2067.000000	65.124726 
2066.000000	65.127611 
2065.000000	65.128016 
2064.000000	65.124130 
2063.000000	65.114498 
2062.000000	65.098357 
2061.000000	65.076231 
2060.000000	65.050005 
2059.000000	65.022635 
2058.000000	64.997553 
2057.000000	64.978003 
2056.000000	64.966154 
2055.000000	64.962792 
2054.000000	64.967083 
2053.000000	64.976692 
2052.000000	64.988541 
2051.000000	64.999485 
2050.000000	65.006709 
2049.000000	65.008783 
2048.000000	65.005421 
2047.000000	64.997863 
2046.000000	64.988040 
2045.000000	64.978313 
2044.000000	64.970612 
2043.000000	64.966273 
2042.000000	64.965581 
2041.000000	64.967918 
2040.000000	64.972186 
2039.000000	64.976978 
2038.000000	64.981055 
2037.000000	64.983510 
2036.000000	64.984011 
2035.000000	64.982652 
2034.000000	64.979720 
2033.000000	64.975619 
2032.000000	64.970564 
2031.000000	64.964675 
2030.000000	64.957809 
2029.000000	64.949774 
2028.000000	64.940309 
2027.000000	64.929485 
2026.000000	64.917731 
2025.000000	64.905714 
2024.000000	64.894390 
2023.000000	64.884877 
2022.000000	64.878559 
2021.000000	64.876508 
2020.000000	64.879536 
2019.000000	64.888048 
2018.000000	64.901804 
2017.000000	64.920091 
2016.000000	64.941620 
2015.000000	64.964675 
2014.000000	64.987182 
2013.000000	65.007138 
2012.000000	65.022730 
2011.000000	65.032672 
2010.000000	65.036296 
2009.000000	65.033745 
2008.000000	65.025901 
2007.000000	65.014386 
2006.000000	65.001106 
2005.000000	64.988064 
2004.000000	64.977288 
2003.000000	64.970254 
2002.000000	64.967846 
2001.000000	64.970207 
2000.000000	64.977002 
1999.000000	64.987277 
1998.000000	64.999556 
1997.000000	65.012001 
1996.000000	65.022778 
1995.000000	65.030217 
1994.000000	65.032982 
1993.000000	65.030145 
1992.000000	65.021514 
1991.000000	65.007305 
1990.000000	64.988303 
1989.000000	64.965605 
1988.000000	64.940595 
1987.000000	64.914941 
1986.000000	64.890360 
1985.000000	64.868521 
1984.000000	64.850735 
1983.000000	64.837884 
1982.000000	64.830517 
1981.000000	64.828276 
1980.000000	64.830446 
1979.000000	64.835977 
1978.000000	64.844036 
1977.000000	64.853978 
1976.000000	64.865684 
1975.000000	64.879441 
1974.000000	64.895796 
1973.000000	64.915227 
1972.000000	64.937877 
1971.000000	64.963293 
1970.000000	64.990305 
1969.000000	65.017247 
1968.000000	65.041899 
1967.000000	65.062236 
1966.000000	65.076422 
1965.000000	65.083384 
1964.000000	65.082836 
1963.000000	65.075421 
1962.000000	65.062451 
1961.000000	65.045666 
1960.000000	65.026926 
1959.000000	65.007925 
1958.000000	64.990067 
1957.000000	64.974546 
1956.000000	64.962077 
1955.000000	64.953136 
1954.000000	64.948058 
1953.000000	64.947080 
1952.000000	64.950108 
1951.000000	64.956855 
1950.000000	64.966535 
1949.000000	64.978027 
1948.000000	64.989805 
1947.000000	65.000247 
1946.000000	65.007829 
1945.000000	65.011334 
1944.000000	65.010261 
1943.000000	65.004611 
1942.000000	64.995336 
1941.000000	64.983725 
1940.000000	64.971566 
1939.000000	64.960193 
1938.000000	64.950752 
1937.000000	64.943623 
1936.000000	64.938473 
1935.000000	64.934539 
1934.000000	64.930868 
1933.000000	64.926958 
1932.000000	64.922952 
1931.000000	64.919781 
1930.000000	64.918923 
1929.000000	64.921879 
1928.000000	64.929437 
1927.000000	64.941358 
1926.000000	64.956164 
1925.000000	64.971327 
1924.000000	64.983844 
1923.000000	64.991092 
1922.000000	64.991497 
1921.000000	64.985036 
1920.000000	64.973449 
1919.000000	64.959597 
1918.000000	64.947009 
1917.000000	64.938950 
1916.000000	64.937663 
1915.000000	64.944005 
1914.000000	64.957094 
1913.000000	64.975023 
1912.000000	64.994931 
1911.000000	65.014123 
1910.000000	65.030407 
1909.000000	65.042352 
1908.000000	65.049338 
1907.000000	65.051531 
1906.000000	65.049362 
1905.000000	65.043282 
1904.000000	65.033698 
1903.000000	65.020895 
1902.000000	65.005135 
1901.000000	64.986968 
1900.000000	64.967250 
1899.000000	64.947319 
1898.000000	64.928770 
1897.000000	64.913344 
1896.000000	64.902329 
1895.000000	64.896655 
1894.000000	64.896464 
1893.000000	64.901423 
1892.000000	64.910435 
1891.000000	64.922213 
1890.000000	64.935183 
1889.000000	64.948177 
1888.000000	64.959931 
1887.000000	64.969682 
1886.000000	64.977025 
1885.000000	64.982080 
1884.000000	64.985084 
1883.000000	64.986610 
1882.000000	64.987373 
1881.000000	64.988160 
1880.000000	64.989590 
1879.000000	64.991998 
1878.000000	64.995431 
1877.000000	64.999461 
1876.000000	65.003347 
1875.000000	65.006136 
1874.000000	65.007019 
1873.000000	65.005397 
1872.000000	65.001273 
1871.000000	64.995002 
1870.000000	64.987373 
1869.000000	64.979529 
1868.000000	64.972567 
1867.000000	64.967727 
1866.000000	64.965581 
1865.000000	64.966440 
1864.000000	64.969706 
1863.000000	64.974069 
1862.000000	64.977645 
1861.000000	64.978265 
1860.000000	64.974069 
1859.000000	64.963841 
1858.000000	64.947628 
1857.000000	64.926648 
1856.000000	64.903211 
1855.000000	64.880299 
1854.000000	64.860844 
1853.000000	64.847064 
1852.000000	64.840126 
1851.000000	64.839744 
1850.000000	64.844441 
1849.000000	64.852142 
1848.000000	64.860796 
1847.000000	64.869046 
1846.000000	64.876389 
1845.000000	64.883422 
1844.000000	64.891123 
1843.000000	64.900469 
1842.000000	64.911890 
1841.000000	64.924931 
1840.000000	64.938354 
1839.000000	64.950704 
1838.000000	64.960551 
1837.000000	64.967179 
1836.000000	64.970874 
1835.000000	64.972805 
1834.000000	64.974808 
1833.000000	64.978599 
1832.000000	64.985442 
1831.000000	64.995503 
1830.000000	65.008044 
1829.000000	65.021276 
1828.000000	65.033030 
1827.000000	65.041089 
1826.000000	65.044140 
1825.000000	65.041518 
1824.000000	65.033698 
1823.000000	65.021920 
1822.000000	65.008115 
1821.000000	64.994311 
1820.000000	64.982485 
1819.000000	64.974236 
1818.000000	64.970517 
1817.000000	64.971613 
1816.000000	64.977121 
1815.000000	64.985799 
1814.000000	64.995980 
1813.000000	65.005707 
1812.000000	65.013337 
1811.000000	65.017533 
1810.000000	65.017771 
1809.000000	65.014290 
1808.000000	65.008234 
1807.000000	65.001320 
1806.000000	64.995455 
1805.000000	64.992356 
1804.000000	64.993095 
1803.000000	64.997959 
1802.000000	65.006232 
1801.000000	65.016579 
1800.000000	65.027141 
1799.000000	65.036177 
1798.000000	65.042257 
1797.000000	65.044736 
1796.000000	65.043616 
1795.000000	65.039372 
1794.000000	65.032935 
1793.000000	65.025186 
1792.000000	65.016794 
1791.000000	65.007948 
1790.000000	64.998507 
1789.000000	64.988017 
1788.000000	64.976096 
1787.000000	64.962577 
1786.000000	64.947891 
1785.000000	64.932990 
1784.000000	64.919114 
1783.000000	64.907884 
1782.000000	64.900708 
1781.000000	64.898443 
1780.000000	64.901089 
1779.000000	64.907741 
1778.000000	64.916729 
1777.000000	64.926099 
1776.000000	64.933633 
1775.000000	64.937734 
1774.000000	64.937663 
1773.000000	64.933753 
1772.000000	64.927101 
1771.000000	64.919400 
1770.000000	64.912271 
1769.000000	64.906764 
1768.000000	64.903068 
1767.000000	64.900350 
1766.000000	64.896893 
1765.000000	64.890742 
1764.000000	64.880466 
1763.000000	64.865517 
1762.000000	64.846873 
1761.000000	64.826798 
1760.000000	64.808297 
1759.000000	64.794421 
1758.000000	64.787268 
1757.000000	64.787602 
1756.000000	64.794349 
1755.000000	64.805006 
1754.000000	64.816212 
1753.000000	64.824724 
1752.000000	64.828085 
1751.000000	64.825296 
1750.000000	64.816880 
1749.000000	64.804577 
1748.000000	64.790821 
1747.000000	64.777898 
1746.000000	64.767575 
1745.000000	64.760637 
1744.000000	64.757180 
1743.000000	64.756560 
1742.000000	64.757919 
1741.000000	64.760661 
1740.000000	64.764094 
1739.000000	64.767765 
1738.000000	64.771127 
1737.000000	64.773607 
1736.000000	64.774560 
1735.000000	64.773583 
1734.000000	64.770698 
1733.000000	64.766526 
1732.000000	64.762353 
1731.000000	64.759659 
1730.000000	64.760065 
1729.000000	64.764714 
1728.000000	64.773702 
1727.000000	64.786052 
1726.000000	64.799761 
1725.000000	64.812350 
1724.000000	64.821434 
1723.000000	64.825367 
1722.000000	64.823818 
1721.000000	64.817810 
1720.000000	64.809632 
1719.000000	64.802122 
1718.000000	64.797878 
1717.000000	64.798712 
1716.000000	64.805030 
1715.000000	64.815926 
1714.000000	64.829468 
1713.000000	64.843177 
1712.000000	64.854955 
1711.000000	64.863419 
1710.000000	64.868450 
1709.000000	64.870929 
1708.000000	64.872598 
1707.000000	64.875388 
1706.000000	64.880776 
1705.000000	64.889383 
1704.000000	64.900541 
1703.000000	64.912676 
1702.000000	64.923405 
1701.000000	64.930272 
1700.000000	64.931035 
1699.000000	64.924550 
1698.000000	64.910769 
1697.000000	64.890933 
1696.000000	64.867186 
1695.000000	64.842271 
1694.000000	64.819121 
1693.000000	64.800333 
1692.000000	64.787578 
1691.000000	64.781379 
1690.000000	64.781117 
1689.000000	64.785194 
1688.000000	64.791369 
1687.000000	64.797258 
1686.000000	64.800858 
1685.000000	64.801025 
1684.000000	64.797687 
1683.000000	64.791893 
1682.000000	64.785504 
1681.000000	64.781045 
1680.000000	64.780616 
1679.000000	64.785861 
1678.000000	64.797377 
1677.000000	64.814591 
1676.000000	64.836072 
1675.000000	64.859652 
1674.000000	64.882969 
1673.000000	64.903879 
1672.000000	64.920806 
1671.000000	64.932751 
1670.000000	64.939260 
1669.000000	64.940285 
1668.000000	64.936017 
1667.000000	64.926815 
1666.000000	64.913177 
1665.000000	64.895844 
1664.000000	64.875936 
1663.000000	64.855051 
1662.000000	64.835071 
1661.000000	64.818096 
1660.000000	64.805960 
1659.000000	64.799785 
1658.000000	64.799809 
1657.000000	64.805197 
1656.000000	64.814209 
1655.000000	64.824581 
1654.000000	64.834141 
1653.000000	64.841198 
1652.000000	64.845013 
1651.000000	64.845728 
1650.000000	64.844512 
1649.000000	64.842820 
1648.000000	64.842152 
1647.000000	64.843463 
1646.000000	64.847111 
1645.000000	64.852643 
1644.000000	64.858913 
1643.000000	64.864611 
1642.000000	64.868259 
1641.000000	64.868855 
1640.000000	64.865732 
1639.000000	64.858889 
1638.000000	64.848685 
1637.000000	64.835715 
1636.000000	64.820742 
1635.000000	64.804577 
1634.000000	64.788222 
1633.000000	64.772725 
1632.000000	64.759182 
1631.000000	64.748716 
1630.000000	64.742207 
1629.000000	64.740252 
1628.000000	64.742779 
1627.000000	64.749121 
1626.000000	64.757943 
1625.000000	64.767694 
1624.000000	64.776515 
1623.000000	64.783167 
1622.000000	64.786744 
1621.000000	64.787101 
1620.000000	64.784908 
1619.000000	64.781379 
1618.000000	64.777922 
1617.000000	64.775681 
1616.000000	64.775228 
1615.000000	64.776372 
1614.000000	64.778494 
1613.000000	64.780592 
1612.000000	64.781641 
1611.000000	64.781117 
1610.000000	64.779186 
1609.000000	64.776396 
1608.000000	64.773631 
1607.000000	64.771842 
1606.000000	64.771556 
1605.000000	64.772796 
1604.000000	64.775085 
1603.000000	64.777708 
1602.000000	64.779829 
1601.000000	64.780759 
1600.000000	64.780306 
1599.000000	64.778757 
1598.000000	64.776730 
1597.000000	64.775037 
1596.000000	64.774203 
1595.000000	64.774513 
1594.000000	64.775729 
1593.000000	64.777135 
1592.000000	64.777922 
1591.000000	64.777231 
1590.000000	64.774656 
1589.000000	64.770364 
1588.000000	64.765024 
1587.000000	64.759778 
1586.000000	64.755821 
1585.000000	64.754033 
1584.000000	64.754676 
1583.000000	64.757251 
1582.000000	64.760732 
1581.000000	64.763641 
1580.000000	64.764666 
1579.000000	64.762735 
1578.000000	64.757347 
1577.000000	64.748644 
1576.000000	64.737391 
1575.000000	64.724922 
1574.000000	64.712977 
1573.000000	64.703512 
1572.000000	64.698171 
1571.000000	64.698266 
1570.000000	64.704203 
1569.000000	64.715528 
1568.000000	64.730739 
1567.000000	64.747810 
1566.000000	64.764595 
1565.000000	64.779424 
1564.000000	64.791274 
1563.000000	64.799928 
1562.000000	64.805912 
1561.000000	64.809942 
1560.000000	64.812850 
1559.000000	64.814925 
1558.000000	64.815902 
1557.000000	64.815163 
1556.000000	64.812088 
1555.000000	64.806342 
1554.000000	64.798116 
1553.000000	64.788532 
1552.000000	64.779353 
1551.000000	64.772701 
1550.000000	64.770364 
1549.000000	64.773297 
1548.000000	64.781260 
1547.000000	64.792561 
1546.000000	64.804577 
1545.000000	64.814186 
1544.000000	64.818620 
1543.000000	64.816141 
1542.000000	64.806485 
1541.000000	64.790892 
1540.000000	64.771771 
1539.000000	64.751839 
1538.000000	64.733695 
1537.000000	64.718937 
1536.000000	64.708447 
1535.000000	64.702272 
1534.000000	64.700055 
1533.000000	64.701247 
1532.000000	64.705586 
1531.000000	64.713025 
1530.000000	64.723610 
1529.000000	64.737105 
1528.000000	64.752769 
1527.000000	64.769101 
1526.000000	64.784073 
1525.000000	64.795422 
1524.000000	64.801144 
1523.000000	64.799809 
1522.000000	64.791107 
1521.000000	64.775991 
1520.000000	64.756417 
1519.000000	64.734935 
1518.000000	64.714360 
1517.000000	64.697170 
1516.000000	64.685463 
1515.000000	64.680552 
1514.000000	64.682936 
1513.000000	64.692091 
1512.000000	64.706754 
1511.000000	64.724898 
1510.000000	64.744067 
1509.000000	64.761662 
1508.000000	64.775300 
1507.000000	64.783382 
1506.000000	64.785337 
1505.000000	64.781737 
1504.000000	64.774298 
1503.000000	64.765381 
1502.000000	64.757609 
1501.000000	64.753341 
1500.000000	64.754128 
1499.000000	64.760375 
1498.000000	64.771389 
1497.000000	64.785480 
1496.000000	64.800405 
1495.000000	64.813780 
1494.000000	64.823555 
1493.000000	64.827847 
1492.000000	64.825558 
1491.000000	64.816236 
1490.000000	64.800381 
1489.000000	64.779090 
1488.000000	64.754080 
1487.000000	64.727926 
1486.000000	64.703440 
1485.000000	64.683413 
1484.000000	64.670014 
1483.000000	64.664459 
1482.000000	64.666533 
1481.000000	64.674878 
1480.000000	64.686846 
1479.000000	64.699101 
1478.000000	64.708256 
1477.000000	64.711642 
1476.000000	64.707756 
1475.000000	64.696526 
1474.000000	64.679098 
1473.000000	64.657759 
1472.000000	64.635372 
1471.000000	64.615011 
1470.000000	64.599585 
1469.000000	64.591670 
1468.000000	64.593315 
1467.000000	64.606070 
1466.000000	64.631009 
1465.000000	64.668273 
1464.000000	64.716958 
1463.000000	64.774537 
1462.000000	64.837431 
1461.000000	64.900541 
1460.000000	64.958190 
1459.000000	65.004181 
1458.000000	65.033149 
1457.000000	65.040993 
1456.000000	65.026426 
1455.000000	64.990806 
1454.000000	64.938497 
1453.000000	64.876127 
1452.000000	64.811921 
1451.000000	64.753913 
1450.000000	64.708733 
1449.000000	64.680480 
1448.000000	64.670515 
1447.000000	64.677548 
1446.000000	64.698386 
1445.000000	64.728808 
1444.000000	64.764308 
1443.000000	64.800643 
1442.000000	64.834308 
1441.000000	64.862203 
1440.000000	64.881896 
1439.000000	64.891767 
1438.000000	64.890933 
1437.000000	64.879727 
1436.000000	64.859342 
1435.000000	64.832401 
1434.000000	64.802098 
1433.000000	64.772152 
1432.000000	64.745855 
1431.000000	64.725947 
1430.000000	64.713740 
1429.000000	64.709162 
1428.000000	64.711141 
1427.000000	64.717841 
1426.000000	64.727473 
1425.000000	64.738416 
1424.000000	64.749646 
1423.000000	64.760780 
1422.000000	64.771890 
1421.000000	64.783096 
1420.000000	64.794230 
1419.000000	64.804482 
1418.000000	64.812612 
1417.000000	64.817214 
1416.000000	64.816832 
1415.000000	64.810466 
1414.000000	64.797782 
1413.000000	64.779329 
1412.000000	64.756846 
1411.000000	64.732861 
1410.000000	64.710330 
1409.000000	64.691996 
1408.000000	64.680314 
1407.000000	64.676642 
1406.000000	64.681267 
1405.000000	64.693117 
1404.000000	64.710021 
1403.000000	64.729166 
1402.000000	64.747524 
1401.000000	64.762401 
1400.000000	64.771986 
1399.000000	64.775443 
1398.000000	64.773058 
1397.000000	64.766001 
1396.000000	64.755916 
1395.000000	64.744448 
1394.000000	64.732837 
1393.000000	64.722156 
1392.000000	64.712953 
1391.000000	64.705610 
1390.000000	64.700365 
1389.000000	64.697313 
1388.000000	64.696717 
1387.000000	64.698600 
1386.000000	64.702773 
1385.000000	64.708733 
1384.000000	64.715695 
1383.000000	64.722871 
1382.000000	64.729285 
1381.000000	64.734292 
1380.000000	64.737367 
1379.000000	64.738678 
1378.000000	64.738559 
1377.000000	64.737534 
1376.000000	64.735889 
1375.000000	64.733839 
1374.000000	64.731287 
1373.000000	64.727878 
1372.000000	64.723062 
1371.000000	64.716458 
1370.000000	64.707994 
1369.000000	64.698123 
1368.000000	64.687633 
1367.000000	64.677619 
1366.000000	64.669322 
1365.000000	64.663863 
1364.000000	64.661955 
1363.000000	64.663672 
1362.000000	64.668369 
1361.000000	64.674878 
1360.000000	64.681649 
1359.000000	64.687204 
1358.000000	64.690375 
1357.000000	64.690899 
1356.000000	64.689135 
1355.000000	64.686655 
1354.000000	64.685630 
1353.000000	64.688754 
1352.000000	64.698195 
1351.000000	64.715480 
1350.000000	64.740848 
1349.000000	64.773058 
1348.000000	64.809656 
1347.000000	64.847159 
1346.000000	64.881873 
1345.000000	64.910531 
1344.000000	64.930915 
1343.000000	64.941954 
1342.000000	64.943838 
1341.000000	64.937663 
1340.000000	64.925098 
1339.000000	64.907884 
1338.000000	64.887690 
1337.000000	64.865899 
1336.000000	64.843535 
1335.000000	64.821290 
1334.000000	64.799666 
1333.000000	64.779090 
1332.000000	64.760112 
1331.000000	64.743161 
1330.000000	64.728665 
1329.000000	64.716958 
1328.000000	64.708232 
1327.000000	64.702200 
1326.000000	64.698553 
1325.000000	64.696788 
1324.000000	64.696311 
1323.000000	64.696764 
1322.000000	64.697885 
1321.000000	64.699602 
1320.000000	64.701724 
1319.000000	64.704060 
1318.000000	64.706039 
1317.000000	64.706778 
1316.000000	64.705181 
1315.000000	64.700293 
1314.000000	64.691591 
1313.000000	64.678812 
1312.000000	64.662742 
1311.000000	64.645075 
1310.000000	64.627981 
1309.000000	64.613842 
1308.000000	64.604616 
1307.000000	64.601492 
1306.000000	64.604663 
1305.000000	64.613556 
1304.000000	64.627122 
1303.000000	64.644169 
1302.000000	64.663887 
1301.000000	64.685726 
1300.000000	64.709329 
1299.000000	64.734292 
1298.000000	64.759755 
1297.000000	64.784455 
1296.000000	64.806580 
1295.000000	64.824128 
1294.000000	64.835691 
1293.000000	64.840078 
1292.000000	64.837074 
1291.000000	64.826965 
1290.000000	64.810895 
1289.000000	64.790034 
1288.000000	64.765739 
1287.000000	64.738988 
1286.000000	64.710712 
1285.000000	64.681673 
1284.000000	64.652895 
1283.000000	64.625549 
1282.000000	64.601206 
1281.000000	64.581251 
1280.000000	64.566707 
1279.000000	64.557957 
1278.000000	64.554452 
1277.000000	64.554595 
1276.000000	64.556455 
1275.000000	64.557766 
1274.000000	64.557003 
1273.000000	64.553403 
1272.000000	64.547634 
1271.000000	64.541220 
1270.000000	64.536333 
1269.000000	64.535188 
1268.000000	64.539480 
1267.000000	64.549756 
1266.000000	64.565157 
1265.000000	64.583539 
1264.000000	64.601755 
1263.000000	64.616465 
1262.000000	64.624691 
1261.000000	64.624524 
1260.000000	64.615488 
1259.000000	64.598679 
1258.000000	64.576554 
1257.000000	64.552474 
1256.000000	64.530134 
1255.000000	64.512872 
1254.000000	64.502930 
1253.000000	64.501214 
1252.000000	64.507102 
1251.000000	64.518737 
1250.000000	64.533209 
1249.000000	64.547324 
1248.000000	64.558267 
1247.000000	64.564323 
1246.000000	64.565014 
1245.000000	64.561486 
1244.000000	64.555978 
1243.000000	64.551472 
1242.000000	64.550876 
1241.000000	64.556407 
1240.000000	64.568996 
1239.000000	64.588236 
1238.000000	64.612293 
1237.000000	64.638233 
1236.000000	64.662909 
1235.000000	64.683246 
1234.000000	64.696955 
1233.000000	64.702630 
1232.000000	64.699935 
1231.000000	64.689564 
1230.000000	64.673066 
1229.000000	64.652419 
1228.000000	64.629840 
1227.000000	64.607477 
1226.000000	64.587402 
1225.000000	64.571356 
1224.000000	64.560699 
1223.000000	64.556217 
1222.000000	64.558243 
1221.000000	64.566254 
1220.000000	64.579272 
1219.000000	64.595794 
1218.000000	64.614295 
1217.000000	64.632964 
1216.000000	64.650630 
1215.000000	64.666485 
1214.000000	64.680552 
1213.000000	64.693236 
1212.000000	64.705300 
1211.000000	64.717555 
1210.000000	64.730501 
1209.000000	64.744114 
1208.000000	64.757680 
1207.000000	64.769983 
1206.000000	64.779376 
1205.000000	64.784264 
1204.000000	64.783453 
1203.000000	64.776444 
1202.000000	64.763617 
1201.000000	64.746284 
1200.000000	64.726376 
1199.000000	64.706134 
1198.000000	64.687776 
1197.000000	64.672899 
1196.000000	64.662337 
1195.000000	64.655780 
1194.000000	64.652204 
1193.000000	64.650106 
1192.000000	64.648008 
1191.000000	64.644908 
1190.000000	64.640259 
1189.000000	64.634299 
1188.000000	64.627528 
1187.000000	64.620518 
1186.000000	64.613366 
1185.000000	64.605879 
1184.000000	64.597415 
1183.000000	64.587163 
1182.000000	64.574551 
1181.000000	64.559674 
1180.000000	64.543414 
1179.000000	64.527440 
1178.000000	64.513707 
1177.000000	64.504170 
1176.000000	64.500141 
1175.000000	64.501690 
1174.000000	64.507627 
1173.000000	64.515995 
1172.000000	64.524602 
1171.000000	64.531469 
1170.000000	64.535474 
1169.000000	64.536404 
1168.000000	64.535164 
1167.000000	64.533185 
1166.000000	64.532136 
1165.000000	64.533400 
1164.000000	64.537787 
1163.000000	64.545202 
1162.000000	64.554953 
1161.000000	64.565491 
1160.000000	64.575242 
1159.000000	64.582657 
1158.000000	64.587092 
1157.000000	64.588785 
1156.000000	64.588856 
1155.000000	64.589047 
1154.000000	64.590644 
1153.000000	64.594173 
1152.000000	64.598536 
1151.000000	64.601492 
1150.000000	64.599776 
1149.000000	64.590239 
1148.000000	64.570689 
1147.000000	64.540934 
1146.000000	64.502787 
1145.000000	64.460110 
1144.000000	64.417862 
1143.000000	64.381217 
1142.000000	64.354276 
1141.000000	64.339518 
1140.000000	64.337038 
1139.000000	64.344811 
1138.000000	64.359521 
1137.000000	64.377427 
1136.000000	64.395046 
1135.000000	64.410066 
1134.000000	64.421224 
1133.000000	64.428758 
1132.000000	64.433360 
1131.000000	64.436364 
1130.000000	64.438748 
1129.000000	64.441204 
1128.000000	64.443874 
1127.000000	64.446544 
1126.000000	64.448833 
1125.000000	64.450407 
1124.000000	64.451217 
1123.000000	64.451718 
1122.000000	64.452838 
1121.000000	64.455723 
1120.000000	64.461326 
1119.000000	64.470314 
1118.000000	64.482498 
1117.000000	64.496922 
1116.000000	64.511680 
1115.000000	64.524245 
1114.000000	64.532041 
1113.000000	64.532923 
1112.000000	64.525985 
1111.000000	64.511346 
1110.000000	64.490723 
1109.000000	64.467096 
1108.000000	64.444327 
1107.000000	64.426445 
1106.000000	64.416837 
1105.000000	64.417719 
1104.000000	64.429259 
1103.000000	64.449882 
1102.000000	64.476084 
1101.000000	64.503192 
1100.000000	64.526128 
1099.000000	64.540553 
1098.000000	64.543557 
1097.000000	64.533996 
1096.000000	64.512777 
1095.000000	64.482450 
1094.000000	64.446616 
1093.000000	64.409375 
1092.000000	64.374828 
1091.000000	64.346408 
1090.000000	64.326763 
1089.000000	64.317369 
1088.000000	64.318323 
1087.000000	64.328694 
1086.000000	64.346194 
1085.000000	64.368247 
1084.000000	64.391875 
1083.000000	64.414739 
1082.000000	64.435100 
1081.000000	64.452147 
1080.000000	64.466023 
1079.000000	64.477300 
1078.000000	64.486837 
1077.000000	64.494705 
1076.000000	64.500284 
1075.000000	64.501976 
1074.000000	64.497852 
1073.000000	64.486312 
1072.000000	64.466881 
1071.000000	64.440464 
1070.000000	64.409899 
1069.000000	64.379119 
1068.000000	64.352607 
1067.000000	64.334177 
1066.000000	64.326024 
1065.000000	64.328241 
1064.000000	64.338779 
1063.000000	64.354062 
1062.000000	64.369940 
1061.000000	64.382433 
1060.000000	64.388680 
1059.000000	64.387345 
1058.000000	64.378881 
1057.000000	64.365100 
1056.000000	64.348673 
1055.000000	64.332246 
1054.000000	64.318132 
1053.000000	64.308190 
1052.000000	64.303326 
1051.000000	64.303970 
1050.000000	64.309597 
1049.000000	64.319324 
1048.000000	64.331555 
1047.000000	64.344406 
1046.000000	64.355969 
1045.000000	64.364457 
1044.000000	64.368700 
1043.000000	64.368319 
1042.000000	64.363837 
1041.000000	64.356684 
1040.000000	64.348983 
1039.000000	64.343166 
1038.000000	64.341449 
1037.000000	64.345431 
1036.000000	64.355731 
1035.000000	64.371538 
1034.000000	64.390826 
1033.000000	64.410305 
1032.000000	64.426112 
1031.000000	64.434647 
1030.000000	64.432930 
1029.000000	64.419674 
1028.000000	64.395308 
1027.000000	64.362120 
1026.000000	64.324069 
1025.000000	64.285802 
1024.000000	64.252161 
1023.000000	64.227104 
1022.000000	64.212942 
1021.000000	64.210009 
1020.000000	64.216732 
1019.000000	64.230370 
1018.000000	64.247608 
1017.000000	64.265251 
1016.000000	64.280724 
1015.000000	64.292502 
1014.000000	64.299750 
1013.000000	64.302396 
1012.000000	64.300513 
1011.000000	64.294242 
1010.000000	64.283728 
1009.000000	64.269328 
1008.000000	64.251732 
1007.000000	64.232158 
1006.000000	64.212322 
1005.000000	64.194297 
1004.000000	64.180207 
1003.000000	64.171862 
1002.000000	64.170479 
1001.000000	64.176225 
1000.000000	64.188337 
999.000000	 64.205169 
998.000000	 64.224505 
997.000000	 64.244055 
996.000000	 64.261317 
995.000000	 64.273667 
994.000000	 64.278841 
993.000000	 64.275240 
992.000000	 64.262199 
991.000000	 64.240074 
990.000000	 64.210677 
989.000000	 64.177131 
988.000000	 64.143610 
987.000000	 64.114689 
986.000000	 64.094495 
985.000000	 64.085817 
984.000000	 64.089632 
983.000000	 64.104580 
982.000000	 64.127182 
981.000000	 64.152336 
980.000000	 64.174151 
979.000000	 64.187335 
978.000000	 64.187955 
977.000000	 64.174604 
976.000000	 64.147925 
975.000000	 64.111399 
974.000000	 64.069914 
973.000000	 64.029908 
972.000000	 63.998126 
971.000000	 63.980698 
970.000000	 63.982129 
969.000000	 64.004230 
968.000000	 64.045786 
967.000000	 64.102506 
966.000000	 64.167666 
965.000000	 64.233350 
964.000000	 64.292120 
963.000000	 64.337968 
962.000000	 64.367651 
961.000000	 64.380383 
960.000000	 64.377379 
959.000000	 64.361500 
958.000000	 64.336180 
957.000000	 64.304900 
956.000000	 64.270687 
955.000000	 64.236664 
954.000000	 64.205837 
953.000000	 64.180898 
952.000000	 64.164113 
951.000000	 64.157056 
950.000000	 64.160060 
949.000000	 64.171767 
948.000000	 64.189028 
947.000000	 64.207196 
946.000000	 64.221167 
945.000000	 64.226531 
944.000000	 64.220905 
943.000000	 64.204287 
942.000000	 64.179515 
941.000000	 64.151525 
940.000000	 64.126372 
939.000000	 64.109492 
938.000000	 64.104604 
937.000000	 64.112949 
936.000000	 64.132857 
935.000000	 64.160227 
934.000000	 64.189910 
933.000000	 64.217042 
932.000000	 64.237999 
931.000000	 64.251303 
930.000000	 64.257860 
929.000000	 64.260697 
928.000000	 64.264035 
927.000000	 64.272046 
926.000000	 64.287853 
925.000000	 64.312505 
924.000000	 64.345169 
923.000000	 64.382505 
922.000000	 64.420151 
921.000000	 64.452719 
920.000000	 64.475393 
919.000000	 64.484238 
918.000000	 64.477419 
917.000000	 64.454913 
916.000000	 64.418888 
915.000000	 64.372849 
914.000000	 64.321017 
913.000000	 64.267539 
912.000000	 64.216327 
911.000000	 64.170002 
910.000000	 64.129781 
909.000000	 64.095926 
908.000000	 64.068436 
907.000000	 64.047288 
906.000000	 64.032816 
905.000000	 64.026165 
904.000000	 64.028716 
903.000000	 64.041423 
902.000000	 64.063906 
901.000000	 64.093732 
900.000000	 64.126110 
899.000000	 64.154720 
898.000000	 64.172482 
897.000000	 64.172482 
896.000000	 64.149928 
895.000000	 64.103388 
894.000000	 64.035797 
893.000000	 63.953137 
892.000000	 63.864779 
891.000000	 63.781523 
890.000000	 63.714265 
889.000000	 63.671708 
888.000000	 63.659620 
887.000000	 63.679957 
886.000000	 63.731098 
885.000000	 63.808131 
884.000000	 63.903999 
883.000000	 64.009976 
882.000000	 64.117693 
881.000000	 64.220142 
880.000000	 64.312458 
879.000000	 64.391636 
878.000000	 64.457154 
877.000000	 64.509868 
876.000000	 64.551067 
875.000000	 64.581036 
874.000000	 64.599013 
873.000000	 64.602255 
872.000000	 64.587068 
871.000000	 64.549231 
870.000000	 64.486312 
869.000000	 64.398121 
868.000000	 64.287614 
867.000000	 64.160847 
866.000000	 64.026451 
865.000000	 63.894510 
864.000000	 63.774561 
863.000000	 63.675141 
862.000000	 63.601422 
861.000000	 63.556766 
860.000000	 63.541579 
859.000000	 63.555526 
858.000000	 63.596510 
857.000000	 63.662743 
856.000000	 63.751959 
855.000000	 63.860821 
854.000000	 63.983726 
853.000000	 64.112472 
852.000000	 64.236259 
851.000000	 64.342236 
850.000000	 64.417386 
849.000000	 64.451837 
848.000000	 64.441370 
847.000000	 64.388775 
846.000000	 64.303755 
845.000000	 64.201903 
844.000000	 64.101052 
843.000000	 64.018392 
842.000000	 63.966059 
841.000000	 63.949894 
840.000000	 63.967323 
839.000000	 64.010214 
838.000000	 64.065146 
837.000000	 64.117240 
836.000000	 64.152908 
835.000000	 64.162802 
834.000000	 64.143347 
833.000000	 64.095759 
832.000000	 64.026308 
831.000000	 63.943791 
830.000000	 63.858199 
829.000000	 63.778686 
828.000000	 63.711929 
827.000000	 63.661527 
826.000000	 63.627433 
825.000000	 63.607001 
824.000000	 63.595223 
823.000000	 63.586378 
822.000000	 63.575577 
821.000000	 63.559770 
820.000000	 63.537693 
819.000000	 63.510179 
818.000000	 63.478946 
817.000000	 63.446760 
816.000000	 63.415813 
815.000000	 63.388609 
814.000000	 63.367605 
813.000000	 63.355779 
812.000000	 63.357162 
811.000000	 63.375353 
810.000000	 63.412785 
809.000000	 63.468551 
808.000000	 63.538765 
807.000000	 63.614869 
806.000000	 63.684988 
805.000000	 63.735747 
804.000000	 63.754987 
803.000000	 63.735103 
802.000000	 63.674902 
801.000000	 63.581061 
800.000000	 63.467192 
799.000000	 63.350796 
798.000000	 63.249492 
797.000000	 63.177680 
796.000000	 63.143587 
795.000000	 63.148164 
794.000000	 63.185381 
793.000000	 63.244724 
792.000000	 63.313817 
791.000000	 63.381147 
790.000000	 63.438749 
789.000000	 63.482165 
788.000000	 63.511323 
787.000000	 63.528966 
786.000000	 63.539719 
785.000000	 63.548040 
784.000000	 63.557577 
783.000000	 63.570261 
782.000000	 63.586425 
781.000000	 63.605809 
780.000000	 63.627195 
779.000000	 63.649392 
778.000000	 63.671183 
777.000000	 63.691592 
776.000000	 63.709759 
775.000000	 63.724946 
774.000000	 63.736200 
773.000000	 63.742446 
772.000000	 63.742661 
771.000000	 63.736128 
770.000000	 63.722491 
769.000000	 63.701963 
768.000000	 63.675284 
767.000000	 63.643789 
766.000000	 63.609385 
765.000000	 63.574242 
764.000000	 63.540196 
763.000000	 63.508725 
762.000000	 63.480234 
761.000000	 63.454842 
760.000000	 63.432383 
759.000000	 63.413429 
758.000000	 63.398337 
757.000000	 63.388538 
756.000000	 63.386082 
755.000000	 63.393592 
754.000000	 63.413143 
753.000000	 63.445758 
752.000000	 63.490772 
751.000000	 63.545131 
750.000000	 63.604021 
749.000000	 63.660502 
748.000000	 63.706660 
747.000000	 63.735032 
746.000000	 63.739967 
745.000000	 63.719034 
744.000000	 63.673639 
743.000000	 63.608860 
742.000000	 63.532567 
741.000000	 63.453912 
740.000000	 63.381528 
739.000000	 63.321709 
738.000000	 63.277578 
737.000000	 63.248872 
736.000000	 63.232612 
735.000000	 63.224029 
734.000000	 63.218355 
733.000000	 63.211703 
732.000000	 63.202595 
731.000000	 63.190793 
730.000000	 63.178634 
729.000000	 63.168859 
728.000000	 63.165283 
727.000000	 63.170528 
726.000000	 63.187074 
725.000000	 63.216423 
724.000000	 63.259124 
723.000000	 63.314652 
722.000000	 63.380646 
721.000000	 63.453054 
720.000000	 63.525795 
719.000000	 63.591337 
718.000000	 63.641691 
717.000000	 63.670158 
716.000000	 63.672232 
715.000000	 63.646817 
714.000000	 63.596105 
713.000000	 63.525271 
712.000000	 63.441658 
711.000000	 63.352823 
710.000000	 63.265776 
709.000000	 63.185238 
708.000000	 63.113951 
707.000000	 63.052439 
706.000000	 62.999629 
705.000000	 62.953662 
704.000000	 62.912845 
703.000000	 62.876272 
702.000000	 62.843298 
701.000000	 62.814259 
700.000000	 62.789225 
699.000000	 62.768983 
698.000000	 62.754034 
697.000000	 62.745022 
696.000000	 62.741899 
695.000000	 62.744021 
694.000000	 62.749671 
693.000000	 62.756371 
692.000000	 62.760949 
691.000000	 62.760925 
690.000000	 62.755155 
689.000000	 62.744021 
688.000000	 62.729096 
687.000000	 62.712883 
686.000000	 62.697887 
685.000000	 62.685060 
684.000000	 62.673878 
683.000000	 62.662577 
682.000000	 62.649130 
681.000000	 62.632393 
680.000000	 62.613201 
679.000000	 62.594366 
678.000000	 62.580299 
677.000000	 62.576675 
676.000000	 62.588095 
675.000000	 62.616205 
674.000000	 62.659287 
673.000000	 62.711596 
672.000000	 62.765288 
671.000000	 62.812066 
670.000000	 62.845373 
669.000000	 62.861990 
668.000000	 62.862229 
667.000000	 62.849378 
666.000000	 62.828230 
665.000000	 62.803530 
664.000000	 62.778019 
663.000000	 62.751650 
662.000000	 62.722015 
661.000000	 62.685394 
660.000000	 62.637615 
659.000000	 62.576198 
658.000000	 62.501096 
657.000000	 62.415933 
656.000000	 62.327361 
655.000000	 62.244534 
654.000000	 62.177085 
653.000000	 62.133240 
652.000000	 62.118148 
651.000000	 62.132000 
650.000000	 62.170481 
649.000000	 62.224245 
648.000000	 62.280678 
647.000000	 62.326240 
646.000000	 62.348389 
645.000000	 62.339067 
644.000000	 62.295746 
643.000000	 62.223076 
642.000000	 62.130999 
641.000000	 62.034106 
640.000000	 61.948013 
639.000000	 61.886620 
638.000000	 61.859297 
637.000000	 61.869478 
636.000000	 61.914443 
635.000000	 61.986041 
634.000000	 62.073135 
633.000000	 62.162995 
632.000000	 62.244033 
631.000000	 62.307119 
630.000000	 62.347412 
629.000000	 62.364172 
628.000000	 62.360787 
627.000000	 62.343621 
626.000000	 62.320256 
625.000000	 62.298393 
624.000000	 62.283563 
623.000000	 62.279391 
622.000000	 62.285852 
621.000000	 62.300419 
620.000000	 62.317991 
619.000000	 62.332797 
618.000000	 62.339210 
617.000000	 62.332820 
616.000000	 62.311768 
615.000000	 62.276768 
614.000000	 62.232232 
613.000000	 62.185096 
612.000000	 62.143945 
611.000000	 62.117218 
610.000000	 62.110900 
609.000000	 62.127256 
608.000000	 62.164115 
607.000000	 62.215280 
606.000000	 62.271833 
605.000000	 62.323975 
604.000000	 62.363386 
603.000000	 62.384438 
602.000000	 62.385153 
601.000000	 62.366986 
600.000000	 62.333226 
599.000000	 62.288331 
598.000000	 62.237334 
597.000000	 62.184882 
596.000000	 62.135076 
595.000000	 62.090969 
594.000000	 62.054944 
593.000000	 62.028646 
592.000000	 62.013077 
591.000000	 62.008500 
590.000000	 62.014389 
589.000000	 62.029147 
588.000000	 62.049889 
587.000000	 62.072515 
586.000000	 62.091994 
585.000000	 62.103629 
584.000000	 62.103605 
583.000000	 62.090826 
582.000000	 62.067246 
581.000000	 62.037682 
580.000000	 62.008643 
579.000000	 61.986470 
578.000000	 61.975312 
577.000000	 61.975455 
576.000000	 61.983227 
575.000000	 61.992073 
574.000000	 61.994600 
573.000000	 61.984205 
572.000000	 61.957311 
571.000000	 61.914896 
570.000000	 61.862039 
569.000000	 61.806035 
568.000000	 61.754870 
567.000000	 61.714935 
566.000000	 61.689662 
565.000000	 61.678600 
564.000000	 61.678338 
563.000000	 61.683535 
562.000000	 61.688852 
561.000000	 61.690759 
560.000000	 61.687827 
559.000000	 61.680841 
558.000000	 61.671757 
557.000000	 61.662507 
556.000000	 61.653470 
555.000000	 61.642599 
554.000000	 61.626219 
553.000000	 61.599898 
552.000000	 61.559581 
551.000000	 61.503124 
550.000000	 61.431241 
549.000000	 61.347389 
548.000000	 61.256551 
547.000000	 61.163949 
546.000000	 61.073493 
545.000000	 60.986971 
544.000000	 60.904335 
543.000000	 60.824203 
542.000000	 60.745024 
541.000000	 60.666370 
540.000000	 60.588860 
539.000000	 60.515379 
538.000000	 60.449409 
537.000000	 60.395741 
536.000000	 60.357999 
535.000000	 60.339379 
534.000000	 60.340476 
533.000000	 60.360884 
532.000000	 60.398602 
531.000000	 60.451126 
530.000000	 60.515213 
529.000000	 60.588240 
528.000000	 60.668039 
527.000000	 60.752487 
526.000000	 60.838866 
525.000000	 60.923099 
524.000000	 60.999345 
523.000000	 61.060118 
522.000000	 61.097216 
521.000000	 61.103415 
520.000000	 61.074423 
519.000000	 61.009955 
518.000000	 60.915064 
517.000000	 60.800576 
516.000000	 60.681486 
515.000000	 60.575270 
514.000000	 60.497379 
513.000000	 60.458636 
512.000000	 60.461878 
511.000000	 60.502409 
510.000000	 60.567808 
509.000000	 60.641002 
508.000000	 60.703563 
507.000000	 60.739541 
506.000000	 60.739159 
505.000000	 60.699939 
504.000000	 60.627651 
503.000000	 60.533618 
502.000000	 60.433030 
501.000000	 60.340785 
500.000000	 60.268545 
499.000000	 60.221719 
498.000000	 60.197854 
497.000000	 60.186791 
496.000000	 60.172867 
495.000000	 60.138773 
494.000000	 60.068655 
493.000000	 59.953260 
492.000000	 59.791636 
491.000000	 59.593486 
490.000000	 59.377193 
489.000000	 59.167170 
488.000000	 58.988428 
487.000000	 58.861231 
486.000000	 58.797335 
485.000000	 58.796477 
484.000000	 58.846569 
483.000000	 58.926463 
482.000000	 59.011411 
481.000000	 59.078240 
480.000000	 59.108924 
479.000000	 59.095835 
478.000000	 59.041571 
477.000000	 58.958125 
476.000000	 58.861327 
475.000000	 58.769345 
474.000000	 58.697700 
473.000000	 58.657789 
472.000000	 58.655214 
471.000000	 58.689546 
470.000000	 58.755445 
469.000000	 58.845376 
468.000000	 58.951115 
467.000000	 59.064531 
466.000000	 59.177923 
465.000000	 59.284400 
464.000000	 59.376740 
463.000000	 59.447431 
462.000000	 59.487962 
461.000000	 59.491348 
460.000000	 59.451007 
459.000000	 59.364652 
458.000000	 59.231662 
457.000000	 59.057188 
456.000000	 58.847594 
455.000000	 58.611869 
454.000000	 58.358597 
453.000000	 58.095765 
452.000000	 57.831978 
451.000000	 57.576751 
450.000000	 57.342028 
449.000000	 57.140707 
448.000000	 56.988215 
447.000000	 56.899642 
446.000000	 56.886792 
445.000000	 56.954455 
444.000000	 57.096791 
443.000000	 57.296562 
442.000000	 57.526636 
441.000000	 57.754826 
440.000000	 57.949423 
439.000000	 58.085298 
438.000000	 58.150434 
437.000000	 58.145499 
436.000000	 58.081293 
435.000000	 57.974028 
434.000000	 57.841825 
433.000000	 57.698297 
432.000000	 57.554316 
431.000000	 57.411980 
430.000000	 57.268214 
429.000000	 57.114911 
428.000000	 56.946539 
427.000000	 56.759548 
426.000000	 56.553554 
425.000000	 56.335210 
424.000000	 56.116056 
423.000000	 55.914425 
422.000000	 55.751442 
421.000000	 55.646204 
420.000000	 55.610275 
419.000000	 55.646920 
418.000000	 55.750393 
417.000000	 55.904269 
416.000000	 56.086683 
415.000000	 56.277322 
414.000000	 56.464624 
413.000000	 56.647086 
412.000000	 56.833338 
411.000000	 57.046890 
410.000000	 57.308506 
409.000000	 57.626914 
408.000000	 57.982587 
407.000000	 58.337116 
406.000000	 58.623147 
405.000000	 58.762025 
404.000000	 58.676171 
403.000000	 58.308529 
402.000000	 57.644891 
401.000000	 56.723618 
400.000000	 55.637907 
399.000000	 54.523611 
398.000000	 53.530216 
397.000000	 52.782344 
396.000000	 52.371263 
395.000000	 52.341842 
394.000000	 52.675199 
393.000000	 53.293704 
392.000000	 54.090881 
391.000000	 54.954147 
390.000000	 55.796599 
389.000000	 56.580829 
388.000000	 57.261037 
387.000000	 57.810997 
386.000000	 58.284163 
385.000000	 58.783912 
384.000000	 59.456443 
383.000000	 60.414242 
382.000000	 61.692905 
381.000000	 63.215494 
380.000000	 64.751720 
379.000000	 66.020131 
378.000000	 66.799664 
377.000000	 66.958975 
376.000000	 66.606283 
375.000000	 65.925693 
374.000000	 64.994740 
373.000000	 63.937854 
372.000000	 62.781572 
371.000000	 61.745667 
370.000000	 61.288595 

