PE IR       SPECTRUM    SPECTRUM    ASCII       PEDS        1.60        
  -1
C-99EF~1.ASC
17/05/02
11:23:29.00
17/05/02
11:23:29.00
tln
$C-4040-8_t0007$<tbV0>[12.5,-8.0,8.0,0.0,22,1,0]
370.000000
64









2002,4.07    
MIRTGS : RIGHTBACK : INTERNAL 2
MIR : ON : INTERNAL 2
OPTKBR

0.200000
8
8.000000
FILLER
RATIO
SPECTRUM
UNLOCKED 256

DOUBLE
64
COMBINED
1
0
0


1.000000
RATIO


1
0
TRUE
51149
0
LEFT NOT FITTED RIGHT NOT FITTED 0
NONE
NONE
15600
12.000000
4.427000
51148
TRUE
1 0 8 72 0 0 0 0 

15798.010000






#HDR
-1
-1
#GR
CM-1
%T
0.00002384185791015625
0.0
7800.000000
-1.000000
7431
8
94.191813
48.735189
#DATA
7800.000000	68.295025 
7799.000000	67.000579 
7798.000000	65.842604 
7797.000000	64.792895 
7796.000000	63.843011 
7795.000000	63.012790 
7794.000000	62.345886 
7793.000000	61.892127 
7792.000000	61.706686 
7791.000000	61.826133 
7790.000000	62.263679 
7789.000000	62.991118 
7788.000000	63.925743 
7787.000000	64.938092 
7786.000000	65.865516 
7785.000000	66.549491 
7784.000000	66.859054 
7783.000000	66.736912 
7782.000000	66.204166 
7781.000000	65.378904 
7780.000000	64.445328 
7779.000000	63.630366 
7778.000000	63.147044 
7777.000000	63.159346 
7776.000000	63.757014 
7775.000000	64.920186 
7774.000000	66.545224 
7773.000000	68.427348 
7772.000000	70.302844 
7771.000000	71.895289 
7770.000000	72.970843 
7769.000000	73.385882 
7768.000000	73.110461 
7767.000000	72.248029 
7766.000000	71.008968 
7765.000000	69.665145 
7764.000000	68.488669 
7763.000000	67.699050 
7762.000000	67.419123 
7761.000000	67.669796 
7760.000000	68.372583 
7759.000000	69.381713 
7758.000000	70.521044 
7757.000000	71.628260 
7756.000000	72.588109 
7755.000000	73.320937 
7754.000000	73.814034 
7753.000000	74.103903 
7752.000000	74.268484 
7751.000000	74.390292 
7750.000000	74.545145 
7749.000000	74.786019 
7748.000000	75.131845 
7747.000000	75.579023 
7746.000000	76.094365 
7745.000000	76.637721 
7744.000000	77.157807 
7743.000000	77.611088 
7742.000000	77.953147 
7741.000000	78.148031 
7740.000000	78.161096 
7739.000000	77.962517 
7738.000000	77.545118 
7737.000000	76.923489 
7736.000000	76.138615 
7735.000000	75.240588 
7734.000000	74.274206 
7733.000000	73.259210 
7732.000000	72.188043 
7731.000000	71.026539 
7730.000000	69.730639 
7729.000000	68.268632 
7728.000000	66.638135 
7727.000000	64.887642 
7726.000000	63.109564 
7725.000000	61.441349 
7724.000000	60.017275 
7723.000000	58.969616 
7722.000000	58.390998 
7721.000000	58.323001 
7720.000000	58.738350 
7719.000000	59.545302 
7718.000000	60.595154 
7717.000000	61.711573 
7716.000000	62.714242 
7715.000000	63.457822 
7714.000000	63.849472 
7713.000000	63.870000 
7712.000000	63.566637 
7711.000000	63.039922 
7710.000000	62.411832 
7709.000000	61.804914 
7708.000000	61.309194 
7707.000000	60.962677 
7706.000000	60.745406 
7705.000000	60.602283 
7704.000000	60.460376 
7703.000000	60.249972 
7702.000000	59.931659 
7701.000000	59.512090 
7700.000000	59.043860 
7699.000000	58.594465 
7698.000000	58.244514 
7697.000000	58.053493 
7696.000000	58.061146 
7695.000000	58.269214 
7694.000000	58.656406 
7693.000000	59.186148 
7692.000000	59.815263 
7691.000000	60.499572 
7690.000000	61.203241 
7689.000000	61.896729 
7688.000000	62.561988 
7687.000000	63.186669 
7686.000000	63.766932 
7685.000000	64.302444 
7684.000000	64.799880 
7683.000000	65.269374 
7682.000000	65.723657 
7681.000000	66.174030 
7680.000000	66.629981 
7679.000000	67.095327 
7678.000000	67.568874 
7677.000000	68.042206 
7676.000000	68.506002 
7675.000000	68.944454 
7674.000000	69.351720 
7673.000000	69.714283 
7672.000000	70.013833 
7671.000000	70.220875 
7670.000000	70.308089 
7669.000000	70.246434 
7668.000000	70.016074 
7667.000000	69.613218 
7666.000000	69.060492 
7665.000000	68.404459 
7664.000000	67.711186 
7663.000000	67.059135 
7662.000000	66.522455 
7661.000000	66.171312 
7660.000000	66.060352 
7659.000000	66.217327 
7658.000000	66.634774 
7657.000000	67.266392 
7656.000000	68.030285 
7655.000000	68.809151 
7654.000000	69.472289 
7653.000000	69.895243 
7652.000000	69.993209 
7651.000000	69.731092 
7650.000000	69.148421 
7649.000000	68.353176 
7648.000000	67.512059 
7647.000000	66.813015 
7646.000000	66.431331 
7645.000000	66.501092 
7644.000000	67.073488 
7643.000000	68.114686 
7642.000000	69.495964 
7641.000000	71.026659 
7640.000000	72.482943 
7639.000000	73.652195 
7638.000000	74.378490 
7637.000000	74.591398 
7636.000000	74.314570 
7635.000000	73.651099 
7634.000000	72.754549 
7633.000000	71.789288 
7632.000000	70.898127 
7631.000000	70.176935 
7630.000000	69.673442 
7629.000000	69.390583 
7628.000000	69.305157 
7627.000000	69.379878 
7626.000000	69.572138 
7625.000000	69.840836 
7624.000000	70.135331 
7623.000000	70.407056 
7622.000000	70.607495 
7621.000000	70.700287 
7620.000000	70.665526 
7619.000000	70.503282 
7618.000000	70.232295 
7617.000000	69.883489 
7616.000000	69.501733 
7615.000000	69.123983 
7614.000000	68.775701 
7613.000000	68.458771 
7612.000000	68.159413 
7611.000000	67.845773 
7610.000000	67.483735 
7609.000000	67.043185 
7608.000000	66.508030 
7607.000000	65.887665 
7606.000000	65.218853 
7605.000000	64.552545 
7604.000000	63.941454 
7603.000000	63.425421 
7602.000000	63.021993 
7601.000000	62.722706 
7600.000000	62.501406 
7599.000000	62.316679 
7598.000000	62.136173 
7597.000000	61.947298 
7596.000000	61.774063 
7595.000000	61.666464 
7594.000000	61.698031 
7593.000000	61.938142 
7592.000000	62.437129 
7591.000000	63.204455 
7590.000000	64.200973 
7589.000000	65.340566 
7588.000000	66.503763 
7587.000000	67.562556 
7586.000000	68.402981 
7585.000000	68.953347 
7584.000000	69.186639 
7583.000000	69.124078 
7582.000000	68.820309 
7581.000000	68.351006 
7580.000000	67.787551 
7579.000000	67.185735 
7578.000000	66.581416 
7577.000000	65.996742 
7576.000000	65.451097 
7575.000000	64.973163 
7574.000000	64.609408 
7573.000000	64.421105 
7572.000000	64.469361 
7571.000000	64.797639 
7570.000000	65.411257 
7569.000000	66.267871 
7568.000000	67.274951 
7567.000000	68.305826 
7566.000000	69.218993 
7565.000000	69.891381 
7564.000000	70.244216 
7563.000000	70.260000 
7562.000000	69.982147 
7561.000000	69.503617 
7560.000000	68.947696 
7559.000000	68.431639 
7558.000000	68.044853 
7557.000000	67.825007 
7556.000000	67.765021 
7555.000000	67.808938 
7554.000000	67.878580 
7553.000000	67.893266 
7552.000000	67.796850 
7551.000000	67.567849 
7550.000000	67.224216 
7549.000000	66.815781 
7548.000000	66.408586 
7547.000000	66.069340 
7546.000000	65.846896 
7545.000000	65.760970 
7544.000000	65.796685 
7543.000000	65.915346 
7542.000000	66.061377 
7541.000000	66.176772 
7540.000000	66.213297 
7539.000000	66.143250 
7538.000000	65.962290 
7537.000000	65.685367 
7536.000000	65.342020 
7535.000000	64.963078 
7534.000000	64.577341 
7533.000000	64.209508 
7532.000000	63.873100 
7531.000000	63.571572 
7530.000000	63.300991 
7529.000000	63.055515 
7528.000000	62.831616 
7527.000000	62.630057 
7526.000000	62.458944 
7525.000000	62.329959 
7524.000000	62.258553 
7523.000000	62.258481 
7522.000000	62.334966 
7521.000000	62.481856 
7520.000000	62.681841 
7519.000000	62.912273 
7518.000000	63.149356 
7517.000000	63.378000 
7516.000000	63.597202 
7515.000000	63.821434 
7514.000000	64.075565 
7513.000000	64.384245 
7512.000000	64.766311 
7511.000000	65.217638 
7510.000000	65.711617 
7509.000000	66.192841 
7508.000000	66.592645 
7507.000000	66.836571 
7506.000000	66.867756 
7505.000000	66.655731 
7504.000000	66.209745 
7503.000000	65.575695 
7502.000000	64.827299 
7501.000000	64.056706 
7500.000000	63.357400 
7499.000000	62.810897 
7498.000000	62.473034 
7497.000000	62.373280 
7496.000000	62.513589 
7495.000000	62.868070 
7494.000000	63.389801 
7493.000000	64.015269 
7492.000000	64.675378 
7491.000000	65.303015 
7490.000000	65.843510 
7489.000000	66.258144 
7488.000000	66.528725 
7487.000000	66.658782 
7486.000000	66.665911 
7485.000000	66.580772 
7484.000000	66.430234 
7483.000000	66.239547 
7482.000000	66.017127 
7481.000000	65.761804 
7480.000000	65.461492 
7479.000000	65.103006 
7478.000000	64.683890 
7477.000000	64.215636 
7476.000000	63.738203 
7475.000000	63.314700 
7474.000000	63.023090 
7473.000000	62.935709 
7472.000000	63.103079 
7471.000000	63.536810 
7470.000000	64.200592 
7469.000000	65.012931 
7468.000000	65.861940 
7467.000000	66.628313 
7466.000000	67.210054 
7465.000000	67.544174 
7464.000000	67.619967 
7463.000000	67.477464 
7462.000000	67.192816 
7461.000000	66.856884 
7460.000000	66.554474 
7459.000000	66.342449 
7458.000000	66.245746 
7457.000000	66.251659 
7456.000000	66.327404 
7455.000000	66.425418 
7454.000000	66.511130 
7453.000000	66.557884 
7452.000000	66.552448 
7451.000000	66.491007 
7450.000000	66.374349 
7449.000000	66.203570 
7448.000000	65.975356 
7447.000000	65.686535 
7446.000000	65.338397 
7445.000000	64.936900 
7444.000000	64.496111 
7443.000000	64.034938 
7442.000000	63.576006 
7441.000000	63.137578 
7440.000000	62.732124 
7439.000000	62.361669 
7438.000000	62.023448 
7437.000000	61.713576 
7436.000000	61.437416 
7435.000000	61.207938 
7434.000000	61.053109 
7433.000000	61.005973 
7432.000000	61.104679 
7431.000000	61.373114 
7430.000000	61.822199 
7429.000000	62.440085 
7428.000000	63.194847 
7427.000000	64.035868 
7426.000000	64.900755 
7425.000000	65.723085 
7424.000000	66.442084 
7423.000000	67.011022 
7422.000000	67.402768 
7421.000000	67.613410 
7420.000000	67.658591 
7419.000000	67.571425 
7418.000000	67.390370 
7417.000000	67.154479 
7416.000000	66.895198 
7415.000000	66.637039 
7414.000000	66.395616 
7413.000000	66.183543 
7412.000000	66.017198 
7411.000000	65.919947 
7410.000000	65.922927 
7409.000000	66.057181 
7408.000000	66.345715 
7407.000000	66.788554 
7406.000000	67.356610 
7405.000000	67.987895 
7404.000000	68.590116 
7403.000000	69.062709 
7402.000000	69.319534 
7401.000000	69.311022 
7400.000000	69.037437 
7399.000000	68.550229 
7398.000000	67.944860 
7397.000000	67.332386 
7396.000000	66.817188 
7395.000000	66.465854 
7394.000000	66.297626 
7393.000000	66.279053 
7392.000000	66.340017 
7391.000000	66.397237 
7390.000000	66.382169 
7389.000000	66.260337 
7388.000000	66.040301 
7387.000000	65.768814 
7386.000000	65.512514 
7385.000000	65.333414 
7384.000000	65.264678 
7383.000000	65.298771 
7382.000000	65.383529 
7381.000000	65.437793 
7380.000000	65.370130 
7379.000000	65.106177 
7378.000000	64.609360 
7377.000000	63.892221 
7376.000000	63.018774 
7375.000000	62.082195 
7374.000000	61.196446 
7373.000000	60.461783 
7372.000000	59.960103 
7371.000000	59.737229 
7370.000000	59.803724 
7369.000000	60.137438 
7368.000000	60.689187 
7367.000000	61.390709 
7366.000000	62.166619 
7365.000000	62.940502 
7364.000000	63.647031 
7363.000000	64.233708 
7362.000000	64.668011 
7361.000000	64.935374 
7360.000000	65.033364 
7359.000000	64.967179 
7358.000000	64.747452 
7357.000000	64.390468 
7356.000000	63.919734 
7355.000000	63.369822 
7354.000000	62.792181 
7353.000000	62.251496 
7352.000000	61.815738 
7351.000000	61.548566 
7350.000000	61.498594 
7349.000000	61.690330 
7348.000000	62.114620 
7347.000000	62.732362 
7346.000000	63.477039 
7345.000000	64.269948 
7344.000000	65.031123 
7343.000000	65.694260 
7342.000000	66.214275 
7341.000000	66.570925 
7340.000000	66.765594 
7339.000000	66.815853 
7338.000000	66.746735 
7337.000000	66.587972 
7336.000000	66.371750 
7335.000000	66.126084 
7334.000000	65.875506 
7333.000000	65.641713 
7332.000000	65.446305 
7331.000000	65.304923 
7330.000000	65.231037 
7329.000000	65.237188 
7328.000000	65.336251 
7327.000000	65.539550 
7326.000000	65.854024 
7325.000000	66.275930 
7324.000000	66.786909 
7323.000000	67.357540 
7322.000000	67.941689 
7321.000000	68.481564 
7320.000000	68.912243 
7319.000000	69.178485 
7318.000000	69.236707 
7317.000000	69.068837 
7316.000000	68.679428 
7315.000000	68.102192 
7314.000000	67.385864 
7313.000000	66.592025 
7312.000000	65.777921 
7311.000000	64.992380 
7310.000000	64.268827 
7309.000000	63.628411 
7308.000000	63.077878 
7307.000000	62.616324 
7306.000000	62.238097 
7305.000000	61.940217 
7304.000000	61.718797 
7303.000000	61.575937 
7302.000000	61.519670 
7301.000000	61.567425 
7300.000000	61.735844 
7299.000000	62.040972 
7298.000000	62.489080 
7297.000000	63.073348 
7296.000000	63.766813 
7295.000000	64.524412 
7294.000000	65.286827 
7293.000000	65.989637 
7292.000000	66.571164 
7291.000000	66.987061 
7290.000000	67.219543 
7289.000000	67.279958 
7288.000000	67.207837 
7287.000000	67.058277 
7286.000000	66.892719 
7285.000000	66.760587 
7284.000000	66.694545 
7283.000000	66.697001 
7282.000000	66.745519 
7281.000000	66.798162 
7280.000000	66.809844 
7279.000000	66.733312 
7278.000000	66.533470 
7277.000000	66.195678 
7276.000000	65.732479 
7275.000000	65.181684 
7274.000000	64.601373 
7273.000000	64.059805 
7272.000000	63.621020 
7271.000000	63.332676 
7270.000000	63.215279 
7269.000000	63.257026 
7268.000000	63.418865 
7267.000000	63.644409 
7266.000000	63.874292 
7265.000000	64.056897 
7264.000000	64.160871 
7263.000000	64.177298 
7262.000000	64.118742 
7261.000000	64.006876 
7260.000000	63.868808 
7259.000000	63.725399 
7258.000000	63.591074 
7257.000000	63.471579 
7256.000000	63.370561 
7255.000000	63.292980 
7254.000000	63.250708 
7253.000000	63.262486 
7252.000000	63.343286 
7251.000000	63.497686 
7250.000000	63.711905 
7249.000000	63.953423 
7248.000000	64.172410 
7247.000000	64.315009 
7246.000000	64.335942 
7245.000000	64.214658 
7244.000000	63.962602 
7243.000000	63.624978 
7242.000000	63.271045 
7241.000000	62.979435 
7240.000000	62.818217 
7239.000000	62.830352 
7238.000000	63.021159 
7237.000000	63.362097 
7236.000000	63.799667 
7235.000000	64.270997 
7234.000000	64.717221 
7233.000000	65.100884 
7232.000000	65.410661 
7231.000000	65.661072 
7230.000000	65.880537 
7229.000000	66.101789 
7228.000000	66.346979 
7227.000000	66.624069 
7226.000000	66.923737 
7225.000000	67.222690 
7224.000000	67.490005 
7223.000000	67.699241 
7222.000000	67.832946 
7221.000000	67.884349 
7220.000000	67.854857 
7219.000000	67.752146 
7218.000000	67.583441 
7217.000000	67.356014 
7216.000000	67.071533 
7215.000000	66.732740 
7214.000000	66.339445 
7213.000000	65.896940 
7212.000000	65.413308 
7211.000000	64.901638 
7210.000000	64.380955 
7209.000000	63.873815 
7208.000000	63.407564 
7207.000000	63.006114 
7206.000000	62.694311 
7205.000000	62.491369 
7204.000000	62.411499 
7203.000000	62.455463 
7202.000000	62.619543 
7201.000000	62.893247 
7200.000000	63.260030 
7199.000000	63.695502 
7198.000000	64.171171 
7197.000000	64.655232 
7196.000000	65.114426 
7195.000000	65.516543 
7194.000000	65.837931 
7193.000000	66.063547 
7192.000000	66.189765 
7191.000000	66.220259 
7190.000000	66.165399 
7189.000000	66.036748 
7188.000000	65.849542 
7187.000000	65.616679 
7186.000000	65.353298 
7185.000000	65.071511 
7184.000000	64.790105 
7183.000000	64.522361 
7182.000000	64.276933 
7181.000000	64.054226 
7180.000000	63.849472 
7179.000000	63.652682 
7178.000000	63.448882 
7177.000000	63.230252 
7176.000000	62.998390 
7175.000000	62.769412 
7174.000000	62.569975 
7173.000000	62.431025 
7172.000000	62.377667 
7171.000000	62.417364 
7170.000000	62.535524 
7169.000000	62.692022 
7168.000000	62.832045 
7167.000000	62.903547 
7166.000000	62.872409 
7165.000000	62.732577 
7164.000000	62.508702 
7163.000000	62.248659 
7162.000000	62.011647 
7161.000000	61.846375 
7160.000000	61.784815 
7159.000000	61.832141 
7158.000000	61.973762 
7157.000000	62.181782 
7156.000000	62.427616 
7155.000000	62.691235 
7154.000000	62.965488 
7153.000000	63.256239 
7152.000000	63.572216 
7151.000000	63.914990 
7150.000000	64.271926 
7149.000000	64.613962 
7148.000000	64.898371 
7147.000000	65.078210 
7146.000000	65.116095 
7145.000000	64.996504 
7144.000000	64.728331 
7143.000000	64.345741 
7142.000000	63.899946 
7141.000000	63.449382 
7140.000000	63.048291 
7139.000000	62.736892 
7138.000000	62.537479 
7137.000000	62.452125 
7136.000000	62.467670 
7135.000000	62.559604 
7134.000000	62.698483 
7133.000000	62.856078 
7132.000000	63.006234 
7131.000000	63.131189 
7130.000000	63.218808 
7129.000000	63.266086 
7128.000000	63.270854 
7127.000000	63.238596 
7126.000000	63.180565 
7125.000000	63.112545 
7124.000000	63.052749 
7123.000000	63.017773 
7122.000000	63.020563 
7121.000000	63.065099 
7120.000000	63.146448 
7119.000000	63.248729 
7118.000000	63.348698 
7117.000000	63.421940 
7116.000000	63.449072 
7115.000000	63.418292 
7114.000000	63.328480 
7113.000000	63.189363 
7112.000000	63.019800 
7111.000000	62.841057 
7110.000000	62.675547 
7109.000000	62.538743 
7108.000000	62.444901 
7107.000000	62.403488 
7106.000000	62.427973 
7105.000000	62.533235 
7104.000000	62.739348 
7103.000000	63.064146 
7102.000000	63.520479 
7101.000000	64.107728 
7100.000000	64.807033 
7099.000000	65.577888 
7098.000000	66.362571 
7097.000000	67.095232 
7096.000000	67.710852 
7095.000000	68.159866 
7094.000000	68.410325 
7093.000000	68.454194 
7092.000000	68.304204 
7091.000000	67.991662 
7090.000000	67.556381 
7089.000000	67.040872 
7088.000000	66.486215 
7087.000000	65.928840 
7086.000000	65.401816 
7085.000000	64.933848 
7084.000000	64.549922 
7083.000000	64.269280 
7082.000000	64.104104 
7081.000000	64.057135 
7080.000000	64.114642 
7079.000000	64.252161 
7078.000000	64.434790 
7077.000000	64.626836 
7076.000000	64.790248 
7075.000000	64.899420 
7074.000000	64.942622 
7073.000000	64.926147 
7072.000000	64.866256 
7071.000000	64.790391 
7070.000000	64.729452 
7069.000000	64.710283 
7068.000000	64.748549 
7067.000000	64.847588 
7066.000000	64.999699 
7065.000000	65.184736 
7064.000000	65.375590 
7063.000000	65.542173 
7062.000000	65.657377 
7061.000000	65.701651 
7060.000000	65.666007 
7059.000000	65.551280 
7058.000000	65.365862 
7057.000000	65.128684 
7056.000000	64.859557 
7055.000000	64.575457 
7054.000000	64.283227 
7053.000000	63.984322 
7052.000000	63.670873 
7051.000000	63.330054 
7050.000000	62.950110 
7049.000000	62.528085 
7048.000000	62.073349 
7047.000000	61.606049 
7046.000000	61.157441 
7045.000000	60.761833 
7044.000000	60.451149 
7043.000000	60.244846 
7042.000000	60.148143 
7041.000000	60.147452 
7040.000000	60.219192 
7039.000000	60.333347 
7038.000000	60.466003 
7037.000000	60.603451 
7036.000000	60.747718 
7035.000000	60.912513 
7034.000000	61.118721 
7033.000000	61.383700 
7032.000000	61.710286 
7031.000000	62.082171 
7030.000000	62.464118 
7029.000000	62.810349 
7028.000000	63.074731 
7027.000000	63.225960 
7026.000000	63.257098 
7025.000000	63.191127 
7024.000000	63.076019 
7023.000000	62.974715 
7022.000000	62.950444 
7021.000000	63.049936 
7020.000000	63.292765 
7019.000000	63.664555 
7018.000000	64.123010 
7017.000000	64.606022 
7016.000000	65.048456 
7015.000000	65.396738 
7014.000000	65.622496 
7013.000000	65.724372 
7012.000000	65.724062 
7011.000000	65.663170 
7010.000000	65.590500 
7009.000000	65.555524 
7008.000000	65.596771 
7007.000000	65.738677 
7006.000000	65.984892 
7005.000000	66.318845 
7004.000000	66.705131 
7003.000000	67.095398 
7002.000000	67.436695 
7001.000000	67.685174 
7000.000000	67.810440 
6999.000000	67.802643 
6998.000000	67.667889 
6997.000000	67.428827 
6996.000000	67.112445 
6995.000000	66.742658 
6994.000000	66.338419 
6993.000000	65.915679 
6992.000000	65.489554 
6991.000000	65.076684 
6990.000000	64.701867 
6989.000000	64.398241 
6988.000000	64.202880 
6987.000000	64.148116 
6986.000000	64.253187 
6985.000000	64.515876 
6984.000000	64.907813 
6983.000000	65.375828 
6982.000000	65.854930 
6981.000000	66.280698 
6980.000000	66.602492 
6979.000000	66.792535 
6978.000000	66.850233 
6977.000000	66.797590 
6976.000000	66.671180 
6975.000000	66.508340 
6974.000000	66.340613 
6973.000000	66.180753 
6972.000000	66.029357 
6971.000000	65.868377 
6970.000000	65.673851 
6969.000000	65.419054 
6968.000000	65.087676 
6967.000000	64.677953 
6966.000000	64.203858 
6965.000000	63.697695 
6964.000000	63.200783 
6963.000000	62.761139 
6962.000000	62.420344 
6961.000000	62.210798 
6960.000000	62.147879 
6959.000000	62.228965 
6958.000000	62.433290 
6957.000000	62.725281 
6956.000000	63.060116 
6955.000000	63.389182 
6954.000000	63.667559 
6953.000000	63.859009 
6952.000000	63.942122 
6951.000000	63.911867 
6950.000000	63.781881 
6949.000000	63.579058 
6948.000000	63.342452 
6947.000000	63.119173 
6946.000000	62.955832 
6945.000000	62.894225 
6944.000000	62.959313 
6943.000000	63.154911 
6942.000000	63.460564 
6941.000000	63.838911 
6940.000000	64.238977 
6939.000000	64.606690 
6938.000000	64.893865 
6937.000000	65.068507 
6936.000000	65.116024 
6935.000000	65.038514 
6934.000000	64.853906 
6933.000000	64.590001 
6932.000000	64.282655 
6931.000000	63.969612 
6930.000000	63.689470 
6929.000000	63.477492 
6928.000000	63.360476 
6927.000000	63.353157 
6926.000000	63.452649 
6925.000000	63.638591 
6924.000000	63.874721 
6923.000000	64.117956 
6922.000000	64.320659 
6921.000000	64.447450 
6920.000000	64.483261 
6919.000000	64.440321 
6918.000000	64.353585 
6917.000000	64.272832 
6916.000000	64.249682 
6915.000000	64.321660 
6914.000000	64.503645 
6913.000000	64.779925 
6912.000000	65.110611 
6911.000000	65.437436 
6910.000000	65.702533 
6909.000000	65.857386 
6908.000000	65.877199 
6907.000000	65.761327 
6906.000000	65.531778 
6905.000000	65.226840 
6904.000000	64.890837 
6903.000000	64.564490 
6902.000000	64.277076 
6901.000000	64.042067 
6900.000000	63.857078 
6899.000000	63.709735 
6898.000000	63.582921 
6897.000000	63.457632 
6896.000000	63.318753 
6895.000000	63.156390 
6894.000000	62.969565 
6893.000000	62.761330 
6892.000000	62.542247 
6891.000000	62.324452 
6890.000000	62.124609 
6889.000000	61.960363 
6888.000000	61.848640 
6887.000000	61.802268 
6886.000000	61.826133 
6885.000000	61.914300 
6884.000000	62.050390 
6883.000000	62.207984 
6882.000000	62.357926 
6881.000000	62.473297 
6880.000000	62.535643 
6879.000000	62.536931 
6878.000000	62.482500 
6877.000000	62.388396 
6876.000000	62.277078 
6875.000000	62.171816 
6874.000000	62.093400 
6873.000000	62.056612 
6872.000000	62.072086 
6871.000000	62.145972 
6870.000000	62.279748 
6869.000000	62.470555 
6868.000000	62.712955 
6867.000000	62.997817 
6866.000000	63.309049 
6865.000000	63.626480 
6864.000000	63.926625 
6863.000000	64.187741 
6862.000000	64.394307 
6861.000000	64.538335 
6860.000000	64.625144 
6859.000000	64.664053 
6858.000000	64.667725 
6857.000000	64.643359 
6856.000000	64.592838 
6855.000000	64.510512 
6854.000000	64.388394 
6853.000000	64.220595 
6852.000000	64.010524 
6851.000000	63.771295 
6850.000000	63.525938 
6849.000000	63.303804 
6848.000000	63.134598 
6847.000000	63.042521 
6846.000000	63.040876 
6845.000000	63.129281 
6844.000000	63.293862 
6843.000000	63.511252 
6842.000000	63.753437 
6841.000000	63.992333 
6840.000000	64.204978 
6839.000000	64.376997 
6838.000000	64.503073 
6837.000000	64.584207 
6836.000000	64.625453 
6835.000000	64.633607 
6834.000000	64.613747 
6833.000000	64.569234 
6832.000000	64.500880 
6831.000000	64.410114 
6830.000000	64.300322 
6829.000000	64.177298 
6828.000000	64.053964 
6827.000000	63.949465 
6826.000000	63.887810 
6825.000000	63.892650 
6824.000000	63.982439 
6823.000000	64.164519 
6822.000000	64.431619 
6821.000000	64.760923 
6820.000000	65.115904 
6819.000000	65.451788 
6818.000000	65.723371 
6817.000000	65.893697 
6816.000000	65.938496 
6815.000000	65.852570 
6814.000000	65.650200 
6813.000000	65.364050 
6812.000000	65.040993 
6811.000000	64.732480 
6810.000000	64.487075 
6809.000000	64.338374 
6808.000000	64.304041 
6807.000000	64.376831 
6806.000000	64.530158 
6805.000000	64.720749 
6804.000000	64.898848 
6803.000000	65.019512 
6802.000000	65.049982 
6801.000000	64.979600 
6800.000000	64.818596 
6799.000000	64.597678 
6798.000000	64.358949 
6797.000000	64.144968 
6796.000000	63.987660 
6795.000000	63.903474 
6794.000000	63.891196 
6793.000000	63.936614 
6792.000000	64.018511 
6791.000000	64.116215 
6790.000000	64.214301 
6789.000000	64.304208 
6788.000000	64.383292 
6787.000000	64.448356 
6786.000000	64.494752 
6785.000000	64.514446 
6784.000000	64.497590 
6783.000000	64.436125 
6782.000000	64.326739 
6781.000000	64.173555 
6780.000000	63.989496 
6779.000000	63.796114 
6778.000000	63.619542 
6777.000000	63.483595 
6776.000000	63.408446 
6775.000000	63.403367 
6774.000000	63.471031 
6773.000000	63.607549 
6772.000000	63.804292 
6771.000000	64.048814 
6770.000000	64.326381 
6769.000000	64.620542 
6768.000000	64.911437 
6767.000000	65.176057 
6766.000000	65.391564 
6765.000000	65.538191 
6764.000000	65.603351 
6763.000000	65.584135 
6762.000000	65.489172 
6761.000000	65.337538 
6760.000000	65.156149 
6759.000000	64.975118 
6758.000000	64.823818 
6757.000000	64.724731 
6756.000000	64.694213 
6755.000000	64.735531 
6754.000000	64.840292 
6753.000000	64.987087 
6752.000000	65.149712 
6751.000000	65.296840 
6750.000000	65.397691 
6749.000000	65.426468 
6748.000000	65.367031 
6747.000000	65.215492 
6746.000000	64.980435 
6745.000000	64.681553 
6744.000000	64.346790 
6743.000000	64.005112 
6742.000000	63.682556 
6741.000000	63.395118 
6740.000000	63.148093 
6739.000000	62.935400 
6738.000000	62.744641 
6737.000000	62.559866 
6736.000000	62.370252 
6735.000000	62.173628 
6734.000000	61.983108 
6733.000000	61.821031 
6732.000000	61.720681 
6731.000000	61.715507 
6730.000000	61.835479 
6729.000000	62.096619 
6728.000000	62.497186 
6727.000000	63.014149 
6726.000000	63.605880 
6725.000000	64.218544 
6724.000000	64.793944 
6723.000000	65.279531 
6722.000000	65.635919 
6721.000000	65.842938 
6720.000000	65.900230 
6719.000000	65.825772 
6718.000000	65.650200 
6717.000000	65.411901 
6716.000000	65.148758 
6715.000000	64.894437 
6714.000000	64.673876 
6713.000000	64.504146 
6712.000000	64.391374 
6711.000000	64.334321 
6710.000000	64.325833 
6709.000000	64.357519 
6708.000000	64.421248 
6707.000000	64.512419 
6706.000000	64.628577 
6705.000000	64.769458 
6704.000000	64.934349 
6703.000000	65.119504 
6702.000000	65.316319 
6701.000000	65.510034 
6700.000000	65.681052 
6699.000000	65.807604 
6698.000000	65.870571 
6697.000000	65.858030 
6696.000000	65.770697 
6695.000000	65.621113 
6694.000000	65.432691 
6693.000000	65.234279 
6692.000000	65.056180 
6691.000000	64.920711 
6690.000000	64.838027 
6689.000000	64.805078 
6688.000000	64.808845 
6687.000000	64.828014 
6686.000000	64.839553 
6685.000000	64.821386 
6684.000000	64.757657 
6683.000000	64.640474 
6682.000000	64.472031 
6681.000000	64.263129 
6680.000000	64.032268 
6679.000000	63.803482 
6678.000000	63.602113 
6677.000000	63.449263 
6676.000000	63.358974 
6675.000000	63.336396 
6674.000000	63.377451 
6673.000000	63.468599 
6672.000000	63.591980 
6671.000000	63.726997 
6670.000000	63.856935 
6669.000000	63.970589 
6668.000000	64.063978 
6667.000000	64.138531 
6666.000000	64.197802 
6665.000000	64.244127 
6664.000000	64.275574 
6663.000000	64.285850 
6662.000000	64.265584 
6661.000000	64.206528 
6660.000000	64.104294 
6659.000000	63.962030 
6658.000000	63.789367 
6657.000000	63.603115 
6656.000000	63.423275 
6655.000000	63.272333 
6654.000000	63.172173 
6653.000000	63.143062 
6652.000000	63.202095 
6651.000000	63.360548 
6650.000000	63.619780 
6649.000000	63.969755 
6648.000000	64.389348 
6647.000000	64.847326 
6646.000000	65.302944 
6645.000000	65.714645 
6644.000000	66.045284 
6643.000000	66.270279 
6642.000000	66.382741 
6641.000000	66.392207 
6640.000000	66.324996 
6639.000000	66.211509 
6638.000000	66.082024 
6637.000000	65.954518 
6636.000000	65.834569 
6635.000000	65.712833 
6634.000000	65.572953 
6633.000000	65.398144 
6632.000000	65.181112 
6631.000000	64.926695 
6630.000000	64.654827 
6629.000000	64.396071 
6628.000000	64.187288 
6627.000000	64.064669 
6626.000000	64.057445 
6625.000000	64.180707 
6624.000000	64.432525 
6623.000000	64.794850 
6622.000000	65.234851 
6621.000000	65.708804 
6620.000000	66.168737 
6619.000000	66.570663 
6618.000000	66.879749 
6617.000000	67.071676 
6616.000000	67.138433 
6615.000000	67.089033 
6614.000000	66.946554 
6613.000000	66.743588 
6612.000000	66.516804 
6611.000000	66.303157 
6610.000000	66.132640 
6609.000000	66.027402 
6608.000000	65.997004 
6607.000000	66.039967 
6606.000000	66.145324 
6605.000000	66.297006 
6604.000000	66.472721 
6603.000000	66.647386 
6602.000000	66.795825 
6601.000000	66.895866 
6600.000000	66.931414 
6599.000000	66.893482 
6598.000000	66.782879 
6597.000000	66.606950 
6596.000000	66.378116 
6595.000000	66.109561 
6594.000000	65.815687 
6593.000000	65.508198 
6592.000000	65.197491 
6591.000000	64.891934 
6590.000000	64.597058 
6589.000000	64.320373 
6588.000000	64.072227 
6587.000000	63.866996 
6586.000000	63.715553 
6585.000000	63.631916 
6584.000000	63.626956 
6583.000000	63.710284 
6582.000000	63.883662 
6581.000000	64.143610 
6580.000000	64.477753 
6579.000000	64.865922 
6578.000000	65.280485 
6577.000000	65.685105 
6576.000000	66.039109 
6575.000000	66.302633 
6574.000000	66.445302 
6573.000000	66.454434 
6572.000000	66.339302 
6571.000000	66.133761 
6570.000000	65.887594 
6569.000000	65.659666 
6568.000000	65.499091 
6567.000000	65.439915 
6566.000000	65.485072 
6565.000000	65.608882 
6564.000000	65.759682 
6563.000000	65.876936 
6562.000000	65.904045 
6561.000000	65.802168 
6560.000000	65.562868 
6559.000000	65.208530 
6558.000000	64.790010 
6557.000000	64.370417 
6556.000000	64.015507 
6555.000000	63.775873 
6554.000000	63.681364 
6553.000000	63.735914 
6552.000000	63.920044 
6551.000000	64.197516 
6550.000000	64.522838 
6549.000000	64.851188 
6548.000000	65.141010 
6547.000000	65.361142 
6546.000000	65.494203 
6545.000000	65.539002 
6544.000000	65.505313 
6543.000000	65.413355 
6542.000000	65.292215 
6541.000000	65.173006 
6540.000000	65.085983 
6539.000000	65.051913 
6538.000000	65.080809 
6537.000000	65.167570 
6536.000000	65.297174 
6535.000000	65.445566 
6534.000000	65.584993 
6533.000000	65.691471 
6532.000000	65.749931 
6531.000000	65.757226 
6530.000000	65.721225 
6529.000000	65.657734 
6528.000000	65.585255 
6527.000000	65.519022 
6526.000000	65.466976 
6525.000000	65.428185 
6524.000000	65.394473 
6523.000000	65.351486 
6522.000000	65.283155 
6521.000000	65.175986 
6520.000000	65.022420 
6519.000000	64.820909 
6518.000000	64.577484 
6517.000000	64.301419 
6516.000000	64.007472 
6515.000000	63.713455 
6514.000000	63.441252 
6513.000000	63.212633 
6512.000000	63.049435 
6511.000000	62.969231 
6510.000000	62.983322 
6509.000000	63.092327 
6508.000000	63.286638 
6507.000000	63.545227 
6506.000000	63.839316 
6505.000000	64.135217 
6504.000000	64.399981 
6503.000000	64.605164 
6502.000000	64.731884 
6501.000000	64.772653 
6500.000000	64.731502 
6499.000000	64.621496 
6498.000000	64.463329 
6497.000000	64.281606 
6496.000000	64.100670 
6495.000000	63.941216 
6494.000000	63.820052 
6493.000000	63.748431 
6492.000000	63.730168 
6491.000000	63.762116 
6490.000000	63.835763 
6489.000000	63.938713 
6488.000000	64.055967 
6487.000000	64.172768 
6486.000000	64.275789 
6485.000000	64.355039 
6484.000000	64.402270 
6483.000000	64.414286 
6482.000000	64.391303 
6481.000000	64.340186 
6480.000000	64.271044 
6479.000000	64.199829 
6478.000000	64.145398 
6477.000000	64.127540 
6476.000000	64.163184 
6475.000000	64.262652 
6474.000000	64.426636 
6473.000000	64.646339 
6472.000000	64.904904 
6471.000000	65.179610 
6470.000000	65.445637 
6469.000000	65.682363 
6468.000000	65.876531 
6467.000000	66.024374 
6466.000000	66.130065 
6465.000000	66.202974 
6464.000000	66.253018 
6463.000000	66.287016 
6462.000000	66.306161 
6461.000000	66.308403 
6460.000000	66.288900 
6459.000000	66.243529 
6458.000000	66.172266 
6457.000000	66.082406 
6456.000000	65.988159 
6455.000000	65.907216 
6454.000000	65.858578 
6453.000000	65.858626 
6452.000000	65.916037 
6451.000000	66.029667 
6450.000000	66.186285 
6449.000000	66.363024 
6448.000000	66.531443 
6447.000000	66.663885 
6446.000000	66.738891 
6445.000000	66.745376 
6444.000000	66.685748 
6443.000000	66.574478 
6442.000000	66.434454 
6441.000000	66.289997 
6440.000000	66.160869 
6439.000000	66.055512 
6438.000000	65.969419 
6437.000000	65.885066 
6436.000000	65.777039 
6435.000000	65.619182 
6434.000000	65.393686 
6433.000000	65.096926 
6432.000000	64.741206 
6431.000000	64.354372 
6430.000000	63.971257 
6429.000000	63.629579 
6428.000000	63.357377 
6427.000000	63.174152 
6426.000000	63.085985 
6425.000000	63.089966 
6424.000000	63.174414 
6423.000000	63.325762 
6422.000000	63.529419 
6421.000000	63.773179 
6420.000000	64.044260 
6419.000000	64.330911 
6418.000000	64.619326 
6417.000000	64.894795 
6416.000000	65.140867 
6415.000000	65.343403 
6414.000000	65.491867 
6413.000000	65.582418 
6412.000000	65.617895 
6411.000000	65.606808 
6410.000000	65.560674 
6409.000000	65.493750 
6408.000000	65.418767 
6407.000000	65.345740 
6406.000000	65.279388 
6405.000000	65.223765 
6404.000000	65.178108 
6403.000000	65.138435 
6402.000000	65.097570 
6401.000000	65.047764 
6400.000000	64.982056 
6399.000000	64.894628 
6398.000000	64.785265 
6397.000000	64.659523 
6396.000000	64.529132 
6395.000000	64.408707 
6394.000000	64.314174 
6393.000000	64.258742 
6392.000000	64.249730 
6391.000000	64.286708 
6390.000000	64.359903 
6389.000000	64.451909 
6388.000000	64.542126 
6387.000000	64.611959 
6386.000000	64.647793 
6385.000000	64.644813 
6384.000000	64.608526 
6383.000000	64.554047 
6382.000000	64.501070 
6381.000000	64.469933 
6380.000000	64.476966 
6379.000000	64.530324 
6378.000000	64.629554 
6377.000000	64.764404 
6376.000000	64.917302 
6375.000000	65.067481 
6374.000000	65.195107 
6373.000000	65.286469 
6372.000000	65.337085 
6371.000000	65.351629 
6370.000000	65.341520 
6369.000000	65.321445 
6368.000000	65.304875 
6367.000000	65.300869 
6366.000000	65.312647 
6365.000000	65.336990 
6364.000000	65.366172 
6363.000000	65.391802 
6362.000000	65.408515 
6361.000000	65.413880 
6360.000000	65.409564 
6359.000000	65.399241 
6358.000000	65.388011 
6357.000000	65.380716 
6356.000000	65.381932 
6355.000000	65.394353 
6354.000000	65.419363 
6353.000000	65.460705 
6352.000000	65.520071 
6351.000000	65.599322 
6350.000000	65.693187 
6349.000000	65.789771 
6348.000000	65.868473 
6347.000000	65.902113 
6346.000000	65.864515 
6345.000000	65.736889 
6344.000000	65.516757 
6343.000000	65.220117 
6342.000000	64.883375 
6341.000000	64.556574 
6340.000000	64.294362 
6339.000000	64.143419 
6338.000000	64.132785 
6337.000000	64.266824 
6336.000000	64.523959 
6335.000000	64.861345 
6334.000000	65.222525 
6333.000000	65.549039 
6332.000000	65.790605 
6331.000000	65.914034 
6330.000000	65.907144 
6329.000000	65.778899 
6328.000000	65.554213 
6327.000000	65.267562 
6326.000000	64.956927 
6325.000000	64.655637 
6324.000000	64.391136 
6323.000000	64.178872 
6322.000000	64.024925 
6321.000000	63.925409 
6320.000000	63.871407 
6319.000000	63.851547 
6318.000000	63.853979 
6317.000000	63.870906 
6316.000000	63.895988 
6315.000000	63.928341 
6314.000000	63.967680 
6313.000000	64.016675 
6312.000000	64.076972 
6311.000000	64.149618 
6310.000000	64.232754 
6309.000000	64.323472 
6308.000000	64.417505 
6307.000000	64.508366 
6306.000000	64.587569 
6305.000000	64.645695 
6304.000000	64.673447 
6303.000000	64.662909 
6302.000000	64.609837 
6301.000000	64.513182 
6300.000000	64.378309 
6299.000000	64.218378 
6298.000000	64.053249 
6297.000000	63.906764 
6296.000000	63.802146 
6295.000000	63.757085 
6294.000000	63.779759 
6293.000000	63.867139 
6292.000000	64.005565 
6291.000000	64.172196 
6290.000000	64.342069 
6289.000000	64.492368 
6288.000000	64.608573 
6287.000000	64.685058 
6286.000000	64.727377 
6285.000000	64.748501 
6284.000000	64.765262 
6283.000000	64.792704 
6282.000000	64.840841 
6281.000000	64.912152 
6280.000000	65.000677 
6279.000000	65.093660 
6278.000000	65.175199 
6277.000000	65.229725 
6276.000000	65.245103 
6275.000000	65.214776 
6274.000000	65.138745 
6273.000000	65.022873 
6272.000000	64.877533 
6271.000000	64.715194 
6270.000000	64.548850 
6269.000000	64.389586 
6268.000000	64.245295 
6267.000000	64.120674 
6266.000000	64.017200 
6265.000000	63.935661 
6264.000000	63.875985 
6263.000000	63.840723 
6262.000000	63.832736 
6261.000000	63.857889 
6260.000000	63.920688 
6259.000000	64.025235 
6258.000000	64.170980 
6257.000000	64.353632 
6256.000000	64.563941 
6255.000000	64.788293 
6254.000000	65.009641 
6253.000000	65.210795 
6252.000000	65.377116 
6251.000000	65.498208 
6250.000000	65.569496 
6249.000000	65.593862 
6248.000000	65.580248 
6247.000000	65.542221 
6246.000000	65.493631 
6245.000000	65.447711 
6244.000000	65.412020 
6243.000000	65.389323 
6242.000000	65.375471 
6241.000000	65.361166 
6240.000000	65.335655 
6239.000000	65.289521 
6238.000000	65.220594 
6237.000000	65.134406 
6236.000000	65.046262 
6235.000000	64.977598 
6234.000000	64.951014 
6233.000000	64.983654 
6232.000000	65.082073 
6231.000000	65.239739 
6230.000000	65.436315 
6229.000000	65.641999 
6228.000000	65.822362 
6227.000000	65.945887 
6226.000000	65.989422 
6225.000000	65.943050 
6224.000000	65.809988 
6223.000000	65.605783 
6222.000000	65.355467 
6221.000000	65.088939 
6220.000000	64.835643 
6219.000000	64.619660 
6218.000000	64.459109 
6217.000000	64.361500 
6216.000000	64.325475 
6215.000000	64.339971 
6214.000000	64.387178 
6213.000000	64.446735 
6212.000000	64.496636 
6211.000000	64.522409 
6210.000000	64.516949 
6209.000000	64.485979 
6208.000000	64.444160 
6207.000000	64.412522 
6206.000000	64.411187 
6205.000000	64.454317 
6204.000000	64.545774 
6203.000000	64.676284 
6202.000000	64.825630 
6201.000000	64.967513 
6200.000000	65.076375 
6199.000000	65.133857 
6198.000000	65.133166 
6197.000000	65.080308 
6196.000000	64.991617 
6195.000000	64.888978 
6194.000000	64.793038 
6193.000000	64.717888 
6192.000000	64.666819 
6191.000000	64.633870 
6190.000000	64.604830 
6189.000000	64.563775 
6188.000000	64.496994 
6187.000000	64.395642 
6186.000000	64.261174 
6185.000000	64.102959 
6184.000000	63.940548 
6183.000000	63.797140 
6182.000000	63.698124 
6181.000000	63.664412 
6180.000000	63.708496 
6179.000000	63.831353 
6178.000000	64.020705 
6177.000000	64.252686 
6176.000000	64.495992 
6175.000000	64.717721 
6174.000000	64.890408 
6173.000000	64.996767 
6172.000000	65.033864 
6171.000000	65.011835 
6170.000000	64.950370 
6169.000000	64.871335 
6168.000000	64.792490 
6167.000000	64.721512 
6166.000000	64.654302 
6165.000000	64.577507 
6164.000000	64.474129 
6163.000000	64.331912 
6162.000000	64.150500 
6161.000000	63.944983 
6160.000000	63.743042 
6159.000000	63.579893 
6158.000000	63.488411 
6157.000000	63.490819 
6156.000000	63.590049 
6155.000000	63.769626 
6154.000000	63.995552 
6153.000000	64.226078 
6152.000000	64.421582 
6151.000000	64.554023 
6150.000000	64.612865 
6149.000000	64.605164 
6148.000000	64.551353 
6147.000000	64.476633 
6146.000000	64.402294 
6145.000000	64.340615 
6144.000000	64.292240 
6143.000000	64.248418 
6142.000000	64.195942 
6141.000000	64.124703 
6140.000000	64.032673 
6139.000000	63.927769 
6138.000000	63.827204 
6137.000000	63.750648 
6136.000000	63.716793 
6135.000000	63.736009 
6134.000000	63.809514 
6133.000000	63.928079 
6132.000000	64.075088 
6131.000000	64.232254 
6130.000000	64.381504 
6129.000000	64.509296 
6128.000000	64.606070 
6127.000000	64.667010 
6126.000000	64.689445 
6125.000000	64.671158 
6124.000000	64.611148 
6123.000000	64.510393 
6122.000000	64.373373 
6121.000000	64.209580 
6120.000000	64.033222 
6119.000000	63.862371 
6118.000000	63.714623 
6117.000000	63.604307 
6116.000000	63.538980 
6115.000000	63.518834 
6114.000000	63.536858 
6113.000000	63.582253 
6112.000000	63.644289 
6111.000000	63.715243 
6110.000000	63.791441 
6109.000000	63.872838 
6108.000000	63.960218 
6107.000000	64.053440 
6106.000000	64.147901 
6105.000000	64.235472 
6104.000000	64.304757 
6103.000000	64.345145 
6102.000000	64.349770 
6101.000000	64.318919 
6100.000000	64.260816 
6099.000000	64.191007 
6098.000000	64.129662 
6097.000000	64.096403 
6096.000000	64.105081 
6095.000000	64.161777 
6094.000000	64.263153 
6093.000000	64.398646 
6092.000000	64.553546 
6091.000000	64.711999 
6090.000000	64.860606 
6089.000000	64.990782 
6088.000000	65.099406 
6087.000000	65.187454 
6086.000000	65.258121 
6085.000000	65.315079 
6084.000000	65.360522 
6083.000000	65.394735 
6082.000000	65.416026 
6081.000000	65.423226 
6080.000000	65.415358 
6079.000000	65.395116 
6078.000000	65.366029 
6077.000000	65.333628 
6076.000000	65.301609 
6075.000000	65.271949 
6074.000000	65.243101 
6073.000000	65.210199 
6072.000000	65.168213 
6071.000000	65.113902 
6070.000000	65.048766 
6069.000000	64.979147 
6068.000000	64.916658 
6067.000000	64.875578 
6066.000000	64.868807 
6065.000000	64.904093 
6064.000000	64.980435 
6063.000000	65.087318 
6062.000000	65.206432 
6061.000000	65.315866 
6060.000000	65.395641 
6059.000000	65.432262 
6058.000000	65.421652 
6057.000000	65.369510 
6056.000000	65.289449 
6055.000000	65.198564 
6054.000000	65.112280 
6053.000000	65.041160 
6052.000000	64.990472 
6051.000000	64.958786 
6050.000000	64.941430 
6049.000000	64.931130 
6048.000000	64.921951 
6047.000000	64.909219 
6046.000000	64.890217 
6045.000000	64.864277 
6044.000000	64.831256 
6043.000000	64.792466 
6042.000000	64.749193 
6041.000000	64.704298 
6040.000000	64.661550 
6039.000000	64.627313 
6038.000000	64.609670 
6037.000000	64.617323 
6036.000000	64.657306 
6035.000000	64.733147 
6034.000000	64.842939 
6033.000000	64.978957 
6032.000000	65.128040 
6031.000000	65.273857 
6030.000000	65.398907 
6029.000000	65.488314 
6028.000000	65.531134 
6027.000000	65.522885 
6026.000000	65.464735 
6025.000000	65.364217 
6024.000000	65.232038 
6023.000000	65.081501 
6022.000000	64.924836 
6021.000000	64.771723 
6020.000000	64.629292 
6019.000000	64.502549 
6018.000000	64.396524 
6017.000000	64.317226 
6016.000000	64.272356 
6015.000000	64.269757 
6014.000000	64.315485 
6013.000000	64.410567 
6012.000000	64.549279 
6011.000000	64.718151 
6010.000000	64.897823 
6009.000000	65.065979 
6008.000000	65.202045 
6007.000000	65.291190 
6006.000000	65.327882 
6005.000000	65.315985 
6004.000000	65.267229 
6003.000000	65.197086 
6002.000000	65.121293 
6001.000000	65.051460 
6000.000000	64.993405 
5999.000000	64.946722 
5998.000000	64.908432 
5997.000000	64.873528 
5996.000000	64.839887 
5995.000000	64.807200 
5994.000000	64.776539 
5993.000000	64.750432 
5992.000000	64.729905 
5991.000000	64.716148 
5990.000000	64.708590 
5989.000000	64.707803 
5988.000000	64.715099 
5987.000000	64.733648 
5986.000000	64.767909 
5985.000000	64.821386 
5984.000000	64.894628 
5983.000000	64.983510 
5982.000000	65.078830 
5981.000000	65.166401 
5980.000000	65.229582 
5979.000000	65.254092 
5978.000000	65.231323 
5977.000000	65.160107 
5976.000000	65.048170 
5975.000000	64.910578 
5974.000000	64.767718 
5973.000000	64.640235 
5972.000000	64.546489 
5971.000000	64.499711 
5970.000000	64.506268 
5969.000000	64.566755 
5968.000000	64.674401 
5967.000000	64.816880 
5966.000000	64.976382 
5965.000000	65.133070 
5964.000000	65.266060 
5963.000000	65.355801 
5962.000000	65.387606 
5961.000000	65.353536 
5960.000000	65.254878 
5959.000000	65.101981 
5958.000000	64.912438 
5957.000000	64.708089 
5956.000000	64.509963 
5955.000000	64.334368 
5954.000000	64.189815 
5953.000000	64.076638 
5952.000000	63.988184 
5951.000000	63.914561 
5950.000000	63.846516 
5949.000000	63.779520 
5948.000000	63.713550 
5947.000000	63.654708 
5946.000000	63.610792 
5945.000000	63.591241 
5944.000000	63.601088 
5943.000000	63.642549 
5942.000000	63.712525 
5941.000000	63.805365 
5940.000000	63.913369 
5939.000000	64.028811 
5938.000000	64.145660 
5937.000000	64.258050 
5936.000000	64.360809 
5935.000000	64.447450 
5934.000000	64.509820 
5933.000000	64.539909 
5932.000000	64.531779 
5931.000000	64.484047 
5930.000000	64.401674 
5929.000000	64.297199 
5928.000000	64.189338 
5927.000000	64.100289 
5926.000000	64.051485 
5925.000000	64.058876 
5924.000000	64.129757 
5923.000000	64.261460 
5922.000000	64.442110 
5921.000000	64.652991 
5920.000000	64.872765 
5919.000000	65.081548 
5918.000000	65.263915 
5917.000000	65.410947 
5916.000000	65.519690 
5915.000000	65.591907 
5914.000000	65.631699 
5913.000000	65.644168 
5912.000000	65.633034 
5911.000000	65.602135 
5910.000000	65.553402 
5909.000000	65.489768 
5908.000000	65.413808 
5907.000000	65.330266 
5906.000000	65.243887 
5905.000000	65.160417 
5904.000000	65.084099 
5903.000000	65.017509 
5902.000000	64.960908 
5901.000000	64.912581 
5900.000000	64.869475 
5899.000000	64.828205 
5898.000000	64.786005 
5897.000000	64.741420 
5896.000000	64.694523 
5895.000000	64.646840 
5894.000000	64.600038 
5893.000000	64.555740 
5892.000000	64.513802 
5891.000000	64.473628 
5890.000000	64.434242 
5889.000000	64.395594 
5888.000000	64.357304 
5887.000000	64.321017 
5886.000000	64.290213 
5885.000000	64.270019 
5884.000000	64.265060 
5883.000000	64.279246 
5882.000000	64.314079 
5881.000000	64.368271 
5880.000000	64.436936 
5879.000000	64.512777 
5878.000000	64.587044 
5877.000000	64.651560 
5876.000000	64.700245 
5875.000000	64.730310 
5874.000000	64.742517 
5873.000000	64.741849 
5872.000000	64.736008 
5871.000000	64.733242 
5870.000000	64.739656 
5869.000000	64.758872 
5868.000000	64.789581 
5867.000000	64.825034 
5866.000000	64.854335 
5865.000000	64.865255 
5864.000000	64.848184 
5863.000000	64.798665 
5862.000000	64.719891 
5861.000000	64.622950 
5860.000000	64.523887 
5859.000000	64.440274 
5858.000000	64.386177 
5857.000000	64.368462 
5856.000000	64.384818 
5855.000000	64.424943 
5854.000000	64.472794 
5853.000000	64.510583 
5852.000000	64.524579 
5851.000000	64.508700 
5850.000000	64.466047 
5849.000000	64.407634 
5848.000000	64.349889 
5847.000000	64.310264 
5846.000000	64.302945 
5845.000000	64.335441 
5844.000000	64.407849 
5843.000000	64.512634 
5842.000000	64.638018 
5841.000000	64.769697 
5840.000000	64.893126 
5839.000000	64.996242 
5838.000000	65.070796 
5837.000000	65.113401 
5836.000000	65.125346 
5835.000000	65.110826 
5834.000000	65.077781 
5833.000000	65.032553 
5832.000000	64.980340 
5831.000000	64.921402 
5830.000000	64.853596 
5829.000000	64.771175 
5828.000000	64.668536 
5827.000000	64.542150 
5826.000000	64.393472 
5825.000000	64.230203 
5824.000000	64.065861 
5823.000000	63.918066 
5822.000000	63.804864 
5821.000000	63.741946 
5820.000000	63.739109 
5819.000000	63.797974 
5818.000000	63.911724 
5817.000000	64.066839 
5816.000000	64.246177 
5815.000000	64.431858 
5814.000000	64.608836 
5813.000000	64.766502 
5812.000000	64.900183 
5811.000000	65.008950 
5810.000000	65.095281 
5809.000000	65.164256 
5808.000000	65.220165 
5807.000000	65.266728 
5806.000000	65.304136 
5805.000000	65.331673 
5804.000000	65.345668 
5803.000000	65.343403 
5802.000000	65.322065 
5801.000000	65.281248 
5800.000000	65.222859 
5799.000000	65.152239 
5798.000000	65.076422 
5797.000000	65.003132 
5796.000000	64.939808 
5795.000000	64.892625 
5794.000000	64.865279 
5793.000000	64.858627 
5792.000000	64.871454 
5791.000000	64.900541 
5790.000000	64.940881 
5789.000000	64.985752 
5788.000000	65.027761 
5787.000000	65.059089 
5786.000000	65.072488 
5785.000000	65.062236 
5784.000000	65.024280 
5783.000000	64.957714 
5782.000000	64.865708 
5781.000000	64.755439 
5780.000000	64.636802 
5779.000000	64.521694 
5778.000000	64.423012 
5777.000000	64.351797 
5776.000000	64.314866 
5775.000000	64.314103 
5774.000000	64.345645 
5773.000000	64.401578 
5772.000000	64.471030 
5771.000000	64.543700 
5770.000000	64.611434 
5769.000000	64.670395 
5768.000000	64.720630 
5767.000000	64.765739 
5766.000000	64.810752 
5765.000000	64.859414 
5764.000000	64.912271 
5763.000000	64.965987 
5762.000000	65.013861 
5761.000000	65.048336 
5760.000000	65.063238 
5759.000000	65.057563 
5758.000000	65.034937 
5757.000000	65.004682 
5756.000000	64.976978 
5755.000000	64.959597 
5754.000000	64.955043 
5753.000000	64.958906 
5752.000000	64.962291 
5751.000000	64.953923 
5750.000000	64.925789 
5749.000000	64.876818 
5748.000000	64.813828 
5747.000000	64.750528 
5746.000000	64.702987 
5745.000000	64.685153 
5744.000000	64.702939 
5743.000000	64.751768 
5742.000000	64.816403 
5741.000000	64.874839 
5740.000000	64.904236 
5739.000000	64.887332 
5738.000000	64.817047 
5737.000000	64.698529 
5736.000000	64.547038 
5735.000000	64.384531 
5734.000000	64.232492 
5733.000000	64.108610 
5732.000000	64.023780 
5731.000000	63.981676 
5730.000000	63.979887 
5729.000000	64.012050 
5728.000000	64.071297 
5727.000000	64.151287 
5726.000000	64.245772 
5725.000000	64.349293 
5724.000000	64.455366 
5723.000000	64.556932 
5722.000000	64.645147 
5721.000000	64.711713 
5720.000000	64.749741 
5719.000000	64.756107 
5718.000000	64.732933 
5717.000000	64.686775 
5716.000000	64.627695 
5715.000000	64.567494 
5714.000000	64.517784 
5713.000000	64.486861 
5712.000000	64.478063 
5711.000000	64.490675 
5710.000000	64.520096 
5709.000000	64.558196 
5708.000000	64.594626 
5707.000000	64.619398 
5706.000000	64.624071 
5705.000000	64.602446 
5704.000000	64.551758 
5703.000000	64.473176 
5702.000000	64.371728 
5701.000000	64.255070 
5700.000000	64.132404 
5699.000000	64.013576 
5698.000000	63.907122 
5697.000000	63.819408 
5696.000000	63.754296 
5695.000000	63.711833 
5694.000000	63.691043 
5693.000000	63.689970 
5692.000000	63.707852 
5691.000000	63.743782 
5690.000000	63.799190 
5689.000000	63.876032 
5688.000000	63.976597 
5687.000000	64.101171 
5686.000000	64.248609 
5685.000000	64.415168 
5684.000000	64.595055 
5683.000000	64.780569 
5682.000000	64.963889 
5681.000000	65.136814 
5680.000000	65.292263 
5679.000000	65.423250 
5678.000000	65.523672 
5677.000000	65.587830 
5676.000000	65.612459 
5675.000000	65.596246 
5674.000000	65.542268 
5673.000000	65.456676 
5672.000000	65.351223 
5671.000000	65.239000 
5670.000000	65.133452 
5669.000000	65.044808 
5668.000000	64.979553 
5667.000000	64.938640 
5666.000000	64.918017 
5665.000000	64.911270 
5664.000000	64.911794 
5663.000000	64.915347 
5662.000000	64.920949 
5661.000000	64.930129 
5660.000000	64.945030 
5659.000000	64.966058 
5658.000000	64.990091 
5657.000000	65.008735 
5656.000000	65.009999 
5655.000000	64.982295 
5654.000000	64.918470 
5653.000000	64.818692 
5652.000000	64.692211 
5651.000000	64.556765 
5650.000000	64.434885 
5649.000000	64.347791 
5648.000000	64.310884 
5647.000000	64.329981 
5646.000000	64.400148 
5645.000000	64.506030 
5644.000000	64.626908 
5643.000000	64.741516 
5642.000000	64.833235 
5641.000000	64.893174 
5640.000000	64.921522 
5639.000000	64.925456 
5638.000000	64.916110 
5637.000000	64.904499 
5636.000000	64.897346 
5635.000000	64.894866 
5634.000000	64.891719 
5633.000000	64.879822 
5632.000000	64.850354 
5631.000000	64.797568 
5630.000000	64.721369 
5629.000000	64.628720 
5628.000000	64.532136 
5627.000000	64.447236 
5626.000000	64.389061 
5625.000000	64.368247 
5624.000000	64.387941 
5623.000000	64.442777 
5622.000000	64.520788 
5621.000000	64.605402 
5620.000000	64.679408 
5619.000000	64.728093 
5618.000000	64.742445 
5617.000000	64.720129 
5616.000000	64.664578 
5615.000000	64.584541 
5614.000000	64.490008 
5613.000000	64.392876 
5612.000000	64.304304 
5611.000000	64.235019 
5610.000000	64.193725 
5609.000000	64.188313 
5608.000000	64.225196 
5607.000000	64.307618 
5606.000000	64.434313 
5605.000000	64.597678 
5604.000000	64.784073 
5603.000000	64.974641 
5602.000000	65.149068 
5601.000000	65.289831 
5600.000000	65.386390 
5599.000000	65.438342 
5598.000000	65.454816 
5597.000000	65.452623 
5596.000000	65.450191 
5595.000000	65.464067 
5594.000000	65.502214 
5593.000000	65.562868 
5592.000000	65.633487 
5591.000000	65.696310 
5590.000000	65.731644 
5589.000000	65.725255 
5588.000000	65.670967 
5587.000000	65.573477 
5586.000000	65.446400 
5585.000000	65.308690 
5584.000000	65.180230 
5583.000000	65.076637 
5582.000000	65.006780 
5581.000000	64.971446 
5580.000000	64.965033 
5579.000000	64.978480 
5578.000000	65.002107 
5577.000000	65.028643 
5576.000000	65.053510 
5575.000000	65.075540 
5574.000000	65.096044 
5573.000000	65.117716 
5572.000000	65.142226 
5571.000000	65.169739 
5570.000000	65.199494 
5569.000000	65.229487 
5568.000000	65.257573 
5567.000000	65.281105 
5566.000000	65.297436 
5565.000000	65.304207 
5564.000000	65.299296 
5563.000000	65.282177 
5562.000000	65.253686 
5561.000000	65.216946 
5560.000000	65.177440 
5559.000000	65.142321 
5558.000000	65.119361 
5557.000000	65.114688 
5556.000000	65.131258 
5555.000000	65.167546 
5554.000000	65.217399 
5553.000000	65.271353 
5552.000000	65.318727 
5551.000000	65.350008 
5550.000000	65.359306 
5549.000000	65.345692 
5548.000000	65.313482 
5547.000000	65.270972 
5546.000000	65.229058 
5545.000000	65.197467 
5544.000000	65.183687 
5543.000000	65.192604 
5542.000000	65.225410 
5541.000000	65.280818 
5540.000000	65.354418 
5539.000000	65.440154 
5538.000000	65.529894 
5537.000000	65.615224 
5536.000000	65.687179 
5535.000000	65.737032 
5534.000000	65.757894 
5533.000000	65.746402 
5532.000000	65.702915 
5531.000000	65.632081 
5530.000000	65.541958 
5529.000000	65.443515 
5528.000000	65.347409 
5527.000000	65.262627 
5526.000000	65.194106 
5525.000000	65.142464 
5524.000000	65.104222 
5523.000000	65.073513 
5522.000000	65.043044 
5521.000000	65.006327 
5520.000000	64.958548 
5519.000000	64.898157 
5518.000000	64.825677 
5517.000000	64.745140 
5516.000000	64.661979 
5515.000000	64.584565 
5514.000000	64.521837 
5513.000000	64.483976 
5512.000000	64.480280 
5511.000000	64.518570 
5510.000000	64.602422 
5509.000000	64.731001 
5508.000000	64.897966 
5507.000000	65.091776 
5506.000000	65.296077 
5505.000000	65.492773 
5504.000000	65.665173 
5503.000000	65.799427 
5502.000000	65.887212 
5501.000000	65.925025 
5500.000000	65.914416 
5499.000000	65.860271 
5498.000000	65.770196 
5497.000000	65.653085 
5496.000000	65.518736 
5495.000000	65.378141 
5494.000000	65.243387 
5493.000000	65.127134 
5492.000000	65.041565 
5491.000000	64.997148 
5490.000000	65.000438 
5489.000000	65.051770 
5488.000000	65.144681 
5487.000000	65.266251 
5486.000000	65.399098 
5485.000000	65.523862 
5484.000000	65.622687 
5483.000000	65.682411 
5482.000000	65.696334 
5481.000000	65.664553 
5480.000000	65.593314 
5479.000000	65.492725 
5478.000000	65.375447 
5477.000000	65.254902 
5476.000000	65.142631 
5475.000000	65.047478 
5474.000000	64.974045 
5473.000000	64.923763 
5472.000000	64.893507 
5471.000000	64.877128 
5470.000000	64.866614 
5469.000000	64.854526 
5468.000000	64.835047 
5467.000000	64.806175 
5466.000000	64.770483 
5465.000000	64.735269 
5464.000000	64.711189 
5463.000000	64.709687 
5462.000000	64.739942 
5461.000000	64.806056 
5460.000000	64.905786 
5459.000000	65.029859 
5458.000000	65.163874 
5457.000000	65.290260 
5456.000000	65.392541 
5455.000000	65.457677 
5454.000000	65.478539 
5453.000000	65.454602 
5452.000000	65.391325 
5451.000000	65.299034 
5450.000000	65.190505 
5449.000000	65.078973 
5448.000000	64.976477 
5447.000000	64.892053 
5446.000000	64.831376 
5445.000000	64.796566 
5444.000000	64.786887 
5443.000000	64.798164 
5442.000000	64.823961 
5441.000000	64.855885 
5440.000000	64.885449 
5439.000000	64.905452 
5438.000000	64.911770 
5437.000000	64.903187 
5436.000000	64.882063 
5435.000000	64.853715 
5434.000000	64.825415 
5433.000000	64.804434 
5432.000000	64.796662 
5431.000000	64.805698 
5430.000000	64.832234 
5429.000000	64.874935 
5428.000000	64.929842 
5427.000000	64.991617 
5426.000000	65.053558 
5425.000000	65.108942 
5424.000000	65.151643 
5423.000000	65.176701 
5422.000000	65.181398 
5421.000000	65.165472 
5420.000000	65.131473 
5419.000000	65.084171 
5418.000000	65.030145 
5417.000000	64.976882 
5416.000000	64.929795 
5415.000000	64.891052 
5414.000000	64.858531 
5413.000000	64.826679 
5412.000000	64.786767 
5411.000000	64.730501 
5410.000000	64.651632 
5409.000000	64.549994 
5408.000000	64.431715 
5407.000000	64.310431 
5406.000000	64.203643 
5405.000000	64.130520 
5404.000000	64.107298 
5403.000000	64.143872 
5402.000000	64.240574 
5401.000000	64.387917 
5400.000000	64.568066 
5399.000000	64.758467 
5398.000000	64.935541 
5397.000000	65.080118 
5396.000000	65.180516 
5395.000000	65.234065 
5394.000000	65.245723 
5393.000000	65.226483 
5392.000000	65.189766 
5391.000000	65.147852 
5390.000000	65.109395 
5389.000000	65.078186 
5388.000000	65.053677 
5387.000000	65.033197 
5386.000000	65.013790 
5385.000000	64.993858 
5384.000000	64.973688 
5383.000000	64.955568 
5382.000000	64.942359 
5381.000000	64.935612 
5380.000000	64.934492 
5379.000000	64.935302 
5378.000000	64.932727 
5377.000000	64.921164 
5376.000000	64.896368 
5375.000000	64.858627 
5374.000000	64.810919 
5373.000000	64.758419 
5372.000000	64.706516 
5371.000000	64.659452 
5370.000000	64.618277 
5369.000000	64.580965 
5368.000000	64.542889 
5367.000000	64.498162 
5366.000000	64.442801 
5365.000000	64.376640 
5364.000000	64.303326 
5363.000000	64.229726 
5362.000000	64.165186 
5361.000000	64.118981 
5360.000000	64.097261 
5359.000000	64.101171 
5358.000000	64.126610 
5357.000000	64.165306 
5356.000000	64.206099 
5355.000000	64.238619 
5354.000000	64.255714 
5353.000000	64.256453 
5352.000000	64.245057 
5351.000000	64.231610 
5350.000000	64.227867 
5349.000000	64.245653 
5348.000000	64.294052 
5347.000000	64.376235 
5346.000000	64.488244 
5345.000000	64.619493 
5344.000000	64.756393 
5343.000000	64.883327 
5342.000000	64.986634 
5341.000000	65.055775 
5340.000000	65.085816 
5339.000000	65.075898 
5338.000000	65.029168 
5337.000000	64.950704 
5336.000000	64.846706 
5335.000000	64.722394 
5334.000000	64.581966 
5333.000000	64.429354 
5332.000000	64.269018 
5331.000000	64.105343 
5330.000000	63.943696 
5329.000000	63.788700 
5328.000000	63.646125 
5327.000000	63.522291 
5326.000000	63.426184 
5325.000000	63.363695 
5324.000000	63.342356 
5323.000000	63.369941 
5322.000000	63.454222 
5321.000000	63.598704 
5320.000000	63.801431 
5319.000000	64.052343 
5318.000000	64.332342 
5317.000000	64.616155 
5316.000000	64.873242 
5315.000000	65.071249 
5314.000000	65.184497 
5313.000000	65.199589 
5312.000000	65.119051 
5311.000000	64.960575 
5310.000000	64.757561 
5309.000000	64.552569 
5308.000000	64.387679 
5307.000000	64.294600 
5306.000000	64.290332 
5305.000000	64.371252 
5304.000000	64.511799 
5303.000000	64.667797 
5302.000000	64.787125 
5301.000000	64.819359 
5300.000000	64.722943 
5299.000000	64.477491 
5298.000000	64.085745 
5297.000000	63.579511 
5296.000000	63.010191 
5295.000000	62.447285 
5294.000000	61.960792 
5293.000000	61.616516 
5292.000000	61.464285 
5291.000000	61.531186 
5290.000000	61.812996 
5289.000000	62.281441 
5288.000000	62.888693 
5287.000000	63.577055 
5286.000000	64.283275 
5285.000000	64.956140 
5284.000000	65.559864 
5283.000000	66.078710 
5282.000000	66.512084 
5281.000000	66.872000 
5280.000000	67.174482 
5279.000000	67.435121 
5278.000000	67.663574 
5277.000000	67.862653 
5276.000000	68.028378 
5275.000000	68.158912 
5274.000000	68.253827 
5273.000000	68.321919 
5272.000000	68.372988 
5271.000000	68.420529 
5270.000000	68.468213 
5269.000000	68.513703 
5268.000000	68.537569 
5267.000000	68.511676 
5266.000000	68.398952 
5265.000000	68.165826 
5264.000000	67.790126 
5263.000000	67.273688 
5262.000000	66.641879 
5261.000000	65.941810 
5260.000000	65.234661 
5259.000000	64.583396 
5258.000000	64.043283 
5257.000000	63.651800 
5256.000000	63.423919 
5255.000000	63.350296 
5254.000000	63.409090 
5253.000000	63.572287 
5252.000000	63.810372 
5251.000000	64.094996 
5250.000000	64.400124 
5249.000000	64.698624 
5248.000000	64.957213 
5247.000000	65.136981 
5246.000000	65.194964 
5245.000000	65.094304 
5244.000000	64.813399 
5243.000000	64.356994 
5242.000000	63.760185 
5241.000000	63.087344 
5240.000000	62.425279 
5239.000000	61.864066 
5238.000000	61.480188 
5237.000000	61.318635 
5236.000000	61.385464 
5235.000000	61.644482 
5234.000000	62.025332 
5233.000000	62.441968 
5232.000000	62.811660 
5231.000000	63.073468 
5230.000000	63.196992 
5229.000000	63.189053 
5228.000000	63.085126 
5227.000000	62.938261 
5226.000000	62.801814 
5225.000000	62.719035 
5224.000000	62.713003 
5223.000000	62.786388 
5222.000000	62.924122 
5221.000000	63.102364 
5220.000000	63.296556 
5219.000000	63.489866 
5218.000000	63.676309 
5217.000000	63.856911 
5216.000000	64.039063 
5215.000000	64.228248 
5214.000000	64.427709 
5213.000000	64.635133 
5212.000000	64.843678 
5211.000000	65.043020 
5210.000000	65.223097 
5209.000000	65.382146 
5208.000000	65.520095 
5207.000000	65.639472 
5206.000000	65.741157 
5205.000000	65.825676 
5204.000000	65.887212 
5203.000000	65.915775 
5202.000000	65.897870 
5201.000000	65.821170 
5200.000000	65.679764 
5199.000000	65.477609 
5198.000000	65.227007 
5197.000000	64.946699 
5196.000000	64.657521 
5195.000000	64.378786 
5194.000000	64.122962 
5193.000000	63.897371 
5192.000000	63.703918 
5191.000000	63.545393 
5190.000000	63.424372 
5189.000000	63.350296 
5188.000000	63.336825 
5187.000000	63.402152 
5186.000000	63.557863 
5185.000000	63.809871 
5184.000000	64.151883 
5183.000000	64.565777 
5182.000000	65.020775 
5181.000000	65.478348 
5180.000000	65.898537 
5179.000000	66.244602 
5178.000000	66.490221 
5177.000000	66.620612 
5176.000000	66.634750 
5175.000000	66.543269 
5174.000000	66.366314 
5173.000000	66.129255 
5172.000000	65.858912 
5171.000000	65.581560 
5170.000000	65.319824 
5169.000000	65.090942 
5168.000000	64.905095 
5167.000000	64.765977 
5166.000000	64.670729 
5165.000000	64.610147 
5164.000000	64.571952 
5163.000000	64.541721 
5162.000000	64.508438 
5161.000000	64.462900 
5160.000000	64.404034 
5159.000000	64.335560 
5158.000000	64.269113 
5157.000000	64.218950 
5156.000000	64.201498 
5155.000000	64.229011 
5154.000000	64.308238 
5153.000000	64.438009 
5152.000000	64.608311 
5151.000000	64.801359 
5150.000000	64.995551 
5149.000000	65.170288 
5148.000000	65.307903 
5147.000000	65.396308 
5146.000000	65.431070 
5145.000000	65.414905 
5144.000000	65.356135 
5143.000000	65.266013 
5142.000000	65.155768 
5141.000000	65.034866 
5140.000000	64.911675 
5139.000000	64.793181 
5138.000000	64.684963 
5137.000000	64.592432 
5136.000000	64.521694 
5135.000000	64.479374 
5134.000000	64.470100 
5133.000000	64.496755 
5132.000000	64.557743 
5131.000000	64.648461 
5130.000000	64.760565 
5129.000000	64.883756 
5128.000000	65.007019 
5127.000000	65.119838 
5126.000000	65.212845 
5125.000000	65.279269 
5124.000000	65.315222 
5123.000000	65.320277 
5122.000000	65.297174 
5121.000000	65.251684 
5120.000000	65.191769 
5119.000000	65.127253 
5118.000000	65.068340 
5117.000000	65.023112 
5116.000000	64.996266 
5115.000000	64.988732 
5114.000000	64.997625 
5113.000000	65.016531 
5112.000000	65.037369 
5111.000000	65.052318 
5110.000000	65.055823 
5109.000000	65.045738 
5108.000000	65.023660 
5107.000000	64.993047 
5106.000000	64.959216 
5105.000000	64.926862 
5104.000000	64.900445 
5103.000000	64.882826 
5102.000000	64.876627 
5101.000000	64.884138 
5100.000000	64.907836 
5099.000000	64.950394 
5098.000000	65.013122 
5097.000000	65.095329 
5096.000000	65.192389 
5095.000000	65.296030 
5094.000000	65.393805 
5093.000000	65.471315 
5092.000000	65.514254 
5091.000000	65.511655 
5090.000000	65.458607 
5089.000000	65.357661 
5088.000000	65.218567 
5087.000000	65.056777 
5086.000000	64.890527 
5085.000000	64.737677 
5084.000000	64.612936 
5083.000000	64.525604 
5082.000000	64.478707 
5081.000000	64.469671 
5080.000000	64.491438 
5079.000000	64.535236 
5078.000000	64.591240 
5077.000000	64.651989 
5076.000000	64.711880 
5075.000000	64.768886 
5074.000000	64.822268 
5073.000000	64.872980 
5072.000000	64.921498 
5071.000000	64.968013 
5070.000000	65.011644 
5069.000000	65.051126 
5068.000000	65.085339 
5067.000000	65.113759 
5066.000000	65.136909 
5065.000000	65.155529 
5064.000000	65.170264 
5063.000000	65.180683 
5062.000000	65.185046 
5061.000000	65.180158 
5060.000000	65.162181 
5059.000000	65.127468 
5058.000000	65.074086 
5057.000000	65.002751 
5056.000000	64.917516 
5055.000000	64.825606 
5054.000000	64.736557 
5053.000000	64.659476 
5052.000000	64.602041 
5051.000000	64.568996 
5050.000000	64.561343 
5049.000000	64.575839 
5048.000000	64.606332 
5047.000000	64.644885 
5046.000000	64.683580 
5045.000000	64.715456 
5044.000000	64.736413 
5043.000000	64.744544 
5042.000000	64.741468 
5041.000000	64.731049 
5040.000000	64.718699 
5039.000000	64.709568 
5038.000000	64.707589 
5037.000000	64.714527 
5036.000000	64.729046 
5035.000000	64.747095 
5034.000000	64.762878 
5033.000000	64.770221 
5032.000000	64.764046 
5031.000000	64.741945 
5030.000000	64.704489 
5029.000000	64.655756 
5028.000000	64.602231 
5027.000000	64.551877 
5026.000000	64.512276 
5025.000000	64.489889 
5024.000000	64.488196 
5023.000000	64.508438 
5022.000000	64.549016 
5021.000000	64.606857 
5020.000000	64.677715 
5019.000000	64.756751 
5018.000000	64.838886 
5017.000000	64.918804 
5016.000000	64.990854 
5015.000000	65.049743 
5014.000000	65.090847 
5013.000000	65.110826 
5012.000000	65.108132 
5011.000000	65.083765 
5010.000000	65.041542 
5009.000000	64.987874 
5008.000000	64.930915 
5007.000000	64.879274 
5006.000000	64.840435 
5005.000000	64.819979 
5004.000000	64.819908 
5003.000000	64.838290 
5002.000000	64.869236 
5001.000000	64.904618 
5000.000000	64.935231 
4999.000000	64.952588 
4998.000000	64.950871 
4997.000000	64.927649 
4996.000000	64.884901 
4995.000000	64.827966 
4994.000000	64.764785 
4993.000000	64.703750 
4992.000000	64.651846 
4991.000000	64.613723 
4990.000000	64.590048 
4989.000000	64.578056 
4988.000000	64.572453 
4987.000000	64.567399 
4986.000000	64.557838 
4985.000000	64.540839 
4984.000000	64.516520 
4983.000000	64.488029 
4982.000000	64.460659 
4981.000000	64.440512 
4980.000000	64.433670 
4979.000000	64.444565 
4978.000000	64.475536 
4977.000000	64.526057 
4976.000000	64.592814 
4975.000000	64.670014 
4974.000000	64.750862 
4973.000000	64.828038 
4972.000000	64.894962 
4971.000000	64.946055 
4970.000000	64.977765 
4969.000000	64.988040 
4968.000000	64.976906 
4967.000000	64.945411 
4966.000000	64.896130 
4965.000000	64.832186 
4964.000000	64.757657 
4963.000000	64.677453 
4962.000000	64.597821 
4961.000000	64.525699 
4960.000000	64.468193 
4959.000000	64.431619 
4958.000000	64.420604 
4957.000000	64.436507 
4956.000000	64.477133 
4955.000000	64.536428 
4954.000000	64.605712 
4953.000000	64.675450 
4952.000000	64.737415 
4951.000000	64.786458 
4950.000000	64.821052 
4949.000000	64.843225 
4948.000000	64.856719 
4947.000000	64.866089 
4946.000000	64.874029 
4945.000000	64.880847 
4944.000000	64.883947 
4943.000000	64.879012 
4942.000000	64.861726 
4941.000000	64.830064 
4940.000000	64.785337 
4939.000000	64.732789 
4938.000000	64.680600 
4937.000000	64.637994 
4936.000000	64.612674 
4935.000000	64.608883 
4934.000000	64.625644 
4933.000000	64.656972 
4932.000000	64.693260 
4931.000000	64.723920 
4930.000000	64.739966 
4929.000000	64.736533 
4928.000000	64.714050 
4927.000000	64.678049 
4926.000000	64.637875 
4925.000000	64.604377 
4924.000000	64.587116 
4923.000000	64.592075 
4922.000000	64.620685 
4921.000000	64.669275 
4920.000000	64.730548 
4919.000000	64.795112 
4918.000000	64.854025 
4917.000000	64.900517 
4916.000000	64.930796 
4915.000000	64.945101 
4914.000000	64.946484 
4913.000000	64.940595 
4912.000000	64.933657 
4911.000000	64.931106 
4910.000000	64.936709 
4909.000000	64.951324 
4908.000000	64.973783 
4907.000000	64.999604 
4906.000000	65.022659 
4905.000000	65.035700 
4904.000000	65.032434 
4903.000000	65.008497 
4902.000000	64.963150 
4901.000000	64.899516 
4900.000000	64.824652 
4899.000000	64.748954 
4898.000000	64.684247 
4897.000000	64.641547 
4896.000000	64.628410 
4895.000000	64.647650 
4894.000000	64.696025 
4893.000000	64.765214 
4892.000000	64.842867 
4891.000000	64.915108 
4890.000000	64.969706 
4889.000000	64.997577 
4888.000000	64.995789 
4887.000000	64.967393 
4886.000000	64.920926 
4885.000000	64.867782 
4884.000000	64.820051 
4883.000000	64.788031 
4882.000000	64.777731 
4881.000000	64.790415 
4880.000000	64.821934 
4879.000000	64.864611 
4878.000000	64.908552 
4877.000000	64.944267 
4876.000000	64.963936 
4875.000000	64.963293 
4874.000000	64.941525 
4873.000000	64.901304 
4872.000000	64.848208 
4871.000000	64.789724 
4870.000000	64.734005 
4869.000000	64.688348 
4868.000000	64.658236 
4867.000000	64.646506 
4866.000000	64.653515 
4865.000000	64.676713 
4864.000000	64.710950 
4863.000000	64.749526 
4862.000000	64.785194 
4861.000000	64.811730 
4860.000000	64.824509 
4859.000000	64.821648 
4858.000000	64.803862 
4857.000000	64.774441 
4856.000000	64.738297 
4855.000000	64.700722 
4854.000000	64.666652 
4853.000000	64.639282 
4852.000000	64.619755 
4851.000000	64.607024 
4850.000000	64.598774 
4849.000000	64.591455 
4848.000000	64.581871 
4847.000000	64.567303 
4846.000000	64.546656 
4845.000000	64.520764 
4844.000000	64.492535 
4843.000000	64.465665 
4842.000000	64.444541 
4841.000000	64.433264 
4840.000000	64.435315 
4839.000000	64.452123 
4838.000000	64.483690 
4837.000000	64.528322 
4836.000000	64.583420 
4835.000000	64.645791 
4834.000000	64.712572 
4833.000000	64.781260 
4832.000000	64.849758 
4831.000000	64.916610 
4830.000000	64.979887 
4829.000000	65.037155 
4828.000000	65.085220 
4827.000000	65.120959 
4826.000000	65.141439 
4825.000000	65.145039 
4824.000000	65.132117 
4823.000000	65.105652 
4822.000000	65.070295 
4821.000000	65.031337 
4820.000000	64.993524 
4819.000000	64.959621 
4818.000000	64.929437 
4817.000000	64.899849 
4816.000000	64.865708 
4815.000000	64.821434 
4814.000000	64.763045 
4813.000000	64.690065 
4812.000000	64.605808 
4811.000000	64.517951 
4810.000000	64.436650 
4809.000000	64.373469 
4808.000000	64.337158 
4807.000000	64.333581 
4806.000000	64.363598 
4805.000000	64.423751 
4804.000000	64.506220 
4803.000000	64.601564 
4802.000000	64.699983 
4801.000000	64.793300 
4800.000000	64.875555 
4799.000000	64.943552 
4798.000000	64.995789 
4797.000000	65.032124 
4796.000000	65.052986 
4795.000000	65.058350 
4794.000000	65.047860 
4793.000000	65.021657 
4792.000000	64.980936 
4791.000000	64.928722 
4790.000000	64.869832 
4789.000000	64.810609 
4788.000000	64.757394 
4787.000000	64.715290 
4786.000000	64.686608 
4785.000000	64.670372 
4784.000000	64.662599 
4783.000000	64.657402 
4782.000000	64.649033 
4781.000000	64.633274 
4780.000000	64.609336 
4779.000000	64.579057 
4778.000000	64.548182 
4777.000000	64.523506 
4776.000000	64.512705 
4775.000000	64.521408 
4774.000000	64.553236 
4773.000000	64.608383 
4772.000000	64.684677 
4771.000000	64.778065 
4770.000000	64.882922 
4769.000000	64.992833 
4768.000000	65.100574 
4767.000000	65.198850 
4766.000000	65.280079 
4765.000000	65.337133 
4764.000000	65.364360 
4763.000000	65.358281 
4762.000000	65.319514 
4761.000000	65.252256 
4760.000000	65.164160 
4759.000000	65.065121 
4758.000000	64.965939 
4757.000000	64.876794 
4756.000000	64.805769 
4755.000000	64.757943 
4754.000000	64.735364 
4753.000000	64.737415 
4752.000000	64.761471 
4751.000000	64.803743 
4750.000000	64.859652 
4749.000000	64.924550 
4748.000000	64.993715 
4747.000000	65.062642 
4746.000000	65.126156 
4745.000000	65.179848 
4744.000000	65.220165 
4743.000000	65.245127 
4742.000000	65.254521 
4741.000000	65.250682 
4740.000000	65.238189 
4739.000000	65.222883 
4738.000000	65.210771 
4737.000000	65.207147 
4736.000000	65.215253 
4735.000000	65.235805 
4734.000000	65.266180 
4733.000000	65.301275 
4732.000000	65.333962 
4731.000000	65.357184 
4730.000000	65.365266 
4729.000000	65.354704 
4728.000000	65.325021 
4727.000000	65.279507 
4726.000000	65.223765 
4725.000000	65.164256 
4724.000000	65.106797 
4723.000000	65.056180 
4722.000000	65.014028 
4721.000000	64.979362 
4720.000000	64.948391 
4719.000000	64.916324 
4718.000000	64.878535 
4717.000000	64.832544 
4716.000000	64.778184 
4715.000000	64.717888 
4714.000000	64.656639 
4713.000000	64.600968 
4712.000000	64.557075 
4711.000000	64.529871 
4710.000000	64.522743 
4709.000000	64.537572 
4708.000000	64.574122 
4707.000000	64.630603 
4706.000000	64.703798 
4705.000000	64.790129 
4704.000000	64.885139 
4703.000000	64.984679 
4702.000000	65.084671 
4701.000000	65.181708 
4700.000000	65.273141 
4699.000000	65.356421 
4698.000000	65.429639 
4697.000000	65.490746 
4696.000000	65.538144 
4695.000000	65.570020 
4694.000000	65.585088 
4693.000000	65.582489 
4692.000000	65.563344 
4691.000000	65.529394 
4690.000000	65.483903 
4689.000000	65.430426 
4688.000000	65.373063 
4687.000000	65.314364 
4686.000000	65.255188 
4685.000000	65.194749 
4684.000000	65.131592 
4683.000000	65.064668 
4682.000000	64.994502 
4681.000000	64.924049 
4680.000000	64.858889 
4679.000000	64.805626 
4678.000000	64.770698 
4677.000000	64.757800 
4676.000000	64.767408 
4675.000000	64.796137 
4674.000000	64.837551 
4673.000000	64.882564 
4672.000000	64.922237 
4671.000000	64.949631 
4670.000000	64.960837 
4669.000000	64.955091 
4668.000000	64.934849 
4667.000000	64.904546 
4666.000000	64.869761 
4665.000000	64.835429 
4664.000000	64.805889 
4663.000000	64.784264 
4662.000000	64.772987 
4661.000000	64.773750 
4660.000000	64.787101 
4659.000000	64.812541 
4658.000000	64.848160 
4657.000000	64.891028 
4656.000000	64.937019 
4655.000000	64.981412 
4654.000000	65.020084 
4653.000000	65.049529 
4652.000000	65.067338 
4651.000000	65.072059 
4650.000000	65.063714 
4649.000000	65.043330 
4648.000000	65.012526 
4647.000000	64.973402 
4646.000000	64.928817 
4645.000000	64.881849 
4644.000000	64.836263 
4643.000000	64.795732 
4642.000000	64.763760 
4641.000000	64.743065 
4640.000000	64.735221 
4639.000000	64.740228 
4638.000000	64.756345 
4637.000000	64.780712 
4636.000000	64.809608 
4635.000000	64.839601 
4634.000000	64.867901 
4633.000000	64.892697 
4632.000000	64.912891 
4631.000000	64.928293 
4630.000000	64.939284 
4629.000000	64.946413 
4628.000000	64.950156 
4627.000000	64.951419 
4626.000000	64.951109 
4625.000000	64.950394 
4624.000000	64.950037 
4623.000000	64.950776 
4622.000000	64.952230 
4621.000000	64.953160 
4620.000000	64.951181 
4619.000000	64.943075 
4618.000000	64.925932 
4617.000000	64.897847 
4616.000000	64.859199 
4615.000000	64.812636 
4614.000000	64.763498 
4613.000000	64.718580 
4612.000000	64.685249 
4611.000000	64.669394 
4610.000000	64.674615 
4609.000000	64.701342 
4608.000000	64.746856 
4607.000000	64.805626 
4606.000000	64.871168 
4605.000000	64.937043 
4604.000000	64.998221 
4603.000000	65.051746 
4602.000000	65.097045 
4601.000000	65.135359 
4600.000000	65.168714 
4599.000000	65.198993 
4598.000000	65.227246 
4597.000000	65.252852 
4596.000000	65.274310 
4595.000000	65.288949 
4594.000000	65.294384 
4593.000000	65.288496 
4592.000000	65.270781 
4591.000000	65.241909 
4590.000000	65.204286 
4589.000000	65.160918 
4588.000000	65.115404 
4587.000000	65.070533 
4586.000000	65.028071 
4585.000000	64.988493 
4584.000000	64.951515 
4583.000000	64.916467 
4582.000000	64.882922 
4581.000000	64.851188 
4580.000000	64.822578 
4579.000000	64.798903 
4578.000000	64.782023 
4577.000000	64.773130 
4576.000000	64.772224 
4575.000000	64.778184 
4574.000000	64.788842 
4573.000000	64.801192 
4572.000000	64.812016 
4571.000000	64.819002 
4570.000000	64.820599 
4569.000000	64.815783 
4568.000000	64.803910 
4567.000000	64.784479 
4566.000000	64.757490 
4565.000000	64.722752 
4564.000000	64.681243 
4563.000000	64.635610 
4562.000000	64.590382 
4561.000000	64.551472 
4560.000000	64.525103 
4559.000000	64.516162 
4558.000000	64.527177 
4557.000000	64.556884 
4556.000000	64.601063 
4555.000000	64.652991 
4554.000000	64.705801 
4553.000000	64.753842 
4552.000000	64.794135 
4551.000000	64.826345 
4550.000000	64.852714 
4549.000000	64.876198 
4548.000000	64.898729 
4547.000000	64.919424 
4546.000000	64.934587 
4545.000000	64.938044 
4544.000000	64.922666 
4543.000000	64.882373 
4542.000000	64.814734 
4541.000000	64.721655 
4540.000000	64.609956 
4539.000000	64.490127 
4538.000000	64.374256 
4537.000000	64.273548 
4536.000000	64.195895 
4535.000000	64.144802 
4534.000000	64.119315 
4533.000000	64.114689 
4532.000000	64.124131 
4531.000000	64.140772 
4530.000000	64.159107 
4529.000000	64.175915 
4528.000000	64.189934 
4527.000000	64.201879 
4526.000000	64.212822 
4525.000000	64.224600 
4524.000000	64.238619 
4523.000000	64.256095 
4522.000000	64.277434 
4521.000000	64.302277 
4520.000000	64.329099 
4519.000000	64.355254 
4518.000000	64.377069 
4517.000000	64.390635 
4516.000000	64.392495 
4515.000000	64.380455 
4514.000000	64.354658 
4513.000000	64.317369 
4512.000000	64.273357 
4511.000000	64.229178 
4510.000000	64.192390 
4509.000000	64.170527 
4508.000000	64.169168 
4507.000000	64.191460 
4506.000000	64.236378 
4505.000000	64.298725 
4504.000000	64.370155 
4503.000000	64.440703 
4502.000000	64.500856 
4501.000000	64.543128 
4500.000000	64.564108 
4499.000000	64.564895 
4498.000000	64.550423 
4497.000000	64.527678 
4496.000000	64.504170 
4495.000000	64.485740 
4494.000000	64.475274 
4493.000000	64.472246 
4492.000000	64.473676 
4491.000000	64.474892 
4490.000000	64.472246 
4489.000000	64.463329 
4488.000000	64.448285 
4487.000000	64.428520 
4486.000000	64.405918 
4485.000000	64.381575 
4484.000000	64.354467 
4483.000000	64.322185 
4482.000000	64.281487 
4481.000000	64.230275 
4480.000000	64.168620 
4479.000000	64.100384 
4478.000000	64.032649 
4477.000000	63.975048 
4476.000000	63.936996 
4475.000000	63.926863 
4474.000000	63.949394 
4473.000000	64.005017 
4472.000000	64.089107 
4471.000000	64.192700 
4470.000000	64.304089 
4469.000000	64.410781 
4468.000000	64.501214 
4467.000000	64.566540 
4466.000000	64.601755 
4465.000000	64.605879 
4464.000000	64.581513 
4463.000000	64.533877 
4462.000000	64.469575 
4461.000000	64.396333 
4460.000000	64.321613 
4459.000000	64.253163 
4458.000000	64.196968 
4457.000000	64.158415 
4456.000000	64.139199 
4455.000000	64.137291 
4454.000000	64.146566 
4453.000000	64.157867 
4452.000000	64.161348 
4451.000000	64.148044 
4450.000000	64.113497 
4449.000000	64.058303 
4448.000000	63.989400 
4447.000000	63.918209 
4446.000000	63.858389 
4445.000000	63.822484 
4444.000000	63.818764 
4443.000000	63.848805 
4442.000000	63.908386 
4441.000000	63.988566 
4440.000000	64.075922 
4439.000000	64.155697 
4438.000000	64.218449 
4437.000000	64.260387 
4436.000000	64.278888 
4435.000000	64.274859 
4434.000000	64.251995 
4433.000000	64.216494 
4432.000000	64.178800 
4431.000000	64.149665 
4430.000000	64.135146 
4429.000000	64.138364 
4428.000000	64.163255 
4427.000000	64.209389 
4426.000000	64.273715 
4425.000000	64.348053 
4424.000000	64.417362 
4423.000000	64.467787 
4422.000000	64.492368 
4421.000000	64.488291 
4420.000000	64.455056 
4419.000000	64.401626 
4418.000000	64.346432 
4417.000000	64.308309 
4416.000000	64.305591 
4415.000000	64.357066 
4414.000000	64.483523 
4413.000000	64.723920 
4412.000000	65.124297 
4411.000000	65.734648 
4410.000000	66.577243 
4409.000000	67.636179 
4408.000000	68.829393 
4407.000000	70.011973 
4406.000000	70.990800 
4405.000000	71.564674 
4404.000000	71.572041 
4403.000000	70.929336 
4402.000000	69.672012 
4401.000000	67.947053 
4400.000000	66.012620 
4399.000000	64.173936 
4398.000000	62.752079 
4397.000000	62.015795 
4396.000000	62.139654 
4395.000000	63.170719 
4394.000000	65.021681 
4393.000000	67.494058 
4392.000000	70.301914 
4391.000000	73.124265 
4390.000000	75.644421 
4389.000000	77.597546 
4388.000000	78.797864 
4387.000000	79.158878 
4386.000000	78.700733 
4385.000000	77.535581 
4384.000000	75.855684 
4383.000000	73.888134 
4382.000000	71.871232 
4381.000000	70.003533 
4380.000000	68.438029 
4379.000000	67.250037 
4378.000000	66.456890 
4377.000000	66.014981 
4376.000000	65.846228 
4375.000000	65.857291 
4374.000000	65.955901 
4373.000000	66.071224 
4372.000000	66.141724 
4371.000000	66.138935 
4370.000000	66.047954 
4369.000000	65.878391 
4368.000000	65.647411 
4367.000000	65.380191 
4366.000000	65.097975 
4365.000000	64.822530 
4364.000000	64.573240 
4363.000000	64.367723 
4362.000000	64.221882 
4361.000000	64.142894 
4360.000000	64.128041 
4359.000000	64.169979 
4358.000000	64.257311 
4357.000000	64.366984 
4356.000000	64.472389 
4355.000000	64.550614 
4354.000000	64.587497 
4353.000000	64.582228 
4352.000000	64.545059 
4351.000000	64.487075 
4350.000000	64.420890 
4349.000000	64.361143 
4348.000000	64.317607 
4347.000000	64.289593 
4346.000000	64.271759 
4345.000000	64.260053 
4344.000000	64.251255 
4343.000000	64.245128 
4342.000000	64.245033 
4341.000000	64.256405 
4340.000000	64.285397 
4339.000000	64.335632 
4338.000000	64.407491 
4337.000000	64.496898 
4336.000000	64.594864 
4335.000000	64.688944 
4334.000000	64.766740 
4333.000000	64.818596 
4332.000000	64.838099 
4331.000000	64.823412 
4330.000000	64.777851 
4329.000000	64.709186 
4328.000000	64.627814 
4327.000000	64.544725 
4326.000000	64.470362 
4325.000000	64.411902 
4324.000000	64.373612 
4323.000000	64.354872 
4322.000000	64.351272 
4321.000000	64.355516 
4320.000000	64.359331 
4319.000000	64.355611 
4318.000000	64.339447 
4317.000000	64.310431 
4316.000000	64.271426 
4315.000000	64.229273 
4314.000000	64.192152 
4313.000000	64.168739 
4312.000000	64.165759 
4311.000000	64.187097 
4310.000000	64.232540 
4309.000000	64.298510 
4308.000000	64.378786 
4307.000000	64.465594 
4306.000000	64.550733 
4305.000000	64.627242 
4304.000000	64.689731 
4303.000000	64.734435 
4302.000000	64.759302 
4301.000000	64.763808 
4300.000000	64.748764 
4299.000000	64.716577 
4298.000000	64.670848 
4297.000000	64.616346 
4296.000000	64.558267 
4295.000000	64.503073 
4294.000000	64.456057 
4293.000000	64.420843 
4292.000000	64.398503 
4291.000000	64.387679 
4290.000000	64.385271 
4289.000000	64.387249 
4288.000000	64.390134 
4287.000000	64.391517 
4286.000000	64.390802 
4285.000000	64.388585 
4284.000000	64.386224 
4283.000000	64.384722 
4282.000000	64.384198 
4281.000000	64.383482 
4280.000000	64.380693 
4279.000000	64.373564 
4278.000000	64.360117 
4277.000000	64.339518 
4276.000000	64.312481 
4275.000000	64.281821 
4274.000000	64.251852 
4273.000000	64.228057 
4272.000000	64.215660 
4271.000000	64.218783 
4270.000000	64.239120 
4269.000000	64.275550 
4268.000000	64.324355 
4267.000000	64.379692 
4266.000000	64.434719 
4265.000000	64.482736 
4264.000000	64.518499 
4263.000000	64.538741 
4262.000000	64.542651 
4261.000000	64.531517 
4260.000000	64.508199 
4259.000000	64.476656 
4258.000000	64.440965 
4257.000000	64.405155 
4256.000000	64.372825 
4255.000000	64.347338 
4254.000000	64.331746 
4253.000000	64.328646 
4252.000000	64.340186 
4251.000000	64.367365 
4250.000000	64.409971 
4249.000000	64.466071 
4248.000000	64.532423 
4247.000000	64.604878 
4246.000000	64.679074 
4245.000000	64.751029 
4244.000000	64.817428 
4243.000000	64.876079 
4242.000000	64.925050 
4241.000000	64.963316 
4240.000000	64.989566 
4239.000000	65.002608 
4238.000000	65.000963 
4237.000000	64.984059 
4236.000000	64.951920 
4235.000000	64.906501 
4234.000000	64.851307 
4233.000000	64.791369 
4232.000000	64.732551 
4231.000000	64.680910 
4230.000000	64.641213 
4229.000000	64.616537 
4228.000000	64.607572 
4227.000000	64.612650 
4226.000000	64.628601 
4225.000000	64.651489 
4224.000000	64.677119 
4223.000000	64.701938 
4222.000000	64.723467 
4221.000000	64.740777 
4220.000000	64.754033 
4219.000000	64.764332 
4218.000000	64.772963 
4217.000000	64.781498 
4216.000000	64.791440 
4215.000000	64.803910 
4214.000000	64.819145 
4213.000000	64.836454 
4212.000000	64.854764 
4211.000000	64.872288 
4210.000000	64.886808 
4209.000000	64.896249 
4208.000000	64.899158 
4207.000000	64.895248 
4206.000000	64.885330 
4205.000000	64.871597 
4204.000000	64.857196 
4203.000000	64.845967 
4202.000000	64.841556 
4201.000000	64.847064 
4200.000000	64.864301 
4199.000000	64.894056 
4198.000000	64.935922 
4197.000000	64.988422 
4196.000000	65.048837 
4195.000000	65.113878 
4194.000000	65.179181 
4193.000000	65.239596 
4192.000000	65.289449 
4191.000000	65.322804 
4190.000000	65.334725 
4189.000000	65.322756 
4188.000000	65.287613 
4187.000000	65.233540 
4186.000000	65.167379 
4185.000000	65.098285 
4184.000000	65.034961 
4183.000000	64.984655 
4182.000000	64.951229 
4181.000000	64.934849 
4180.000000	64.932203 
4179.000000	64.937591 
4178.000000	64.944911 
4177.000000	64.949059 
4176.000000	64.947462 
4175.000000	64.940214 
4174.000000	64.930534 
4173.000000	64.923357 
4172.000000	64.923977 
4171.000000	64.936089 
4170.000000	64.961123 
4169.000000	64.997100 
4168.000000	65.039563 
4167.000000	65.081906 
4166.000000	65.116858 
4165.000000	65.137791 
4164.000000	65.139842 
4163.000000	65.121126 
4162.000000	65.082693 
4161.000000	65.028762 
4160.000000	64.965581 
4159.000000	64.900636 
4158.000000	64.841628 
4157.000000	64.795207 
4156.000000	64.766550 
4155.000000	64.758038 
4154.000000	64.769458 
4153.000000	64.797449 
4152.000000	64.836716 
4151.000000	64.880013 
4150.000000	64.919209 
4149.000000	64.946937 
4148.000000	64.957571 
4147.000000	64.949035 
4146.000000	64.923024 
4145.000000	64.885163 
4144.000000	64.843893 
4143.000000	64.809060 
4142.000000	64.789724 
4141.000000	64.792537 
4140.000000	64.819860 
4139.000000	64.869475 
4138.000000	64.934968 
4137.000000	65.007233 
4136.000000	65.076613 
4135.000000	65.134859 
4134.000000	65.176796 
4133.000000	65.200805 
4132.000000	65.208816 
4131.000000	65.204882 
4130.000000	65.194034 
4129.000000	65.180897 
4128.000000	65.168261 
4127.000000	65.156865 
4126.000000	65.145802 
4125.000000	65.133738 
4124.000000	65.119314 
4123.000000	65.102171 
4122.000000	65.083003 
4121.000000	65.063357 
4120.000000	65.045237 
4119.000000	65.030431 
4118.000000	65.019941 
4117.000000	65.013766 
4116.000000	65.011715 
4115.000000	65.013718 
4114.000000	65.020227 
4113.000000	65.032196 
4112.000000	65.050721 
4111.000000	65.076446 
4110.000000	65.108728 
4109.000000	65.145564 
4108.000000	65.183448 
4107.000000	65.218424 
4106.000000	65.246415 
4105.000000	65.264725 
4104.000000	65.272617 
4103.000000	65.271353 
4102.000000	65.264034 
4101.000000	65.254449 
4100.000000	65.246629 
4099.000000	65.243196 
4098.000000	65.245103 
4097.000000	65.251135 
4096.000000	65.258526 
4095.000000	65.263652 
4094.000000	65.263319 
4093.000000	65.255498 
4092.000000	65.240001 
4091.000000	65.218520 
4090.000000	65.194225 
4089.000000	65.170860 
4088.000000	65.152025 
4087.000000	65.140199 
4086.000000	65.136432 
4085.000000	65.140366 
4084.000000	65.150618 
4083.000000	65.165114 
4082.000000	65.181946 
4081.000000	65.199542 
4080.000000	65.217018 
4079.000000	65.234160 
4078.000000	65.250897 
4077.000000	65.267276 
4076.000000	65.282964 
4075.000000	65.297055 
4074.000000	65.308356 
4073.000000	65.315556 
4072.000000	65.317440 
4071.000000	65.313410 
4070.000000	65.303492 
4069.000000	65.288543 
4068.000000	65.270090 
4067.000000	65.249991 
4066.000000	65.230107 
4065.000000	65.211939 
4064.000000	65.196275 
4063.000000	65.183043 
4062.000000	65.171337 
4061.000000	65.159654 
4060.000000	65.146255 
4059.000000	65.129852 
4058.000000	65.110039 
4057.000000	65.087914 
4056.000000	65.065860 
4055.000000	65.047478 
4054.000000	65.036630 
4053.000000	65.036916 
4052.000000	65.050339 
4051.000000	65.077209 
4050.000000	65.115857 
4049.000000	65.162611 
4048.000000	65.212416 
4047.000000	65.259432 
4046.000000	65.298175 
4045.000000	65.324306 
4044.000000	65.335035 
4043.000000	65.329885 
4042.000000	65.310645 
4041.000000	65.280914 
4040.000000	65.245485 
4039.000000	65.209412 
4038.000000	65.177369 
4037.000000	65.152835 
4036.000000	65.137791 
4035.000000	65.132570 
4034.000000	65.136194 
4033.000000	65.146827 
4032.000000	65.162611 
4031.000000	65.181875 
4030.000000	65.203428 
4029.000000	65.226483 
4028.000000	65.250396 
4027.000000	65.274190 
4026.000000	65.296220 
4025.000000	65.314435 
4024.000000	65.326309 
4023.000000	65.329575 
4022.000000	65.322542 
4021.000000	65.305233 
4020.000000	65.278911 
4019.000000	65.246129 
4018.000000	65.209937 
4017.000000	65.173554 
4016.000000	65.139484 
4015.000000	65.109419 
4014.000000	65.083956 
4013.000000	65.062880 
4012.000000	65.045595 
4011.000000	65.031671 
4010.000000	65.021038 
4009.000000	65.013885 
4008.000000	65.010476 
4007.000000	65.010714 
4006.000000	65.013718 
4005.000000	65.018272 
4004.000000	65.022277 
4003.000000	65.024018 
4002.000000	65.022230 
4001.000000	65.017318 
4000.000000	65.010905 
3999.000000	65.006256 
3998.000000	65.007066 
3997.000000	65.016531 
3996.000000	65.036654 
3995.000000	65.067148 
3994.000000	65.105462 
3993.000000	65.146803 
3992.000000	65.185523 
3991.000000	65.216159 
3990.000000	65.234780 
3989.000000	65.239763 
3988.000000	65.232014 
3987.000000	65.214800 
3986.000000	65.192794 
3985.000000	65.170693 
3984.000000	65.152072 
3983.000000	65.138936 
3982.000000	65.131545 
3981.000000	65.128779 
3980.000000	65.128874 
3979.000000	65.130400 
3978.000000	65.132761 
3977.000000	65.136361 
3976.000000	65.142369 
3975.000000	65.151977 
3974.000000	65.166020 
3973.000000	65.184116 
3972.000000	65.204691 
3971.000000	65.224981 
3970.000000	65.241456 
3969.000000	65.250968 
3968.000000	65.251159 
3967.000000	65.240979 
3966.000000	65.221047 
3965.000000	65.193700 
3964.000000	65.162372 
3963.000000	65.131044 
3962.000000	65.103626 
3961.000000	65.083599 
3960.000000	65.073084 
3959.000000	65.072751 
3958.000000	65.081691 
3957.000000	65.097594 
3956.000000	65.116977 
3955.000000	65.136098 
3954.000000	65.151309 
3953.000000	65.160083 
3952.000000	65.161442 
3951.000000	65.155982 
3950.000000	65.145587 
3949.000000	65.132641 
3948.000000	65.119743 
3947.000000	65.108585 
3946.000000	65.099811 
3945.000000	65.092587 
3944.000000	65.085315 
3943.000000	65.075969 
3942.000000	65.062808 
3941.000000	65.044903 
3940.000000	65.022540 
3939.000000	64.997220 
3938.000000	64.971256 
3937.000000	64.947152 
3936.000000	64.927196 
3935.000000	64.912676 
3934.000000	64.903616 
3933.000000	64.899015 
3932.000000	64.897108 
3931.000000	64.895820 
3930.000000	64.893436 
3929.000000	64.888906 
3928.000000	64.882063 
3927.000000	64.873361 
3926.000000	64.863848 
3925.000000	64.854621 
3924.000000	64.846920 
3923.000000	64.841938 
3922.000000	64.840626 
3921.000000	64.843630 
3920.000000	64.851260 
3919.000000	64.862799 
3918.000000	64.877080 
3917.000000	64.892125 
3916.000000	64.906024 
3915.000000	64.916658 
3914.000000	64.923191 
3913.000000	64.926052 
3912.000000	64.927172 
3911.000000	64.929533 
3910.000000	64.936399 
3909.000000	64.950466 
3908.000000	64.972519 
3907.000000	65.000867 
3906.000000	65.031671 
3905.000000	65.059614 
3904.000000	65.079355 
3903.000000	65.086984 
3902.000000	65.081238 
3901.000000	65.063929 
3900.000000	65.039491 
3899.000000	65.013790 
3898.000000	64.992475 
3897.000000	64.979553 
3896.000000	64.976716 
3895.000000	64.983105 
3894.000000	64.995908 
3893.000000	65.011501 
3892.000000	65.026688 
3891.000000	65.039896 
3890.000000	65.051031 
3889.000000	65.061831 
3888.000000	65.074276 
3887.000000	65.090560 
3886.000000	65.111446 
3885.000000	65.136480 
3884.000000	65.163826 
3883.000000	65.190696 
3882.000000	65.214371 
3881.000000	65.232229 
3880.000000	65.242648 
3879.000000	65.244865 
3878.000000	65.238976 
3877.000000	65.225338 
3876.000000	65.204596 
3875.000000	65.177559 
3874.000000	65.145158 
3873.000000	65.108776 
3872.000000	65.070176 
3871.000000	65.031599 
3870.000000	64.995384 
3869.000000	64.963603 
3868.000000	64.937853 
3867.000000	64.918851 
3866.000000	64.906716 
3865.000000	64.900875 
3864.000000	64.900684 
3863.000000	64.905381 
3862.000000	64.914679 
3861.000000	64.928197 
3860.000000	64.945578 
3859.000000	64.965701 
3858.000000	64.987111 
3857.000000	65.007781 
3856.000000	65.025830 
3855.000000	65.039467 
3854.000000	65.048241 
3853.000000	65.053176 
3852.000000	65.056467 
3851.000000	65.060901 
3850.000000	65.068912 
3849.000000	65.081954 
3848.000000	65.099620 
3847.000000	65.119791 
3846.000000	65.139293 
3845.000000	65.154743 
3844.000000	65.163826 
3843.000000	65.165877 
3842.000000	65.162062 
3841.000000	65.154790 
3840.000000	65.147376 
3839.000000	65.142679 
3838.000000	65.142464 
3837.000000	65.146803 
3836.000000	65.154719 
3835.000000	65.164256 
3834.000000	65.173316 
3833.000000	65.180015 
3832.000000	65.183496 
3831.000000	65.183281 
3830.000000	65.179324 
3829.000000	65.171337 
3828.000000	65.158581 
3827.000000	65.140295 
3826.000000	65.115809 
3825.000000	65.085220 
3824.000000	65.049648 
3823.000000	65.011310 
3822.000000	64.973139 
3821.000000	64.938259 
3820.000000	64.909315 
3819.000000	64.887928 
3818.000000	64.874505 
3817.000000	64.868044 
3816.000000	64.866781 
3815.000000	64.868474 
3814.000000	64.871215 
3813.000000	64.873313 
3812.000000	64.874148 
3811.000000	64.873766 
3810.000000	64.873456 
3809.000000	64.874529 
3808.000000	64.878678 
3807.000000	64.887189 
3806.000000	64.900922 
3805.000000	64.920115 
3804.000000	64.944243 
3803.000000	64.971876 
3802.000000	65.000939 
3801.000000	65.028977 
3800.000000	65.053725 
3799.000000	65.073442 
3798.000000	65.087389 
3797.000000	65.095996 
3796.000000	65.100693 
3795.000000	65.103459 
3794.000000	65.106511 
3793.000000	65.111565 
3792.000000	65.119457 
3791.000000	65.129518 
3790.000000	65.140247 
3789.000000	65.149211 
3788.000000	65.153622 
3787.000000	65.150904 
3786.000000	65.139603 
3785.000000	65.119647 
3784.000000	65.092492 
3783.000000	65.060949 
3782.000000	65.028595 
3781.000000	64.999413 
3780.000000	64.976835 
3779.000000	64.963173 
3778.000000	64.959335 
3777.000000	64.964604 
3776.000000	64.977121 
3775.000000	64.994049 
3774.000000	65.012216 
3773.000000	65.028738 
3772.000000	65.041565 
3771.000000	65.049552 
3770.000000	65.052556 
3769.000000	65.051364 
3768.000000	65.047216 
3767.000000	65.041851 
3766.000000	65.036892 
3765.000000	65.033817 
3764.000000	65.033769 
3763.000000	65.037631 
3762.000000	65.045833 
3761.000000	65.058231 
3760.000000	65.074443 
3759.000000	65.093517 
3758.000000	65.114259 
3757.000000	65.135407 
3756.000000	65.155839 
3755.000000	65.174484 
3754.000000	65.190482 
3753.000000	65.203046 
3752.000000	65.211343 
3751.000000	65.214705 
3750.000000	65.212559 
3749.000000	65.204596 
3748.000000	65.190982 
3747.000000	65.172767 
3746.000000	65.151858 
3745.000000	65.130877 
3744.000000	65.113043 
3743.000000	65.101408 
3742.000000	65.098547 
3741.000000	65.105843 
3740.000000	65.123105 
3739.000000	65.148448 
3738.000000	65.178513 
3737.000000	65.209150 
3736.000000	65.235996 
3735.000000	65.255284 
3734.000000	65.264225 
3733.000000	65.261721 
3732.000000	65.248084 
3731.000000	65.225124 
3730.000000	65.195894 
3729.000000	65.164136 
3728.000000	65.133452 
3727.000000	65.107035 
3726.000000	65.087270 
3725.000000	65.075421 
3724.000000	65.071654 
3723.000000	65.075087 
3722.000000	65.084052 
3721.000000	65.096616 
3720.000000	65.110754 
3719.000000	65.124702 
3718.000000	65.136766 
3717.000000	65.145659 
3716.000000	65.150475 
3715.000000	65.150737 
3714.000000	65.146350 
3713.000000	65.137934 
3712.000000	65.126538 
3711.000000	65.113687 
3710.000000	65.101122 
3709.000000	65.090823 
3708.000000	65.084314 
3707.000000	65.082263 
3706.000000	65.084171 
3705.000000	65.088295 
3704.000000	65.091896 
3703.000000	65.091514 
3702.000000	65.084242 
3701.000000	65.067958 
3700.000000	65.042638 
3699.000000	65.010190 
3698.000000	64.974975 
3697.000000	64.942717 
3696.000000	64.919924 
3695.000000	64.912176 
3694.000000	64.923167 
3693.000000	64.953517 
3692.000000	65.000271 
3691.000000	65.057444 
3690.000000	65.116834 
3689.000000	65.169763 
3688.000000	65.209126 
3687.000000	65.230870 
3686.000000	65.234804 
3685.000000	65.224361 
3684.000000	65.205478 
3683.000000	65.184855 
3682.000000	65.168309 
3681.000000	65.159487 
3680.000000	65.159153 
3679.000000	65.165400 
3678.000000	65.174841 
3677.000000	65.183734 
3676.000000	65.189504 
3675.000000	65.191149 
3674.000000	65.189576 
3673.000000	65.187025 
3672.000000	65.185856 
3671.000000	65.188097 
3670.000000	65.194368 
3669.000000	65.203857 
3668.000000	65.214753 
3667.000000	65.224814 
3666.000000	65.232443 
3665.000000	65.236783 
3664.000000	65.237927 
3663.000000	65.236830 
3662.000000	65.234541 
3661.000000	65.232372 
3660.000000	65.231132 
3659.000000	65.230941 
3658.000000	65.231251 
3657.000000	65.231347 
3656.000000	65.230369 
3655.000000	65.227484 
3654.000000	65.222048 
3653.000000	65.213537 
3652.000000	65.201902 
3651.000000	65.187215 
3650.000000	65.170049 
3649.000000	65.151357 
3648.000000	65.132737 
3647.000000	65.116047 
3646.000000	65.103411 
3645.000000	65.096783 
3644.000000	65.097665 
3643.000000	65.106678 
3642.000000	65.123414 
3641.000000	65.146780 
3640.000000	65.174865 
3639.000000	65.205430 
3638.000000	65.236091 
3637.000000	65.264654 
3636.000000	65.289020 
3635.000000	65.307450 
3634.000000	65.318489 
3633.000000	65.321087 
3632.000000	65.314793 
3631.000000	65.300059 
3630.000000	65.278124 
3629.000000	65.251111 
3628.000000	65.222096 
3627.000000	65.194320 
3626.000000	65.170836 
3625.000000	65.153574 
3624.000000	65.143346 
3623.000000	65.139532 
3622.000000	65.140509 
3621.000000	65.143966 
3620.000000	65.147638 
3619.000000	65.149879 
3618.000000	65.149950 
3617.000000	65.147900 
3616.000000	65.144276 
3615.000000	65.139865 
3614.000000	65.135216 
3613.000000	65.130567 
3612.000000	65.125536 
3611.000000	65.119743 
3610.000000	65.113043 
3609.000000	65.105843 
3608.000000	65.099215 
3607.000000	65.094518 
3606.000000	65.093421 
3605.000000	65.097069 
3604.000000	65.106129 
3603.000000	65.120553 
3602.000000	65.139722 
3601.000000	65.162754 
3600.000000	65.188574 
3599.000000	65.216302 
3598.000000	65.244865 
3597.000000	65.273213 
3596.000000	65.299963 
3595.000000	65.323233 
3594.000000	65.340590 
3593.000000	65.349745 
3592.000000	65.348505 
3591.000000	65.335750 
3590.000000	65.311360 
3589.000000	65.276956 
3588.000000	65.235328 
3587.000000	65.190362 
3586.000000	65.146350 
3585.000000	65.107226 
3584.000000	65.076422 
3583.000000	65.056395 
3582.000000	65.048670 
3581.000000	65.053534 
3580.000000	65.070295 
3579.000000	65.097260 
3578.000000	65.131664 
3577.000000	65.170145 
3576.000000	65.208792 
3575.000000	65.243673 
3574.000000	65.271329 
3573.000000	65.289354 
3572.000000	65.296816 
3571.000000	65.294384 
3570.000000	65.284299 
3569.000000	65.269565 
3568.000000	65.253615 
3567.000000	65.238976 
3566.000000	65.227222 
3565.000000	65.218210 
3564.000000	65.210556 
3563.000000	65.201854 
3562.000000	65.189671 
3561.000000	65.172195 
3560.000000	65.148878 
3559.000000	65.120649 
3558.000000	65.089726 
3557.000000	65.059304 
3556.000000	65.032649 
3555.000000	65.012788 
3554.000000	65.001583 
3553.000000	65.000009 
3552.000000	65.007877 
3551.000000	65.024042 
3550.000000	65.046620 
3549.000000	65.073323 
3548.000000	65.101671 
3547.000000	65.128993 
3546.000000	65.152859 
3545.000000	65.171194 
3544.000000	65.182781 
3543.000000	65.187191 
3542.000000	65.184950 
3541.000000	65.177631 
3540.000000	65.167307 
3539.000000	65.156507 
3538.000000	65.147304 
3537.000000	65.141129 
3536.000000	65.138435 
3535.000000	65.139031 
3534.000000	65.141963 
3533.000000	65.146160 
3532.000000	65.150499 
3531.000000	65.154385 
3530.000000	65.157341 
3529.000000	65.158677 
3528.000000	65.157508 
3527.000000	65.152716 
3526.000000	65.142750 
3525.000000	65.126276 
3524.000000	65.102648 
3523.000000	65.072250 
3522.000000	65.036988 
3521.000000	64.999675 
3520.000000	64.963841 
3519.000000	64.932990 
3518.000000	64.909744 
3517.000000	64.895486 
3516.000000	64.889955 
3515.000000	64.891624 
3514.000000	64.898133 
3513.000000	64.907336 
3512.000000	64.917659 
3511.000000	64.928531 
3510.000000	64.939856 
3509.000000	64.951992 
3508.000000	64.964938 
3507.000000	64.978456 
3506.000000	64.991545 
3505.000000	65.003037 
3504.000000	65.011787 
3503.000000	65.017151 
3502.000000	65.019249 
3501.000000	65.019226 
3500.000000	65.019011 
3499.000000	65.020823 
3498.000000	65.026450 
3497.000000	65.036821 
3496.000000	65.051460 
3495.000000	65.068316 
3494.000000	65.084123 
3493.000000	65.095281 
3492.000000	65.098786 
3491.000000	65.093040 
3490.000000	65.078806 
3489.000000	65.059256 
3488.000000	65.039372 
3487.000000	65.025091 
3486.000000	65.021610 
3485.000000	65.032434 
3484.000000	65.058064 
3483.000000	65.095853 
3482.000000	65.140295 
3481.000000	65.184330 
3480.000000	65.221142 
3479.000000	65.245914 
3478.000000	65.257024 
3477.000000	65.256071 
3476.000000	65.247392 
3475.000000	65.236544 
3474.000000	65.228676 
3473.000000	65.227079 
3472.000000	65.232348 
3471.000000	65.242528 
3470.000000	65.253829 
3469.000000	65.262079 
3468.000000	65.263891 
3467.000000	65.257906 
3466.000000	65.244960 
3465.000000	65.228176 
3464.000000	65.211820 
3463.000000	65.200448 
3462.000000	65.197372 
3461.000000	65.203857 
3460.000000	65.219378 
3459.000000	65.241169 
3458.000000	65.265512 
3457.000000	65.287685 
3456.000000	65.303564 
3455.000000	65.310096 
3454.000000	65.305566 
3453.000000	65.290331 
3452.000000	65.266513 
3451.000000	65.237712 
3450.000000	65.208220 
3449.000000	65.182185 
3448.000000	65.163207 
3447.000000	65.153360 
3446.000000	65.153121 
3445.000000	65.161204 
3444.000000	65.175199 
3443.000000	65.192222 
3442.000000	65.209412 
3441.000000	65.224504 
3440.000000	65.235972 
3439.000000	65.242981 
3438.000000	65.245318 
3437.000000	65.242910 
3436.000000	65.235686 
3435.000000	65.223646 
3434.000000	65.206813 
3433.000000	65.185832 
3432.000000	65.161800 
3431.000000	65.136599 
3430.000000	65.112209 
3429.000000	65.090322 
3428.000000	65.071630 
3427.000000	65.055561 
3426.000000	65.040445 
3425.000000	65.024018 
3424.000000	65.004444 
3423.000000	64.980816 
3422.000000	64.954113 
3421.000000	64.927029 
3420.000000	64.903569 
3419.000000	64.888143 
3418.000000	64.884138 
3417.000000	64.892911 
3416.000000	64.913225 
3415.000000	64.941525 
3414.000000	64.972615 
3413.000000	65.001130 
3412.000000	65.022635 
3411.000000	65.034627 
3410.000000	65.037035 
3409.000000	65.031862 
3408.000000	65.022277 
3407.000000	65.011763 
3406.000000	65.003013 
3405.000000	64.997553 
3404.000000	64.995551 
3403.000000	64.996027 
3402.000000	64.997792 
3401.000000	64.999723 
3400.000000	65.001559 
3399.000000	65.003728 
3398.000000	65.006971 
3397.000000	65.012335 
3396.000000	65.020442 
3395.000000	65.031504 
3394.000000	65.044879 
3393.000000	65.059542 
3392.000000	65.074300 
3391.000000	65.087938 
3390.000000	65.099525 
3389.000000	65.108394 
3388.000000	65.114212 
3387.000000	65.116810 
3386.000000	65.116214 
3385.000000	65.112566 
3384.000000	65.106034 
3383.000000	65.097236 
3382.000000	65.086746 
3381.000000	65.075325 
3380.000000	65.063452 
3379.000000	65.051317 
3378.000000	65.038681 
3377.000000	65.024948 
3376.000000	65.009570 
3375.000000	64.992213 
3374.000000	64.973592 
3373.000000	64.955329 
3372.000000	64.940118 
3371.000000	64.930915 
3370.000000	64.930605 
3369.000000	64.941120 
3368.000000	64.962911 
3367.000000	64.994502 
3366.000000	65.032601 
3365.000000	65.072655 
3364.000000	65.109539 
3363.000000	65.138316 
3362.000000	65.155267 
3361.000000	65.158295 
3360.000000	65.147542 
3359.000000	65.125370 
3358.000000	65.095758 
3357.000000	65.063452 
3356.000000	65.033793 
3355.000000	65.011334 
3354.000000	64.999485 
3353.000000	64.999699 
3352.000000	65.011239 
3351.000000	65.031719 
3350.000000	65.057492 
3349.000000	65.084528 
3348.000000	65.109181 
3347.000000	65.129399 
3346.000000	65.144419 
3345.000000	65.155291 
3344.000000	65.163922 
3343.000000	65.172576 
3342.000000	65.183091 
3341.000000	65.196132 
3340.000000	65.211057 
3339.000000	65.226054 
3338.000000	65.238761 
3337.000000	65.246653 
3336.000000	65.247797 
3335.000000	65.240979 
3334.000000	65.225934 
3333.000000	65.203166 
3332.000000	65.173745 
3331.000000	65.138864 
3330.000000	65.099906 
3329.000000	65.058517 
3328.000000	65.016674 
3327.000000	64.977025 
3326.000000	64.942359 
3325.000000	64.915299 
3324.000000	64.897823 
3323.000000	64.890813 
3322.000000	64.893770 
3321.000000	64.904689 
3320.000000	64.920544 
3319.000000	64.937686 
3318.000000	64.952850 
3317.000000	64.963841 
3316.000000	64.969778 
3315.000000	64.971137 
3314.000000	64.969587 
3313.000000	64.967274 
3312.000000	64.966225 
3311.000000	64.967608 
3310.000000	64.971709 
3309.000000	64.977717 
3308.000000	64.984011 
3307.000000	64.988756 
3306.000000	64.990282 
3305.000000	64.987802 
3304.000000	64.981102 
3303.000000	64.971065 
3302.000000	64.959287 
3301.000000	64.948081 
3300.000000	64.939928 
3299.000000	64.937233 
3298.000000	64.941930 
3297.000000	64.954996 
3296.000000	64.976620 
3295.000000	65.006041 
3294.000000	65.041279 
3293.000000	65.079712 
3292.000000	65.118193 
3291.000000	65.153598 
3290.000000	65.183043 
3289.000000	65.204524 
3288.000000	65.217208 
3287.000000	65.221476 
3286.000000	65.218782 
3285.000000	65.211224 
3284.000000	65.201139 
3283.000000	65.190291 
3282.000000	65.179514 
3281.000000	65.168714 
3280.000000	65.156769 
3279.000000	65.142059 
3278.000000	65.123271 
3277.000000	65.099716 
3276.000000	65.072035 
3275.000000	65.042424 
3274.000000	65.014243 
3273.000000	64.991188 
3272.000000	64.976835 
3271.000000	64.973354 
3270.000000	64.981436 
3269.000000	64.999485 
3268.000000	65.024662 
3267.000000	65.052890 
3266.000000	65.080118 
3265.000000	65.103054 
3264.000000	65.119719 
3263.000000	65.129733 
3262.000000	65.134000 
3261.000000	65.134143 
3260.000000	65.131878 
3259.000000	65.128731 
3258.000000	65.125393 
3257.000000	65.121960 
3256.000000	65.118002 
3255.000000	65.112996 
3254.000000	65.106630 
3253.000000	65.099120 
3252.000000	65.090894 
3251.000000	65.082406 
3250.000000	65.074038 
3249.000000	65.065646 
3248.000000	65.056777 
3247.000000	65.046763 
3246.000000	65.035033 
3245.000000	65.021657 
3244.000000	65.007424 
3243.000000	64.993882 
3242.000000	64.983105 
3241.000000	64.977145 
3240.000000	64.977121 
3239.000000	64.983081 
3238.000000	64.993667 
3237.000000	65.006303 
3236.000000	65.017533 
3235.000000	65.024185 
3234.000000	65.023779 
3233.000000	65.015554 
3232.000000	65.000700 
3231.000000	64.981913 
3230.000000	64.962863 
3229.000000	64.947366 
3228.000000	64.938378 
3227.000000	64.937424 
3226.000000	64.944291 
3225.000000	64.957284 
3224.000000	64.973616 
3223.000000	64.990448 
3222.000000	65.005278 
3221.000000	65.016365 
3220.000000	65.023136 
3219.000000	65.025687 
3218.000000	65.024971 
3217.000000	65.022253 
3216.000000	65.019083 
3215.000000	65.016961 
3214.000000	65.017318 
3213.000000	65.021657 
3212.000000	65.031099 
3211.000000	65.046525 
3210.000000	65.067934 
3209.000000	65.094470 
3208.000000	65.124130 
3207.000000	65.153956 
3206.000000	65.180373 
3205.000000	65.199923 
3204.000000	65.209865 
3203.000000	65.208816 
3202.000000	65.197324 
3201.000000	65.177774 
3200.000000	65.153956 
3199.000000	65.130591 
3198.000000	65.112495 
3197.000000	65.103387 
3196.000000	65.105605 
3195.000000	65.119290 
3194.000000	65.142416 
3193.000000	65.171003 
3192.000000	65.199923 
3191.000000	65.224075 
3190.000000	65.239167 
3189.000000	65.242528 
3188.000000	65.233707 
3187.000000	65.214395 
3186.000000	65.187597 
3185.000000	65.157270 
3184.000000	65.127325 
3183.000000	65.100932 
3182.000000	65.079975 
3181.000000	65.065193 
3180.000000	65.056276 
3179.000000	65.052294 
3178.000000	65.052199 
3177.000000	65.055108 
3176.000000	65.060424 
3175.000000	65.067648 
3174.000000	65.076327 
3173.000000	65.085577 
3172.000000	65.094161 
3171.000000	65.100622 
3170.000000	65.103650 
3169.000000	65.102243 
3168.000000	65.096306 
3167.000000	65.086913 
3166.000000	65.076184 
3165.000000	65.066838 
3164.000000	65.061807 
3163.000000	65.063524 
3162.000000	65.073847 
3161.000000	65.092992 
3160.000000	65.119886 
3159.000000	65.152502 
3158.000000	65.188050 
3157.000000	65.223550 
3156.000000	65.256190 
3155.000000	65.283370 
3154.000000	65.303468 
3153.000000	65.315747 
3152.000000	65.320420 
3151.000000	65.318536 
3150.000000	65.311932 
3149.000000	65.302968 
3148.000000	65.294027 
3147.000000	65.287137 
3146.000000	65.283370 
3145.000000	65.282607 
3144.000000	65.283250 
3143.000000	65.282392 
3142.000000	65.276479 
3141.000000	65.261888 
3140.000000	65.235829 
3139.000000	65.197181 
3138.000000	65.146732 
3137.000000	65.087342 
3136.000000	65.023469 
3135.000000	64.960598 
3134.000000	64.904022 
3133.000000	64.858746 
3132.000000	64.828467 
3131.000000	64.815521 
3130.000000	64.820432 
3129.000000	64.842081 
3128.000000	64.877939 
3127.000000	64.924097 
3126.000000	64.975500 
3125.000000	65.026855 
3124.000000	65.072989 
3123.000000	65.109610 
3122.000000	65.133690 
3121.000000	65.143942 
3120.000000	65.140724 
3119.000000	65.126109 
3118.000000	65.103411 
3117.000000	65.076422 
3116.000000	65.048861 
3115.000000	65.023970 
3114.000000	65.004086 
3113.000000	64.990520 
3112.000000	64.983582 
3111.000000	64.983010 
3110.000000	64.987993 
3109.000000	64.997220 
3108.000000	65.009260 
3107.000000	65.022492 
3106.000000	65.035510 
3105.000000	65.046930 
3104.000000	65.056061 
3103.000000	65.062642 
3102.000000	65.067005 
3101.000000	65.069627 
3100.000000	65.071344 
3099.000000	65.072774 
3098.000000	65.074658 
3097.000000	65.077614 
3096.000000	65.082073 
3095.000000	65.088152 
3094.000000	65.095973 
3093.000000	65.105509 
3092.000000	65.116548 
3091.000000	65.128469 
3090.000000	65.140438 
3089.000000	65.151405 
3088.000000	65.160250 
3087.000000	65.166234 
3086.000000	65.168833 
3085.000000	65.168213 
3084.000000	65.165281 
3083.000000	65.161204 
3082.000000	65.157580 
3081.000000	65.155506 
3080.000000	65.155744 
3079.000000	65.158200 
3078.000000	65.162253 
3077.000000	65.166616 
3076.000000	65.169906 
3075.000000	65.170717 
3074.000000	65.168070 
3073.000000	65.161418 
3072.000000	65.150737 
3071.000000	65.136361 
3070.000000	65.118885 
3069.000000	65.099024 
3068.000000	65.077733 
3067.000000	65.056180 
3066.000000	65.035891 
3065.000000	65.018677 
3064.000000	65.006518 
3063.000000	65.001201 
3062.000000	65.003919 
3061.000000	65.014863 
3060.000000	65.032887 
3059.000000	65.055584 
3058.000000	65.079522 
3057.000000	65.100717 
3056.000000	65.115571 
3055.000000	65.121459 
3054.000000	65.117549 
3053.000000	65.104651 
3052.000000	65.085554 
3051.000000	65.063905 
3050.000000	65.043997 
3049.000000	65.029621 
3048.000000	65.023422 
3047.000000	65.026688 
3046.000000	65.039038 
3045.000000	65.058803 
3044.000000	65.083432 
3043.000000	65.109920 
3042.000000	65.135431 
3041.000000	65.157651 
3040.000000	65.175175 
3039.000000	65.187311 
3038.000000	65.194225 
3037.000000	65.196657 
3036.000000	65.195798 
3035.000000	65.192937 
3034.000000	65.189242 
3033.000000	65.185689 
3032.000000	65.182852 
3031.000000	65.180873 
3030.000000	65.179586 
3029.000000	65.178465 
3028.000000	65.177035 
3027.000000	65.174746 
3026.000000	65.171384 
3025.000000	65.166640 
3024.000000	65.160298 
3023.000000	65.152335 
3022.000000	65.142583 
3021.000000	65.131378 
3020.000000	65.119266 
3019.000000	65.107274 
3018.000000	65.096807 
3017.000000	65.089297 
3016.000000	65.085983 
3015.000000	65.087485 
3014.000000	65.093469 
3013.000000	65.102577 
3012.000000	65.112757 
3011.000000	65.121364 
3010.000000	65.125870 
3009.000000	65.124464 
3008.000000	65.116453 
3007.000000	65.102362 
3006.000000	65.083885 
3005.000000	65.063214 
3004.000000	65.042924 
3003.000000	65.025115 
3002.000000	65.011429 
3001.000000	65.002775 
3000.000000	64.999389 
2999.000000	65.001225 
2998.000000	65.007805 
2997.000000	65.018486 
2996.000000	65.032196 
2995.000000	65.047621 
2994.000000	65.063071 
2993.000000	65.076637 
2992.000000	65.086388 
2991.000000	65.090775 
2990.000000	65.088772 
2989.000000	65.080189 
2988.000000	65.065550 
2987.000000	65.046262 
2986.000000	65.024256 
2985.000000	65.001535 
2984.000000	64.979887 
2983.000000	64.960718 
2982.000000	64.945030 
2981.000000	64.933276 
2980.000000	64.925670 
2979.000000	64.922070 
2978.000000	64.922285 
2977.000000	64.925885 
2976.000000	64.932227 
2975.000000	64.940619 
2974.000000	64.950132 
2973.000000	64.959836 
2972.000000	64.968967 
2971.000000	64.977097 
2970.000000	64.984083 
2969.000000	64.989972 
2968.000000	64.995074 
2967.000000	64.999461 
2966.000000	65.003132 
2965.000000	65.005421 
2964.000000	65.005421 
2963.000000	65.002083 
2962.000000	64.994430 
2961.000000	64.982056 
2960.000000	64.965271 
2959.000000	64.945292 
2958.000000	64.924120 
2957.000000	64.904117 
2956.000000	64.887547 
2955.000000	64.876079 
2954.000000	64.870405 
2953.000000	64.870238 
2952.000000	64.874315 
2951.000000	64.880919 
2950.000000	64.888167 
2949.000000	64.894580 
2948.000000	64.899158 
2947.000000	64.901423 
2946.000000	64.901161 
2945.000000	64.898490 
2944.000000	64.893436 
2943.000000	64.886069 
2942.000000	64.876389 
2941.000000	64.864921 
2940.000000	64.852190 
2939.000000	64.838910 
2938.000000	64.825892 
2937.000000	64.814114 
2936.000000	64.804244 
2935.000000	64.796710 
2934.000000	64.791631 
2933.000000	64.788770 
2932.000000	64.787244 
2931.000000	64.785909 
2930.000000	64.783358 
2929.000000	64.778304 
2928.000000	64.769744 
2927.000000	64.757227 
2926.000000	64.741158 
2925.000000	64.722537 
2924.000000	64.702582 
2923.000000	64.682865 
2922.000000	64.664840 
2921.000000	64.649939 
2920.000000	64.639329 
2919.000000	64.634251 
2918.000000	64.635705 
2917.000000	64.644670 
2916.000000	64.661455 
2915.000000	64.685964 
2914.000000	64.717268 
2913.000000	64.753818 
2912.000000	64.793539 
2911.000000	64.834237 
2910.000000	64.873695 
2909.000000	64.910078 
2908.000000	64.942026 
2907.000000	64.968633 
2906.000000	64.989471 
2905.000000	65.004277 
2904.000000	65.013074 
2903.000000	65.015983 
2902.000000	65.013360 
2901.000000	65.005755 
2900.000000	64.993786 
2899.000000	64.978623 
2898.000000	64.961647 
2897.000000	64.944386 
2896.000000	64.928579 
2895.000000	64.915728 
2894.000000	64.907240 
2893.000000	64.904260 
2892.000000	64.907503 
2891.000000	64.917230 
2890.000000	64.933085 
2889.000000	64.954090 
2888.000000	64.978384 
2887.000000	65.003585 
2886.000000	65.026760 
2885.000000	65.044903 
2884.000000	65.055465 
2883.000000	65.056538 
2882.000000	65.047621 
2881.000000	65.029668 
2880.000000	65.005135 
2879.000000	64.977455 
2878.000000	64.950609 
2877.000000	64.928388 
2876.000000	64.913702 
2875.000000	64.907979 
2874.000000	64.911174 
2873.000000	64.921879 
2872.000000	64.937663 
2871.000000	64.955496 
2870.000000	64.972424 
2869.000000	64.986157 
2868.000000	64.994978 
2867.000000	64.998531 
2866.000000	64.997243 
2865.000000	64.992666 
2864.000000	64.986562 
2863.000000	64.980697 
2862.000000	64.976382 
2861.000000	64.974260 
2860.000000	64.974212 
2859.000000	64.975523 
2858.000000	64.977407 
2857.000000	64.979243 
2856.000000	64.981007 
2855.000000	64.983510 
2854.000000	64.988136 
2853.000000	64.996623 
2852.000000	65.010333 
2851.000000	65.029859 
2850.000000	65.054583 
2849.000000	65.082669 
2848.000000	65.111303 
2847.000000	65.137386 
2846.000000	65.158081 
2845.000000	65.171694 
2844.000000	65.177679 
2843.000000	65.176725 
2842.000000	65.170145 
2841.000000	65.159702 
2840.000000	65.146684 
2839.000000	65.132069 
2838.000000	65.116071 
2837.000000	65.098595 
2836.000000	65.079474 
2835.000000	65.059089 
2834.000000	65.038323 
2833.000000	65.018892 
2832.000000	65.002965 
2831.000000	64.992904 
2830.000000	64.990663 
2829.000000	64.997339 
2828.000000	65.012812 
2827.000000	65.035676 
2826.000000	65.063452 
2825.000000	65.092802 
2824.000000	65.120244 
2823.000000	65.142607 
2822.000000	65.157318 
2821.000000	65.162944 
2820.000000	65.159440 
2819.000000	65.148234 
2818.000000	65.131855 
2817.000000	65.113472 
2816.000000	65.096449 
2815.000000	65.083646 
2814.000000	65.076947 
2813.000000	65.077042 
2812.000000	65.083384 
2811.000000	65.094399 
2810.000000	65.108036 
2809.000000	65.122175 
2808.000000	65.134954 
2807.000000	65.145444 
2806.000000	65.153479 
2805.000000	65.159749 
2804.000000	65.165281 
2803.000000	65.171289 
2802.000000	65.178728 
2801.000000	65.187883 
2800.000000	65.198349 
2799.000000	65.209078 
2798.000000	65.218448 
2797.000000	65.224790 
2796.000000	65.226817 
2795.000000	65.223765 
2794.000000	65.215754 
2793.000000	65.204000 
2792.000000	65.190529 
2791.000000	65.177917 
2790.000000	65.168523 
2789.000000	65.164399 
2788.000000	65.166282 
2787.000000	65.173935 
2786.000000	65.185880 
2785.000000	65.199756 
2784.000000	65.212988 
2783.000000	65.223240 
2782.000000	65.229129 
2781.000000	65.230202 
2780.000000	65.227222 
2779.000000	65.221643 
2778.000000	65.215229 
2777.000000	65.209460 
2776.000000	65.204906 
2775.000000	65.201258 
2774.000000	65.197396 
2773.000000	65.191745 
2772.000000	65.182948 
2771.000000	65.170216 
2770.000000	65.153813 
2769.000000	65.135121 
2768.000000	65.116238 
2767.000000	65.099716 
2766.000000	65.087985 
2765.000000	65.082573 
2764.000000	65.084004 
2763.000000	65.091371 
2762.000000	65.102767 
2761.000000	65.115427 
2760.000000	65.126442 
2759.000000	65.133452 
2758.000000	65.134716 
2757.000000	65.129947 
2756.000000	65.119862 
2755.000000	65.106606 
2754.000000	65.093016 
2753.000000	65.082120 
2752.000000	65.076589 
2751.000000	65.077972 
2750.000000	65.086436 
2749.000000	65.100526 
2748.000000	65.117621 
2747.000000	65.134716 
2746.000000	65.148997 
2745.000000	65.158820 
2744.000000	65.163874 
2743.000000	65.165209 
2742.000000	65.164685 
2741.000000	65.164494 
2740.000000	65.166330 
2739.000000	65.171027 
2738.000000	65.178465 
2737.000000	65.187668 
2736.000000	65.197348 
2735.000000	65.206146 
2734.000000	65.213060 
2733.000000	65.217709 
2732.000000	65.220212 
2731.000000	65.221118 
2730.000000	65.220952 
2729.000000	65.219926 
2728.000000	65.217924 
2727.000000	65.214753 
2726.000000	65.210032 
2725.000000	65.203666 
2724.000000	65.195703 
2723.000000	65.186476 
2722.000000	65.176534 
2721.000000	65.166401 
2720.000000	65.156483 
2719.000000	65.146994 
2718.000000	65.138101 
2717.000000	65.129923 
2716.000000	65.122652 
2715.000000	65.116739 
2714.000000	65.112805 
2713.000000	65.111541 
2712.000000	65.113711 
2711.000000	65.119862 
2710.000000	65.130209 
2709.000000	65.144324 
2708.000000	65.161132 
2707.000000	65.178942 
2706.000000	65.195751 
2705.000000	65.209627 
2704.000000	65.218925 
2703.000000	65.222597 
2702.000000	65.220499 
2701.000000	65.213012 
2700.000000	65.201115 
2699.000000	65.185928 
2698.000000	65.168642 
2697.000000	65.150260 
2696.000000	65.131616 
2695.000000	65.113282 
2694.000000	65.095710 
2693.000000	65.079641 
2692.000000	65.066003 
2691.000000	65.055823 
2690.000000	65.050196 
2689.000000	65.049839 
2688.000000	65.055036 
2687.000000	65.065360 
2686.000000	65.079593 
2685.000000	65.096116 
2684.000000	65.112972 
2683.000000	65.128207 
2682.000000	65.140342 
2681.000000	65.148234 
2680.000000	65.151524 
2679.000000	65.150451 
2678.000000	65.145897 
2677.000000	65.139698 
2676.000000	65.134048 
2675.000000	65.131497 
2674.000000	65.134096 
2673.000000	65.143346 
2672.000000	65.159296 
2671.000000	65.180611 
2670.000000	65.204524 
2669.000000	65.227508 
2668.000000	65.245652 
2667.000000	65.255904 
2666.000000	65.256404 
2665.000000	65.247035 
2664.000000	65.229320 
2663.000000	65.206360 
2662.000000	65.181732 
2661.000000	65.159034 
2660.000000	65.140914 
2659.000000	65.128755 
2658.000000	65.122485 
2657.000000	65.120887 
2656.000000	65.121960 
2655.000000	65.123653 
2654.000000	65.124249 
2653.000000	65.122842 
2652.000000	65.119218 
2651.000000	65.113925 
2650.000000	65.107846 
2649.000000	65.101861 
2648.000000	65.096831 
2647.000000	65.093231 
2646.000000	65.091204 
2645.000000	65.090584 
2644.000000	65.091156 
2643.000000	65.092802 
2642.000000	65.095567 
2641.000000	65.099525 
2640.000000	65.104675 
2639.000000	65.110945 
2638.000000	65.118050 
2637.000000	65.125370 
2636.000000	65.132093 
2635.000000	65.137505 
2634.000000	65.141201 
2633.000000	65.143179 
2632.000000	65.143918 
2631.000000	65.144109 
2630.000000	65.144419 
2629.000000	65.145492 
2628.000000	65.147733 
2627.000000	65.151381 
2626.000000	65.156435 
2625.000000	65.163135 
2624.000000	65.171718 
2623.000000	65.182828 
2622.000000	65.196967 
2621.000000	65.214538 
2620.000000	65.235257 
2619.000000	65.257978 
2618.000000	65.280699 
2617.000000	65.300846 
2616.000000	65.315389 
2615.000000	65.321850 
2614.000000	65.318608 
2613.000000	65.305566 
2612.000000	65.283989 
2611.000000	65.256547 
2610.000000	65.226578 
2609.000000	65.197634 
2608.000000	65.172791 
2607.000000	65.154433 
2606.000000	65.143823 
2605.000000	65.140867 
2604.000000	65.144658 
2603.000000	65.153598 
2602.000000	65.165519 
2601.000000	65.178346 
2600.000000	65.190076 
2599.000000	65.199255 
2598.000000	65.204787 
2597.000000	65.206146 
2596.000000	65.203189 
2595.000000	65.196347 
2594.000000	65.186524 
2593.000000	65.174937 
2592.000000	65.163135 
2591.000000	65.152668 
2590.000000	65.145111 
2589.000000	65.141630 
2588.000000	65.142846 
2587.000000	65.148472 
2586.000000	65.157508 
2585.000000	65.168118 
2584.000000	65.178012 
2583.000000	65.184688 
2582.000000	65.186023 
2581.000000	65.180635 
2580.000000	65.168213 
2579.000000	65.149664 
2578.000000	65.126895 
2577.000000	65.102434 
2576.000000	65.078949 
2575.000000	65.058708 
2574.000000	65.043377 
2573.000000	65.033650 
2572.000000	65.029501 
2571.000000	65.030121 
2570.000000	65.034675 
2569.000000	65.042328 
2568.000000	65.052771 
2567.000000	65.065884 
2566.000000	65.081930 
2565.000000	65.101170 
2564.000000	65.123701 
2563.000000	65.149092 
2562.000000	65.176296 
2561.000000	65.203714 
2560.000000	65.229368 
2559.000000	65.251231 
2558.000000	65.267324 
2557.000000	65.276288 
2556.000000	65.277338 
2555.000000	65.270590 
2554.000000	65.257143 
2553.000000	65.238904 
2552.000000	65.218496 
2551.000000	65.198779 
2550.000000	65.182209 
2549.000000	65.170478 
2548.000000	65.164256 
2547.000000	65.163159 
2546.000000	65.165972 
2545.000000	65.171051 
2544.000000	65.176749 
2543.000000	65.181946 
2542.000000	65.185832 
2541.000000	65.188264 
2540.000000	65.189385 
2539.000000	65.189599 
2538.000000	65.189528 
2537.000000	65.189719 
2536.000000	65.190649 
2535.000000	65.192484 
2534.000000	65.195178 
2533.000000	65.198421 
2532.000000	65.201902 
2531.000000	65.205264 
2530.000000	65.208363 
2529.000000	65.211248 
2528.000000	65.214180 
2527.000000	65.217614 
2526.000000	65.222096 
2525.000000	65.227937 
2524.000000	65.235137 
2523.000000	65.243220 
2522.000000	65.251231 
2521.000000	65.258026 
2520.000000	65.262460 
2519.000000	65.263676 
2518.000000	65.261006 
2517.000000	65.254473 
2516.000000	65.244603 
2515.000000	65.231966 
2514.000000	65.217447 
2513.000000	65.201687 
2512.000000	65.185356 
2511.000000	65.169072 
2510.000000	65.153837 
2509.000000	65.140867 
2508.000000	65.131855 
2507.000000	65.128707 
2506.000000	65.133118 
2505.000000	65.145993 
2504.000000	65.166902 
2503.000000	65.193915 
2502.000000	65.223526 
2501.000000	65.251421 
2500.000000	65.273189 
2499.000000	65.285325 
2498.000000	65.286231 
2497.000000	65.276575 
2496.000000	65.259218 
2495.000000	65.238475 
2494.000000	65.219092 
2493.000000	65.205192 
2492.000000	65.199255 
2491.000000	65.201616 
2490.000000	65.210700 
2489.000000	65.223503 
2488.000000	65.236854 
2487.000000	65.247917 
2486.000000	65.255141 
2485.000000	65.258169 
2484.000000	65.257787 
2483.000000	65.255331 
2482.000000	65.252017 
2481.000000	65.248727 
2480.000000	65.245532 
2479.000000	65.242338 
2478.000000	65.239048 
2477.000000	65.235781 
2476.000000	65.233230 
2475.000000	65.232467 
2474.000000	65.234613 
2473.000000	65.240406 
2472.000000	65.249848 
2471.000000	65.261840 
2470.000000	65.274405 
2469.000000	65.285086 
2468.000000	65.291571 
2467.000000	65.292263 
2466.000000	65.286588 
2465.000000	65.275335 
2464.000000	65.260219 
2463.000000	65.243411 
2462.000000	65.227079 
2461.000000	65.212798 
2460.000000	65.201282 
2459.000000	65.192461 
2458.000000	65.185785 
2457.000000	65.180730 
2456.000000	65.177011 
2455.000000	65.174841 
2454.000000	65.174794 
2453.000000	65.177750 
2452.000000	65.184473 
2451.000000	65.195083 
2450.000000	65.209150 
2449.000000	65.225362 
2448.000000	65.242099 
2447.000000	65.257811 
2446.000000	65.271282 
2445.000000	65.281867 
2444.000000	65.289759 
2443.000000	65.295648 
2442.000000	65.300393 
2441.000000	65.304660 
2440.000000	65.308642 
2439.000000	65.312027 
2438.000000	65.314221 
2437.000000	65.314483 
2436.000000	65.312433 
2435.000000	65.308070 
2434.000000	65.301823 
2433.000000	65.294504 
2432.000000	65.286850 
2431.000000	65.279555 
2430.000000	65.272784 
2429.000000	65.266442 
2428.000000	65.260148 
2427.000000	65.253543 
2426.000000	65.246725 
2425.000000	65.240144 
2424.000000	65.234899 
2423.000000	65.232491 
2422.000000	65.234422 
2421.000000	65.241789 
2420.000000	65.254950 
2419.000000	65.273308 
2418.000000	65.295505 
2417.000000	65.319323 
2416.000000	65.342354 
2415.000000	65.362405 
2414.000000	65.377736 
2413.000000	65.387463 
2412.000000	65.391612 
2411.000000	65.391087 
2410.000000	65.387272 
2409.000000	65.381979 
2408.000000	65.376615 
2407.000000	65.372014 
2406.000000	65.368199 
2405.000000	65.364623 
2404.000000	65.360522 
2403.000000	65.355300 
2402.000000	65.348768 
2401.000000	65.341544 
2400.000000	65.334844 
2399.000000	65.330028 
2398.000000	65.328192 
2397.000000	65.329790 
2396.000000	65.334343 
2395.000000	65.340232 
2394.000000	65.345358 
2393.000000	65.347456 
2392.000000	65.344738 
2391.000000	65.336203 
2390.000000	65.321969 
2389.000000	65.303301 
2388.000000	65.282249 
2387.000000	65.261173 
2386.000000	65.242195 
2385.000000	65.226864 
2384.000000	65.216279 
2383.000000	65.210604 
2382.000000	65.209436 
2381.000000	65.211987 
2380.000000	65.217137 
2379.000000	65.223741 
2378.000000	65.230488 
2377.000000	65.236282 
2376.000000	65.240287 
2375.000000	65.242242 
2374.000000	65.242195 
2373.000000	65.240740 
2372.000000	65.238690 
2371.000000	65.237069 
2370.000000	65.236806 
2369.000000	65.238642 
2368.000000	65.242886 
2367.000000	65.249323 
2366.000000	65.257382 
2365.000000	65.266084 
2364.000000	65.274238 
2363.000000	65.280604 
2362.000000	65.284132 
2361.000000	65.283989 
2360.000000	65.279698 
2359.000000	65.271425 
2358.000000	65.259790 
2357.000000	65.245771 
2356.000000	65.230464 
2355.000000	65.215325 
2354.000000	65.201735 
2353.000000	65.190696 
2352.000000	65.182852 
2351.000000	65.178394 
2350.000000	65.177011 
2349.000000	65.178132 
2348.000000	65.180826 
2347.000000	65.184164 
2346.000000	65.187025 
2345.000000	65.188384 
2344.000000	65.187430 
2343.000000	65.183472 
2342.000000	65.176391 
2341.000000	65.166568 
2340.000000	65.154838 
2339.000000	65.142607 
2338.000000	65.131568 
2337.000000	65.123414 
2336.000000	65.119600 
2335.000000	65.121006 
2334.000000	65.127825 
2333.000000	65.139675 
2332.000000	65.155601 
2331.000000	65.174293 
2330.000000	65.194368 
2329.000000	65.214800 
2328.000000	65.234684 
2327.000000	65.253615 
2326.000000	65.271162 
2325.000000	65.287184 
2324.000000	65.301418 
2323.000000	65.313529 
2322.000000	65.323185 
2321.000000	65.330004 
2320.000000	65.333914 
2319.000000	65.334963 
2318.000000	65.333557 
2317.000000	65.330147 
2316.000000	65.325331 
2315.000000	65.319538 
2314.000000	65.313124 
2313.000000	65.306067 
2312.000000	65.298390 
2311.000000	65.290021 
2310.000000	65.280961 
2309.000000	65.271472 
2308.000000	65.262174 
2307.000000	65.253949 
2306.000000	65.247917 
2305.000000	65.245127 
2304.000000	65.246438 
2303.000000	65.252017 
2302.000000	65.261411 
2301.000000	65.273451 
2300.000000	65.286445 
2299.000000	65.298438 
2298.000000	65.307641 
2297.000000	65.312671 
2296.000000	65.312886 
2295.000000	65.308380 
2294.000000	65.300011 
2293.000000	65.289068 
2292.000000	65.277004 
2291.000000	65.265083 
2290.000000	65.254282 
2289.000000	65.245008 
2288.000000	65.237236 
2287.000000	65.230631 
2286.000000	65.224671 
2285.000000	65.218973 
2284.000000	65.213322 
2283.000000	65.207815 
2282.000000	65.202665 
2281.000000	65.198302 
2280.000000	65.195298 
2279.000000	65.194320 
2278.000000	65.196013 
2277.000000	65.200829 
2276.000000	65.208864 
2275.000000	65.219950 
2274.000000	65.233373 
2273.000000	65.248107 
2272.000000	65.262842 
2271.000000	65.276050 
2270.000000	65.286445 
2269.000000	65.292882 
2268.000000	65.294694 
2267.000000	65.291595 
2266.000000	65.283942 
2265.000000	65.272450 
2264.000000	65.258312 
2263.000000	65.242743 
2262.000000	65.227198 
2261.000000	65.212655 
2260.000000	65.199732 
2259.000000	65.188431 
2258.000000	65.178608 
2257.000000	65.169715 
2256.000000	65.161108 
2255.000000	65.152263 
2254.000000	65.143203 
2253.000000	65.134382 
2252.000000	65.126752 
2251.000000	65.121436 
2250.000000	65.119481 
2249.000000	65.121531 
2248.000000	65.127611 
2247.000000	65.136981 
2246.000000	65.148520 
2245.000000	65.160918 
2244.000000	65.172910 
2243.000000	65.183639 
2242.000000	65.192747 
2241.000000	65.200185 
2240.000000	65.206217 
2239.000000	65.210795 
2238.000000	65.213918 
2237.000000	65.215325 
2236.000000	65.214967 
2235.000000	65.212941 
2234.000000	65.209841 
2233.000000	65.206742 
2232.000000	65.205097 
2231.000000	65.206313 
2230.000000	65.211415 
2229.000000	65.220522 
2228.000000	65.232825 
2227.000000	65.246558 
2226.000000	65.259385 
2225.000000	65.268969 
2224.000000	65.273666 
2223.000000	65.272736 
2222.000000	65.266704 
2221.000000	65.256953 
2220.000000	65.245509 
2219.000000	65.234255 
2218.000000	65.224337 
2217.000000	65.216135 
2216.000000	65.208911 
2215.000000	65.201425 
2214.000000	65.192437 
2213.000000	65.181183 
2212.000000	65.167784 
2211.000000	65.153264 
2210.000000	65.139245 
2209.000000	65.127635 
2208.000000	65.119814 
2207.000000	65.116524 
2206.000000	65.117454 
2205.000000	65.121603 
2204.000000	65.127396 
2203.000000	65.133285 
2202.000000	65.138244 
2201.000000	65.141916 
2200.000000	65.144705 
2199.000000	65.147471 
2198.000000	65.151238 
2197.000000	65.156745 
2196.000000	65.164279 
2195.000000	65.173387 
2194.000000	65.183115 
2193.000000	65.192174 
2192.000000	65.199255 
2191.000000	65.203452 
2190.000000	65.204310 
2189.000000	65.201950 
2188.000000	65.197038 
2187.000000	65.190505 
2186.000000	65.183353 
2185.000000	65.176701 
2184.000000	65.171384 
2183.000000	65.168166 
2182.000000	65.167379 
2181.000000	65.169239 
2180.000000	65.173316 
2179.000000	65.178775 
2178.000000	65.184330 
2177.000000	65.188598 
2176.000000	65.190529 
2175.000000	65.189647 
2174.000000	65.186500 
2173.000000	65.182328 
2172.000000	65.179085 
2171.000000	65.178847 
2170.000000	65.183162 
2169.000000	65.192675 
2168.000000	65.206813 
2167.000000	65.223932 
2166.000000	65.241694 
2165.000000	65.257287 
2164.000000	65.268349 
2163.000000	65.273189 
2162.000000	65.271115 
2161.000000	65.262508 
2160.000000	65.248560 
2159.000000	65.230941 
2158.000000	65.211439 
2157.000000	65.191864 
2156.000000	65.173745 
2155.000000	65.158343 
2154.000000	65.146732 
2153.000000	65.139555 
2152.000000	65.137076 
2151.000000	65.139031 
2150.000000	65.144538 
2149.000000	65.152287 
2148.000000	65.160608 
2147.000000	65.167784 
2146.000000	65.172100 
2145.000000	65.172481 
2144.000000	65.168595 
2143.000000	65.160894 
2142.000000	65.150523 
2141.000000	65.139150 
2140.000000	65.128612 
2139.000000	65.120577 
2138.000000	65.116119 
2137.000000	65.115714 
2136.000000	65.118980 
2135.000000	65.125060 
2134.000000	65.132474 
2133.000000	65.139579 
2132.000000	65.144872 
2131.000000	65.147161 
2130.000000	65.145993 
2129.000000	65.141558 
2128.000000	65.134716 
2127.000000	65.126872 
2126.000000	65.119528 
2125.000000	65.113949 
2124.000000	65.110564 
2123.000000	65.109205 
2122.000000	65.108942 
2121.000000	65.108442 
2120.000000	65.106391 
2119.000000	65.101885 
2118.000000	65.094804 
2117.000000	65.086126 
2116.000000	65.077543 
2115.000000	65.071129 
2114.000000	65.068721 
2113.000000	65.071606 
2112.000000	65.080022 
2111.000000	65.093111 
2110.000000	65.109133 
2109.000000	65.125942 
2108.000000	65.141582 
2107.000000	65.154767 
2106.000000	65.164947 
2105.000000	65.172266 
2104.000000	65.177679 
2103.000000	65.182304 
2102.000000	65.187048 
2101.000000	65.192365 
2100.000000	65.198063 
2099.000000	65.203356 
2098.000000	65.207242 
2097.000000	65.208554 
2096.000000	65.206503 
2095.000000	65.200710 
2094.000000	65.191340 
2093.000000	65.179038 
2092.000000	65.164780 
2091.000000	65.149688 
2090.000000	65.134906 
2089.000000	65.121436 
2088.000000	65.110015 
2087.000000	65.101218 
2086.000000	65.095591 
2085.000000	65.093541 
2084.000000	65.095472 
2083.000000	65.101718 
2082.000000	65.112423 
2081.000000	65.127587 
2080.000000	65.146803 
2079.000000	65.169334 
2078.000000	65.193963 
2077.000000	65.219235 
2076.000000	65.243148 
2075.000000	65.263628 
2074.000000	65.278744 
2073.000000	65.287017 
2072.000000	65.287756 
2071.000000	65.281462 
2070.000000	65.269422 
2069.000000	65.253877 
2068.000000	65.237116 
2067.000000	65.221190 
2066.000000	65.207266 
2065.000000	65.195512 
2064.000000	65.185332 
2063.000000	65.175509 
2062.000000	65.164852 
2061.000000	65.152668 
2060.000000	65.139126 
2059.000000	65.125179 
2058.000000	65.112304 
2057.000000	65.102243 
2056.000000	65.096235 
2055.000000	65.094900 
2054.000000	65.097761 
2053.000000	65.103983 
2052.000000	65.112328 
2051.000000	65.121912 
2050.000000	65.132236 
2049.000000	65.143322 
2048.000000	65.155434 
2047.000000	65.168714 
2046.000000	65.182876 
2045.000000	65.196943 
2044.000000	65.209364 
2043.000000	65.218305 
2042.000000	65.222167 
2041.000000	65.219974 
2040.000000	65.211582 
2039.000000	65.197968 
2038.000000	65.180969 
2037.000000	65.162849 
2036.000000	65.145802 
2035.000000	65.131592 
2034.000000	65.121078 
2033.000000	65.114355 
2032.000000	65.110468 
2031.000000	65.108060 
2030.000000	65.105581 
2029.000000	65.101575 
2028.000000	65.095138 
2027.000000	65.085840 
2026.000000	65.074062 
2025.000000	65.060639 
2024.000000	65.047097 
2023.000000	65.034961 
2022.000000	65.026140 
2021.000000	65.022230 
2020.000000	65.024638 
2019.000000	65.033912 
2018.000000	65.049982 
2017.000000	65.071988 
2016.000000	65.098476 
2015.000000	65.127325 
2014.000000	65.156126 
2013.000000	65.182447 
2012.000000	65.204238 
2011.000000	65.220117 
2010.000000	65.229368 
2009.000000	65.232062 
2008.000000	65.229058 
2007.000000	65.221595 
2006.000000	65.211081 
2005.000000	65.198969 
2004.000000	65.186667 
2003.000000	65.175223 
2002.000000	65.165853 
2001.000000	65.159177 
2000.000000	65.155959 
1999.000000	65.156364 
1998.000000	65.160322 
1997.000000	65.167093 
1996.000000	65.175294 
1995.000000	65.183138 
1994.000000	65.188574 
1993.000000	65.189838 
1992.000000	65.185737 
1991.000000	65.176153 
1990.000000	65.162086 
1989.000000	65.145635 
1988.000000	65.129542 
1987.000000	65.116667 
1986.000000	65.109324 
1985.000000	65.108728 
1984.000000	65.114831 
1983.000000	65.126323 
1982.000000	65.141129 
1981.000000	65.156769 
1980.000000	65.170907 
1979.000000	65.181827 
1978.000000	65.188670 
1977.000000	65.191221 
1976.000000	65.189862 
1975.000000	65.185117 
1974.000000	65.177512 
1973.000000	65.167355 
1972.000000	65.155005 
1971.000000	65.140891 
1970.000000	65.125823 
1969.000000	65.111088 
1968.000000	65.098428 
1967.000000	65.089559 
1966.000000	65.086150 
1965.000000	65.089106 
1964.000000	65.098428 
1963.000000	65.113115 
1962.000000	65.131187 
1961.000000	65.150165 
1960.000000	65.167498 
1959.000000	65.181016 
1958.000000	65.189576 
1957.000000	65.193080 
1956.000000	65.192461 
1955.000000	65.189409 
1954.000000	65.185976 
1953.000000	65.184140 
1952.000000	65.185475 
1951.000000	65.190243 
1950.000000	65.198063 
1949.000000	65.207457 
1948.000000	65.216279 
1947.000000	65.222144 
1946.000000	65.222930 
1945.000000	65.217423 
1944.000000	65.205597 
1943.000000	65.188622 
1942.000000	65.168881 
1941.000000	65.149211 
1940.000000	65.132594 
1939.000000	65.121173 
1938.000000	65.115928 
1937.000000	65.116524 
1936.000000	65.121316 
1935.000000	65.128111 
1934.000000	65.134501 
1933.000000	65.138840 
1932.000000	65.140509 
1931.000000	65.140080 
1930.000000	65.139007 
1929.000000	65.139222 
1928.000000	65.142631 
1927.000000	65.150237 
1926.000000	65.161895 
1925.000000	65.176558 
1924.000000	65.192317 
1923.000000	65.207195 
1922.000000	65.219378 
1921.000000	65.227818 
1920.000000	65.232086 
1919.000000	65.232634 
1918.000000	65.230417 
1917.000000	65.226507 
1916.000000	65.221714 
1915.000000	65.216517 
1914.000000	65.211057 
1913.000000	65.205025 
1912.000000	65.198135 
1911.000000	65.190243 
1910.000000	65.181565 
1909.000000	65.172576 
1908.000000	65.164041 
1907.000000	65.156841 
1906.000000	65.151643 
1905.000000	65.148711 
1904.000000	65.147686 
1903.000000	65.147852 
1902.000000	65.148234 
1901.000000	65.147972 
1900.000000	65.146350 
1899.000000	65.143251 
1898.000000	65.139031 
1897.000000	65.134716 
1896.000000	65.131521 
1895.000000	65.130639 
1894.000000	65.133023 
1893.000000	65.138912 
1892.000000	65.147924 
1891.000000	65.159058 
1890.000000	65.170669 
1889.000000	65.181064 
1888.000000	65.188622 
1887.000000	65.192174 
1886.000000	65.191125 
1885.000000	65.185642 
1884.000000	65.176653 
1883.000000	65.165686 
1882.000000	65.154671 
1881.000000	65.145421 
1880.000000	65.139460 
1879.000000	65.137672 
1878.000000	65.140032 
1877.000000	65.145564 
1876.000000	65.152645 
1875.000000	65.159249 
1874.000000	65.163516 
1873.000000	65.164160 
1872.000000	65.160918 
1871.000000	65.154600 
1870.000000	65.147066 
1869.000000	65.140676 
1868.000000	65.137958 
1867.000000	65.140986 
1866.000000	65.150618 
1865.000000	65.166759 
1864.000000	65.187811 
1863.000000	65.211296 
1862.000000	65.234136 
1861.000000	65.253376 
1860.000000	65.266633 
1859.000000	65.272450 
1858.000000	65.270543 
1857.000000	65.261673 
1856.000000	65.247559 
1855.000000	65.230321 
1854.000000	65.212082 
1853.000000	65.194797 
1852.000000	65.179657 
1851.000000	65.167212 
1850.000000	65.157151 
1849.000000	65.148758 
1848.000000	65.140938 
1847.000000	65.132546 
1846.000000	65.122771 
1845.000000	65.111207 
1844.000000	65.098047 
1843.000000	65.084218 
1842.000000	65.070867 
1841.000000	65.059518 
1840.000000	65.051507 
1839.000000	65.047836 
1838.000000	65.048885 
1837.000000	65.054655 
1836.000000	65.064549 
1835.000000	65.077877 
1834.000000	65.093636 
1833.000000	65.110969 
1832.000000	65.129137 
1831.000000	65.147542 
1830.000000	65.165448 
1829.000000	65.182209 
1828.000000	65.197253 
1827.000000	65.209889 
1826.000000	65.219640 
1825.000000	65.226221 
1824.000000	65.229511 
1823.000000	65.229892 
1822.000000	65.227985 
1821.000000	65.224480 
1820.000000	65.220046 
1819.000000	65.215301 
1818.000000	65.210866 
1817.000000	65.207481 
1816.000000	65.205740 
1815.000000	65.206503 
1814.000000	65.210413 
1813.000000	65.217638 
1812.000000	65.227723 
1811.000000	65.239572 
1810.000000	65.251255 
1809.000000	65.260338 
1808.000000	65.264534 
1807.000000	65.262055 
1806.000000	65.252399 
1805.000000	65.236449 
1804.000000	65.216517 
1803.000000	65.195918 
1802.000000	65.178298 
1801.000000	65.166878 
1800.000000	65.163683 
1799.000000	65.169000 
1798.000000	65.181684 
1797.000000	65.199255 
1796.000000	65.218591 
1795.000000	65.236639 
1794.000000	65.250897 
1793.000000	65.259933 
1792.000000	65.263390 
1791.000000	65.261912 
1790.000000	65.256810 
1789.000000	65.249824 
1788.000000	65.242719 
1787.000000	65.236926 
1786.000000	65.233373 
1785.000000	65.232419 
1784.000000	65.233945 
1783.000000	65.237593 
1782.000000	65.242862 
1781.000000	65.249323 
1780.000000	65.256667 
1779.000000	65.264654 
1778.000000	65.273165 
1777.000000	65.281891 
1776.000000	65.290307 
1775.000000	65.297436 
1774.000000	65.302181 
1773.000000	65.303230 
1772.000000	65.299463 
1771.000000	65.290069 
1770.000000	65.274977 
1769.000000	65.254902 
1768.000000	65.231370 
1767.000000	65.206503 
1766.000000	65.182733 
1765.000000	65.162348 
1764.000000	65.147066 
1763.000000	65.138077 
1762.000000	65.135669 
1761.000000	65.139126 
1760.000000	65.147042 
1759.000000	65.157437 
1758.000000	65.168166 
1757.000000	65.176916 
1756.000000	65.181922 
1755.000000	65.181970 
1754.000000	65.176701 
1753.000000	65.166568 
1752.000000	65.152454 
1751.000000	65.135717 
1750.000000	65.117835 
1749.000000	65.100049 
1748.000000	65.083050 
1747.000000	65.067005 
1746.000000	65.051603 
1745.000000	65.036344 
1744.000000	65.020799 
1743.000000	65.004730 
1742.000000	64.988398 
1741.000000	64.972686 
1740.000000	64.958572 
1739.000000	64.947009 
1738.000000	64.938688 
1737.000000	64.933991 
1736.000000	64.932513 
1735.000000	64.933490 
1734.000000	64.935970 
1733.000000	64.938974 
1732.000000	64.941406 
1731.000000	64.942455 
1730.000000	64.941620 
1729.000000	64.938855 
1728.000000	64.934420 
1727.000000	64.928936 
1726.000000	64.923238 
1725.000000	64.918589 
1724.000000	64.916181 
1723.000000	64.917016 
1722.000000	64.921784 
1721.000000	64.930605 
1720.000000	64.943003 
1719.000000	64.958143 
1718.000000	64.974784 
1717.000000	64.991855 
1716.000000	65.008425 
1715.000000	65.024065 
1714.000000	65.038847 
1713.000000	65.053176 
1712.000000	65.067648 
1711.000000	65.082693 
1710.000000	65.098381 
1709.000000	65.114641 
1708.000000	65.131092 
1707.000000	65.147304 
1706.000000	65.163207 
1705.000000	65.179038 
1704.000000	65.195250 
1703.000000	65.212488 
1702.000000	65.231013 
1701.000000	65.250563 
1700.000000	65.270209 
1699.000000	65.288209 
1698.000000	65.302562 
1697.000000	65.311408 
1696.000000	65.313529 
1695.000000	65.308928 
1694.000000	65.298962 
1693.000000	65.285968 
1692.000000	65.272855 
1691.000000	65.262222 
1690.000000	65.255618 
1689.000000	65.253353 
1688.000000	65.253949 
1687.000000	65.254831 
1686.000000	65.252995 
1685.000000	65.245842 
1684.000000	65.231823 
1683.000000	65.210771 
1682.000000	65.183877 
1681.000000	65.153527 
1680.000000	65.122222 
1679.000000	65.092301 
1678.000000	65.065431 
1677.000000	65.042805 
1676.000000	65.024662 
1675.000000	65.011215 
1674.000000	65.002655 
1673.000000	64.999580 
1672.000000	65.002632 
1671.000000	65.012335 
1670.000000	65.028667 
1669.000000	65.050888 
1668.000000	65.076923 
1667.000000	65.103840 
1666.000000	65.128374 
1665.000000	65.147399 
1664.000000	65.158557 
1663.000000	65.160989 
1662.000000	65.155076 
1661.000000	65.142703 
1660.000000	65.126466 
1659.000000	65.109348 
1658.000000	65.093851 
1657.000000	65.081858 
1656.000000	65.074157 
1655.000000	65.070509 
1654.000000	65.069866 
1653.000000	65.070915 
1652.000000	65.072250 
1651.000000	65.072870 
1650.000000	65.072321 
1649.000000	65.070652 
1648.000000	65.068602 
1647.000000	65.066766 
1646.000000	65.065979 
1645.000000	65.066814 
1644.000000	65.069651 
1643.000000	65.074491 
1642.000000	65.081143 
1641.000000	65.089178 
1640.000000	65.097975 
1639.000000	65.106987 
1638.000000	65.115499 
1637.000000	65.122699 
1636.000000	65.127754 
1635.000000	65.129899 
1634.000000	65.128588 
1633.000000	65.123510 
1632.000000	65.115189 
1631.000000	65.104699 
1630.000000	65.093803 
1629.000000	65.084695 
1628.000000	65.079331 
1627.000000	65.079188 
1626.000000	65.084862 
1625.000000	65.095925 
1624.000000	65.111136 
1623.000000	65.128540 
1622.000000	65.146017 
1621.000000	65.161633 
1620.000000	65.174102 
1619.000000	65.182662 
1618.000000	65.187191 
1617.000000	65.187835 
1616.000000	65.184855 
1615.000000	65.178585 
1614.000000	65.169310 
1613.000000	65.157055 
1612.000000	65.142178 
1611.000000	65.125060 
1610.000000	65.106606 
1609.000000	65.087747 
1608.000000	65.069603 
1607.000000	65.053129 
1606.000000	65.038967 
1605.000000	65.027689 
1604.000000	65.019726 
1603.000000	65.015435 
1602.000000	65.015029 
1601.000000	65.018582 
1600.000000	65.025806 
1599.000000	65.035915 
1598.000000	65.047669 
1597.000000	65.059423 
1596.000000	65.069389 
1595.000000	65.076041 
1594.000000	65.078234 
1593.000000	65.075445 
1592.000000	65.068030 
1591.000000	65.056991 
1590.000000	65.044188 
1589.000000	65.031814 
1588.000000	65.022253 
1587.000000	65.017414 
1586.000000	65.018701 
1585.000000	65.026450 
1584.000000	65.040063 
1583.000000	65.058016 
1582.000000	65.078020 
1581.000000	65.097379 
1580.000000	65.113472 
1579.000000	65.124320 
1578.000000	65.128779 
1577.000000	65.126729 
1576.000000	65.119194 
1575.000000	65.107631 
1574.000000	65.093588 
1573.000000	65.078377 
1572.000000	65.062808 
1571.000000	65.047550 
1570.000000	65.033292 
1569.000000	65.021324 
1568.000000	65.013194 
1567.000000	65.010643 
1566.000000	65.015077 
1565.000000	65.027022 
1564.000000	65.045547 
1563.000000	65.068411 
1562.000000	65.092372 
1561.000000	65.114045 
1560.000000	65.130591 
1559.000000	65.140438 
1558.000000	65.143656 
1557.000000	65.141630 
1556.000000	65.136742 
1555.000000	65.131282 
1554.000000	65.126800 
1553.000000	65.123724 
1552.000000	65.121388 
1551.000000	65.118932 
1550.000000	65.115618 
1549.000000	65.111565 
1548.000000	65.107750 
1547.000000	65.105557 
1546.000000	65.106272 
1545.000000	65.110087 
1544.000000	65.116000 
1543.000000	65.121817 
1542.000000	65.124583 
1541.000000	65.121817 
1540.000000	65.111804 
1539.000000	65.094470 
1538.000000	65.071153 
1537.000000	65.044617 
1536.000000	65.018296 
1535.000000	64.995360 
1534.000000	64.978289 
1533.000000	64.968299 
1532.000000	64.965367 
1531.000000	64.968633 
1530.000000	64.976596 
1529.000000	64.987587 
1528.000000	65.000200 
1527.000000	65.013194 
1526.000000	65.025496 
1525.000000	65.035867 
1524.000000	65.043139 
1523.000000	65.046000 
1522.000000	65.043568 
1521.000000	65.035438 
1520.000000	65.021872 
1519.000000	65.003967 
1518.000000	64.983534 
1517.000000	64.962911 
1516.000000	64.944672 
1515.000000	64.931225 
1514.000000	64.924430 
1513.000000	64.925217 
1512.000000	64.933514 
1511.000000	64.948368 
1510.000000	64.967918 
1509.000000	64.990210 
1508.000000	65.013098 
1507.000000	65.034723 
1506.000000	65.053844 
1505.000000	65.069508 
1504.000000	65.081024 
1503.000000	65.087890 
1502.000000	65.089869 
1501.000000	65.086841 
1500.000000	65.078973 
1499.000000	65.066957 
1498.000000	65.051984 
1497.000000	65.035796 
1496.000000	65.020537 
1495.000000	65.008306 
1494.000000	65.000748 
1493.000000	64.998602 
1492.000000	65.001463 
1491.000000	65.007710 
1490.000000	65.015149 
1489.000000	65.021347 
1488.000000	65.024590 
1487.000000	65.024137 
1486.000000	65.020585 
1485.000000	65.015578 
1484.000000	65.011501 
1483.000000	65.010619 
1482.000000	65.014624 
1481.000000	65.024256 
1480.000000	65.038800 
1479.000000	65.056490 
1478.000000	65.074491 
1477.000000	65.089797 
1476.000000	65.099430 
1475.000000	65.101242 
1474.000000	65.094399 
1473.000000	65.079593 
1472.000000	65.059018 
1471.000000	65.035867 
1470.000000	65.013694 
1469.000000	64.995622 
1468.000000	64.983940 
1467.000000	64.979481 
1466.000000	64.981937 
1465.000000	64.989542 
1464.000000	65.000009 
1463.000000	65.010714 
1462.000000	65.019202 
1461.000000	65.023612 
1460.000000	65.022873 
1459.000000	65.017008 
1458.000000	65.006661 
1457.000000	64.993143 
1456.000000	64.978194 
1455.000000	64.963340 
1454.000000	64.949560 
1453.000000	64.937281 
1452.000000	64.926338 
1451.000000	64.916324 
1450.000000	64.906573 
1449.000000	64.896917 
1448.000000	64.887809 
1447.000000	64.880514 
1446.000000	64.876985 
1445.000000	64.879369 
1444.000000	64.889073 
1443.000000	64.906644 
1442.000000	64.931082 
1441.000000	64.959836 
1440.000000	64.989018 
1439.000000	65.014243 
1438.000000	65.031552 
1437.000000	65.038251 
1436.000000	65.033674 
1435.000000	65.019035 
1434.000000	64.997625 
1433.000000	64.973855 
1432.000000	64.952564 
1431.000000	64.938163 
1430.000000	64.933776 
1429.000000	64.941072 
1428.000000	64.960026 
1427.000000	64.989113 
1426.000000	65.025615 
1425.000000	65.066313 
1424.000000	65.107703 
1423.000000	65.146493 
1422.000000	65.179681 
1421.000000	65.204811 
1420.000000	65.220260 
1419.000000	65.225148 
1418.000000	65.219378 
1417.000000	65.203595 
1416.000000	65.179133 
1415.000000	65.147686 
1414.000000	65.111160 
1413.000000	65.071773 
1412.000000	65.031623 
1411.000000	64.992976 
1410.000000	64.957833 
1409.000000	64.928340 
1408.000000	64.906454 
1407.000000	64.894127 
1406.000000	64.892458 
1405.000000	64.901971 
1404.000000	64.922022 
1403.000000	64.950847 
1402.000000	64.985609 
1401.000000	65.022611 
1400.000000	65.057826 
1399.000000	65.087437 
1398.000000	65.108585 
1397.000000	65.119576 
1396.000000	65.120029 
1395.000000	65.110898 
1394.000000	65.094137 
1393.000000	65.072345 
1392.000000	65.048336 
1391.000000	65.024566 
1390.000000	65.002894 
1389.000000	64.984297 
1388.000000	64.969015 
1387.000000	64.956593 
1386.000000	64.946150 
1385.000000	64.936590 
1384.000000	64.927053 
1383.000000	64.916920 
1382.000000	64.906096 
1381.000000	64.894580 
1380.000000	64.882612 
1379.000000	64.870500 
1378.000000	64.858722 
1377.000000	64.847540 
1376.000000	64.837455 
1375.000000	64.829015 
1374.000000	64.823389 
1373.000000	64.821624 
1372.000000	64.824962 
1371.000000	64.834284 
1370.000000	64.849925 
1369.000000	64.871287 
1368.000000	64.896774 
1367.000000	64.923834 
1366.000000	64.949417 
1365.000000	64.970660 
1364.000000	64.985275 
1363.000000	64.991998 
1362.000000	64.990806 
1361.000000	64.982748 
1360.000000	64.969682 
1359.000000	64.953851 
1358.000000	64.937210 
1357.000000	64.921498 
1356.000000	64.907765 
1355.000000	64.897012 
1354.000000	64.890122 
1353.000000	64.888310 
1352.000000	64.893031 
1351.000000	64.905762 
1350.000000	64.927434 
1349.000000	64.958262 
1348.000000	64.996838 
1347.000000	65.040636 
1346.000000	65.085840 
1345.000000	65.128040 
1344.000000	65.163016 
1343.000000	65.187573 
1342.000000	65.200161 
1341.000000	65.200996 
1340.000000	65.191841 
1339.000000	65.175580 
1338.000000	65.155577 
1337.000000	65.134930 
1336.000000	65.115761 
1335.000000	65.099215 
1334.000000	65.085411 
1333.000000	65.073728 
1332.000000	65.063190 
1331.000000	65.052723 
1330.000000	65.041708 
1329.000000	65.029788 
1328.000000	65.017366 
1327.000000	65.004992 
1326.000000	64.993739 
1325.000000	64.984726 
1324.000000	64.978814 
1323.000000	64.976644 
1322.000000	64.978122 
1321.000000	64.982676 
1320.000000	64.988803 
1319.000000	64.994478 
1318.000000	64.997267 
1317.000000	64.994788 
1316.000000	64.985227 
1315.000000	64.967775 
1314.000000	64.943027 
1313.000000	64.912605 
1312.000000	64.879345 
1311.000000	64.846682 
1310.000000	64.817833 
1309.000000	64.795565 
1308.000000	64.781570 
1307.000000	64.776515 
1306.000000	64.779901 
1305.000000	64.790439 
1304.000000	64.806389 
1303.000000	64.825892 
1302.000000	64.847087 
1301.000000	64.868378 
1300.000000	64.888072 
1299.000000	64.905023 
1298.000000	64.918041 
1297.000000	64.926552 
1296.000000	64.930462 
1295.000000	64.930129 
1294.000000	64.926648 
1293.000000	64.921307 
1292.000000	64.915585 
1291.000000	64.910387 
1290.000000	64.906215 
1289.000000	64.902973 
1288.000000	64.900279 
1287.000000	64.897727 
1286.000000	64.895105 
1285.000000	64.892578 
1284.000000	64.890813 
1283.000000	64.890503 
1282.000000	64.892053 
1281.000000	64.895319 
1280.000000	64.899349 
1279.000000	64.902567 
1278.000000	64.903306 
1277.000000	64.900207 
1276.000000	64.892935 
1275.000000	64.882469 
1274.000000	64.870977 
1273.000000	64.861297 
1272.000000	64.856076 
1271.000000	64.856958 
1270.000000	64.863801 
1269.000000	64.874863 
1268.000000	64.886927 
1267.000000	64.896035 
1266.000000	64.898705 
1265.000000	64.892864 
1264.000000	64.878463 
1263.000000	64.857363 
1262.000000	64.832925 
1261.000000	64.809155 
1260.000000	64.789652 
1259.000000	64.776587 
1258.000000	64.770650 
1257.000000	64.771080 
1256.000000	64.776206 
1255.000000	64.783930 
1254.000000	64.792633 
1253.000000	64.801406 
1252.000000	64.809989 
1251.000000	64.818859 
1250.000000	64.828419 
1249.000000	64.839076 
1248.000000	64.850592 
1247.000000	64.862298 
1246.000000	64.873123 
1245.000000	64.881896 
1244.000000	64.887809 
1243.000000	64.890575 
1242.000000	64.890599 
1241.000000	64.888572 
1240.000000	64.885568 
1239.000000	64.882135 
1238.000000	64.878463 
1237.000000	64.873766 
1236.000000	64.866995 
1235.000000	64.856910 
1234.000000	64.842557 
1233.000000	64.823770 
1232.000000	64.801406 
1231.000000	64.777302 
1230.000000	64.753913 
1229.000000	64.733767 
1228.000000	64.719271 
1227.000000	64.711928 
1226.000000	64.712119 
1225.000000	64.719223 
1224.000000	64.731740 
1223.000000	64.747977 
1222.000000	64.766263 
1221.000000	64.785003 
1220.000000	64.802980 
1219.000000	64.819264 
1218.000000	64.833331 
1217.000000	64.844369 
1216.000000	64.852166 
1215.000000	64.856815 
1214.000000	64.859271 
1213.000000	64.861059 
1212.000000	64.864134 
1211.000000	64.870619 
1210.000000	64.882040 
1209.000000	64.899015 
1208.000000	64.920854 
1207.000000	64.945673 
1206.000000	64.970731 
1205.000000	64.992976 
1204.000000	65.009593 
1203.000000	65.018820 
1202.000000	65.020084 
1201.000000	65.014100 
1200.000000	65.002465 
1199.000000	64.987158 
1198.000000	64.970135 
1197.000000	64.952635 
1196.000000	64.935088 
1195.000000	64.917087 
1194.000000	64.897918 
1193.000000	64.876627 
1192.000000	64.852786 
1191.000000	64.826416 
1190.000000	64.798259 
1189.000000	64.769911 
1188.000000	64.743566 
1187.000000	64.721655 
1186.000000	64.706158 
1185.000000	64.698553 
1184.000000	64.699316 
1183.000000	64.707851 
1182.000000	64.722394 
1181.000000	64.740514 
1180.000000	64.759302 
1179.000000	64.776110 
1178.000000	64.788722 
1177.000000	64.795756 
1176.000000	64.796543 
1175.000000	64.791226 
1174.000000	64.780664 
1173.000000	64.766263 
1172.000000	64.749741 
1171.000000	64.733004 
1170.000000	64.717960 
1169.000000	64.706325 
1168.000000	64.699411 
1167.000000	64.698076 
1166.000000	64.702415 
1165.000000	64.711952 
1164.000000	64.725399 
1163.000000	64.741086 
1162.000000	64.756774 
1161.000000	64.769721 
1160.000000	64.777517 
1159.000000	64.778208 
1158.000000	64.771151 
1157.000000	64.756989 
1156.000000	64.737939 
1155.000000	64.717626 
1154.000000	64.700412 
1153.000000	64.690089 
1152.000000	64.689445 
1151.000000	64.699387 
1150.000000	64.718961 
1149.000000	64.745450 
1148.000000	64.775013 
1147.000000	64.803409 
1146.000000	64.826679 
1145.000000	64.841914 
1144.000000	64.847469 
1143.000000	64.843058 
1142.000000	64.829754 
1141.000000	64.809465 
1140.000000	64.784908 
1139.000000	64.759016 
1138.000000	64.734578 
1137.000000	64.713978 
1136.000000	64.699125 
1135.000000	64.691519 
1134.000000	64.692091 
1133.000000	64.701318 
1132.000000	64.718770 
1131.000000	64.743566 
1130.000000	64.774179 
1129.000000	64.808559 
1128.000000	64.843940 
1127.000000	64.877271 
1126.000000	64.905595 
1125.000000	64.926123 
1124.000000	64.936876 
1123.000000	64.936923 
1122.000000	64.926648 
1121.000000	64.907741 
1120.000000	64.883017 
1119.000000	64.856028 
1118.000000	64.830350 
1117.000000	64.809107 
1116.000000	64.794683 
1115.000000	64.788770 
1114.000000	64.791917 
1113.000000	64.803957 
1112.000000	64.823412 
1111.000000	64.848089 
1110.000000	64.874768 
1109.000000	64.899754 
1108.000000	64.919400 
1107.000000	64.930486 
1106.000000	64.931011 
1105.000000	64.920592 
1104.000000	64.900469 
1103.000000	64.873194 
1102.000000	64.842104 
1101.000000	64.810609 
1100.000000	64.781594 
1099.000000	64.757370 
1098.000000	64.738845 
1097.000000	64.726042 
1096.000000	64.718270 
1095.000000	64.714622 
1094.000000	64.714074 
1093.000000	64.715766 
1092.000000	64.719223 
1091.000000	64.724230 
1090.000000	64.730405 
1089.000000	64.737343 
1088.000000	64.744305 
1087.000000	64.750528 
1086.000000	64.755272 
1085.000000	64.758038 
1084.000000	64.758896 
1083.000000	64.758110 
1082.000000	64.756512 
1081.000000	64.754796 
1080.000000	64.753532 
1079.000000	64.752626 
1078.000000	64.751505 
1077.000000	64.748883 
1076.000000	64.743185 
1075.000000	64.732909 
1074.000000	64.717197 
1073.000000	64.696168 
1072.000000	64.670920 
1071.000000	64.643573 
1070.000000	64.616942 
1069.000000	64.593648 
1068.000000	64.575552 
1067.000000	64.563369 
1066.000000	64.556670 
1065.000000	64.553952 
1064.000000	64.553236 
1063.000000	64.552497 
1062.000000	64.550352 
1061.000000	64.546132 
1060.000000	64.540314 
1059.000000	64.533662 
1058.000000	64.527535 
1057.000000	64.523339 
1056.000000	64.522457 
1055.000000	64.525651 
1054.000000	64.533543 
1053.000000	64.546322 
1052.000000	64.564037 
1051.000000	64.586496 
1050.000000	64.613246 
1049.000000	64.643597 
1048.000000	64.676713 
1047.000000	64.711332 
1046.000000	64.746141 
1045.000000	64.779806 
1044.000000	64.811062 
1043.000000	64.838981 
1042.000000	64.862775 
1041.000000	64.881730 
1040.000000	64.895248 
1039.000000	64.902949 
1038.000000	64.904427 
1037.000000	64.899301 
1036.000000	64.887595 
1035.000000	64.869666 
1034.000000	64.846086 
1033.000000	64.817523 
1032.000000	64.784908 
1031.000000	64.749526 
1030.000000	64.712858 
1029.000000	64.676642 
1028.000000	64.642810 
1027.000000	64.613294 
1026.000000	64.589405 
1025.000000	64.572024 
1024.000000	64.560961 
1023.000000	64.555406 
1022.000000	64.553928 
1021.000000	64.555001 
1020.000000	64.556813 
1019.000000	64.558267 
1018.000000	64.559006 
1017.000000	64.559435 
1016.000000	64.560413 
1015.000000	64.563298 
1014.000000	64.569449 
1013.000000	64.579796 
1012.000000	64.594650 
1011.000000	64.613819 
1010.000000	64.636588 
1009.000000	64.661860 
1008.000000	64.688158 
1007.000000	64.714097 
1006.000000	64.738321 
1005.000000	64.759755 
1004.000000	64.777874 
1003.000000	64.792704 
1002.000000	64.804577 
1001.000000	64.814543 
1000.000000	64.823365 
999.000000	 64.831376 
998.000000	 64.837980 
997.000000	 64.842033 
996.000000	 64.841842 
995.000000	 64.835739 
994.000000	 64.822864 
993.000000	 64.803504 
992.000000	 64.779424 
991.000000	 64.753508 
990.000000	 64.729332 
989.000000	 64.710211 
988.000000	 64.698505 
987.000000	 64.695000 
986.000000	 64.698624 
985.000000	 64.706587 
984.000000	 64.715290 
983.000000	 64.721250 
982.000000	 64.721822 
981.000000	 64.715886 
980.000000	 64.704227 
979.000000	 64.689445 
978.000000	 64.674949 
977.000000	 64.664268 
976.000000	 64.660429 
975.000000	 64.664936 
974.000000	 64.677619 
973.000000	 64.695954 
972.000000	 64.716100 
971.000000	 64.733219 
970.000000	 64.742660 
969.000000	 64.740896 
968.000000	 64.726591 
967.000000	 64.700961 
966.000000	 64.667725 
965.000000	 64.631986 
964.000000	 64.599108 
963.000000	 64.573359 
962.000000	 64.557218 
961.000000	 64.550638 
960.000000	 64.551234 
959.000000	 64.555120 
958.000000	 64.558076 
957.000000	 64.556407 
956.000000	 64.547920 
955.000000	 64.532279 
954.000000	 64.510965 
953.000000	 64.486694 
952.000000	 64.462590 
951.000000	 64.441299 
950.000000	 64.424180 
949.000000	 64.411306 
948.000000	 64.401435 
947.000000	 64.392471 
946.000000	 64.382457 
945.000000	 64.369845 
944.000000	 64.354658 
943.000000	 64.338111 
942.000000	 64.323306 
941.000000	 64.314198 
940.000000	 64.314961 
939.000000	 64.328980 
938.000000	 64.357495 
937.000000	 64.398980 
936.000000	 64.449071 
935.000000	 64.501476 
934.000000	 64.549183 
933.000000	 64.586067 
932.000000	 64.608287 
931.000000	 64.615011 
930.000000	 64.608025 
929.000000	 64.591073 
928.000000	 64.568662 
927.000000	 64.544749 
926.000000	 64.522242 
925.000000	 64.502120 
924.000000	 64.484167 
923.000000	 64.467215 
922.000000	 64.450192 
921.000000	 64.432477 
920.000000	 64.414310 
919.000000	 64.397192 
918.000000	 64.382886 
917.000000	 64.373707 
916.000000	 64.371418 
915.000000	 64.377665 
914.000000	 64.393281 
913.000000	 64.418458 
912.000000	 64.452886 
911.000000	 64.494705 
910.000000	 64.540624 
909.000000	 64.586114 
908.000000	 64.626193 
907.000000	 64.656162 
906.000000	 64.672350 
905.000000	 64.673471 
904.000000	 64.661073 
903.000000	 64.638781 
902.000000	 64.611458 
901.000000	 64.584088 
900.000000	 64.560437 
899.000000	 64.542889 
898.000000	 64.531922 
897.000000	 64.526247 
896.000000	 64.523291 
895.000000	 64.520645 
894.000000	 64.516758 
893.000000	 64.510345 
892.000000	 64.501929 
891.000000	 64.492988 
890.000000	 64.486551 
889.000000	 64.485001 
888.000000	 64.491629 
887.000000	 64.508843 
886.000000	 64.539289 
885.000000	 64.584517 
884.000000	 64.645433 
883.000000	 64.721417 
882.000000	 64.810919 
881.000000	 64.910888 
880.000000	 65.017533 
879.000000	 65.126252 
878.000000	 65.232038 
877.000000	 65.329432 
876.000000	 65.412735 
875.000000	 65.475797 
874.000000	 65.512776 
873.000000	 65.518307 
872.000000	 65.488886 
871.000000	 65.422701 
870.000000	 65.322041 
869.000000	 65.191674 
868.000000	 65.038847 
867.000000	 64.872050 
866.000000	 64.700603 
865.000000	 64.533782 
864.000000	 64.379978 
863.000000	 64.246630 
862.000000	 64.138889 
861.000000	 64.061021 
860.000000	 64.016127 
859.000000	 64.006018 
858.000000	 64.029002 
857.000000	 64.082002 
856.000000	 64.159536 
855.000000	 64.254117 
854.000000	 64.355826 
853.000000	 64.454317 
852.000000	 64.539718 
851.000000	 64.603948 
850.000000	 64.641547 
849.000000	 64.650535 
848.000000	 64.632725 
847.000000	 64.593648 
846.000000	 64.542078 
845.000000	 64.489078 
844.000000	 64.446210 
843.000000	 64.424896 
842.000000	 64.432787 
841.000000	 64.473533 
840.000000	 64.543461 
839.000000	 64.633679 
838.000000	 64.728665 
837.000000	 64.809727 
836.000000	 64.856767 
835.000000	 64.853501 
834.000000	 64.789223 
833.000000	 64.661121 
832.000000	 64.475679 
831.000000	 64.247870 
830.000000	 63.999176 
829.000000	 63.753628 
828.000000	 63.535213 
827.000000	 63.363885 
826.000000	 63.253307 
825.000000	 63.209438 
824.000000	 63.230609 
823.000000	 63.308691 
822.000000	 63.431501 
821.000000	 63.585186 
820.000000	 63.755321 
819.000000	 63.928651 
818.000000	 64.093375 
817.000000	 64.239883 
816.000000	 64.360117 
815.000000	 64.448094 
814.000000	 64.500546 
813.000000	 64.516472 
812.000000	 64.498805 
811.000000	 64.452075 
810.000000	 64.383101 
809.000000	 64.298391 
808.000000	 64.205241 
807.000000	 64.109683 
806.000000	 64.017367 
805.000000	 63.932991 
804.000000	 63.861060 
803.000000	 63.805294 
802.000000	 63.768577 
801.000000	 63.752841 
800.000000	 63.758516 
799.000000	 63.784694 
798.000000	 63.828372 
797.000000	 63.886141 
796.000000	 63.953995 
795.000000	 64.027786 
794.000000	 64.103198 
793.000000	 64.176321 
792.000000	 64.243221 
791.000000	 64.300036 
790.000000	 64.342713 
789.000000	 64.367008 
788.000000	 64.369320 
787.000000	 64.348292 
786.000000	 64.304971 
785.000000	 64.243340 
784.000000	 64.169931 
783.000000	 64.093756 
782.000000	 64.023995 
781.000000	 63.968658 
780.000000	 63.932776 
779.000000	 63.917803 
778.000000	 63.921356 
777.000000	 63.938093 
776.000000	 63.961076 
775.000000	 63.983201 
774.000000	 63.999223 
773.000000	 64.006352 
772.000000	 64.004921 
771.000000	 63.997530 
770.000000	 63.988256 
769.000000	 63.981270 
768.000000	 63.980102 
767.000000	 63.986587 
766.000000	 64.000654 
765.000000	 64.020276 
764.000000	 64.042711 
763.000000	 64.064574 
762.000000	 64.082527 
761.000000	 64.093351 
760.000000	 64.094638 
759.000000	 64.084553 
758.000000	 64.062333 
757.000000	 64.028143 
756.000000	 63.983464 
755.000000	 63.931012 
754.000000	 63.874840 
753.000000	 63.819313 
752.000000	 63.768529 
751.000000	 63.725662 
750.000000	 63.692522 
749.000000	 63.669490 
748.000000	 63.655591 
747.000000	 63.649082 
746.000000	 63.648104 
745.000000	 63.650846 
744.000000	 63.655734 
743.000000	 63.661217 
742.000000	 63.665580 
741.000000	 63.666939 
740.000000	 63.663244 
739.000000	 63.652491 
738.000000	 63.633656 
737.000000	 63.607263 
736.000000	 63.575649 
735.000000	 63.543033 
734.000000	 63.514280 
733.000000	 63.494157 
732.000000	 63.485741 
731.000000	 63.489603 
730.000000	 63.503623 
729.000000	 63.523650 
728.000000	 63.544344 
727.000000	 63.560700 
726.000000	 63.568902 
725.000000	 63.567304 
724.000000	 63.556265 
723.000000	 63.537907 
722.000000	 63.515377 
721.000000	 63.491725 
720.000000	 63.469886 
719.000000	 63.451743 
718.000000	 63.438534 
717.000000	 63.430881 
716.000000	 63.428759 
715.000000	 63.431811 
714.000000	 63.438653 
713.000000	 63.447189 
712.000000	 63.454437 
711.000000	 63.457202 
710.000000	 63.452911 
709.000000	 63.440489 
708.000000	 63.420796 
707.000000	 63.396549 
706.000000	 63.371586 
705.000000	 63.349676 
704.000000	 63.333797 
703.000000	 63.324642 
702.000000	 63.320899 
701.000000	 63.319063 
700.000000	 63.315105 
699.000000	 63.304972 
698.000000	 63.285899 
697.000000	 63.256955 
696.000000	 63.219451 
695.000000	 63.176155 
694.000000	 63.130116 
693.000000	 63.084435 
692.000000	 63.041424 
691.000000	 63.002872 
690.000000	 62.969923 
689.000000	 62.943696 
688.000000	 62.925386 
687.000000	 62.915372 
686.000000	 62.913393 
685.000000	 62.917780 
684.000000	 62.925910 
683.000000	 62.934446 
682.000000	 62.940239 
681.000000	 62.940883 
680.000000	 62.935233 
679.000000	 62.923932 
678.000000	 62.908768 
677.000000	 62.892031 
676.000000	 62.876129 
675.000000	 62.862753 
674.000000	 62.853169 
673.000000	 62.847757 
672.000000	 62.847185 
671.000000	 62.852907 
670.000000	 62.866830 
669.000000	 62.891101 
668.000000	 62.927150 
667.000000	 62.974619 
666.000000	 63.031029 
665.000000	 63.091611 
664.000000	 63.150382 
663.000000	 63.201284 
662.000000	 63.239908 
661.000000	 63.264393 
660.000000	 63.275051 
659.000000	 63.273763 
658.000000	 63.263201 
657.000000	 63.245415 
656.000000	 63.221144 
655.000000	 63.189768 
654.000000	 63.150453 
653.000000	 63.102698 
652.000000	 63.048052 
651.000000	 62.989258 
650.000000	 62.931132 
649.000000	 62.878060 
648.000000	 62.832832 
647.000000	 62.795639 
646.000000	 62.763094 
645.000000	 62.730264 
644.000000	 62.691879 
643.000000	 62.645268 
642.000000	 62.591147 
641.000000	 62.534546 
640.000000	 62.483644 
639.000000	 62.447547 
638.000000	 62.433314 
637.000000	 62.443923 
636.000000	 62.476968 
635.000000	 62.525343 
634.000000	 62.578868 
633.000000	 62.626886 
632.000000	 62.661099 
631.000000	 62.677407 
630.000000	 62.676596 
629.000000	 62.663316 
628.000000	 62.644505 
627.000000	 62.626695 
626.000000	 62.614655 
625.000000	 62.610030 
624.000000	 62.611532 
623.000000	 62.616658 
622.000000	 62.622046 
621.000000	 62.625312 
620.000000	 62.624931 
619.000000	 62.621188 
618.000000	 62.614822 
617.000000	 62.606358 
616.000000	 62.595987 
615.000000	 62.582564 
614.000000	 62.565207 
613.000000	 62.543725 
612.000000	 62.519693 
611.000000	 62.496519 
610.000000	 62.479591 
609.000000	 62.474966 
608.000000	 62.488079 
607.000000	 62.521958 
606.000000	 62.576198 
605.000000	 62.646579 
604.000000	 62.725782 
603.000000	 62.804627 
602.000000	 62.873768 
601.000000	 62.925648 
600.000000	 62.955212 
599.000000	 62.961387 
598.000000	 62.947750 
597.000000	 62.920880 
596.000000	 62.889146 
595.000000	 62.859797 
594.000000	 62.838244 
593.000000	 62.825274 
592.000000	 62.818169 
591.000000	 62.810349 
590.000000	 62.794637 
589.000000	 62.764072 
588.000000	 62.714576 
587.000000	 62.645363 
586.000000	 62.559175 
585.000000	 62.462162 
584.000000	 62.362146 
583.000000	 62.268567 
582.000000	 62.190604 
581.000000	 62.136530 
580.000000	 62.111902 
579.000000	 62.118887 
578.000000	 62.155318 
577.000000	 62.214207 
576.000000	 62.284374 
575.000000	 62.352466 
574.000000	 62.404632 
573.000000	 62.428569 
572.000000	 62.415695 
571.000000	 62.362647 
570.000000	 62.271690 
569.000000	 62.150120 
568.000000	 62.008714 
567.000000	 61.860346 
566.000000	 61.717629 
565.000000	 61.591577 
564.000000	 61.490178 
563.000000	 61.417627 
562.000000	 61.375021 
561.000000	 61.360597 
560.000000	 61.371088 
559.000000	 61.402034 
558.000000	 61.448764 
557.000000	 61.506128 
556.000000	 61.568975 
555.000000	 61.631608 
554.000000	 61.688065 
553.000000	 61.732077 
552.000000	 61.757755 
551.000000	 61.760163 
550.000000	 61.736440 
549.000000	 61.686587 
548.000000	 61.613821 
547.000000	 61.524438 
546.000000	 61.427378 
545.000000	 61.332535 
544.000000	 61.249732 
543.000000	 61.186718 
542.000000	 61.147952 
541.000000	 61.134338 
540.000000	 61.143565 
539.000000	 61.170840 
538.000000	 61.209321 
537.000000	 61.251950 
536.000000	 61.292457 
535.000000	 61.326193 
534.000000	 61.350417 
533.000000	 61.363863 
532.000000	 61.366248 
531.000000	 61.357688 
530.000000	 61.338567 
529.000000	 61.308383 
528.000000	 61.266255 
527.000000	 61.210918 
526.000000	 61.141777 
525.000000	 61.059474 
524.000000	 60.966825 
523.000000	 60.868692 
522.000000	 60.771942 
521.000000	 60.685253 
520.000000	 60.617017 
519.000000	 60.574078 
518.000000	 60.559272 
517.000000	 60.570573 
516.000000	 60.600066 
515.000000	 60.635685 
514.000000	 60.662603 
513.000000	 60.665822 
512.000000	 60.633850 
511.000000	 60.560774 
510.000000	 60.448312 
509.000000	 60.305190 
508.000000	 60.146212 
507.000000	 59.988617 
506.000000	 59.849524 
505.000000	 59.742450 
504.000000	 59.675359 
503.000000	 59.649777 
502.000000	 59.661006 
501.000000	 59.699773 
500.000000	 59.754300 
499.000000	 59.812831 
498.000000	 59.865117 
497.000000	 59.903955 
496.000000	 59.925174 
495.000000	 59.927821 
494.000000	 59.913182 
493.000000	 59.884595 
492.000000	 59.846663 
491.000000	 59.804511 
490.000000	 59.764385 
489.000000	 59.731221 
488.000000	 59.709596 
487.000000	 59.700655 
486.000000	 59.702229 
485.000000	 59.708499 
484.000000	 59.710502 
483.000000	 59.699702 
482.000000	 59.669637 
481.000000	 59.619522 
480.000000	 59.554862 
479.000000	 59.486722 
478.000000	 59.428095 
477.000000	 59.391784 
476.000000	 59.386897 
475.000000	 59.416341 
474.000000	 59.475803 
473.000000	 59.555125 
472.000000	 59.640645 
471.000000	 59.717345 
470.000000	 59.771919 
469.000000	 59.794211 
468.000000	 59.778738 
467.000000	 59.726333 
466.000000	 59.642481 
465.000000	 59.536194 
464.000000	 59.416651 
463.000000	 59.291148 
462.000000	 59.163784 
461.000000	 59.035491 
460.000000	 58.906364 
459.000000	 58.777427 
458.000000	 58.653640 
457.000000	 58.543705 
456.000000	 58.460259 
455.000000	 58.415079 
454.000000	 58.418822 
453.000000	 58.475899 
452.000000	 58.584928 
451.000000	 58.737206 
450.000000	 58.918285 
449.000000	 59.110212 
448.000000	 59.292316 
447.000000	 59.443998 
446.000000	 59.546875 
445.000000	 59.587669 
444.000000	 59.558963 
443.000000	 59.460854 
442.000000	 59.302186 
441.000000	 59.099721 
440.000000	 58.877968 
439.000000	 58.664202 
438.000000	 58.484125 
437.000000	 58.356165 
436.000000	 58.289623 
435.000000	 58.282971 
434.000000	 58.322143 
433.000000	 58.388447 
432.000000	 58.463358 
431.000000	 58.534884 
430.000000	 58.597064 
429.000000	 58.653450 
428.000000	 58.715367 
427.000000	 58.795142 
426.000000	 58.896017 
425.000000	 59.016036 
424.000000	 59.148097 
423.000000	 59.280848 
422.000000	 59.401154 
421.000000	 59.500813 
420.000000	 59.578347 
419.000000	 59.642529 
418.000000	 59.709501 
417.000000	 59.790229 
416.000000	 59.884119 
415.000000	 59.980082 
414.000000	 60.055637 
413.000000	 60.078096 
412.000000	 60.011315 
411.000000	 59.839367 
410.000000	 59.563016 
409.000000	 59.186053 
408.000000	 58.721518 
407.000000	 58.213567 
406.000000	 57.705307 
405.000000	 57.225775 
404.000000	 56.779503 
403.000000	 56.357383 
402.000000	 55.923819 
401.000000	 55.439352 
400.000000	 54.856753 
399.000000	 54.118680 
398.000000	 53.206491 
397.000000	 52.155137 
396.000000	 51.051855 
395.000000	 50.003862 
394.000000	 49.170827 
393.000000	 48.735189 
392.000000	 48.832035 
391.000000	 49.511766 
390.000000	 50.729155 
389.000000	 52.356553 
388.000000	 54.196047 
387.000000	 56.054854 
386.000000	 57.773518 
385.000000	 59.315156 
384.000000	 60.757637 
383.000000	 62.316012 
382.000000	 64.308571 
381.000000	 67.030286 
380.000000	 70.735359 
379.000000	 75.412702 
378.000000	 80.737853 
377.000000	 86.069035 
376.000000	 90.597844 
375.000000	 93.493461 
374.000000	 94.191813 
373.000000	 92.424249 
372.000000	 88.434338 
371.000000	 82.662200 
370.000000	 75.649237 

