PE IR       SPECTRUM    SPECTRUM    ASCII       PEDS        1.60        
  -1
C-1BEE~1.ASC
17/05/02
13:49:26.00
17/05/02
13:49:26.00
tln
$C-4040-8_t0035$<tbV0>[-7.5,12.0,8.0,0.0,22,1,0]
370.000000
64









2002,4.07    
MIRTGS : RIGHTBACK : INTERNAL 2
MIR : ON : INTERNAL 2
OPTKBR

0.200000
8
8.000000
FILLER
RATIO
SPECTRUM
UNLOCKED 256

DOUBLE
64
COMBINED
1
0
0


1.000000
RATIO


1
0
TRUE
51149
0
LEFT NOT FITTED RIGHT NOT FITTED 0
NONE
NONE
15600
12.000000
4.427000
51148
TRUE
1 0 8 72 0 0 0 0 

15798.010000






#HDR
-1
-1
#GR
CM-1
%T
0.00002384185791015625
0.0
7800.000000
-1.000000
7431
8
81.637406
37.728214
#DATA
7800.000000	65.598320 
7799.000000	67.641043 
7798.000000	69.187593 
7797.000000	70.162320 
7796.000000	70.568418 
7795.000000	70.452070 
7794.000000	69.901967 
7793.000000	69.028973 
7792.000000	67.949247 
7791.000000	66.777062 
7790.000000	65.650987 
7789.000000	64.718222 
7788.000000	64.121055 
7787.000000	63.962602 
7786.000000	64.291906 
7785.000000	65.071344 
7784.000000	66.170978 
7783.000000	67.385983 
7782.000000	68.458223 
7781.000000	69.148921 
7780.000000	69.292759 
7779.000000	68.837213 
7778.000000	67.872357 
7777.000000	66.577172 
7776.000000	65.163016 
7775.000000	63.820767 
7774.000000	62.667632 
7773.000000	61.744046 
7772.000000	61.021852 
7771.000000	60.447120 
7770.000000	59.977293 
7769.000000	59.623265 
7768.000000	59.460711 
7767.000000	59.607458 
7766.000000	60.183334 
7765.000000	61.291790 
7764.000000	62.977957 
7763.000000	65.207123 
7762.000000	67.856645 
7761.000000	70.733308 
7760.000000	73.602437 
7759.000000	76.230287 
7758.000000	78.421902 
7757.000000	80.057024 
7756.000000	81.098198 
7755.000000	81.591486 
7754.000000	81.637406 
7753.000000	81.380772 
7752.000000	80.953693 
7751.000000	80.478048 
7750.000000	80.014491 
7749.000000	79.589343 
7748.000000	79.174375 
7747.000000	78.733491 
7746.000000	78.222084 
7745.000000	77.618980 
7744.000000	76.933431 
7743.000000	76.212000 
7742.000000	75.521922 
7741.000000	74.932289 
7740.000000	74.497795 
7739.000000	74.240565 
7738.000000	74.158835 
7737.000000	74.224543 
7736.000000	74.390554 
7735.000000	74.592852 
7734.000000	74.764752 
7733.000000	74.835896 
7732.000000	74.730300 
7731.000000	74.375891 
7730.000000	73.718309 
7729.000000	72.735786 
7728.000000	71.436190 
7727.000000	69.881200 
7726.000000	68.183064 
7725.000000	66.500782 
7724.000000	65.010261 
7723.000000	63.882875 
7722.000000	63.250207 
7721.000000	63.178539 
7720.000000	63.655328 
7719.000000	64.582514 
7718.000000	65.790367 
7717.000000	67.068886 
7716.000000	68.207240 
7715.000000	69.022941 
7714.000000	69.387722 
7713.000000	69.250988 
7712.000000	68.639993 
7711.000000	67.647242 
7710.000000	66.405820 
7709.000000	65.069222 
7708.000000	63.782715 
7707.000000	62.662506 
7706.000000	61.784434 
7705.000000	61.182260 
7704.000000	60.858798 
7703.000000	60.797166 
7702.000000	60.979318 
7701.000000	61.377835 
7700.000000	61.976313 
7699.000000	62.756514 
7698.000000	63.702511 
7697.000000	64.777040 
7696.000000	65.931272 
7695.000000	67.089247 
7694.000000	68.173885 
7693.000000	69.111657 
7692.000000	69.858336 
7691.000000	70.405006 
7690.000000	70.786380 
7689.000000	71.077847 
7688.000000	71.360349 
7687.000000	71.699500 
7686.000000	72.122192 
7685.000000	72.608923 
7684.000000	73.103737 
7683.000000	73.528409 
7682.000000	73.809289 
7681.000000	73.889732 
7680.000000	73.739886 
7679.000000	73.353362 
7678.000000	72.746133 
7677.000000	71.943831 
7676.000000	70.974826 
7675.000000	69.865822 
7674.000000	68.651247 
7673.000000	67.370295 
7672.000000	66.072177 
7671.000000	64.816212 
7670.000000	63.666248 
7669.000000	62.690138 
7668.000000	61.941647 
7667.000000	61.465096 
7666.000000	61.270141 
7665.000000	61.354351 
7664.000000	61.695551 
7663.000000	62.261581 
7662.000000	63.004279 
7661.000000	63.868761 
7660.000000	64.790844 
7659.000000	65.699982 
7658.000000	66.521048 
7657.000000	67.186689 
7656.000000	67.643404 
7655.000000	67.866325 
7654.000000	67.858505 
7653.000000	67.648720 
7652.000000	67.281556 
7651.000000	66.808772 
7650.000000	66.279935 
7649.000000	65.739393 
7648.000000	65.225577 
7647.000000	64.770698 
7646.000000	64.407682 
7645.000000	64.174389 
7644.000000	64.108467 
7643.000000	64.243578 
7642.000000	64.594244 
7641.000000	65.140914 
7640.000000	65.833425 
7639.000000	66.587233 
7638.000000	67.310857 
7637.000000	67.917084 
7636.000000	68.354988 
7635.000000	68.617939 
7634.000000	68.748354 
7633.000000	68.822455 
7632.000000	68.931317 
7631.000000	69.153165 
7630.000000	69.535994 
7629.000000	70.080709 
7628.000000	70.745849 
7627.000000	71.449375 
7626.000000	72.088027 
7625.000000	72.550415 
7624.000000	72.743678 
7623.000000	72.603559 
7622.000000	72.105050 
7621.000000	71.265053 
7620.000000	70.142269 
7619.000000	68.826436 
7618.000000	67.425346 
7617.000000	66.049647 
7616.000000	64.807152 
7615.000000	63.780522 
7614.000000	63.022541 
7613.000000	62.546730 
7612.000000	62.329125 
7611.000000	62.318062 
7610.000000	62.441229 
7609.000000	62.629365 
7608.000000	62.819385 
7607.000000	62.982106 
7606.000000	63.117790 
7605.000000	63.260197 
7604.000000	63.458275 
7603.000000	63.765573 
7602.000000	64.219784 
7601.000000	64.831829 
7600.000000	65.578246 
7599.000000	66.406512 
7598.000000	67.244577 
7597.000000	68.017649 
7596.000000	68.662738 
7595.000000	69.144916 
7594.000000	69.459962 
7593.000000	69.626855 
7592.000000	69.683861 
7591.000000	69.683742 
7590.000000	69.674968 
7589.000000	69.696259 
7588.000000	69.764494 
7587.000000	69.877576 
7586.000000	70.017051 
7585.000000	70.162558 
7584.000000	70.297312 
7583.000000	70.413351 
7582.000000	70.521736 
7581.000000	70.650506 
7580.000000	70.837068 
7579.000000	71.114611 
7578.000000	71.507239 
7577.000000	72.019886 
7576.000000	72.635841 
7575.000000	73.315191 
7574.000000	74.003672 
7573.000000	74.635076 
7572.000000	75.148153 
7571.000000	75.483512 
7570.000000	75.594615 
7569.000000	75.439882 
7568.000000	74.993634 
7567.000000	74.240684 
7566.000000	73.183012 
7565.000000	71.845078 
7564.000000	70.286965 
7563.000000	68.599557 
7562.000000	66.900992 
7561.000000	65.322899 
7560.000000	63.988828 
7559.000000	63.001513 
7558.000000	62.416291 
7557.000000	62.250089 
7556.000000	62.471866 
7555.000000	63.025188 
7554.000000	63.828015 
7553.000000	64.804553 
7552.000000	65.888571 
7551.000000	67.024016 
7550.000000	68.155670 
7549.000000	69.226241 
7548.000000	70.169663 
7547.000000	70.909619 
7546.000000	71.367383 
7545.000000	71.487402 
7544.000000	71.245956 
7543.000000	70.671486 
7542.000000	69.834280 
7541.000000	68.838500 
7540.000000	67.800354 
7539.000000	66.827154 
7538.000000	66.004943 
7537.000000	65.390419 
7536.000000	65.010952 
7535.000000	64.877653 
7534.000000	64.979648 
7533.000000	65.287923 
7532.000000	65.756464 
7531.000000	66.328597 
7530.000000	66.931414 
7529.000000	67.474555 
7528.000000	67.868924 
7527.000000	68.040084 
7526.000000	67.936372 
7525.000000	67.537522 
7524.000000	66.861701 
7523.000000	65.963554 
7522.000000	64.923310 
7521.000000	63.834595 
7520.000000	62.784290 
7519.000000	61.842298 
7518.000000	61.061930 
7517.000000	60.476303 
7516.000000	60.098195 
7515.000000	59.923195 
7514.000000	59.932184 
7513.000000	60.097384 
7512.000000	60.371136 
7511.000000	60.707306 
7510.000000	61.052727 
7509.000000	61.373686 
7508.000000	61.647605 
7507.000000	61.881923 
7506.000000	62.096929 
7505.000000	62.334895 
7504.000000	62.642931 
7503.000000	63.065004 
7502.000000	63.628029 
7501.000000	64.332103 
7500.000000	65.149617 
7499.000000	66.021203 
7498.000000	66.867756 
7497.000000	67.602181 
7496.000000	68.148255 
7495.000000	68.452477 
7494.000000	68.493986 
7493.000000	68.290638 
7492.000000	67.891407 
7491.000000	67.363739 
7490.000000	66.775918 
7489.000000	66.190528 
7488.000000	65.649175 
7487.000000	65.168738 
7486.000000	64.745044 
7485.000000	64.366245 
7484.000000	64.022636 
7483.000000	63.713765 
7482.000000	63.455128 
7481.000000	63.271427 
7480.000000	63.193559 
7479.000000	63.241648 
7478.000000	63.422107 
7477.000000	63.711452 
7476.000000	64.072728 
7475.000000	64.459371 
7474.000000	64.830017 
7473.000000	65.153908 
7472.000000	65.422701 
7471.000000	65.649127 
7470.000000	65.857100 
7469.000000	66.069293 
7468.000000	66.296982 
7467.000000	66.532325 
7466.000000	66.745090 
7465.000000	66.889953 
7464.000000	66.923451 
7463.000000	66.817188 
7462.000000	66.568970 
7461.000000	66.208076 
7460.000000	65.788650 
7459.000000	65.382146 
7458.000000	65.063333 
7457.000000	64.894270 
7456.000000	64.908742 
7455.000000	65.105795 
7454.000000	65.461063 
7453.000000	65.918850 
7452.000000	66.404342 
7451.000000	66.835069 
7450.000000	67.136764 
7449.000000	67.256832 
7448.000000	67.171430 
7447.000000	66.892600 
7446.000000	66.462087 
7445.000000	65.946435 
7444.000000	65.423250 
7443.000000	64.963197 
7442.000000	64.616250 
7441.000000	64.401912 
7440.000000	64.308571 
7439.000000	64.294219 
7438.000000	64.301943 
7437.000000	64.274597 
7436.000000	64.176487 
7435.000000	63.993597 
7434.000000	63.750839 
7433.000000	63.502931 
7432.000000	63.332247 
7431.000000	63.318181 
7430.000000	63.529729 
7429.000000	64.006590 
7428.000000	64.748907 
7427.000000	65.716934 
7426.000000	66.830706 
7425.000000	67.987561 
7424.000000	69.071507 
7423.000000	69.977736 
7422.000000	70.620894 
7421.000000	70.947694 
7420.000000	70.944166 
7419.000000	70.636177 
7418.000000	70.085501 
7417.000000	69.379496 
7416.000000	68.618464 
7415.000000	67.901182 
7414.000000	67.301774 
7413.000000	66.858458 
7412.000000	66.570854 
7411.000000	66.402816 
7410.000000	66.290783 
7409.000000	66.161012 
7408.000000	65.946197 
7407.000000	65.603303 
7406.000000	65.120530 
7405.000000	64.522266 
7404.000000	63.852977 
7403.000000	63.175082 
7402.000000	62.546610 
7401.000000	62.020277 
7400.000000	61.627912 
7399.000000	61.387681 
7398.000000	61.302256 
7397.000000	61.366105 
7396.000000	61.565756 
7395.000000	61.884641 
7394.000000	62.300944 
7393.000000	62.787556 
7392.000000	63.303947 
7391.000000	63.812875 
7390.000000	64.280676 
7389.000000	64.686942 
7388.000000	65.024566 
7387.000000	65.299534 
7386.000000	65.523314 
7385.000000	65.709543 
7384.000000	65.863823 
7383.000000	65.973997 
7382.000000	66.011953 
7381.000000	65.942811 
7380.000000	65.738153 
7379.000000	65.390157 
7378.000000	64.922213 
7377.000000	64.389562 
7376.000000	63.873481 
7375.000000	63.466525 
7374.000000	63.250803 
7373.000000	63.276815 
7372.000000	63.551115 
7371.000000	64.034008 
7370.000000	64.646244 
7369.000000	65.287923 
7368.000000	65.858125 
7367.000000	66.274929 
7366.000000	66.492724 
7365.000000	66.505002 
7364.000000	66.348147 
7363.000000	66.087102 
7362.000000	65.802741 
7361.000000	65.570640 
7360.000000	65.449786 
7359.000000	65.468263 
7358.000000	65.623211 
7357.000000	65.878653 
7356.000000	66.173124 
7355.000000	66.428494 
7354.000000	66.567063 
7353.000000	66.523551 
7352.000000	66.256093 
7351.000000	65.754628 
7350.000000	65.043711 
7349.000000	64.177560 
7348.000000	63.228392 
7347.000000	62.275743 
7346.000000	61.395215 
7345.000000	60.646581 
7344.000000	60.067319 
7343.000000	59.670662 
7342.000000	59.448313 
7341.000000	59.376192 
7340.000000	59.419274 
7339.000000	59.541153 
7338.000000	59.703111 
7337.000000	59.880328 
7336.000000	60.059475 
7335.000000	60.242009 
7334.000000	60.436224 
7333.000000	60.659241 
7332.000000	60.928344 
7331.000000	61.257433 
7330.000000	61.650824 
7329.000000	62.100768 
7328.000000	62.586545 
7327.000000	63.078951 
7326.000000	63.544678 
7325.000000	63.952183 
7324.000000	64.278578 
7323.000000	64.516258 
7322.000000	64.672183 
7321.000000	64.766812 
7320.000000	64.825320 
7319.000000	64.878416 
7318.000000	64.944815 
7317.000000	65.030837 
7316.000000	65.122985 
7315.000000	65.199470 
7314.000000	65.228486 
7313.000000	65.178918 
7312.000000	65.032219 
7311.000000	64.791464 
7310.000000	64.482450 
7309.000000	64.149212 
7308.000000	63.846349 
7307.000000	63.626098 
7306.000000	63.524079 
7305.000000	63.550376 
7304.000000	63.684153 
7303.000000	63.880324 
7302.000000	64.082765 
7301.000000	64.241576 
7300.000000	64.322185 
7299.000000	64.318299 
7298.000000	64.255237 
7297.000000	64.181113 
7296.000000	64.149141 
7295.000000	64.201474 
7294.000000	64.357423 
7293.000000	64.603471 
7292.000000	64.895725 
7291.000000	65.171170 
7290.000000	65.366768 
7289.000000	65.436458 
7288.000000	65.363836 
7287.000000	65.170502 
7286.000000	64.909672 
7285.000000	64.655613 
7284.000000	64.482688 
7283.000000	64.448952 
7282.000000	64.580512 
7281.000000	64.868736 
7280.000000	65.273523 
7279.000000	65.729975 
7278.000000	66.162848 
7277.000000	66.502237 
7276.000000	66.695904 
7275.000000	66.712617 
7274.000000	66.546368 
7273.000000	66.211986 
7272.000000	65.743684 
7271.000000	65.189385 
7270.000000	64.604163 
7269.000000	64.046144 
7268.000000	63.565731 
7267.000000	63.206410 
7266.000000	62.990665 
7265.000000	62.920904 
7264.000000	62.974905 
7263.000000	63.108706 
7262.000000	63.269424 
7261.000000	63.399267 
7260.000000	63.460564 
7259.000000	63.437843 
7258.000000	63.351297 
7257.000000	63.246250 
7256.000000	63.186669 
7255.000000	63.234186 
7254.000000	63.433909 
7253.000000	63.799715 
7252.000000	64.307713 
7251.000000	64.899206 
7250.000000	65.494728 
7249.000000	66.010642 
7248.000000	66.379547 
7247.000000	66.562056 
7246.000000	66.551780 
7245.000000	66.372346 
7244.000000	66.069412 
7243.000000	65.697145 
7242.000000	65.306019 
7241.000000	64.933562 
7240.000000	64.603376 
7239.000000	64.323806 
7238.000000	64.100122 
7237.000000	63.932585 
7236.000000	63.819265 
7235.000000	63.761925 
7234.000000	63.759398 
7233.000000	63.818430 
7232.000000	63.946318 
7231.000000	64.154410 
7230.000000	64.449167 
7229.000000	64.831995 
7228.000000	65.293407 
7227.000000	65.809130 
7226.000000	66.339635 
7225.000000	66.834259 
7224.000000	67.237496 
7223.000000	67.498493 
7222.000000	67.579388 
7221.000000	67.461109 
7220.000000	67.147827 
7219.000000	66.668224 
7218.000000	66.071796 
7217.000000	65.423035 
7216.000000	64.790916 
7215.000000	64.242601 
7214.000000	63.829636 
7213.000000	63.584733 
7212.000000	63.512277 
7211.000000	63.594460 
7210.000000	63.788747 
7209.000000	64.035177 
7208.000000	64.268827 
7207.000000	64.427161 
7206.000000	64.468455 
7205.000000	64.375162 
7204.000000	64.160966 
7203.000000	63.863158 
7202.000000	63.534951 
7201.000000	63.230800 
7200.000000	62.994933 
7199.000000	62.852263 
7198.000000	62.806820 
7197.000000	62.845444 
7196.000000	62.945747 
7195.000000	63.086080 
7194.000000	63.252902 
7193.000000	63.445568 
7192.000000	63.671207 
7191.000000	63.941979 
7190.000000	64.266538 
7189.000000	64.644122 
7188.000000	65.060138 
7187.000000	65.485310 
7186.000000	65.881752 
7185.000000	66.206979 
7184.000000	66.429567 
7183.000000	66.527581 
7182.000000	66.494202 
7181.000000	66.337943 
7180.000000	66.082835 
7179.000000	65.763330 
7178.000000	65.418148 
7177.000000	65.088129 
7176.000000	64.811968 
7175.000000	64.622569 
7174.000000	64.544463 
7173.000000	64.590144 
7172.000000	64.758634 
7171.000000	65.036654 
7170.000000	65.400075 
7169.000000	65.814423 
7168.000000	66.239023 
7167.000000	66.632962 
7166.000000	66.959571 
7165.000000	67.189550 
7164.000000	67.304205 
7163.000000	67.299079 
7162.000000	67.182040 
7161.000000	66.971516 
7160.000000	66.693663 
7159.000000	66.380310 
7158.000000	66.065621 
7157.000000	65.781974 
7156.000000	65.559673 
7155.000000	65.426087 
7154.000000	65.401864 
7153.000000	65.497422 
7152.000000	65.711760 
7151.000000	66.032743 
7150.000000	66.433215 
7149.000000	66.874027 
7148.000000	67.303276 
7147.000000	67.662477 
7146.000000	67.894983 
7145.000000	67.955994 
7144.000000	67.818737 
7143.000000	67.480373 
7142.000000	66.964650 
7141.000000	66.318368 
7140.000000	65.604901 
7139.000000	64.893722 
7138.000000	64.248371 
7137.000000	63.717937 
7136.000000	63.335633 
7135.000000	63.113641 
7134.000000	63.045859 
7133.000000	63.109254 
7132.000000	63.267898 
7131.000000	63.479423 
7130.000000	63.696718 
7129.000000	63.879013 
7128.000000	63.989210 
7127.000000	64.007878 
7126.000000	63.929152 
7125.000000	63.768911 
7124.000000	63.556480 
7123.000000	63.335132 
7122.000000	63.152074 
7121.000000	63.050460 
7120.000000	63.060879 
7119.000000	63.192343 
7118.000000	63.430166 
7117.000000	63.735342 
7116.000000	64.052319 
7115.000000	64.317202 
7114.000000	64.472103 
7113.000000	64.475393 
7112.000000	64.313459 
7111.000000	64.002609 
7110.000000	63.589429 
7109.000000	63.138818 
7108.000000	62.724113 
7107.000000	62.414455 
7106.000000	62.260460 
7105.000000	62.284541 
7104.000000	62.478470 
7103.000000	62.810349 
7102.000000	63.229846 
7101.000000	63.679289 
7100.000000	64.104676 
7099.000000	64.462327 
7098.000000	64.726638 
7097.000000	64.889168 
7096.000000	64.956736 
7095.000000	64.944696 
7094.000000	64.871716 
7093.000000	64.754509 
7092.000000	64.607954 
7091.000000	64.445185 
7090.000000	64.279961 
7089.000000	64.127373 
7088.000000	64.003849 
7087.000000	63.924217 
7086.000000	63.895535 
7085.000000	63.915896 
7084.000000	63.969039 
7083.000000	64.032530 
7082.000000	64.083981 
7081.000000	64.109849 
7080.000000	64.110374 
7079.000000	64.099073 
7078.000000	64.097666 
7077.000000	64.127993 
7076.000000	64.204168 
7075.000000	64.325857 
7074.000000	64.474630 
7073.000000	64.620828 
7072.000000	64.731526 
7071.000000	64.781689 
7070.000000	64.762544 
7069.000000	64.685034 
7068.000000	64.578223 
7067.000000	64.478754 
7066.000000	64.420294 
7065.000000	64.422631 
7064.000000	64.485740 
7063.000000	64.589285 
7062.000000	64.698195 
7061.000000	64.774298 
7060.000000	64.786458 
7059.000000	64.718008 
7058.000000	64.571785 
7057.000000	64.364361 
7056.000000	64.125084 
7055.000000	63.889479 
7054.000000	63.692879 
7053.000000	63.562560 
7052.000000	63.514161 
7051.000000	63.549280 
7050.000000	63.658165 
7049.000000	63.822150 
7048.000000	64.021158 
7047.000000	64.235472 
7046.000000	64.453983 
7045.000000	64.670801 
7044.000000	64.890480 
7043.000000	65.120625 
7042.000000	65.373134 
7041.000000	65.656256 
7040.000000	65.975975 
7039.000000	66.332435 
7038.000000	66.718745 
7037.000000	67.120051 
7036.000000	67.510485 
7035.000000	67.854428 
7034.000000	68.108820 
7033.000000	68.228793 
7032.000000	68.174171 
7031.000000	67.919254 
7030.000000	67.460894 
7029.000000	66.825556 
7028.000000	66.067385 
7027.000000	65.265870 
7026.000000	64.514970 
7025.000000	63.908457 
7024.000000	63.523960 
7023.000000	63.407039 
7022.000000	63.564801 
7021.000000	63.960909 
7020.000000	64.521646 
7019.000000	65.151357 
7018.000000	65.744972 
7017.000000	66.217207 
7016.000000	66.514587 
7015.000000	66.626214 
7014.000000	66.576910 
7013.000000	66.420030 
7012.000000	66.219043 
7011.000000	66.028523 
7010.000000	65.880012 
7009.000000	65.779852 
7008.000000	65.712666 
7007.000000	65.650987 
7006.000000	65.569019 
7005.000000	65.453410 
7004.000000	65.311670 
7003.000000	65.169000 
7002.000000	65.065145 
7001.000000	65.040564 
7000.000000	65.126585 
6999.000000	65.337061 
6998.000000	65.660190 
6997.000000	66.058015 
6996.000000	66.472983 
6995.000000	66.844987 
6994.000000	67.118263 
6993.000000	67.252612 
6992.000000	67.230582 
6991.000000	67.062187 
6990.000000	66.776943 
6989.000000	66.417002 
6988.000000	66.025042 
6987.000000	65.636658 
6986.000000	65.274119 
6985.000000	64.948129 
6984.000000	64.655780 
6983.000000	64.387845 
6982.000000	64.135789 
6981.000000	63.899445 
6980.000000	63.685727 
6979.000000	63.511323 
6978.000000	63.398408 
6977.000000	63.372874 
6976.000000	63.452529 
6975.000000	63.647389 
6974.000000	63.955807 
6973.000000	64.365863 
6972.000000	64.854168 
6971.000000	65.390515 
6970.000000	65.939784 
6969.000000	66.467452 
6968.000000	66.942644 
6967.000000	67.341542 
6966.000000	67.649912 
6965.000000	67.862486 
6964.000000	67.985296 
6963.000000	68.028402 
6962.000000	68.007373 
6961.000000	67.934417 
6960.000000	67.821645 
6959.000000	67.673110 
6958.000000	67.489147 
6957.000000	67.265844 
6956.000000	67.000913 
6955.000000	66.690683 
6954.000000	66.333913 
6953.000000	65.932917 
6952.000000	65.495586 
6951.000000	65.034556 
6950.000000	64.568281 
6949.000000	64.116525 
6948.000000	63.701820 
6947.000000	63.345122 
6946.000000	63.067030 
6945.000000	62.881135 
6944.000000	62.797069 
6943.000000	62.815332 
6942.000000	62.931108 
6941.000000	63.128519 
6940.000000	63.387680 
6939.000000	63.684010 
6938.000000	63.992762 
6937.000000	64.286994 
6936.000000	64.544701 
6935.000000	64.748334 
6934.000000	64.889073 
6933.000000	64.966011 
6932.000000	64.987015 
6931.000000	64.966392 
6930.000000	64.921164 
6929.000000	64.867639 
6928.000000	64.813852 
6927.000000	64.757800 
6926.000000	64.686369 
6925.000000	64.580559 
6924.000000	64.419770 
6923.000000	64.191913 
6922.000000	63.900589 
6921.000000	63.569355 
6920.000000	63.236713 
6919.000000	62.951159 
6918.000000	62.760233 
6917.000000	62.699842 
6916.000000	62.782001 
6915.000000	62.994360 
6914.000000	63.299870 
6913.000000	63.649487 
6912.000000	63.990044 
6911.000000	64.281630 
6910.000000	64.503121 
6909.000000	64.658117 
6908.000000	64.769768 
6907.000000	64.870142 
6906.000000	64.988160 
6905.000000	65.135335 
6904.000000	65.300965 
6903.000000	65.452265 
6902.000000	65.544557 
6901.000000	65.534758 
6900.000000	65.396642 
6899.000000	65.131521 
6898.000000	64.771652 
6897.000000	64.374375 
6896.000000	64.008831 
6895.000000	63.738703 
6894.000000	63.606762 
6893.000000	63.624978 
6892.000000	63.772988 
6891.000000	64.004921 
6890.000000	64.262938 
6889.000000	64.492821 
6888.000000	64.657592 
6887.000000	64.743089 
6886.000000	64.760899 
6885.000000	64.736413 
6884.000000	64.705467 
6883.000000	64.697265 
6882.000000	64.733862 
6881.000000	64.824748 
6880.000000	64.967727 
6879.000000	65.153288 
6878.000000	65.366125 
6877.000000	65.591192 
6876.000000	65.811157 
6875.000000	66.008853 
6874.000000	66.166639 
6873.000000	66.268110 
6872.000000	66.298913 
6871.000000	66.249179 
6870.000000	66.119003 
6869.000000	65.917539 
6868.000000	65.664625 
6867.000000	65.385365 
6866.000000	65.104293 
6865.000000	64.841890 
6864.000000	64.611935 
6863.000000	64.422082 
6862.000000	64.273881 
6861.000000	64.167523 
6860.000000	64.104223 
6859.000000	64.087057 
6858.000000	64.118909 
6857.000000	64.200782 
6856.000000	64.325213 
6855.000000	64.480185 
6854.000000	64.647984 
6853.000000	64.809608 
6852.000000	64.947748 
6851.000000	65.048003 
6850.000000	65.100598 
6849.000000	65.099549 
6848.000000	65.042710 
6847.000000	64.928054 
6846.000000	64.754676 
6845.000000	64.523100 
6844.000000	64.239311 
6843.000000	63.919067 
6842.000000	63.589525 
6841.000000	63.288092 
6840.000000	63.056731 
6839.000000	62.934112 
6838.000000	62.945938 
6837.000000	63.095974 
6836.000000	63.364672 
6835.000000	63.710808 
6834.000000	64.081263 
6833.000000	64.420080 
6832.000000	64.682316 
6831.000000	64.839935 
6830.000000	64.889955 
6829.000000	64.850139 
6828.000000	64.756512 
6827.000000	64.651226 
6826.000000	64.575123 
6825.000000	64.557933 
6824.000000	64.614772 
6823.000000	64.745688 
6822.000000	64.936661 
6821.000000	65.165615 
6820.000000	65.406012 
6819.000000	65.632605 
6818.000000	65.824031 
6817.000000	65.965247 
6816.000000	66.047716 
6815.000000	66.068100 
6814.000000	66.029453 
6813.000000	65.936660 
6812.000000	65.794563 
6811.000000	65.606355 
6810.000000	65.376281 
6809.000000	65.110135 
6808.000000	64.817643 
6807.000000	64.514470 
6806.000000	64.222192 
6805.000000	63.966345 
6804.000000	63.774180 
6803.000000	63.666677 
6802.000000	63.652658 
6801.000000	63.726210 
6800.000000	63.866806 
6799.000000	64.041566 
6798.000000	64.209675 
6797.000000	64.333939 
6796.000000	64.387774 
6795.000000	64.361810 
6794.000000	64.264631 
6793.000000	64.120841 
6792.000000	63.964128 
6791.000000	63.828897 
6790.000000	63.742232 
6789.000000	63.720345 
6788.000000	63.765478 
6787.000000	63.868355 
6786.000000	64.010357 
6785.000000	64.170289 
6784.000000	64.326643 
6783.000000	64.462137 
6782.000000	64.563775 
6781.000000	64.621114 
6780.000000	64.627432 
6779.000000	64.579868 
6778.000000	64.479184 
6777.000000	64.329266 
6776.000000	64.138746 
6775.000000	63.923716 
6774.000000	63.703083 
6773.000000	63.497114 
6772.000000	63.323235 
6771.000000	63.193726 
6770.000000	63.113188 
6769.000000	63.078474 
6768.000000	63.079619 
6767.000000	63.102626 
6766.000000	63.133668 
6765.000000	63.162183 
6764.000000	63.180923 
6763.000000	63.186955 
6762.000000	63.181209 
6761.000000	63.168001 
6760.000000	63.150978 
6759.000000	63.134717 
6758.000000	63.123059 
6757.000000	63.121557 
6756.000000	63.136911 
6755.000000	63.177919 
6754.000000	63.254404 
6753.000000	63.374209 
6752.000000	63.541555 
6751.000000	63.752412 
6750.000000	63.994288 
6749.000000	64.245462 
6748.000000	64.478874 
6747.000000	64.665842 
6746.000000	64.782142 
6745.000000	64.813256 
6744.000000	64.759182 
6743.000000	64.631938 
6742.000000	64.453291 
6741.000000	64.249634 
6740.000000	64.047098 
6739.000000	63.862609 
6738.000000	63.701033 
6737.000000	63.557004 
6736.000000	63.418316 
6735.000000	63.268303 
6734.000000	63.093709 
6733.000000	62.890100 
6732.000000	62.666058 
6731.000000	62.440490 
6730.000000	62.241005 
6729.000000	62.094283 
6728.000000	62.022471 
6727.000000	62.036538 
6726.000000	62.134265 
6725.000000	62.297463 
6724.000000	62.498664 
6723.000000	62.706613 
6722.000000	62.893724 
6721.000000	63.040065 
6720.000000	63.138151 
6719.000000	63.191056 
6718.000000	63.212108 
6717.000000	63.218688 
6716.000000	63.229537 
6715.000000	63.259363 
6714.000000	63.319301 
6713.000000	63.415884 
6712.000000	63.555550 
6711.000000	63.745236 
6710.000000	63.993525 
6709.000000	64.307093 
6708.000000	64.688444 
6707.000000	65.129113 
6706.000000	65.608000 
6705.000000	66.088056 
6704.000000	66.522049 
6703.000000	66.856455 
6702.000000	67.043280 
6701.000000	67.048001 
6700.000000	66.859245 
6699.000000	66.493177 
6698.000000	65.992856 
6697.000000	65.423536 
6696.000000	64.860987 
6695.000000	64.381432 
6694.000000	64.049887 
6693.000000	63.908791 
6692.000000	63.973760 
6691.000000	64.229297 
6690.000000	64.634966 
6689.000000	65.129256 
6688.000000	65.641355 
6687.000000	66.100335 
6686.000000	66.445541 
6685.000000	66.635680 
6684.000000	66.652774 
6683.000000	66.503119 
6682.000000	66.211867 
6681.000000	65.819144 
6680.000000	65.368485 
6679.000000	64.900660 
6678.000000	64.444851 
6677.000000	64.019250 
6676.000000	63.630986 
6675.000000	63.279771 
6674.000000	62.965846 
6673.000000	62.693071 
6672.000000	62.475156 
6671.000000	62.328624 
6670.000000	62.275767 
6669.000000	62.332367 
6668.000000	62.507510 
6667.000000	62.793016 
6666.000000	63.167381 
6665.000000	63.592982 
6664.000000	64.027953 
6663.000000	64.432311 
6662.000000	64.775466 
6661.000000	65.039563 
6660.000000	65.220928 
6659.000000	65.327596 
6658.000000	65.369892 
6657.000000	65.355682 
6656.000000	65.286445 
6655.000000	65.158724 
6654.000000	64.969825 
6653.000000	64.722967 
6652.000000	64.434885 
6651.000000	64.135026 
6650.000000	63.861393 
6649.000000	63.653945 
6648.000000	63.544774 
6647.000000	63.552260 
6646.000000	63.674092 
6645.000000	63.891100 
6644.000000	64.170098 
6643.000000	64.473676 
6642.000000	64.766359 
6641.000000	65.022945 
6640.000000	65.229487 
6639.000000	65.385913 
6638.000000	65.499997 
6637.000000	65.585827 
6636.000000	65.655970 
6635.000000	65.722870 
6634.000000	65.796351 
6633.000000	65.884017 
6632.000000	65.991330 
6631.000000	66.122293 
6630.000000	66.279196 
6629.000000	66.460180 
6628.000000	66.658377 
6627.000000	66.862964 
6626.000000	67.058825 
6625.000000	67.229938 
6624.000000	67.359519 
6623.000000	67.435002 
6622.000000	67.446851 
6621.000000	67.391061 
6620.000000	67.268276 
6619.000000	67.086172 
6618.000000	66.856932 
6617.000000	66.597127 
6616.000000	66.325497 
6615.000000	66.062712 
6614.000000	65.827965 
6613.000000	65.637469 
6612.000000	65.502309 
6611.000000	65.428137 
6610.000000	65.412926 
6609.000000	65.446233 
6608.000000	65.513825 
6607.000000	65.599584 
6606.000000	65.689420 
6605.000000	65.772604 
6604.000000	65.845274 
6603.000000	65.908551 
6602.000000	65.967702 
6601.000000	66.026544 
6600.000000	66.084027 
6599.000000	66.129255 
6598.000000	66.143941 
6597.000000	66.102695 
6596.000000	65.979266 
6595.000000	65.752553 
6594.000000	65.414524 
6593.000000	64.974737 
6592.000000	64.460897 
6591.000000	63.916444 
6590.000000	63.392734 
6589.000000	62.940979 
6588.000000	62.601709 
6587.000000	62.398791 
6586.000000	62.334895 
6585.000000	62.393093 
6584.000000	62.539720 
6583.000000	62.734627 
6582.000000	62.938094 
6581.000000	63.120079 
6580.000000	63.262152 
6579.000000	63.361859 
6578.000000	63.428330 
6577.000000	63.480329 
6576.000000	63.539075 
6575.000000	63.623690 
6574.000000	63.745641 
6573.000000	63.909173 
6572.000000	64.109444 
6571.000000	64.334988 
6570.000000	64.569282 
6569.000000	64.795303 
6568.000000	64.996981 
6567.000000	65.162253 
6566.000000	65.283441 
6565.000000	65.357542 
6564.000000	65.386056 
6563.000000	65.375375 
6562.000000	65.334463 
6561.000000	65.273284 
6560.000000	65.202689 
6559.000000	65.135002 
6558.000000	65.081810 
6557.000000	65.052819 
6556.000000	65.055727 
6555.000000	65.096426 
6554.000000	65.175676 
6553.000000	65.288782 
6552.000000	65.424752 
6551.000000	65.567445 
6550.000000	65.696978 
6549.000000	65.792584 
6548.000000	65.835499 
6547.000000	65.811944 
6546.000000	65.715408 
6545.000000	65.548038 
6544.000000	65.320849 
6543.000000	65.052080 
6542.000000	64.765572 
6541.000000	64.486622 
6540.000000	64.239168 
6539.000000	64.041352 
6538.000000	63.904118 
6537.000000	63.829040 
6536.000000	63.808822 
6535.000000	63.829374 
6534.000000	63.871836 
6533.000000	63.918137 
6532.000000	63.951563 
6531.000000	63.963413 
6530.000000	63.951396 
6529.000000	63.922619 
6528.000000	63.888764 
6527.000000	63.865780 
6526.000000	63.868641 
6525.000000	63.909459 
6524.000000	63.994383 
6523.000000	64.123201 
6522.000000	64.289140 
6521.000000	64.480042 
6520.000000	64.680337 
6519.000000	64.873695 
6518.000000	65.045666 
6517.000000	65.183782 
6516.000000	65.280985 
6515.000000	65.336561 
6514.000000	65.357494 
6513.000000	65.356445 
6512.000000	65.350317 
6511.000000	65.357780 
6510.000000	65.394115 
6509.000000	65.470480 
6508.000000	65.588164 
6507.000000	65.739727 
6506.000000	65.908050 
6505.000000	66.070914 
6504.000000	66.205382 
6503.000000	66.293811 
6502.000000	66.327762 
6501.000000	66.309881 
6500.000000	66.252946 
6499.000000	66.176152 
6498.000000	66.100502 
6497.000000	66.043639 
6496.000000	66.013884 
6495.000000	66.007781 
6494.000000	66.012144 
6493.000000	66.006803 
6492.000000	65.969705 
6491.000000	65.882325 
6490.000000	65.733885 
6489.000000	65.524506 
6488.000000	65.266251 
6487.000000	64.980363 
6486.000000	64.692282 
6485.000000	64.425826 
6484.000000	64.199352 
6483.000000	64.020490 
6482.000000	63.885927 
6481.000000	63.782501 
6480.000000	63.691449 
6479.000000	63.594627 
6478.000000	63.477134 
6477.000000	63.336277 
6476.000000	63.179278 
6475.000000	63.027691 
6474.000000	62.908434 
6473.000000	62.853503 
6472.000000	62.890124 
6471.000000	63.035488 
6470.000000	63.290166 
6469.000000	63.635706 
6468.000000	64.036178 
6467.000000	64.442849 
6466.000000	64.803838 
6465.000000	65.073823 
6464.000000	65.223550 
6463.000000	65.245676 
6462.000000	65.155148 
6461.000000	64.985084 
6460.000000	64.777517 
6459.000000	64.576268 
6458.000000	64.414572 
6457.000000	64.310836 
6456.000000	64.264535 
6455.000000	64.263892 
6454.000000	64.287590 
6453.000000	64.312767 
6452.000000	64.322686 
6451.000000	64.310240 
6450.000000	64.281201 
6449.000000	64.249444 
6448.000000	64.234256 
6447.000000	64.251852 
6446.000000	64.312529 
6445.000000	64.416575 
6444.000000	64.553093 
6443.000000	64.702391 
6442.000000	64.838814 
6441.000000	64.936709 
6440.000000	64.974617 
6439.000000	64.940500 
6438.000000	64.832925 
6437.000000	64.662742 
6436.000000	64.450287 
6435.000000	64.223051 
6434.000000	64.011764 
6433.000000	63.845038 
6432.000000	63.745450 
6431.000000	63.725018 
6430.000000	63.784766 
6429.000000	63.913345 
6428.000000	64.091229 
6427.000000	64.291763 
6426.000000	64.485335 
6425.000000	64.643883 
6424.000000	64.745593 
6423.000000	64.776587 
6422.000000	64.732050 
6421.000000	64.615893 
6420.000000	64.439201 
6419.000000	64.218115 
6418.000000	63.971614 
6417.000000	63.719987 
6416.000000	63.483214 
6415.000000	63.281083 
6414.000000	63.131976 
6413.000000	63.051080 
6412.000000	63.048911 
6411.000000	63.130044 
6410.000000	63.291788 
6409.000000	63.520932 
6408.000000	63.796472 
6407.000000	64.090824 
6406.000000	64.375972 
6405.000000	64.625930 
6404.000000	64.823150 
6403.000000	64.959669 
6402.000000	65.038752 
6401.000000	65.074372 
6400.000000	65.084791 
6399.000000	65.087938 
6398.000000	65.096163 
6397.000000	65.115666 
6396.000000	65.144109 
6395.000000	65.174722 
6394.000000	65.197730 
6393.000000	65.206360 
6392.000000	65.196514 
6391.000000	65.168905 
6390.000000	65.127158 
6389.000000	65.076804 
6388.000000	65.021491 
6387.000000	64.961338 
6386.000000	64.893984 
6385.000000	64.815497 
6384.000000	64.721107 
6383.000000	64.608001 
6382.000000	64.477396 
6381.000000	64.336204 
6380.000000	64.195179 
6379.000000	64.069461 
6378.000000	63.972902 
6377.000000	63.918662 
6376.000000	63.916635 
6375.000000	63.972282 
6374.000000	64.083504 
6373.000000	64.242219 
6372.000000	64.435124 
6371.000000	64.645481 
6370.000000	64.852929 
6369.000000	65.039920 
6368.000000	65.193700 
6367.000000	65.309119 
6366.000000	65.387797 
6365.000000	65.438222 
6364.000000	65.472960 
6363.000000	65.505599 
6362.000000	65.547513 
6361.000000	65.605735 
6360.000000	65.681481 
6359.000000	65.771818 
6358.000000	65.870356 
6357.000000	65.967988 
6356.000000	66.054320 
6355.000000	66.121053 
6354.000000	66.162323 
6353.000000	66.174101 
6352.000000	66.155028 
6351.000000	66.107273 
6350.000000	66.035318 
6349.000000	65.947055 
6348.000000	65.850567 
6347.000000	65.755724 
6346.000000	65.668487 
6345.000000	65.591645 
6344.000000	65.521621 
6343.000000	65.449714 
6342.000000	65.364861 
6341.000000	65.257835 
6340.000000	65.123963 
6339.000000	64.964485 
6338.000000	64.789581 
6337.000000	64.616656 
6336.000000	64.467191 
6335.000000	64.361500 
6334.000000	64.317750 
6333.000000	64.347887 
6332.000000	64.455699 
6331.000000	64.635992 
6330.000000	64.876198 
6329.000000	65.158033 
6328.000000	65.459322 
6327.000000	65.756797 
6326.000000	66.027522 
6325.000000	66.252017 
6324.000000	66.415786 
6323.000000	66.510963 
6322.000000	66.538286 
6321.000000	66.504049 
6320.000000	66.423010 
6319.000000	66.309499 
6318.000000	66.177630 
6317.000000	66.035509 
6316.000000	65.888142 
6315.000000	65.735387 
6314.000000	65.576291 
6313.000000	65.410733 
6312.000000	65.243554 
6311.000000	65.082931 
6310.000000	64.939856 
6309.000000	64.824700 
6308.000000	64.744424 
6307.000000	64.700174 
6306.000000	64.686846 
6305.000000	64.695429 
6304.000000	64.715933 
6303.000000	64.740705 
6302.000000	64.766931 
6301.000000	64.797258 
6300.000000	64.838457 
6299.000000	64.897966 
6298.000000	64.981269 
6297.000000	65.085005 
6296.000000	65.200257 
6295.000000	65.316176 
6294.000000	65.421533 
6293.000000	65.507864 
6292.000000	65.570878 
6291.000000	65.612435 
6290.000000	65.637183 
6289.000000	65.650510 
6288.000000	65.656065 
6287.000000	65.654540 
6286.000000	65.643548 
6285.000000	65.619969 
6284.000000	65.580773 
6283.000000	65.525245 
6282.000000	65.458106 
6281.000000	65.389871 
6280.000000	65.336012 
6279.000000	65.313434 
6278.000000	65.338468 
6277.000000	65.420889 
6276.000000	65.560865 
6275.000000	65.744638 
6274.000000	65.947604 
6273.000000	66.134738 
6272.000000	66.266012 
6271.000000	66.303586 
6270.000000	66.219806 
6269.000000	66.004490 
6268.000000	65.668630 
6267.000000	65.243506 
6266.000000	64.776945 
6265.000000	64.322209 
6264.000000	63.928771 
6263.000000	63.631939 
6262.000000	63.446426 
6261.000000	63.367486 
6260.000000	63.375115 
6259.000000	63.441514 
6258.000000	63.538384 
6257.000000	63.644552 
6256.000000	63.748288 
6255.000000	63.847327 
6254.000000	63.944125 
6253.000000	64.044022 
6252.000000	64.150428 
6251.000000	64.263081 
6250.000000	64.377450 
6249.000000	64.487624 
6248.000000	64.588141 
6247.000000	64.678025 
6246.000000	64.760208 
6245.000000	64.841008 
6244.000000	64.927244 
6243.000000	65.023612 
6242.000000	65.130162 
6241.000000	65.242862 
6240.000000	65.352630 
6239.000000	65.449261 
6238.000000	65.521502 
6237.000000	65.560913 
6236.000000	65.562510 
6235.000000	65.527796 
6234.000000	65.462899 
6233.000000	65.377259 
6232.000000	65.282440 
6231.000000	65.191960 
6230.000000	65.114617 
6229.000000	65.053367 
6228.000000	65.005230 
6227.000000	64.963197 
6226.000000	64.919590 
6225.000000	64.869594 
6224.000000	64.813041 
6223.000000	64.755225 
6222.000000	64.706659 
6221.000000	64.680051 
6220.000000	64.685130 
6219.000000	64.725303 
6218.000000	64.797067 
6217.000000	64.889049 
6216.000000	64.983367 
6215.000000	65.059685 
6214.000000	65.101456 
6213.000000	65.098690 
6212.000000	65.049076 
6211.000000	64.959859 
6210.000000	64.844560 
6209.000000	64.722657 
6208.000000	64.613413 
6207.000000	64.536023 
6206.000000	64.505839 
6205.000000	64.533281 
6204.000000	64.623045 
6203.000000	64.771175 
6202.000000	64.965677 
6201.000000	65.186309 
6200.000000	65.407609 
6199.000000	65.602064 
6198.000000	65.744638 
6197.000000	65.818238 
6196.000000	65.815925 
6195.000000	65.741872 
6194.000000	65.608501 
6193.000000	65.435218 
6192.000000	65.241622 
6191.000000	65.043830 
6190.000000	64.850687 
6189.000000	64.664649 
6188.000000	64.483308 
6187.000000	64.302921 
6186.000000	64.123249 
6185.000000	63.949203 
6184.000000	63.793301 
6183.000000	63.672375 
6182.000000	63.605380 
6181.000000	63.605356 
6180.000000	63.678097 
6179.000000	63.817596 
6178.000000	64.007353 
6177.000000	64.222145 
6176.000000	64.433073 
6175.000000	64.612698 
6174.000000	64.740800 
6173.000000	64.807534 
6172.000000	64.815735 
6171.000000	64.779090 
6170.000000	64.718723 
6169.000000	64.657616 
6168.000000	64.616537 
6167.000000	64.609050 
6166.000000	64.639878 
6165.000000	64.703845 
6164.000000	64.789009 
6163.000000	64.879226 
6162.000000	64.959597 
6161.000000	65.019106 
6160.000000	65.051865 
6159.000000	65.058803 
6158.000000	65.045857 
6157.000000	65.022611 
6156.000000	64.998888 
6155.000000	64.982604 
6154.000000	64.978647 
6153.000000	64.987182 
6152.000000	65.004777 
6151.000000	65.025639 
6150.000000	65.044522 
6149.000000	65.057134 
6148.000000	65.061545 
6147.000000	65.058112 
6146.000000	65.048789 
6145.000000	65.036177 
6144.000000	65.022397 
6143.000000	65.007543 
6142.000000	64.989972 
6141.000000	64.967656 
6140.000000	64.939665 
6139.000000	64.907336 
6138.000000	64.874362 
6137.000000	64.847183 
6136.000000	64.831995 
6135.000000	64.834022 
6134.000000	64.853572 
6133.000000	64.884781 
6132.000000	64.916157 
6131.000000	64.931559 
6130.000000	64.916276 
6129.000000	64.861106 
6128.000000	64.766931 
6127.000000	64.645028 
6126.000000	64.516496 
6125.000000	64.406967 
6124.000000	64.341235 
6123.000000	64.336490 
6122.000000	64.398360 
6121.000000	64.519524 
6120.000000	64.681005 
6119.000000	64.856719 
6118.000000	65.018892 
6117.000000	65.144252 
6116.000000	65.217900 
6115.000000	65.236115 
6114.000000	65.206265 
6113.000000	65.144276 
6112.000000	65.070056 
6111.000000	65.002369 
6110.000000	64.956021 
6109.000000	64.937472 
6108.000000	64.946556 
6107.000000	64.974975 
6106.000000	65.010261 
6105.000000	65.038108 
6104.000000	65.046381 
6103.000000	65.028262 
6102.000000	64.983010 
6101.000000	64.916872 
6100.000000	64.840817 
6099.000000	64.767837 
6098.000000	64.708495 
6097.000000	64.669537 
6096.000000	64.652371 
6095.000000	64.653944 
6094.000000	64.668297 
6093.000000	64.688658 
6092.000000	64.709615 
6091.000000	64.725542 
6090.000000	64.731287 
6089.000000	64.721298 
6088.000000	64.690470 
6087.000000	64.634966 
6086.000000	64.553833 
6085.000000	64.449977 
6084.000000	64.330935 
6083.000000	64.208698 
6082.000000	64.098024 
6081.000000	64.012670 
6080.000000	63.963675 
6079.000000	63.956522 
6078.000000	63.991451 
6077.000000	64.061713 
6076.000000	64.158082 
6075.000000	64.270758 
6074.000000	64.391565 
6073.000000	64.514803 
6072.000000	64.636778 
6071.000000	64.753913 
6070.000000	64.862346 
6069.000000	64.956355 
6068.000000	65.030813 
6067.000000	65.081882 
6066.000000	65.110230 
6065.000000	65.121889 
6064.000000	65.127301 
6063.000000	65.138983 
6062.000000	65.168905 
6061.000000	65.224575 
6060.000000	65.306973 
6059.000000	65.408563 
6058.000000	65.516281 
6057.000000	65.611767 
6056.000000	65.676593 
6055.000000	65.694069 
6054.000000	65.654063 
6053.000000	65.553808 
6052.000000	65.397644 
6051.000000	65.197420 
6050.000000	64.970159 
6049.000000	64.736723 
6048.000000	64.519143 
6047.000000	64.337754 
6046.000000	64.209365 
6045.000000	64.143943 
6044.000000	64.143967 
6043.000000	64.202618 
6042.000000	64.304351 
6041.000000	64.429211 
6040.000000	64.556026 
6039.000000	64.667272 
6038.000000	64.751124 
6037.000000	64.804744 
6036.000000	64.833259 
6035.000000	64.847254 
6034.000000	64.858412 
6033.000000	64.876103 
6032.000000	64.903903 
6031.000000	64.938926 
6030.000000	64.972734 
6029.000000	64.995932 
6028.000000	65.000987 
6027.000000	64.985704 
6026.000000	64.953899 
6025.000000	64.915394 
6024.000000	64.882278 
6023.000000	64.864850 
6022.000000	64.868593 
6021.000000	64.892148 
6020.000000	64.927744 
6019.000000	64.964365 
6018.000000	64.990329 
6017.000000	64.996290 
6016.000000	64.979004 
6015.000000	64.942622 
6014.000000	64.897108 
6013.000000	64.854979 
6012.000000	64.828372 
6011.000000	64.825177 
6010.000000	64.847660 
6009.000000	64.891672 
6008.000000	64.947509 
6007.000000	65.001606 
6006.000000	65.040469 
6005.000000	65.052676 
6004.000000	65.030813 
6003.000000	64.972043 
6002.000000	64.877414 
6001.000000	64.751887 
6000.000000	64.603281 
5999.000000	64.441919 
5998.000000	64.278554 
5997.000000	64.124846 
5996.000000	63.992094 
5995.000000	63.891029 
5994.000000	63.830351 
5993.000000	63.815999 
5992.000000	63.848972 
5991.000000	63.925743 
5990.000000	64.037609 
5989.000000	64.171910 
5988.000000	64.313197 
5987.000000	64.445090 
5986.000000	64.552116 
5985.000000	64.621543 
5984.000000	64.644861 
5983.000000	64.618444 
5982.000000	64.543914 
5981.000000	64.428257 
5980.000000	64.283442 
5979.000000	64.125609 
5978.000000	63.973999 
5977.000000	63.848996 
5976.000000	63.769865 
5975.000000	63.752675 
5974.000000	63.806772 
5973.000000	63.933157 
5972.000000	64.122366 
5971.000000	64.354658 
5970.000000	64.602756 
5969.000000	64.835214 
5968.000000	65.023064 
5967.000000	65.143275 
5966.000000	65.185189 
5965.000000	65.151619 
5964.000000	65.058612 
5963.000000	64.930891 
5962.000000	64.797329 
5961.000000	64.685416 
5960.000000	64.615058 
5959.000000	64.596009 
5958.000000	64.626383 
5957.000000	64.695096 
5956.000000	64.783883 
5955.000000	64.872717 
5954.000000	64.942860 
5953.000000	64.981579 
5952.000000	64.983391 
5951.000000	64.951229 
5950.000000	64.894127 
5949.000000	64.825081 
5948.000000	64.758181 
5947.000000	64.704942 
5946.000000	64.672946 
5945.000000	64.663600 
5944.000000	64.673590 
5943.000000	64.695286 
5942.000000	64.719462 
5941.000000	64.738035 
5940.000000	64.745712 
5939.000000	64.741992 
5938.000000	64.729452 
5937.000000	64.714550 
5936.000000	64.705276 
5935.000000	64.709329 
5934.000000	64.730978 
5933.000000	64.771938 
5932.000000	64.830780 
5931.000000	64.904046 
5930.000000	64.986991 
5929.000000	65.074729 
5928.000000	65.162396 
5927.000000	65.245556 
5926.000000	65.319466 
5925.000000	65.378308 
5924.000000	65.414857 
5923.000000	65.421700 
5922.000000	65.392422 
5921.000000	65.323257 
5920.000000	65.215182 
5919.000000	65.075469 
5918.000000	64.917707 
5917.000000	64.760255 
5916.000000	64.622902 
5915.000000	64.523792 
5914.000000	64.474821 
5913.000000	64.479732 
5912.000000	64.532589 
5911.000000	64.619207 
5910.000000	64.720058 
5909.000000	64.814567 
5908.000000	64.884805 
5907.000000	64.918613 
5906.000000	64.911246 
5905.000000	64.864945 
5904.000000	64.787435 
5903.000000	64.689469 
5902.000000	64.583396 
5901.000000	64.481115 
5900.000000	64.393401 
5899.000000	64.329147 
5898.000000	64.296817 
5897.000000	64.303159 
5896.000000	64.352035 
5895.000000	64.442539 
5894.000000	64.567828 
5893.000000	64.714884 
5892.000000	64.864373 
5891.000000	64.995026 
5890.000000	65.087461 
5889.000000	65.128612 
5888.000000	65.115475 
5887.000000	65.054678 
5886.000000	64.960432 
5885.000000	64.851236 
5884.000000	64.746928 
5883.000000	64.662981 
5882.000000	64.607906 
5881.000000	64.582514 
5880.000000	64.582443 
5879.000000	64.598393 
5878.000000	64.620089 
5877.000000	64.637565 
5876.000000	64.643669 
5875.000000	64.633798 
5874.000000	64.606070 
5873.000000	64.560389 
5872.000000	64.498066 
5871.000000	64.421939 
5870.000000	64.335465 
5869.000000	64.243459 
5868.000000	64.150881 
5867.000000	64.061403 
5866.000000	63.978052 
5865.000000	63.901090 
5864.000000	63.831758 
5863.000000	63.772439 
5862.000000	63.729453 
5861.000000	63.710522 
5860.000000	63.725924 
5859.000000	63.784599 
5858.000000	63.892459 
5857.000000	64.048004 
5856.000000	64.242935 
5855.000000	64.461493 
5854.000000	64.684343 
5853.000000	64.891743 
5852.000000	65.067362 
5851.000000	65.200638 
5850.000000	65.288615 
5849.000000	65.335536 
5848.000000	65.349602 
5847.000000	65.339899 
5846.000000	65.314221 
5845.000000	65.277242 
5844.000000	65.231490 
5843.000000	65.177083 
5842.000000	65.115284 
5841.000000	65.047335 
5840.000000	64.975070 
5839.000000	64.899992 
5838.000000	64.822554 
5837.000000	64.743089 
5836.000000	64.661216 
5835.000000	64.578390 
5834.000000	64.497470 
5833.000000	64.424443 
5832.000000	64.367103 
5831.000000	64.334392 
5830.000000	64.333200 
5829.000000	64.367461 
5828.000000	64.435720 
5827.000000	64.531540 
5826.000000	64.643549 
5825.000000	64.758586 
5824.000000	64.863967 
5823.000000	64.949774 
5822.000000	65.010070 
5821.000000	65.043449 
5820.000000	65.052461 
5819.000000	65.041565 
5818.000000	65.015745 
5817.000000	64.981102 
5816.000000	64.943385 
5815.000000	64.908409 
5814.000000	64.880323 
5813.000000	64.861941 
5812.000000	64.852976 
5811.000000	64.850449 
5810.000000	64.849185 
5809.000000	64.842438 
5808.000000	64.824438 
5807.000000	64.792013 
5806.000000	64.746451 
5805.000000	64.692044 
5804.000000	64.637255 
5803.000000	64.592337 
5802.000000	64.567470 
5801.000000	64.569425 
5800.000000	64.601087 
5799.000000	64.660501 
5798.000000	64.741492 
5797.000000	64.834880 
5796.000000	64.930224 
5795.000000	65.017414 
5794.000000	65.087580 
5793.000000	65.133905 
5792.000000	65.150928 
5791.000000	65.134882 
5790.000000	65.084314 
5789.000000	65.000414 
5788.000000	64.887595 
5787.000000	64.753675 
5786.000000	64.609527 
5785.000000	64.468455 
5784.000000	64.344668 
5783.000000	64.251780 
5782.000000	64.199805 
5781.000000	64.195108 
5780.000000	64.238524 
5779.000000	64.326667 
5778.000000	64.451241 
5777.000000	64.601898 
5776.000000	64.766454 
5775.000000	64.933657 
5774.000000	65.093326 
5773.000000	65.237331 
5772.000000	65.359330 
5771.000000	65.454983 
5770.000000	65.521836 
5769.000000	65.558910 
5768.000000	65.566563 
5767.000000	65.546751 
5766.000000	65.503025 
5765.000000	65.439844 
5764.000000	65.362596 
5763.000000	65.277242 
5762.000000	65.190219 
5761.000000	65.107512 
5760.000000	65.035295 
5759.000000	64.979219 
5758.000000	64.944934 
5757.000000	64.937067 
5756.000000	64.959073 
5755.000000	65.012216 
5754.000000	65.095186 
5753.000000	65.203356 
5752.000000	65.328717 
5751.000000	65.460324 
5750.000000	65.585327 
5749.000000	65.691328 
5748.000000	65.766930 
5747.000000	65.804266 
5746.000000	65.798759 
5745.000000	65.750622 
5744.000000	65.663194 
5743.000000	65.543198 
5742.000000	65.398645 
5741.000000	65.238523 
5740.000000	65.071988 
5739.000000	64.908504 
5738.000000	64.756846 
5737.000000	64.625024 
5736.000000	64.519476 
5735.000000	64.444231 
5734.000000	64.400053 
5733.000000	64.384388 
5732.000000	64.390182 
5731.000000	64.408326 
5730.000000	64.428234 
5729.000000	64.441418 
5728.000000	64.440774 
5727.000000	64.424395 
5726.000000	64.394307 
5725.000000	64.357447 
5724.000000	64.323210 
5723.000000	64.302182 
5722.000000	64.302492 
5721.000000	64.329314 
5720.000000	64.383912 
5719.000000	64.462852 
5718.000000	64.558720 
5717.000000	64.662075 
5716.000000	64.763808 
5715.000000	64.855408 
5714.000000	64.930415 
5713.000000	64.983820 
5712.000000	65.012645 
5711.000000	65.016031 
5710.000000	64.996123 
5709.000000	64.957833 
5708.000000	64.909434 
5707.000000	64.863109 
5706.000000	64.833331 
5705.000000	64.833879 
5704.000000	64.874958 
5703.000000	64.961671 
5702.000000	65.090942 
5701.000000	65.251922 
5700.000000	65.426516 
5699.000000	65.593385 
5698.000000	65.730547 
5697.000000	65.820240 
5696.000000	65.850472 
5695.000000	65.817928 
5694.000000	65.726733 
5693.000000	65.587520 
5692.000000	65.414905 
5691.000000	65.225195 
5690.000000	65.034556 
5689.000000	64.857912 
5688.000000	64.707517 
5687.000000	64.592909 
5686.000000	64.520120 
5685.000000	64.492082 
5684.000000	64.507079 
5683.000000	64.559602 
5682.000000	64.641118 
5681.000000	64.741635 
5680.000000	64.849972 
5679.000000	64.955878 
5678.000000	65.051317 
5677.000000	65.131258 
5676.000000	65.193367 
5675.000000	65.237593 
5674.000000	65.265011 
5673.000000	65.277218 
5672.000000	65.276503 
5671.000000	65.264868 
5670.000000	65.244412 
5669.000000	65.216708 
5668.000000	65.184974 
5667.000000	65.151667 
5666.000000	65.119075 
5665.000000	65.088272 
5664.000000	65.059399 
5663.000000	65.031456 
5662.000000	65.002894 
5661.000000	64.972805 
5660.000000	64.941620 
5659.000000	64.911317 
5658.000000	64.884877 
5657.000000	64.865374 
5656.000000	64.854741 
5655.000000	64.851951 
5654.000000	64.853334 
5653.000000	64.852023 
5652.000000	64.840888 
5651.000000	64.814710 
5650.000000	64.773583 
5649.000000	64.722132 
5648.000000	64.671540 
5647.000000	64.637041 
5646.000000	64.635634 
5645.000000	64.679789 
5644.000000	64.776158 
5643.000000	64.923429 
5642.000000	65.112137 
5641.000000	65.326142 
5640.000000	65.545368 
5639.000000	65.750312 
5638.000000	65.924191 
5637.000000	66.056466 
5636.000000	66.141319 
5635.000000	66.177296 
5634.000000	66.166424 
5633.000000	66.113352 
5632.000000	66.023039 
5631.000000	65.900492 
5630.000000	65.752530 
5629.000000	65.587711 
5628.000000	65.415954 
5627.000000	65.247464 
5626.000000	65.092515 
5625.000000	64.959049 
5624.000000	64.851450 
5623.000000	64.769387 
5622.000000	64.707899 
5621.000000	64.658689 
5620.000000	64.611649 
5619.000000	64.558053 
5618.000000	64.490652 
5617.000000	64.407825 
5616.000000	64.312219 
5615.000000	64.212298 
5614.000000	64.117193 
5613.000000	64.038896 
5612.000000	63.987922 
5611.000000	63.974142 
5610.000000	64.002704 
5609.000000	64.076828 
5608.000000	64.196443 
5607.000000	64.358782 
5606.000000	64.557528 
5605.000000	64.783573 
5604.000000	65.024900 
5603.000000	65.267086 
5602.000000	65.494298 
5601.000000	65.690517 
5600.000000	65.841650 
5599.000000	65.938973 
5598.000000	65.979719 
5597.000000	65.968942 
5596.000000	65.916490 
5595.000000	65.838122 
5594.000000	65.748095 
5593.000000	65.658760 
5592.000000	65.574622 
5591.000000	65.495038 
5590.000000	65.412688 
5589.000000	65.317940 
5588.000000	65.202379 
5587.000000	65.063357 
5586.000000	64.906334 
5585.000000	64.744114 
5584.000000	64.595985 
5583.000000	64.482402 
5582.000000	64.421272 
5581.000000	64.422321 
5580.000000	64.485597 
5579.000000	64.600467 
5578.000000	64.749407 
5577.000000	64.911508 
5576.000000	65.066504 
5575.000000	65.197706 
5574.000000	65.294218 
5573.000000	65.350699 
5572.000000	65.365600 
5571.000000	65.339493 
5570.000000	65.274643 
5569.000000	65.173602 
5568.000000	65.040445 
5567.000000	64.880776 
5566.000000	64.703607 
5565.000000	64.521098 
5564.000000	64.348268 
5563.000000	64.201879 
5562.000000	64.097499 
5561.000000	64.047980 
5560.000000	64.059948 
5559.000000	64.133214 
5558.000000	64.259576 
5557.000000	64.423942 
5556.000000	64.606332 
5555.000000	64.784312 
5554.000000	64.935922 
5553.000000	65.043735 
5552.000000	65.097093 
5551.000000	65.094709 
5550.000000	65.044355 
5549.000000	64.962339 
5548.000000	64.869594 
5547.000000	64.788007 
5546.000000	64.735317 
5545.000000	64.722418 
5544.000000	64.751029 
5543.000000	64.815068 
5542.000000	64.901733 
5541.000000	64.995789 
5540.000000	65.081930 
5539.000000	65.148186 
5538.000000	65.187144 
5537.000000	65.196251 
5536.000000	65.177392 
5535.000000	65.134906 
5534.000000	65.074753 
5533.000000	65.003466 
5532.000000	64.927053 
5531.000000	64.851093 
5530.000000	64.780116 
5529.000000	64.718747 
5528.000000	64.669847 
5527.000000	64.635038 
5526.000000	64.613533 
5525.000000	64.602303 
5524.000000	64.598202 
5523.000000	64.598870 
5522.000000	64.603328 
5521.000000	64.612746 
5520.000000	64.630293 
5519.000000	64.660048 
5518.000000	64.705753 
5517.000000	64.768838 
5516.000000	64.846611 
5515.000000	64.931845 
5514.000000	65.015006 
5513.000000	65.084290 
5512.000000	65.128087 
5511.000000	65.137100 
5510.000000	65.106534 
5509.000000	65.037560 
5508.000000	64.937949 
5507.000000	64.820051 
5506.000000	64.698648 
5505.000000	64.587950 
5504.000000	64.499592 
5503.000000	64.439773 
5502.000000	64.409112 
5501.000000	64.402484 
5500.000000	64.411234 
5499.000000	64.425134 
5498.000000	64.435195 
5497.000000	64.436173 
5496.000000	64.427971 
5495.000000	64.414978 
5494.000000	64.405488 
5493.000000	64.409446 
5492.000000	64.436674 
5491.000000	64.494466 
5490.000000	64.586234 
5489.000000	64.711189 
5488.000000	64.863181 
5487.000000	65.033531 
5486.000000	65.208864 
5485.000000	65.373444 
5484.000000	65.509629 
5483.000000	65.601181 
5482.000000	65.635371 
5481.000000	65.605878 
5480.000000	65.514063 
5479.000000	65.370368 
5478.000000	65.191388 
5477.000000	64.998841 
5476.000000	64.813375 
5475.000000	64.652085 
5474.000000	64.524674 
5473.000000	64.433503 
5472.000000	64.373064 
5471.000000	64.333176 
5470.000000	64.302110 
5469.000000	64.270424 
5468.000000	64.232945 
5467.000000	64.190554 
5466.000000	64.149332 
5465.000000	64.119720 
5464.000000	64.112329 
5463.000000	64.136672 
5462.000000	64.198040 
5461.000000	64.297056 
5460.000000	64.430046 
5459.000000	64.588785 
5458.000000	64.762353 
5457.000000	64.937162 
5456.000000	65.100145 
5455.000000	65.237808 
5454.000000	65.339589 
5453.000000	65.395712 
5452.000000	65.400266 
5451.000000	65.348649 
5450.000000	65.239667 
5449.000000	65.075111 
5448.000000	64.861583 
5447.000000	64.610695 
5446.000000	64.339447 
5445.000000	64.068889 
5444.000000	63.822436 
5443.000000	63.621234 
5442.000000	63.481426 
5441.000000	63.410806 
5440.000000	63.408756 
5439.000000	63.466882 
5438.000000	63.572835 
5437.000000	63.711524 
5436.000000	63.870167 
5435.000000	64.039707 
5434.000000	64.215826 
5433.000000	64.396095 
5432.000000	64.578890 
5431.000000	64.759969 
5430.000000	64.932131 
5429.000000	65.085315 
5428.000000	65.208268 
5427.000000	65.292310 
5426.000000	65.332078 
5425.000000	65.330791 
5424.000000	65.295124 
5423.000000	65.235519 
5422.000000	65.161252 
5421.000000	65.080046 
5420.000000	64.995193 
5419.000000	64.906716 
5418.000000	64.812779 
5417.000000	64.713001 
5416.000000	64.608263 
5415.000000	64.502000 
5414.000000	64.399886 
5413.000000	64.308643 
5412.000000	64.232945 
5411.000000	64.174461 
5410.000000	64.131069 
5409.000000	64.098310 
5408.000000	64.069795 
5407.000000	64.041113 
5406.000000	64.009475 
5405.000000	63.978075 
5404.000000	63.953948 
5403.000000	63.949513 
5402.000000	63.975644 
5401.000000	64.043235 
5400.000000	64.159870 
5399.000000	64.327573 
5398.000000	64.540863 
5397.000000	64.786720 
5396.000000	65.046930 
5395.000000	65.298914 
5394.000000	65.519523 
5393.000000	65.688705 
5392.000000	65.793132 
5391.000000	65.828466 
5390.000000	65.800094 
5389.000000	65.720915 
5388.000000	65.608620 
5387.000000	65.483307 
5386.000000	65.364003 
5385.000000	65.265536 
5384.000000	65.196776 
5383.000000	65.161919 
5382.000000	65.159893 
5381.000000	65.186214 
5380.000000	65.233039 
5379.000000	65.291714 
5378.000000	65.352296 
5377.000000	65.403628 
5376.000000	65.434885 
5375.000000	65.435457 
5374.000000	65.398049 
5373.000000	65.321159 
5372.000000	65.208768 
5371.000000	65.070199 
5370.000000	64.917731 
5369.000000	64.765262 
5368.000000	64.624738 
5367.000000	64.503979 
5366.000000	64.407467 
5365.000000	64.336991 
5364.000000	64.292788 
5363.000000	64.274358 
5362.000000	64.282703 
5361.000000	64.319944 
5360.000000	64.386582 
5359.000000	64.480280 
5358.000000	64.594459 
5357.000000	64.719557 
5356.000000	64.843297 
5355.000000	64.953970 
5354.000000	65.044784 
5353.000000	65.113091 
5352.000000	65.163993 
5351.000000	65.202689 
5350.000000	65.231847 
5349.000000	65.247035 
5348.000000	65.237426 
5347.000000	65.188050 
5346.000000	65.083813 
5345.000000	64.917397 
5344.000000	64.696073 
5343.000000	64.440798 
5342.000000	64.183354 
5341.000000	63.959836 
5340.000000	63.802504 
5339.000000	63.731312 
5338.000000	63.749027 
5337.000000	63.840031 
5336.000000	63.973975 
5335.000000	64.114165 
5334.000000	64.226770 
5333.000000	64.285993 
5332.000000	64.279270 
5331.000000	64.209127 
5330.000000	64.091467 
5329.000000	63.945579 
5328.000000	63.792514 
5327.000000	63.651871 
5326.000000	63.540697 
5325.000000	63.470005 
5324.000000	63.448762 
5323.000000	63.484120 
5322.000000	63.583254 
5321.000000	63.751673 
5320.000000	63.992452 
5319.000000	64.301276 
5318.000000	64.666938 
5317.000000	65.071249 
5316.000000	65.487599 
5315.000000	65.884327 
5314.000000	66.226029 
5313.000000	66.481184 
5312.000000	66.621828 
5311.000000	66.629838 
5310.000000	66.497397 
5309.000000	66.230511 
5308.000000	65.843939 
5307.000000	65.359711 
5306.000000	64.805173 
5305.000000	64.209151 
5304.000000	63.597512 
5303.000000	62.990784 
5302.000000	62.402677 
5301.000000	61.843347 
5300.000000	61.317038 
5299.000000	60.833716 
5298.000000	60.403728 
5297.000000	60.051512 
5296.000000	59.807777 
5295.000000	59.711742 
5294.000000	59.796643 
5293.000000	60.082530 
5292.000000	60.562252 
5291.000000	61.198639 
5290.000000	61.921405 
5289.000000	62.641787 
5288.000000	63.265585 
5287.000000	63.715076 
5286.000000	63.943386 
5285.000000	63.945746 
5284.000000	63.758444 
5283.000000	63.449668 
5282.000000	63.102388 
5281.000000	62.795090 
5280.000000	62.584757 
5279.000000	62.499022 
5278.000000	62.534451 
5277.000000	62.663316 
5276.000000	62.844967 
5275.000000	63.041853 
5274.000000	63.228249 
5273.000000	63.390469 
5272.000000	63.528919 
5271.000000	63.649678 
5270.000000	63.762474 
5269.000000	63.870525 
5268.000000	63.973140 
5267.000000	64.066004 
5266.000000	64.143776 
5265.000000	64.204239 
5264.000000	64.249324 
5263.000000	64.287257 
5262.000000	64.330029 
5261.000000	64.391946 
5260.000000	64.483690 
5259.000000	64.608049 
5258.000000	64.760708 
5257.000000	64.931893 
5256.000000	65.106415 
5255.000000	65.267157 
5254.000000	65.400815 
5253.000000	65.500640 
5252.000000	65.566492 
5251.000000	65.603423 
5250.000000	65.618515 
5249.000000	65.617346 
5248.000000	65.604114 
5247.000000	65.578842 
5246.000000	65.538430 
5245.000000	65.477180 
5244.000000	65.391159 
5243.000000	65.278959 
5242.000000	65.145659 
5241.000000	65.000033 
5240.000000	64.854264 
5239.000000	64.719510 
5238.000000	64.603376 
5237.000000	64.507865 
5236.000000	64.428257 
5235.000000	64.355850 
5234.000000	64.281105 
5233.000000	64.196515 
5232.000000	64.098930 
5231.000000	63.990521 
5230.000000	63.877773 
5229.000000	63.769483 
5228.000000	63.673567 
5227.000000	63.597440 
5226.000000	63.546586 
5225.000000	63.523817 
5224.000000	63.529372 
5223.000000	63.562512 
5222.000000	63.621735 
5221.000000	63.703370 
5220.000000	63.802719 
5219.000000	63.913702 
5218.000000	64.030385 
5217.000000	64.146757 
5216.000000	64.258217 
5215.000000	64.360857 
5214.000000	64.452528 
5213.000000	64.533662 
5212.000000	64.605450 
5211.000000	64.668750 
5210.000000	64.723682 
5209.000000	64.770388 
5208.000000	64.807939 
5207.000000	64.835453 
5206.000000	64.852237 
5205.000000	64.859962 
5204.000000	64.859819 
5203.000000	64.853072 
5202.000000	64.839053 
5201.000000	64.815616 
5200.000000	64.778447 
5199.000000	64.722466 
5198.000000	64.643192 
5197.000000	64.538884 
5196.000000	64.411187 
5195.000000	64.266824 
5194.000000	64.116477 
5193.000000	63.974928 
5192.000000	63.858366 
5191.000000	63.782477 
5190.000000	63.758873 
5189.000000	63.793563 
5188.000000	63.884973 
5187.000000	64.024448 
5186.000000	64.196372 
5185.000000	64.381647 
5184.000000	64.560556 
5183.000000	64.715909 
5182.000000	64.834570 
5181.000000	64.909553 
5180.000000	64.940190 
5179.000000	64.930677 
5178.000000	64.888620 
5177.000000	64.822196 
5176.000000	64.739084 
5175.000000	64.645075 
5174.000000	64.544916 
5173.000000	64.442133 
5172.000000	64.340305 
5171.000000	64.243841 
5170.000000	64.158320 
5169.000000	64.088773 
5168.000000	64.039731 
5167.000000	64.013481 
5166.000000	64.010763 
5165.000000	64.030075 
5164.000000	64.069008 
5163.000000	64.124488 
5162.000000	64.193105 
5161.000000	64.270663 
5160.000000	64.351987 
5159.000000	64.430594 
5158.000000	64.499282 
5157.000000	64.550566 
5156.000000	64.578461 
5155.000000	64.579010 
5154.000000	64.552426 
5153.000000	64.503717 
5152.000000	64.441704 
5151.000000	64.377403 
5150.000000	64.322066 
5149.000000	64.285254 
5148.000000	64.272522 
5147.000000	64.284825 
5146.000000	64.318633 
5145.000000	64.367055 
5144.000000	64.422035 
5143.000000	64.476466 
5142.000000	64.524483 
5141.000000	64.562630 
5140.000000	64.589476 
5139.000000	64.605545 
5138.000000	64.612126 
5137.000000	64.611077 
5136.000000	64.604473 
5135.000000	64.593815 
5134.000000	64.580368 
5133.000000	64.564609 
5132.000000	64.546871 
5131.000000	64.527344 
5130.000000	64.506745 
5129.000000	64.486122 
5128.000000	64.466929 
5127.000000	64.450740 
5126.000000	64.438796 
5125.000000	64.432239 
5124.000000	64.431619 
5123.000000	64.437556 
5122.000000	64.450383 
5121.000000	64.470577 
5120.000000	64.498233 
5119.000000	64.532518 
5118.000000	64.571475 
5117.000000	64.611864 
5116.000000	64.649486 
5115.000000	64.679741 
5114.000000	64.698338 
5113.000000	64.702415 
5112.000000	64.690876 
5111.000000	64.665293 
5110.000000	64.629173 
5109.000000	64.587163 
5108.000000	64.544129 
5107.000000	64.504122 
5106.000000	64.470052 
5105.000000	64.442944 
5104.000000	64.423584 
5103.000000	64.412879 
5102.000000	64.412713 
5101.000000	64.425659 
5100.000000	64.454221 
5099.000000	64.499473 
5098.000000	64.560270 
5097.000000	64.632272 
5096.000000	64.709115 
5095.000000	64.783215 
5094.000000	64.847517 
5093.000000	64.897131 
5092.000000	64.929747 
5091.000000	64.945840 
5090.000000	64.947962 
5089.000000	64.939713 
5088.000000	64.925193 
5087.000000	64.907884 
5086.000000	64.890813 
5085.000000	64.875459 
5084.000000	64.862656 
5083.000000	64.851832 
5082.000000	64.842033 
5081.000000	64.831519 
5080.000000	64.818096 
5079.000000	64.799499 
5078.000000	64.773321 
5077.000000	64.738512 
5076.000000	64.695358 
5075.000000	64.646434 
5074.000000	64.596152 
5073.000000	64.550113 
5072.000000	64.514112 
5071.000000	64.492940 
5070.000000	64.488863 
5069.000000	64.501667 
5068.000000	64.528632 
5067.000000	64.564681 
5066.000000	64.603638 
5065.000000	64.638710 
5064.000000	64.663887 
5063.000000	64.674639 
5062.000000	64.668989 
5061.000000	64.648342 
5060.000000	64.617466 
5059.000000	64.583659 
5058.000000	64.555048 
5057.000000	64.538860 
5056.000000	64.539027 
5055.000000	64.555597 
5054.000000	64.583873 
5053.000000	64.615654 
5052.000000	64.640927 
5051.000000	64.650988 
5050.000000	64.640140 
5049.000000	64.606690 
5048.000000	64.553928 
5047.000000	64.489388 
5046.000000	64.422798 
5045.000000	64.363312 
5044.000000	64.318203 
5043.000000	64.291262 
5042.000000	64.282989 
5041.000000	64.290881 
5040.000000	64.311194 
5039.000000	64.339995 
5038.000000	64.374279 
5037.000000	64.412117 
5036.000000	64.452075 
5035.000000	64.492464 
5034.000000	64.530992 
5033.000000	64.564394 
5032.000000	64.588546 
5031.000000	64.599370 
5030.000000	64.593982 
5029.000000	64.572143 
5028.000000	64.536881 
5027.000000	64.494991 
5026.000000	64.455699 
5025.000000	64.429831 
5024.000000	64.427328 
5023.000000	64.455366 
5022.000000	64.516687 
5021.000000	64.608383 
5020.000000	64.722347 
5019.000000	64.846301 
5018.000000	64.966440 
5017.000000	65.069365 
5016.000000	65.144658 
5015.000000	65.186333 
5014.000000	65.193510 
5013.000000	65.170025 
5012.000000	65.123271 
5011.000000	65.062165 
5010.000000	64.995455 
5009.000000	64.930319 
5008.000000	64.871406 
5007.000000	64.820861 
5006.000000	64.778947 
5005.000000	64.745044 
5004.000000	64.718723 
5003.000000	64.700007 
5002.000000	64.689731 
5001.000000	64.689207 
5000.000000	64.699363 
4999.000000	64.719390 
4998.000000	64.746665 
4997.000000	64.776444 
4996.000000	64.803028 
4995.000000	64.820671 
4994.000000	64.824843 
4993.000000	64.813709 
4992.000000	64.787960 
4991.000000	64.751315 
4990.000000	64.708566 
4989.000000	64.664530 
4988.000000	64.622688 
4987.000000	64.585113 
4986.000000	64.551258 
4985.000000	64.518666 
4984.000000	64.484572 
4983.000000	64.447617 
4982.000000	64.408493 
4981.000000	64.370727 
4980.000000	64.340472 
4979.000000	64.325642 
4978.000000	64.333987 
4977.000000	64.371633 
4976.000000	64.441299 
4975.000000	64.541411 
4974.000000	64.666295 
4973.000000	64.806389 
4972.000000	64.949846 
4971.000000	65.084075 
4970.000000	65.198111 
4969.000000	65.283513 
4968.000000	65.335845 
4967.000000	65.353965 
4966.000000	65.340662 
4965.000000	65.300250 
4964.000000	65.237903 
4963.000000	65.158152 
4962.000000	65.065503 
4961.000000	64.963507 
4960.000000	64.855837 
4959.000000	64.746665 
4958.000000	64.641571 
4957.000000	64.546465 
4956.000000	64.467430 
4955.000000	64.408946 
4954.000000	64.373445 
4953.000000	64.359974 
4952.000000	64.364862 
4951.000000	64.381694 
4950.000000	64.403629 
4949.000000	64.424443 
4948.000000	64.440464 
4947.000000	64.450573 
4946.000000	64.456820 
4945.000000	64.462924 
4944.000000	64.473557 
4943.000000	64.491558 
4942.000000	64.518380 
4941.000000	64.553737 
4940.000000	64.595723 
4939.000000	64.641332 
4938.000000	64.687561 
4937.000000	64.732956 
4936.000000	64.776635 
4935.000000	64.818358 
4934.000000	64.857363 
4933.000000	64.892005 
4932.000000	64.919567 
4931.000000	64.936733 
4930.000000	64.940047 
4929.000000	64.927291 
4928.000000	64.898872 
4927.000000	64.858436 
4926.000000	64.812135 
4925.000000	64.767622 
4924.000000	64.732694 
4923.000000	64.713621 
4922.000000	64.713406 
4921.000000	64.731121 
4920.000000	64.762639 
4919.000000	64.800858 
4918.000000	64.838051 
4917.000000	64.866399 
4916.000000	64.879870 
4915.000000	64.874291 
4914.000000	64.848160 
4913.000000	64.802002 
4912.000000	64.737868 
4911.000000	64.659333 
4910.000000	64.571070 
4909.000000	64.478516 
4908.000000	64.387798 
4907.000000	64.304924 
4906.000000	64.235424 
4905.000000	64.183259 
4904.000000	64.150285 
4903.000000	64.135932 
4902.000000	64.137434 
4901.000000	64.150333 
4900.000000	64.169645 
4899.000000	64.191174 
4898.000000	64.212489 
4897.000000	64.232969 
4896.000000	64.253497 
4895.000000	64.275693 
4894.000000	64.301013 
4893.000000	64.329433 
4892.000000	64.359068 
4891.000000	64.386153 
4890.000000	64.405584 
4889.000000	64.412856 
4888.000000	64.404964 
4887.000000	64.381504 
4886.000000	64.345002 
4885.000000	64.300727 
4884.000000	64.255642 
4883.000000	64.216470 
4882.000000	64.189171 
4881.000000	64.177751 
4880.000000	64.183878 
4879.000000	64.206385 
4878.000000	64.242506 
4877.000000	64.288592 
4876.000000	64.339637 
4875.000000	64.390063 
4874.000000	64.434075 
4873.000000	64.466309 
4872.000000	64.481949 
4871.000000	64.477682 
4870.000000	64.452528 
4869.000000	64.408564 
4868.000000	64.350914 
4867.000000	64.287137 
4866.000000	64.226222 
4865.000000	64.176702 
4864.000000	64.145088 
4863.000000	64.134669 
4862.000000	64.144611 
4861.000000	64.171481 
4860.000000	64.210152 
4859.000000	64.255857 
4858.000000	64.304780 
4857.000000	64.355397 
4856.000000	64.407873 
4855.000000	64.463591 
4854.000000	64.523243 
4853.000000	64.586424 
4852.000000	64.650559 
4851.000000	64.711570 
4850.000000	64.764571 
4849.000000	64.805316 
4848.000000	64.831185 
4847.000000	64.841914 
4846.000000	64.839935 
4845.000000	64.829635 
4844.000000	64.816403 
4843.000000	64.805412 
4842.000000	64.800381 
4841.000000	64.803528 
4840.000000	64.814591 
4839.000000	64.832115 
4838.000000	64.852857 
4837.000000	64.873075 
4836.000000	64.888691 
4835.000000	64.895820 
4834.000000	64.891695 
4833.000000	64.874958 
4832.000000	64.846253 
4831.000000	64.808082 
4830.000000	64.764928 
4829.000000	64.722490 
4828.000000	64.686369 
4827.000000	64.661264 
4826.000000	64.649462 
4825.000000	64.650368 
4824.000000	64.660453 
4823.000000	64.674282 
4822.000000	64.685630 
4821.000000	64.689207 
4820.000000	64.682006 
4819.000000	64.663982 
4818.000000	64.638233 
4817.000000	64.609980 
4816.000000	64.584851 
4815.000000	64.567232 
4814.000000	64.559173 
4813.000000	64.559555 
4812.000000	64.564895 
4811.000000	64.569807 
4810.000000	64.568519 
4809.000000	64.556431 
4808.000000	64.531135 
4807.000000	64.493632 
4806.000000	64.447355 
4805.000000	64.398598 
4804.000000	64.353847 
4803.000000	64.320564 
4802.000000	64.304924 
4801.000000	64.312076 
4800.000000	64.344763 
4799.000000	64.403557 
4798.000000	64.486551 
4797.000000	64.589333 
4796.000000	64.705252 
4795.000000	64.825510 
4794.000000	64.940047 
4793.000000	65.038681 
4792.000000	65.112423 
4791.000000	65.154957 
4790.000000	65.163803 
4789.000000	65.141367 
4788.000000	65.094399 
4787.000000	65.033650 
4786.000000	64.971446 
4785.000000	64.920210 
4784.000000	64.888882 
4783.000000	64.882302 
4782.000000	64.899015 
4781.000000	64.932918 
4780.000000	64.973855 
4779.000000	65.010499 
4778.000000	65.032696 
4777.000000	65.033769 
4776.000000	65.012145 
4775.000000	64.970803 
4774.000000	64.916753 
4773.000000	64.858746 
4772.000000	64.805555 
4771.000000	64.763522 
4770.000000	64.735960 
4769.000000	64.722728 
4768.000000	64.721393 
4767.000000	64.728403 
4766.000000	64.740133 
4765.000000	64.753770 
4764.000000	64.767694 
4763.000000	64.781332 
4762.000000	64.793753 
4761.000000	64.803528 
4760.000000	64.808464 
4759.000000	64.806008 
4758.000000	64.793753 
4757.000000	64.770603 
4756.000000	64.737224 
4755.000000	64.696979 
4754.000000	64.655256 
4753.000000	64.618992 
4752.000000	64.594888 
4751.000000	64.588284 
4750.000000	64.601707 
4749.000000	64.634299 
4748.000000	64.682126 
4747.000000	64.738655 
4746.000000	64.796113 
4745.000000	64.847016 
4744.000000	64.885854 
4743.000000	64.909601 
4742.000000	64.918017 
4741.000000	64.913082 
4740.000000	64.898228 
4739.000000	64.877653 
4738.000000	64.855360 
4737.000000	64.834642 
4736.000000	64.817762 
4735.000000	64.806151 
4734.000000	64.800381 
4733.000000	64.800524 
4732.000000	64.806318 
4731.000000	64.816951 
4730.000000	64.831113 
4729.000000	64.846897 
4728.000000	64.862179 
4727.000000	64.874601 
4726.000000	64.882087 
4725.000000	64.882922 
4724.000000	64.875984 
4723.000000	64.861130 
4722.000000	64.838647 
4721.000000	64.809226 
4720.000000	64.773702 
4719.000000	64.733004 
4718.000000	64.688420 
4717.000000	64.642024 
4716.000000	64.596462 
4715.000000	64.554619 
4714.000000	64.519453 
4713.000000	64.493250 
4712.000000	64.476919 
4711.000000	64.469718 
4710.000000	64.469218 
4709.000000	64.471960 
4708.000000	64.474201 
4707.000000	64.473128 
4706.000000	64.466857 
4705.000000	64.455723 
4704.000000	64.441537 
4703.000000	64.427852 
4702.000000	64.418864 
4701.000000	64.418482 
4700.000000	64.429712 
4699.000000	64.453172 
4698.000000	64.487290 
4697.000000	64.527583 
4696.000000	64.568281 
4695.000000	64.602041 
4694.000000	64.621806 
4693.000000	64.621925 
4692.000000	64.599442 
4691.000000	64.554834 
4690.000000	64.492034 
4689.000000	64.418387 
4688.000000	64.343595 
4687.000000	64.278173 
4686.000000	64.231610 
4685.000000	64.211010 
4684.000000	64.219713 
4683.000000	64.256978 
4682.000000	64.317989 
4681.000000	64.394831 
4680.000000	64.478039 
4679.000000	64.557456 
4678.000000	64.624381 
4677.000000	64.672279 
4676.000000	64.698433 
4675.000000	64.703512 
4674.000000	64.691638 
4673.000000	64.668989 
4672.000000	64.642739 
4671.000000	64.619898 
4670.000000	64.606022 
4669.000000	64.604592 
4668.000000	64.616489 
4667.000000	64.640879 
4666.000000	64.675259 
4665.000000	64.716506 
4664.000000	64.760994 
4663.000000	64.805507 
4662.000000	64.846706 
4661.000000	64.881372 
4660.000000	64.906477 
4659.000000	64.919424 
4658.000000	64.918684 
4657.000000	64.904451 
4656.000000	64.879584 
4655.000000	64.849185 
4654.000000	64.820814 
4653.000000	64.802241 
4652.000000	64.800119 
4651.000000	64.817404 
4650.000000	64.852643 
4649.000000	64.899444 
4648.000000	64.948105 
4647.000000	64.987659 
4646.000000	65.008282 
4645.000000	65.003991 
4644.000000	64.974236 
4643.000000	64.923930 
4642.000000	64.862203 
4641.000000	64.799952 
4640.000000	64.747285 
4639.000000	64.710831 
4638.000000	64.692759 
4637.000000	64.690303 
4636.000000	64.697432 
4635.000000	64.706540 
4634.000000	64.710664 
4633.000000	64.705562 
4632.000000	64.690351 
4631.000000	64.667129 
4630.000000	64.639949 
4629.000000	64.613842 
4628.000000	64.593148 
4627.000000	64.580607 
4626.000000	64.576911 
4625.000000	64.581012 
4624.000000	64.590692 
4623.000000	64.603710 
4622.000000	64.618444 
4621.000000	64.633846 
4620.000000	64.649868 
4619.000000	64.666867 
4618.000000	64.685249 
4617.000000	64.704537 
4616.000000	64.723634 
4615.000000	64.740610 
4614.000000	64.753079 
4613.000000	64.759182 
4612.000000	64.757657 
4611.000000	64.748716 
4610.000000	64.733457 
4609.000000	64.713525 
4608.000000	64.690947 
4607.000000	64.667892 
4606.000000	64.645814 
4605.000000	64.625573 
4604.000000	64.607357 
4603.000000	64.591121 
4602.000000	64.576959 
4601.000000	64.565730 
4600.000000	64.558339 
4599.000000	64.556479 
4598.000000	64.561796 
4597.000000	64.576029 
4596.000000	64.600110 
4595.000000	64.634132 
4594.000000	64.676904 
4593.000000	64.725852 
4592.000000	64.777421 
4591.000000	64.827585 
4590.000000	64.872336 
4589.000000	64.908576 
4588.000000	64.934229 
4587.000000	64.949250 
4586.000000	64.955806 
4585.000000	64.957737 
4584.000000	64.959907 
4583.000000	64.966607 
4582.000000	64.980792 
4581.000000	65.002846 
4580.000000	65.030670 
4579.000000	65.059757 
4578.000000	65.084481 
4577.000000	65.099191 
4576.000000	65.099692 
4575.000000	65.083789 
4574.000000	65.051984 
4573.000000	65.007400 
4572.000000	64.955377 
4571.000000	64.902710 
4570.000000	64.856219 
4569.000000	64.822244 
4568.000000	64.804625 
4567.000000	64.805030 
4566.000000	64.821600 
4565.000000	64.849472 
4564.000000	64.881539 
4563.000000	64.909744 
4562.000000	64.926719 
4561.000000	64.926743 
4560.000000	64.907765 
4559.000000	64.871835 
4558.000000	64.824748 
4557.000000	64.774513 
4556.000000	64.729571 
4555.000000	64.696621 
4554.000000	64.679121 
4553.000000	64.676594 
4552.000000	64.685463 
4551.000000	64.700531 
4550.000000	64.717006 
4549.000000	64.731740 
4548.000000	64.743661 
4547.000000	64.753842 
4546.000000	64.764571 
4545.000000	64.778137 
4544.000000	64.795541 
4543.000000	64.815711 
4542.000000	64.835882 
4541.000000	64.851498 
4540.000000	64.857482 
4539.000000	64.849305 
4538.000000	64.824485 
4537.000000	64.783620 
4536.000000	64.730572 
4535.000000	64.672040 
4534.000000	64.616131 
4533.000000	64.570832 
4532.000000	64.542484 
4531.000000	64.534163 
4530.000000	64.545059 
4529.000000	64.570474 
4528.000000	64.603257 
4527.000000	64.635324 
4526.000000	64.659738 
4525.000000	64.672756 
4524.000000	64.674353 
4523.000000	64.668583 
4522.000000	64.662432 
4521.000000	64.663815 
4520.000000	64.679336 
4519.000000	64.712643 
4518.000000	64.763236 
4517.000000	64.826965 
4516.000000	64.896202 
4515.000000	64.962577 
4514.000000	65.017223 
4513.000000	65.052962 
4512.000000	65.064716 
4511.000000	65.050530 
4510.000000	65.011382 
4509.000000	64.950537 
4508.000000	64.873456 
4507.000000	64.787149 
4506.000000	64.699482 
4505.000000	64.618682 
4504.000000	64.552044 
4503.000000	64.505505 
4502.000000	64.482355 
4501.000000	64.482855 
4500.000000	64.503979 
4499.000000	64.540028 
4498.000000	64.583921 
4497.000000	64.628696 
4496.000000	64.668297 
4495.000000	64.698529 
4494.000000	64.716768 
4493.000000	64.722180 
4492.000000	64.714932 
4491.000000	64.696431 
4490.000000	64.668893 
4489.000000	64.635872 
4488.000000	64.602470 
4487.000000	64.574599 
4486.000000	64.558243 
4485.000000	64.558124 
4484.000000	64.576745 
4483.000000	64.613199 
4482.000000	64.663600 
4481.000000	64.721083 
4480.000000	64.777016 
4479.000000	64.822626 
4478.000000	64.850926 
4477.000000	64.857840 
4476.000000	64.842724 
4475.000000	64.808344 
4474.000000	64.759850 
4473.000000	64.703845 
4472.000000	64.647269 
4471.000000	64.596223 
4470.000000	64.555382 
4469.000000	64.528417 
4468.000000	64.518189 
4467.000000	64.527201 
4466.000000	64.557814 
4465.000000	64.611291 
4464.000000	64.687418 
4463.000000	64.784049 
4462.000000	64.896535 
4461.000000	65.017557 
4460.000000	65.137791 
4459.000000	65.247297 
4458.000000	65.336608 
4457.000000	65.399408 
4456.000000	65.431571 
4455.000000	65.432453 
4454.000000	65.403437 
4453.000000	65.348505 
4452.000000	65.272235 
4451.000000	65.180397 
4450.000000	65.078973 
4449.000000	64.974331 
4448.000000	64.873814 
4447.000000	64.786076 
4446.000000	64.719843 
4445.000000	64.682793 
4444.000000	64.679718 
4443.000000	64.711070 
4442.000000	64.771771 
4441.000000	64.851403 
4440.000000	64.935135 
4439.000000	65.006589 
4438.000000	65.051293 
4437.000000	65.060091 
4436.000000	65.030074 
4435.000000	64.966607 
4434.000000	64.881563 
4433.000000	64.791750 
4432.000000	64.716029 
4431.000000	64.670252 
4430.000000	64.665198 
4429.000000	64.702224 
4428.000000	64.774823 
4427.000000	64.867329 
4426.000000	64.959168 
4425.000000	65.028595 
4424.000000	65.057110 
4423.000000	65.034890 
4422.000000	64.964675 
4421.000000	64.857006 
4420.000000	64.727735 
4419.000000	64.591574 
4418.000000	64.455699 
4417.000000	64.332795 
4416.000000	64.241504 
4415.000000	64.193177 
4414.000000	64.191246 
4413.000000	64.234757 
4412.000000	64.318537 
4411.000000	64.433550 
4410.000000	64.569473 
4409.000000	64.715766 
4408.000000	64.862227 
4407.000000	65.005016 
4406.000000	65.139627 
4405.000000	65.254402 
4404.000000	65.333342 
4403.000000	65.360999 
4402.000000	65.326929 
4401.000000	65.213513 
4400.000000	65.028691 
4399.000000	64.799213 
4398.000000	64.589333 
4397.000000	64.507722 
4396.000000	64.648652 
4395.000000	65.095114 
4394.000000	65.803599 
4393.000000	66.603088 
4392.000000	67.190575 
4391.000000	67.196965 
4390.000000	66.313195 
4389.000000	64.388179 
4388.000000	61.512660 
4387.000000	58.021712 
4386.000000	54.396915 
4385.000000	51.173162 
4384.000000	48.779439 
4383.000000	47.481846 
4382.000000	47.358894 
4381.000000	48.315429 
4380.000000	50.158643 
4379.000000	52.630949 
4378.000000	55.453658 
4377.000000	58.371257 
4376.000000	61.122679 
4375.000000	63.515162 
4374.000000	65.402436 
4373.000000	66.722917 
4372.000000	67.490839 
4371.000000	67.777991 
4370.000000	67.694234 
4369.000000	67.356872 
4368.000000	66.880822 
4367.000000	66.357898 
4366.000000	65.866661 
4365.000000	65.460562 
4364.000000	65.185236 
4363.000000	65.054345 
4362.000000	65.058875 
4361.000000	65.164232 
4360.000000	65.322637 
4359.000000	65.486121 
4358.000000	65.617966 
4357.000000	65.703177 
4356.000000	65.747857 
4355.000000	65.762233 
4354.000000	65.759420 
4353.000000	65.750718 
4352.000000	65.741920 
4351.000000	65.729761 
4350.000000	65.706634 
4349.000000	65.669822 
4348.000000	65.618348 
4347.000000	65.562748 
4346.000000	65.512180 
4345.000000	65.463519 
4344.000000	65.410709 
4343.000000	65.351605 
4342.000000	65.281939 
4341.000000	65.196108 
4340.000000	65.091586 
4339.000000	64.971160 
4338.000000	64.840531 
4337.000000	64.707589 
4336.000000	64.581179 
4335.000000	64.469385 
4334.000000	64.380621 
4333.000000	64.322304 
4332.000000	64.297986 
4331.000000	64.307069 
4330.000000	64.345192 
4329.000000	64.405083 
4328.000000	64.478254 
4327.000000	64.556241 
4326.000000	64.630031 
4325.000000	64.692139 
4324.000000	64.736843 
4323.000000	64.761304 
4322.000000	64.764142 
4321.000000	64.747405 
4320.000000	64.715266 
4319.000000	64.675164 
4318.000000	64.636445 
4317.000000	64.609742 
4316.000000	64.604997 
4315.000000	64.629817 
4314.000000	64.688396 
4313.000000	64.779019 
4312.000000	64.894104 
4311.000000	65.021491 
4310.000000	65.146803 
4309.000000	65.256500 
4308.000000	65.340209 
4307.000000	65.393590 
4306.000000	65.418124 
4305.000000	65.419149 
4304.000000	65.402960 
4303.000000	65.375375 
4302.000000	65.338945 
4301.000000	65.292668 
4300.000000	65.232181 
4299.000000	65.153455 
4298.000000	65.054035 
4297.000000	64.935445 
4296.000000	64.803981 
4295.000000	64.669680 
4294.000000	64.545488 
4293.000000	64.444231 
4292.000000	64.376950 
4291.000000	64.349055 
4290.000000	64.360928 
4289.000000	64.407372 
4288.000000	64.479374 
4287.000000	64.565420 
4286.000000	64.654207 
4285.000000	64.735841 
4284.000000	64.803409 
4283.000000	64.852881 
4282.000000	64.883732 
4281.000000	64.897966 
4280.000000	64.899444 
4279.000000	64.892625 
4278.000000	64.882707 
4277.000000	64.874625 
4276.000000	64.872550 
4275.000000	64.879155 
4274.000000	64.895868 
4273.000000	64.922261 
4272.000000	64.956665 
4271.000000	64.995574 
4270.000000	65.034103 
4269.000000	65.066528 
4268.000000	65.087866 
4267.000000	65.094184 
4266.000000	65.082836 
4265.000000	65.053629 
4264.000000	65.009236 
4263.000000	64.954686 
4262.000000	64.896249 
4261.000000	64.841055 
4260.000000	64.796018 
4259.000000	64.766049 
4258.000000	64.753651 
4257.000000	64.757990 
4256.000000	64.775395 
4255.000000	64.800071 
4254.000000	64.825892 
4253.000000	64.846754 
4252.000000	64.857769 
4251.000000	64.856457 
4250.000000	64.843249 
4249.000000	64.820241 
4248.000000	64.791083 
4247.000000	64.760303 
4246.000000	64.732503 
4245.000000	64.711785 
4244.000000	64.701390 
4243.000000	64.703273 
4242.000000	64.718484 
4241.000000	64.746928 
4240.000000	64.787459 
4239.000000	64.838266 
4238.000000	64.896607 
4237.000000	64.959120 
4236.000000	65.021753 
4235.000000	65.080022 
4234.000000	65.129590 
4233.000000	65.167045 
4232.000000	65.189790 
4231.000000	65.196466 
4230.000000	65.186905 
4229.000000	65.162706 
4228.000000	65.125775 
4227.000000	65.078234 
4226.000000	65.022087 
4225.000000	64.959168 
4224.000000	64.891052 
4223.000000	64.819574 
4222.000000	64.746999 
4221.000000	64.676713 
4220.000000	64.613223 
4219.000000	64.561605 
4218.000000	64.526462 
4217.000000	64.511442 
4216.000000	64.517545 
4215.000000	64.543557 
4214.000000	64.584898 
4213.000000	64.635777 
4212.000000	64.689707 
4211.000000	64.741492 
4210.000000	64.787626 
4209.000000	64.827322 
4208.000000	64.862036 
4207.000000	64.894437 
4206.000000	64.926743 
4205.000000	64.959955 
4204.000000	64.993405 
4203.000000	65.024232 
4202.000000	65.048313 
4201.000000	65.061855 
4200.000000	65.062665 
4199.000000	65.051078 
4198.000000	65.030217 
4197.000000	65.004968 
4196.000000	64.980959 
4195.000000	64.963412 
4194.000000	64.955687 
4193.000000	64.958190 
4192.000000	64.968609 
4191.000000	64.982986 
4190.000000	64.996647 
4189.000000	65.005230 
4188.000000	65.005850 
4187.000000	64.997792 
4186.000000	64.982628 
4185.000000	64.963293 
4184.000000	64.943194 
4183.000000	64.925670 
4182.000000	64.912486 
4181.000000	64.903998 
4180.000000	64.898252 
4179.000000	64.891886 
4178.000000	64.880466 
4177.000000	64.859962 
4176.000000	64.827442 
4175.000000	64.782023 
4174.000000	64.726042 
4173.000000	64.665079 
4172.000000	64.607024 
4171.000000	64.560699 
4170.000000	64.534568 
4169.000000	64.534854 
4168.000000	64.563679 
4167.000000	64.618802 
4166.000000	64.693903 
4165.000000	64.780163 
4164.000000	64.867639 
4163.000000	64.947605 
4162.000000	65.013670 
4161.000000	65.063238 
4160.000000	65.096902 
4159.000000	65.117955 
4158.000000	65.130734 
4157.000000	65.139198 
4156.000000	65.146136 
4155.000000	65.152263 
4154.000000	65.156769 
4153.000000	65.157270 
4152.000000	65.151953 
4151.000000	65.138888 
4150.000000	65.117192 
4149.000000	65.086793 
4148.000000	65.048623 
4147.000000	65.003967 
4146.000000	64.954209 
4145.000000	64.900827 
4144.000000	64.845275 
4143.000000	64.788794 
4142.000000	64.732670 
4141.000000	64.678359 
4140.000000	64.627695 
4139.000000	64.582228 
4138.000000	64.543700 
4137.000000	64.513278 
4136.000000	64.492273 
4135.000000	64.481830 
4134.000000	64.483165 
4133.000000	64.496755 
4132.000000	64.522695 
4131.000000	64.560008 
4130.000000	64.606881 
4129.000000	64.659738 
4128.000000	64.714550 
4127.000000	64.767074 
4126.000000	64.813613 
4125.000000	64.851427 
4124.000000	64.878964 
4123.000000	64.895987 
4122.000000	64.903235 
4121.000000	64.902400 
4120.000000	64.896249 
4119.000000	64.888262 
4118.000000	64.882731 
4117.000000	64.883804 
4116.000000	64.895105 
4115.000000	64.918541 
4114.000000	64.954066 
4113.000000	64.999222 
4112.000000	65.049362 
4111.000000	65.098524 
4110.000000	65.140509 
4109.000000	65.170383 
4108.000000	65.185213 
4107.000000	65.185022 
4106.000000	65.172863 
4105.000000	65.153861 
4104.000000	65.134143 
4103.000000	65.119028 
4102.000000	65.112519 
4101.000000	65.115571 
4100.000000	65.126562 
4099.000000	65.141224 
4098.000000	65.154266 
4097.000000	65.160202 
4096.000000	65.154886 
4095.000000	65.136241 
4094.000000	65.104508 
4093.000000	65.062069 
4092.000000	65.012598 
4091.000000	64.960145 
4090.000000	64.908075 
4089.000000	64.858555 
4088.000000	64.812350 
4087.000000	64.768958 
4086.000000	64.727497 
4085.000000	64.687085 
4084.000000	64.648127 
4083.000000	64.611911 
4082.000000	64.581441 
4081.000000	64.560508 
4080.000000	64.553380 
4079.000000	64.563059 
4078.000000	64.590978 
4077.000000	64.635729 
4076.000000	64.693546 
4075.000000	64.758253 
4074.000000	64.823007 
4073.000000	64.881324 
4072.000000	64.928770 
4071.000000	64.963412 
4070.000000	64.986133 
4069.000000	64.999938 
4068.000000	65.008759 
4067.000000	65.016269 
4066.000000	65.024948 
4065.000000	65.035343 
4064.000000	65.046262 
4063.000000	65.055370 
4062.000000	65.059971 
4061.000000	65.057897 
4060.000000	65.048408 
4059.000000	65.032601 
4058.000000	65.012955 
4057.000000	64.993095 
4056.000000	64.976811 
4055.000000	64.967536 
4054.000000	64.967513 
4053.000000	64.977574 
4052.000000	64.997291 
4051.000000	65.024662 
4050.000000	65.056753 
4049.000000	65.089654 
4048.000000	65.119504 
4047.000000	65.142822 
4046.000000	65.156865 
4045.000000	65.160202 
4044.000000	65.152549 
4043.000000	65.135097 
4042.000000	65.110325 
4041.000000	65.081334 
4040.000000	65.051436 
4039.000000	65.023779 
4038.000000	65.000987 
4037.000000	64.984607 
4036.000000	64.974880 
4035.000000	64.970254 
4034.000000	64.967942 
4033.000000	64.964127 
4032.000000	64.955139 
4031.000000	64.937877 
4030.000000	64.910960 
4029.000000	64.875030 
4028.000000	64.833068 
4027.000000	64.789724 
4026.000000	64.750742 
4025.000000	64.721608 
4024.000000	64.706492 
4023.000000	64.707422 
4022.000000	64.723706 
4021.000000	64.752244 
4020.000000	64.788055 
4019.000000	64.825296 
4018.000000	64.858126 
4017.000000	64.881777 
4016.000000	64.893341 
4015.000000	64.891958 
4014.000000	64.878773 
4013.000000	64.856338 
4012.000000	64.828610 
4011.000000	64.800119 
4010.000000	64.775753 
4009.000000	64.759755 
4008.000000	64.755320 
4007.000000	64.763832 
4006.000000	64.784955 
4005.000000	64.816498 
4004.000000	64.854669 
4003.000000	64.894700 
4002.000000	64.931511 
4001.000000	64.960932 
4000.000000	64.979910 
3999.000000	64.987421 
3998.000000	64.984464 
3997.000000	64.974069 
3996.000000	64.960432 
3995.000000	64.947891 
3994.000000	64.940786 
3993.000000	64.941239 
3992.000000	64.949297 
3991.000000	64.962005 
3990.000000	64.974927 
3989.000000	64.982604 
3988.000000	64.979958 
3987.000000	64.963889 
3986.000000	64.933991 
3985.000000	64.893293 
3984.000000	64.847397 
3983.000000	64.803624 
3982.000000	64.769244 
3981.000000	64.749789 
3980.000000	64.747858 
3979.000000	64.762496 
3978.000000	64.789485 
3977.000000	64.822697 
3976.000000	64.855647 
3975.000000	64.882755 
3974.000000	64.901041 
3973.000000	64.910244 
3972.000000	64.913249 
3971.000000	64.914107 
3970.000000	64.917731 
3969.000000	64.928603 
3968.000000	64.949655 
3967.000000	64.981460 
3966.000000	65.022230 
3965.000000	65.068507 
3964.000000	65.115737 
3963.000000	65.159487 
3962.000000	65.196371 
3961.000000	65.224695 
3960.000000	65.244793 
3959.000000	65.258598 
3958.000000	65.268731 
3957.000000	65.277481 
3956.000000	65.286135 
3955.000000	65.294408 
3954.000000	65.300416 
3953.000000	65.301275 
3952.000000	65.293955 
3951.000000	65.276122 
3950.000000	65.247154 
3949.000000	65.208244 
3948.000000	65.162301 
3947.000000	65.113234 
3946.000000	65.065050 
3945.000000	65.020847 
3944.000000	64.982342 
3943.000000	64.949774 
3942.000000	64.922404 
3941.000000	64.899253 
3940.000000	64.879369 
3939.000000	64.862370 
3938.000000	64.848494 
3937.000000	64.838552 
3936.000000	64.832973 
3935.000000	64.832448 
3934.000000	64.837169 
3933.000000	64.847040 
3932.000000	64.861369 
3931.000000	64.879083 
3930.000000	64.898800 
3929.000000	64.918637 
3928.000000	64.936304 
3927.000000	64.949345 
3926.000000	64.955234 
3925.000000	64.951968 
3924.000000	64.938449 
3923.000000	64.914727 
3922.000000	64.882373 
3921.000000	64.844322 
3920.000000	64.804625 
3919.000000	64.767599 
3918.000000	64.737105 
3917.000000	64.716005 
3916.000000	64.705801 
3915.000000	64.706301 
3914.000000	64.716148 
3913.000000	64.733123 
3912.000000	64.754676 
3911.000000	64.778161 
3910.000000	64.801549 
3909.000000	64.823198 
3908.000000	64.842295 
3907.000000	64.858412 
3906.000000	64.871668 
3905.000000	64.882540 
3904.000000	64.891719 
3903.000000	64.899897 
3902.000000	64.907932 
3901.000000	64.916586 
3900.000000	64.926624 
3899.000000	64.938592 
3898.000000	64.952921 
3897.000000	64.969563 
3896.000000	64.988136 
3895.000000	65.007591 
3894.000000	65.026617 
3893.000000	65.043306 
3892.000000	65.055537 
3891.000000	65.060997 
3890.000000	65.057945 
3889.000000	65.045475 
3888.000000	65.023756 
3887.000000	64.994311 
3886.000000	64.960074 
3885.000000	64.924812 
3884.000000	64.892554 
3883.000000	64.866757 
3882.000000	64.849901 
3881.000000	64.843034 
3880.000000	64.845871 
3879.000000	64.856839 
3878.000000	64.873528 
3877.000000	64.893412 
3876.000000	64.914274 
3875.000000	64.934492 
3874.000000	64.953136 
3873.000000	64.970088 
3872.000000	64.986014 
3871.000000	65.001678 
3870.000000	65.017795 
3869.000000	65.034961 
3868.000000	65.053272 
3867.000000	65.072298 
3866.000000	65.090966 
3865.000000	65.108013 
3864.000000	65.122151 
3863.000000	65.132188 
3862.000000	65.137195 
3861.000000	65.136766 
3860.000000	65.130949 
3859.000000	65.120601 
3858.000000	65.107035 
3857.000000	65.092039 
3856.000000	65.077447 
3855.000000	65.065193 
3854.000000	65.056490 
3853.000000	65.051674 
3852.000000	65.050268 
3851.000000	65.051198 
3850.000000	65.052747 
3849.000000	65.052819 
3848.000000	65.049600 
3847.000000	65.041780 
3846.000000	65.028810 
3845.000000	65.010643 
3844.000000	64.987635 
3843.000000	64.960122 
3842.000000	64.928364 
3841.000000	64.892530 
3840.000000	64.852833 
3839.000000	64.810180 
3838.000000	64.766383 
3837.000000	64.724636 
3836.000000	64.688968 
3835.000000	64.663648 
3834.000000	64.652252 
3833.000000	64.656877 
3832.000000	64.676833 
3831.000000	64.709401 
3830.000000	64.749884 
3829.000000	64.793133 
3828.000000	64.834308 
3827.000000	64.870643 
3826.000000	64.901614 
3825.000000	64.929008 
3824.000000	64.955902 
3823.000000	64.985322 
3822.000000	65.018844 
3821.000000	65.055751 
3820.000000	65.093159 
3819.000000	65.126705 
3818.000000	65.152215 
3817.000000	65.166854 
3816.000000	65.170407 
3815.000000	65.165472 
3814.000000	65.156936 
3813.000000	65.150713 
3812.000000	65.151858 
3811.000000	65.163493 
3810.000000	65.185499 
3809.000000	65.215182 
3808.000000	65.247154 
3807.000000	65.275192 
3806.000000	65.293383 
3805.000000	65.297985 
3804.000000	65.287923 
3803.000000	65.264868 
3802.000000	65.232896 
3801.000000	65.197396 
3800.000000	65.163803 
3799.000000	65.136599 
3798.000000	65.118217 
3797.000000	65.108919 
3796.000000	65.106749 
3795.000000	65.108275 
3794.000000	65.109229 
3793.000000	65.105414 
3792.000000	65.093898 
3791.000000	65.073490 
3790.000000	65.044689 
3789.000000	65.009546 
3788.000000	64.971137 
3787.000000	64.932751 
3786.000000	64.897108 
3785.000000	64.865994 
3784.000000	64.840245 
3783.000000	64.819860 
3782.000000	64.804244 
3781.000000	64.793038 
3780.000000	64.786076 
3779.000000	64.783835 
3778.000000	64.787077 
3777.000000	64.796519 
3776.000000	64.811921 
3775.000000	64.832329 
3774.000000	64.855623 
3773.000000	64.879035 
3772.000000	64.899539 
3771.000000	64.914560 
3770.000000	64.922595 
3769.000000	64.923095 
3768.000000	64.916396 
3767.000000	64.903593 
3766.000000	64.886283 
3765.000000	64.866065 
3764.000000	64.844322 
3763.000000	64.822506 
3762.000000	64.801883 
3761.000000	64.783644 
3760.000000	64.768886 
3759.000000	64.758563 
3758.000000	64.753174 
3757.000000	64.752292 
3756.000000	64.755201 
3755.000000	64.760589 
3754.000000	64.767765 
3753.000000	64.776325 
3752.000000	64.787054 
3751.000000	64.801430 
3750.000000	64.821338 
3749.000000	64.848113 
3748.000000	64.881610 
3747.000000	64.919924 
3746.000000	64.959526 
3745.000000	64.995789 
3744.000000	65.024280 
3743.000000	65.041661 
3742.000000	65.046644 
3741.000000	65.040373 
3740.000000	65.025925 
3739.000000	65.007591 
3738.000000	64.989757 
3737.000000	64.975810 
3736.000000	64.967513 
3735.000000	64.964842 
3734.000000	64.966654 
3733.000000	64.971280 
3732.000000	64.977502 
3731.000000	64.984703 
3730.000000	64.993119 
3729.000000	65.003299 
3728.000000	65.015649 
3727.000000	65.030026 
3726.000000	65.045237 
3725.000000	65.059447 
3724.000000	65.070438 
3723.000000	65.076327 
3722.000000	65.076184 
3721.000000	65.070343 
3720.000000	65.060424 
3719.000000	65.048933 
3718.000000	65.038657 
3717.000000	65.031981 
3716.000000	65.030145 
3715.000000	65.033292 
3714.000000	65.040564 
3713.000000	65.050172 
3712.000000	65.060019 
3711.000000	65.068006 
3710.000000	65.072631 
3709.000000	65.072822 
3708.000000	65.068507 
3707.000000	65.060520 
3706.000000	65.050387 
3705.000000	65.040397 
3704.000000	65.032792 
3703.000000	65.029478 
3702.000000	65.031385 
3701.000000	65.038228 
3700.000000	65.048670 
3699.000000	65.060591 
3698.000000	65.071749 
3697.000000	65.079998 
3696.000000	65.084266 
3695.000000	65.084576 
3694.000000	65.082144 
3693.000000	65.078973 
3692.000000	65.077066 
3691.000000	65.077924 
3690.000000	65.081906 
3689.000000	65.088057 
3688.000000	65.094232 
3687.000000	65.097665 
3686.000000	65.095686 
3685.000000	65.086555 
3684.000000	65.069627 
3683.000000	65.045738 
3682.000000	65.017104 
3681.000000	64.987063 
3680.000000	64.959430 
3679.000000	64.937829 
3678.000000	64.924979 
3677.000000	64.922142 
3676.000000	64.928603 
3675.000000	64.941787 
3674.000000	64.957880 
3673.000000	64.972591 
3672.000000	64.981985 
3671.000000	64.983654 
3670.000000	64.977169 
3669.000000	64.964342 
3668.000000	64.948606 
3667.000000	64.934444 
3666.000000	64.925885 
3665.000000	64.925837 
3664.000000	64.935255 
3663.000000	64.953088 
3662.000000	64.976596 
3661.000000	65.002489 
3660.000000	65.027952 
3659.000000	65.051269 
3658.000000	65.072154 
3657.000000	65.091323 
3656.000000	65.109872 
3655.000000	65.128493 
3654.000000	65.146899 
3653.000000	65.163779 
3652.000000	65.176963 
3651.000000	65.184593 
3650.000000	65.185213 
3649.000000	65.178680 
3648.000000	65.166020 
3647.000000	65.149402 
3646.000000	65.131783 
3645.000000	65.116000 
3644.000000	65.104317 
3643.000000	65.097856 
3642.000000	65.096569 
3641.000000	65.099525 
3640.000000	65.104818 
3639.000000	65.110445 
3638.000000	65.114378 
3637.000000	65.115022 
3636.000000	65.111303 
3635.000000	65.102672 
3634.000000	65.089344 
3633.000000	65.072274 
3632.000000	65.052986 
3631.000000	65.033245 
3630.000000	65.015006 
3629.000000	65.000033 
3628.000000	64.989280 
3627.000000	64.983105 
3626.000000	64.981150 
3625.000000	64.982509 
3624.000000	64.985918 
3623.000000	64.989972 
3622.000000	64.993500 
3621.000000	64.995622 
3620.000000	64.995670 
3619.000000	64.993500 
3618.000000	64.989495 
3617.000000	64.984345 
3616.000000	64.979171 
3615.000000	64.974927 
3614.000000	64.972448 
3613.000000	64.972066 
3612.000000	64.973950 
3611.000000	64.977502 
3610.000000	64.981508 
3609.000000	64.984416 
3608.000000	64.984583 
3607.000000	64.980483 
3606.000000	64.971089 
3605.000000	64.955997 
3604.000000	64.935564 
3603.000000	64.910697 
3602.000000	64.882826 
3601.000000	64.853644 
3600.000000	64.825081 
3599.000000	64.799332 
3598.000000	64.778208 
3597.000000	64.763307 
3596.000000	64.755249 
3595.000000	64.753651 
3594.000000	64.757156 
3593.000000	64.763116 
3592.000000	64.769053 
3591.000000	64.772701 
3590.000000	64.773559 
3589.000000	64.772439 
3588.000000	64.771819 
3587.000000	64.775228 
3586.000000	64.786076 
3585.000000	64.806771 
3584.000000	64.837741 
3583.000000	64.876961 
3582.000000	64.920592 
3581.000000	64.963650 
3580.000000	65.001749 
3579.000000	65.031981 
3578.000000	65.053796 
3577.000000	65.068912 
3576.000000	65.080142 
3575.000000	65.090179 
3574.000000	65.100526 
3573.000000	65.110707 
3572.000000	65.118384 
3571.000000	65.120005 
3570.000000	65.112376 
3569.000000	65.093612 
3568.000000	65.064167 
3567.000000	65.026903 
3566.000000	64.986515 
3565.000000	64.948606 
3564.000000	64.918184 
3563.000000	64.898824 
3562.000000	64.891624 
3561.000000	64.895629 
3560.000000	64.908146 
3559.000000	64.925456 
3558.000000	64.944005 
3557.000000	64.960694 
3556.000000	64.973211 
3555.000000	64.980244 
3554.000000	64.981245 
3553.000000	64.976811 
3552.000000	64.968180 
3551.000000	64.957284 
3550.000000	64.946269 
3549.000000	64.937210 
3548.000000	64.931583 
3547.000000	64.929819 
3546.000000	64.931154 
3545.000000	64.933967 
3544.000000	64.936256 
3543.000000	64.936113 
3542.000000	64.932370 
3541.000000	64.924860 
3540.000000	64.914631 
3539.000000	64.903450 
3538.000000	64.893364 
3537.000000	64.886021 
3536.000000	64.882469 
3535.000000	64.882564 
3534.000000	64.885687 
3533.000000	64.891028 
3532.000000	64.897942 
3531.000000	64.906263 
3530.000000	64.916086 
3529.000000	64.927458 
3528.000000	64.939904 
3527.000000	64.952230 
3526.000000	64.962649 
3525.000000	64.969182 
3524.000000	64.970326 
3523.000000	64.965462 
3522.000000	64.955115 
3521.000000	64.940690 
3520.000000	64.924454 
3519.000000	64.908957 
3518.000000	64.896130 
3517.000000	64.887022 
3516.000000	64.881777 
3515.000000	64.879870 
3514.000000	64.880561 
3513.000000	64.883041 
3512.000000	64.886713 
3511.000000	64.891076 
3510.000000	64.895820 
3509.000000	64.900255 
3508.000000	64.902925 
3507.000000	64.902043 
3506.000000	64.895677 
3505.000000	64.882516 
3504.000000	64.862465 
3503.000000	64.836668 
3502.000000	64.807581 
3501.000000	64.778709 
3500.000000	64.753866 
3499.000000	64.736580 
3498.000000	64.729475 
3497.000000	64.734125 
3496.000000	64.750981 
3495.000000	64.779663 
3494.000000	64.819169 
3493.000000	64.868354 
3492.000000	64.925384 
3491.000000	64.987707 
3490.000000	65.051174 
3489.000000	65.110564 
3488.000000	65.159344 
3487.000000	65.190553 
3486.000000	65.197920 
3485.000000	65.177488 
3484.000000	65.128684 
3483.000000	65.055084 
3482.000000	64.964222 
3481.000000	64.866709 
3480.000000	64.774394 
3479.000000	64.698481 
3478.000000	64.647603 
3477.000000	64.626145 
3476.000000	64.634132 
3475.000000	64.667367 
3474.000000	64.718866 
3473.000000	64.780259 
3472.000000	64.843893 
3471.000000	64.904069 
3470.000000	64.957547 
3469.000000	65.003442 
3468.000000	65.042781 
3467.000000	65.077328 
3466.000000	65.108799 
3465.000000	65.137839 
3464.000000	65.164184 
3463.000000	65.186190 
3462.000000	65.202140 
3461.000000	65.210175 
3460.000000	65.209317 
3459.000000	65.199422 
3458.000000	65.181589 
3457.000000	65.157914 
3456.000000	65.130972 
3455.000000	65.103769 
3454.000000	65.079212 
3453.000000	65.059733 
3452.000000	65.047168 
3451.000000	65.042257 
3450.000000	65.045142 
3449.000000	65.054488 
3448.000000	65.067887 
3447.000000	65.082192 
3446.000000	65.093731 
3445.000000	65.099430 
3444.000000	65.097093 
3443.000000	65.086030 
3442.000000	65.067172 
3441.000000	65.043425 
3440.000000	65.019106 
3439.000000	64.998626 
3438.000000	64.985752 
3437.000000	64.982938 
3436.000000	64.991164 
3435.000000	65.009260 
3434.000000	65.034890 
3433.000000	65.065026 
3432.000000	65.096998 
3431.000000	65.128993 
3430.000000	65.160059 
3429.000000	65.190243 
3428.000000	65.219759 
3427.000000	65.248608 
3426.000000	65.275907 
3425.000000	65.299892 
3424.000000	65.317773 
3423.000000	65.326666 
3422.000000	65.323710 
3421.000000	65.307307 
3420.000000	65.277481 
3419.000000	65.236186 
3418.000000	65.186953 
3417.000000	65.134310 
3416.000000	65.083169 
3415.000000	65.037775 
3414.000000	65.001010 
3413.000000	64.973926 
3412.000000	64.955663 
3411.000000	64.944291 
3410.000000	64.937090 
3409.000000	64.931917 
3408.000000	64.927315 
3407.000000	64.923501 
3406.000000	64.921903 
3405.000000	64.924860 
3404.000000	64.934682 
3403.000000	64.952683 
3402.000000	64.978265 
3401.000000	65.008664 
3400.000000	65.039110 
3399.000000	65.063643 
3398.000000	65.076708 
3397.000000	65.074229 
3396.000000	65.054869 
3395.000000	65.020632 
3394.000000	64.976549 
3393.000000	64.929890 
3392.000000	64.888525 
3391.000000	64.859533 
3390.000000	64.847731 
3389.000000	64.854860 
3388.000000	64.879298 
3387.000000	64.916539 
3386.000000	64.960050 
3385.000000	65.002989 
3384.000000	65.039515 
3383.000000	65.065574 
3382.000000	65.079760 
3381.000000	65.082931 
3380.000000	65.078186 
3379.000000	65.069532 
3378.000000	65.061044 
3377.000000	65.056061 
3376.000000	65.056467 
3375.000000	65.062952 
3374.000000	65.074706 
3373.000000	65.090131 
3372.000000	65.107178 
3371.000000	65.123939 
3370.000000	65.138792 
3369.000000	65.150523 
3368.000000	65.158367 
3367.000000	65.161800 
3366.000000	65.160775 
3365.000000	65.155267 
3364.000000	65.145707 
3363.000000	65.132808 
3362.000000	65.117931 
3361.000000	65.102887 
3360.000000	65.089583 
3359.000000	65.079760 
3358.000000	65.074658 
3357.000000	65.074825 
3356.000000	65.080070 
3355.000000	65.089225 
3354.000000	65.100622 
3353.000000	65.111804 
3352.000000	65.120339 
3351.000000	65.123748 
3350.000000	65.120005 
3349.000000	65.107655 
3348.000000	65.086007 
3347.000000	65.055274 
3346.000000	65.016627 
3345.000000	64.972281 
3344.000000	64.925074 
3343.000000	64.878511 
3342.000000	64.836049 
3341.000000	64.801096 
3340.000000	64.776253 
3339.000000	64.763212 
3338.000000	64.762234 
3337.000000	64.772295 
3336.000000	64.791250 
3335.000000	64.815855 
3334.000000	64.842152 
3333.000000	64.865970 
3332.000000	64.883947 
3331.000000	64.893507 
3330.000000	64.893794 
3329.000000	64.885687 
3328.000000	64.872050 
3327.000000	64.857077 
3326.000000	64.845752 
3325.000000	64.842629 
3324.000000	64.850902 
3323.000000	64.871740 
3322.000000	64.903759 
3321.000000	64.943623 
3320.000000	64.986324 
3319.000000	65.026545 
3318.000000	65.059542 
3317.000000	65.082168 
3316.000000	65.093183 
3315.000000	65.093469 
3314.000000	65.085124 
3313.000000	65.070557 
3312.000000	65.051937 
3311.000000	65.030694 
3310.000000	65.007138 
3309.000000	64.980792 
3308.000000	64.951252 
3307.000000	64.918923 
3306.000000	64.885258 
3305.000000	64.853096 
3304.000000	64.826059 
3303.000000	64.808058 
3302.000000	64.802002 
3301.000000	64.809370 
3300.000000	64.829325 
3299.000000	64.858746 
3298.000000	64.892959 
3297.000000	64.926719 
3296.000000	64.955115 
3295.000000	64.974737 
3294.000000	64.983916 
3293.000000	64.982986 
3292.000000	64.973902 
3291.000000	64.959621 
3290.000000	64.943242 
3289.000000	64.927291 
3288.000000	64.913368 
3287.000000	64.901709 
3286.000000	64.891958 
3285.000000	64.883065 
3284.000000	64.874219 
3283.000000	64.865088 
3282.000000	64.856028 
3281.000000	64.848065 
3280.000000	64.842557 
3279.000000	64.840650 
3278.000000	64.842677 
3277.000000	64.848184 
3276.000000	64.856028 
3275.000000	64.864444 
3274.000000	64.871907 
3273.000000	64.877390 
3272.000000	64.880919 
3271.000000	64.883613 
3270.000000	64.887380 
3269.000000	64.894318 
3268.000000	64.906120 
3267.000000	64.923214 
3266.000000	64.944696 
3265.000000	64.968156 
3264.000000	64.990520 
3263.000000	65.008640 
3262.000000	65.020298 
3261.000000	65.024542 
3260.000000	65.021777 
3259.000000	65.013670 
3258.000000	65.002584 
3257.000000	64.990878 
3256.000000	64.980459 
3255.000000	64.972305 
3254.000000	64.966797 
3253.000000	64.963650 
3252.000000	64.962339 
3251.000000	64.962148 
3250.000000	64.962577 
3249.000000	64.963173 
3248.000000	64.963555 
3247.000000	64.963364 
3246.000000	64.962196 
3245.000000	64.959836 
3244.000000	64.956426 
3243.000000	64.952659 
3242.000000	64.949679 
3241.000000	64.948940 
3240.000000	64.951801 
3239.000000	64.959216 
3238.000000	64.970993 
3237.000000	64.985752 
3236.000000	65.001416 
3235.000000	65.015316 
3234.000000	65.024876 
3233.000000	65.028452 
3232.000000	65.025568 
3231.000000	65.017342 
3230.000000	65.006017 
3229.000000	64.994502 
3228.000000	64.985537 
3227.000000	64.981079 
3226.000000	64.981985 
3225.000000	64.987707 
3224.000000	64.996385 
3223.000000	65.005803 
3222.000000	65.013813 
3221.000000	65.018820 
3220.000000	65.020203 
3219.000000	65.018367 
3218.000000	65.014338 
3217.000000	65.009164 
3216.000000	65.003561 
3215.000000	64.997696 
3214.000000	64.990735 
3213.000000	64.981365 
3212.000000	64.968085 
3211.000000	64.949917 
3210.000000	64.926767 
3209.000000	64.899659 
3208.000000	64.870882 
3207.000000	64.843320 
3206.000000	64.820361 
3205.000000	64.804983 
3204.000000	64.799332 
3203.000000	64.804053 
3202.000000	64.818406 
3201.000000	64.840459 
3200.000000	64.867329 
3199.000000	64.895606 
3198.000000	64.921998 
3197.000000	64.944076 
3196.000000	64.960217 
3195.000000	64.970064 
3194.000000	64.974260 
3193.000000	64.974164 
3192.000000	64.971613 
3191.000000	64.968276 
3190.000000	64.965605 
3189.000000	64.964413 
3188.000000	64.964962 
3187.000000	64.967203 
3186.000000	64.970898 
3185.000000	64.975786 
3184.000000	64.981913 
3183.000000	64.989209 
3182.000000	64.997363 
3181.000000	65.005803 
3180.000000	65.013432 
3179.000000	65.018725 
3178.000000	65.019726 
3177.000000	65.014624 
3176.000000	65.002179 
3175.000000	64.982128 
3174.000000	64.955353 
3173.000000	64.923882 
3172.000000	64.890480 
3171.000000	64.858293 
3170.000000	64.830112 
3169.000000	64.807844 
3168.000000	64.792418 
3167.000000	64.783978 
3166.000000	64.782071 
3165.000000	64.785790 
3164.000000	64.794325 
3163.000000	64.806795 
3162.000000	64.822840 
3161.000000	64.841818 
3160.000000	64.863300 
3159.000000	64.886403 
3158.000000	64.910387 
3157.000000	64.934301 
3156.000000	64.957118 
3155.000000	64.977979 
3154.000000	64.995813 
3153.000000	65.009975 
3152.000000	65.019559 
3151.000000	65.023541 
3150.000000	65.020990 
3149.000000	65.011262 
3148.000000	64.994406 
3147.000000	64.971232 
3146.000000	64.943456 
3145.000000	64.913511 
3144.000000	64.883899 
3143.000000	64.856600 
3142.000000	64.832592 
3141.000000	64.812040 
3140.000000	64.794158 
3139.000000	64.777851 
3138.000000	64.762234 
3137.000000	64.747047 
3136.000000	64.732742 
3135.000000	64.720559 
3134.000000	64.711785 
3133.000000	64.707779 
3132.000000	64.709329 
3131.000000	64.716696 
3130.000000	64.729189 
3129.000000	64.745831 
3128.000000	64.765238 
3127.000000	64.786100 
3126.000000	64.807176 
3125.000000	64.827489 
3124.000000	64.846348 
3123.000000	64.863276 
3122.000000	64.877891 
3121.000000	64.890146 
3120.000000	64.900207 
3119.000000	64.908623 
3118.000000	64.916372 
3117.000000	64.924740 
3116.000000	64.934778 
3115.000000	64.947271 
3114.000000	64.962267 
3113.000000	64.978790 
3112.000000	64.994883 
3111.000000	65.008187 
3110.000000	65.016293 
3109.000000	65.017724 
3108.000000	65.012240 
3107.000000	65.001106 
3106.000000	64.986824 
3105.000000	64.972734 
3104.000000	64.962053 
3103.000000	64.957046 
3102.000000	64.958763 
3101.000000	64.966845 
3100.000000	64.979648 
3099.000000	64.994955 
3098.000000	65.010213 
3097.000000	65.023303 
3096.000000	65.032625 
3095.000000	65.037417 
3094.000000	65.037798 
3093.000000	65.034604 
3092.000000	65.029096 
3091.000000	65.022659 
3090.000000	65.016841 
3089.000000	65.012860 
3088.000000	65.011668 
3087.000000	65.013384 
3086.000000	65.017509 
3085.000000	65.022778 
3084.000000	65.027379 
3083.000000	65.029287 
3082.000000	65.026736 
3081.000000	65.018630 
3080.000000	65.004873 
3079.000000	64.986348 
3078.000000	64.964795 
3077.000000	64.942812 
3076.000000	64.923048 
3075.000000	64.907979 
3074.000000	64.899396 
3073.000000	64.898419 
3072.000000	64.905428 
3071.000000	64.919829 
3070.000000	64.940214 
3069.000000	64.964461 
3068.000000	64.989876 
3067.000000	65.013313 
3066.000000	65.031623 
3065.000000	65.041780 
3064.000000	65.041565 
3063.000000	65.030074 
3062.000000	65.007948 
3061.000000	64.977693 
3060.000000	64.943027 
3059.000000	64.908576 
3058.000000	64.878821 
3057.000000	64.857292 
3056.000000	64.845967 
3055.000000	64.844894 
3054.000000	64.852476 
3053.000000	64.865946 
3052.000000	64.882254 
3051.000000	64.898705 
3050.000000	64.913892 
3049.000000	64.927458 
3048.000000	64.940428 
3047.000000	64.954280 
3046.000000	64.970397 
3045.000000	64.989352 
3044.000000	65.010428 
3043.000000	65.031504 
3042.000000	65.049695 
3041.000000	65.061926 
3040.000000	65.065956 
3039.000000	65.060758 
3038.000000	65.047240 
3037.000000	65.027880 
3036.000000	65.006256 
3035.000000	64.986133 
3034.000000	64.970445 
3033.000000	64.960718 
3032.000000	64.956760 
3031.000000	64.957022 
3030.000000	64.958834 
3029.000000	64.959859 
3028.000000	64.958429 
3027.000000	64.954376 
3026.000000	64.948892 
3025.000000	64.944243 
3024.000000	64.942908 
3023.000000	64.946722 
3022.000000	64.956092 
3021.000000	64.969921 
3020.000000	64.985918 
3019.000000	65.001082 
3018.000000	65.012478 
3017.000000	65.018248 
3016.000000	65.018153 
3015.000000	65.013599 
3014.000000	65.007257 
3013.000000	65.002274 
3012.000000	65.001511 
3011.000000	65.006780 
3010.000000	65.018296 
3009.000000	65.034842 
3008.000000	65.054082 
3007.000000	65.073108 
3006.000000	65.088963 
3005.000000	65.099239 
3004.000000	65.102529 
3003.000000	65.098428 
3002.000000	65.087819 
3001.000000	65.072298 
3000.000000	65.054130 
2999.000000	65.035796 
2998.000000	65.019512 
2997.000000	65.006947 
2996.000000	64.998674 
2995.000000	64.994382 
2994.000000	64.992904 
2993.000000	64.992260 
2992.000000	64.990687 
2991.000000	64.986681 
2990.000000	64.979696 
2989.000000	64.970374 
2988.000000	64.960169 
2987.000000	64.951109 
2986.000000	64.944934 
2985.000000	64.942574 
2984.000000	64.943790 
2983.000000	64.947128 
2982.000000	64.950466 
2981.000000	64.951395 
2980.000000	64.948296 
2979.000000	64.940547 
2978.000000	64.928555 
2977.000000	64.913582 
2976.000000	64.897227 
2975.000000	64.880824 
2974.000000	64.865112 
2973.000000	64.850258 
2972.000000	64.835786 
2971.000000	64.821290 
2970.000000	64.806938 
2969.000000	64.793610 
2968.000000	64.782953 
2967.000000	64.776849 
2966.000000	64.776563 
2965.000000	64.782476 
2964.000000	64.793539 
2963.000000	64.807534 
2962.000000	64.821481 
2961.000000	64.832615 
2960.000000	64.839005 
2959.000000	64.840030 
2958.000000	64.836573 
2957.000000	64.830541 
2956.000000	64.824318 
2955.000000	64.820170 
2954.000000	64.819622 
2953.000000	64.823126 
2952.000000	64.830017 
2951.000000	64.838886 
2950.000000	64.847803 
2949.000000	64.854955 
2948.000000	64.858722 
2947.000000	64.858031 
2946.000000	64.852261 
2945.000000	64.841341 
2944.000000	64.825630 
2943.000000	64.805841 
2942.000000	64.783000 
2941.000000	64.758753 
2940.000000	64.734888 
2939.000000	64.713382 
2938.000000	64.695858 
2937.000000	64.683532 
2936.000000	64.676880 
2935.000000	64.675545 
2934.000000	64.678263 
2933.000000	64.683318 
2932.000000	64.688682 
2931.000000	64.692401 
2930.000000	64.692950 
2929.000000	64.689469 
2928.000000	64.682054 
2927.000000	64.671754 
2926.000000	64.660167 
2925.000000	64.649271 
2924.000000	64.640760 
2923.000000	64.635992 
2922.000000	64.635610 
2921.000000	64.639782 
2920.000000	64.648175 
2919.000000	64.660263 
2918.000000	64.675283 
2917.000000	64.692664 
2916.000000	64.711713 
2915.000000	64.731740 
2914.000000	64.751887 
2913.000000	64.771032 
2912.000000	64.788007 
2911.000000	64.801788 
2910.000000	64.811682 
2909.000000	64.817619 
2908.000000	64.819955 
2907.000000	64.819812 
2906.000000	64.818668 
2905.000000	64.817857 
2904.000000	64.818286 
2903.000000	64.820289 
2902.000000	64.823865 
2901.000000	64.828968 
2900.000000	64.835572 
2899.000000	64.844179 
2898.000000	64.855384 
2897.000000	64.869713 
2896.000000	64.886856 
2895.000000	64.905810 
2894.000000	64.924478 
2893.000000	64.939975 
2892.000000	64.949154 
2891.000000	64.949560 
2890.000000	64.939856 
2889.000000	64.920425 
2888.000000	64.893007 
2887.000000	64.860749 
2886.000000	64.827346 
2885.000000	64.796400 
2884.000000	64.770770 
2883.000000	64.752125 
2882.000000	64.741182 
2881.000000	64.737963 
2880.000000	64.741969 
2879.000000	64.752364 
2878.000000	64.767956 
2877.000000	64.787292 
2876.000000	64.808464 
2875.000000	64.829421 
2874.000000	64.848160 
2873.000000	64.863419 
2872.000000	64.874839 
2871.000000	64.883112 
2870.000000	64.889883 
2869.000000	64.897084 
2868.000000	64.906382 
2867.000000	64.918398 
2866.000000	64.932537 
2865.000000	64.946794 
2864.000000	64.958500 
2863.000000	64.964818 
2862.000000	64.963936 
2861.000000	64.955210 
2860.000000	64.940047 
2859.000000	64.920735 
2858.000000	64.900231 
2857.000000	64.881014 
2856.000000	64.864754 
2855.000000	64.851951 
2854.000000	64.841961 
2853.000000	64.833760 
2852.000000	64.826560 
2851.000000	64.820098 
2850.000000	64.814591 
2849.000000	64.810681 
2848.000000	64.809179 
2847.000000	64.810681 
2846.000000	64.815568 
2845.000000	64.823555 
2844.000000	64.833807 
2843.000000	64.845299 
2842.000000	64.856863 
2841.000000	64.867424 
2840.000000	64.876174 
2839.000000	64.882659 
2838.000000	64.886665 
2837.000000	64.888358 
2836.000000	64.888310 
2835.000000	64.887213 
2834.000000	64.886188 
2833.000000	64.886474 
2832.000000	64.889502 
2831.000000	64.896607 
2830.000000	64.908742 
2829.000000	64.926171 
2828.000000	64.948415 
2827.000000	64.974141 
2826.000000	65.001201 
2825.000000	65.027070 
2824.000000	65.048742 
2823.000000	65.063381 
2822.000000	65.068769 
2821.000000	65.063881 
2820.000000	65.049099 
2819.000000	65.026473 
2818.000000	64.999556 
2817.000000	64.972710 
2816.000000	64.950704 
2815.000000	64.937496 
2814.000000	64.935731 
2813.000000	64.946007 
2812.000000	64.967107 
2811.000000	64.995932 
2810.000000	65.028476 
2809.000000	65.060329 
2808.000000	65.087461 
2807.000000	65.107035 
2806.000000	65.117526 
2805.000000	65.118813 
2804.000000	65.111875 
2803.000000	65.098500 
2802.000000	65.080690 
2801.000000	65.060353 
2800.000000	65.039134 
2799.000000	65.018343 
2798.000000	64.999103 
2797.000000	64.982342 
2796.000000	64.969086 
2795.000000	64.960026 
2794.000000	64.955496 
2793.000000	64.955377 
2792.000000	64.958953 
2791.000000	64.964723 
2790.000000	64.970779 
2789.000000	64.974856 
2788.000000	64.975309 
2787.000000	64.971256 
2786.000000	64.963078 
2785.000000	64.952373 
2784.000000	64.942073 
2783.000000	64.935493 
2782.000000	64.935779 
2781.000000	64.944887 
2780.000000	64.963245 
2779.000000	64.989376 
2778.000000	65.020298 
2777.000000	65.052294 
2776.000000	65.081644 
2775.000000	65.105199 
2774.000000	65.121102 
2773.000000	65.128874 
2772.000000	65.129184 
2771.000000	65.123486 
2770.000000	65.113401 
2769.000000	65.100455 
2768.000000	65.085768 
2767.000000	65.070104 
2766.000000	65.054106 
2765.000000	65.038323 
2764.000000	65.023422 
2763.000000	65.010309 
2762.000000	64.999771 
2761.000000	64.992427 
2760.000000	64.988350 
2759.000000	64.987182 
2758.000000	64.987993 
2757.000000	64.989829 
2756.000000	64.991593 
2755.000000	64.992690 
2754.000000	64.992856 
2753.000000	64.992237 
2752.000000	64.991283 
2751.000000	64.990472 
2750.000000	64.990186 
2749.000000	64.990520 
2748.000000	64.991235 
2747.000000	64.991879 
2746.000000	64.991807 
2745.000000	64.990544 
2744.000000	64.987754 
2743.000000	64.983439 
2742.000000	64.977908 
2741.000000	64.971613 
2740.000000	64.965200 
2739.000000	64.959144 
2738.000000	64.953970 
2737.000000	64.950037 
2736.000000	64.947581 
2735.000000	64.946770 
2734.000000	64.947676 
2733.000000	64.950275 
2732.000000	64.954447 
2731.000000	64.959979 
2730.000000	64.966392 
2729.000000	64.972996 
2728.000000	64.978957 
2727.000000	64.983248 
2726.000000	64.984989 
2725.000000	64.983320 
2724.000000	64.978241 
2723.000000	64.970159 
2722.000000	64.960551 
2721.000000	64.951229 
2720.000000	64.944410 
2719.000000	64.941954 
2718.000000	64.945077 
2717.000000	64.953899 
2716.000000	64.967346 
2715.000000	64.983272 
2714.000000	64.999032 
2713.000000	65.011978 
2712.000000	65.020060 
2711.000000	65.022420 
2710.000000	65.019488 
2709.000000	65.013003 
2708.000000	65.005421 
2707.000000	64.999580 
2706.000000	64.997744 
2705.000000	65.001249 
2704.000000	65.010190 
2703.000000	65.023493 
2702.000000	65.039157 
2701.000000	65.054631 
2700.000000	65.067601 
2699.000000	65.076327 
2698.000000	65.079927 
2697.000000	65.078496 
2696.000000	65.072894 
2695.000000	65.064477 
2694.000000	65.054821 
2693.000000	65.045404 
2692.000000	65.037488 
2691.000000	65.031957 
2690.000000	65.029335 
2689.000000	65.029692 
2688.000000	65.032839 
2687.000000	65.038418 
2686.000000	65.045738 
2685.000000	65.054106 
2684.000000	65.062594 
2683.000000	65.070343 
2682.000000	65.076231 
2681.000000	65.079259 
2680.000000	65.078473 
2679.000000	65.073037 
2678.000000	65.062379 
2677.000000	65.046477 
2676.000000	65.025997 
2675.000000	65.002441 
2674.000000	64.977931 
2673.000000	64.955019 
2672.000000	64.936256 
2671.000000	64.923930 
2670.000000	64.919233 
2669.000000	64.922142 
2668.000000	64.931297 
2667.000000	64.944195 
2666.000000	64.957833 
2665.000000	64.969158 
2664.000000	64.976024 
2663.000000	64.977526 
2662.000000	64.974117 
2661.000000	64.967417 
2660.000000	64.959740 
2659.000000	64.953446 
2658.000000	64.950346 
2657.000000	64.951181 
2656.000000	64.955759 
2655.000000	64.962720 
2654.000000	64.970397 
2653.000000	64.977049 
2652.000000	64.981341 
2651.000000	64.982771 
2650.000000	64.981675 
2649.000000	64.979171 
2648.000000	64.976549 
2647.000000	64.975261 
2646.000000	64.976286 
2645.000000	64.980125 
2644.000000	64.986610 
2643.000000	64.995026 
2642.000000	65.004348 
2641.000000	65.013504 
2640.000000	65.021681 
2639.000000	65.028429 
2638.000000	65.033626 
2637.000000	65.037608 
2636.000000	65.040922 
2635.000000	65.044093 
2634.000000	65.047383 
2633.000000	65.050768 
2632.000000	65.054059 
2631.000000	65.056633 
2630.000000	65.057778 
2629.000000	65.056920 
2628.000000	65.053677 
2627.000000	65.047812 
2626.000000	65.039181 
2625.000000	65.027928 
2624.000000	65.014290 
2623.000000	64.998507 
2622.000000	64.980816 
2621.000000	64.961433 
2620.000000	64.940643 
2619.000000	64.919018 
2618.000000	64.897394 
2617.000000	64.876580 
2616.000000	64.857769 
2615.000000	64.842057 
2614.000000	64.830684 
2613.000000	64.824390 
2612.000000	64.823985 
2611.000000	64.829659 
2610.000000	64.841508 
2609.000000	64.859056 
2608.000000	64.881706 
2607.000000	64.908480 
2606.000000	64.938163 
2605.000000	64.969348 
2604.000000	65.000510 
2603.000000	65.030169 
2602.000000	65.057110 
2601.000000	65.080380 
2600.000000	65.099382 
2599.000000	65.113639 
2598.000000	65.123152 
2597.000000	65.127754 
2596.000000	65.127205 
2595.000000	65.120720 
2594.000000	65.107941 
2593.000000	65.088343 
2592.000000	65.061974 
2591.000000	65.029764 
2590.000000	64.993739 
2589.000000	64.956903 
2588.000000	64.922642 
2587.000000	64.894485 
2586.000000	64.875292 
2585.000000	64.866852 
2584.000000	64.869189 
2583.000000	64.880895 
2582.000000	64.899230 
2581.000000	64.920949 
2580.000000	64.942955 
2579.000000	64.962744 
2578.000000	64.978790 
2577.000000	64.990711 
2576.000000	64.999222 
2575.000000	65.005302 
2574.000000	65.010142 
2573.000000	65.015101 
2572.000000	65.021276 
2571.000000	65.029311 
2570.000000	65.039539 
2569.000000	65.051913 
2568.000000	65.066170 
2567.000000	65.081644 
2566.000000	65.097475 
2565.000000	65.112638 
2564.000000	65.126132 
2563.000000	65.137290 
2562.000000	65.145707 
2561.000000	65.151429 
2560.000000	65.154790 
2559.000000	65.156507 
2558.000000	65.157151 
2557.000000	65.157127 
2556.000000	65.156245 
2555.000000	65.153956 
2554.000000	65.149402 
2553.000000	65.141367 
2552.000000	65.128850 
2551.000000	65.111279 
2550.000000	65.088891 
2549.000000	65.062737 
2548.000000	65.034317 
2547.000000	65.005564 
2546.000000	64.978361 
2545.000000	64.954280 
2544.000000	64.934301 
2543.000000	64.918851 
2542.000000	64.908027 
2541.000000	64.901828 
2540.000000	64.900183 
2539.000000	64.903187 
2538.000000	64.910793 
2537.000000	64.922785 
2536.000000	64.938426 
2535.000000	64.956593 
2534.000000	64.975619 
2533.000000	64.993739 
2532.000000	65.009140 
2531.000000	65.020465 
2530.000000	65.026736 
2529.000000	65.027737 
2528.000000	65.023827 
2527.000000	65.015959 
2526.000000	65.005517 
2525.000000	64.993929 
2524.000000	64.982700 
2523.000000	64.973020 
2522.000000	64.965605 
2521.000000	64.960861 
2520.000000	64.958834 
2519.000000	64.959359 
2518.000000	64.962029 
2517.000000	64.966535 
2516.000000	64.972686 
2515.000000	64.980101 
2514.000000	64.988517 
2513.000000	64.997553 
2512.000000	65.006947 
2511.000000	65.016460 
2510.000000	65.025949 
2509.000000	65.035343 
2508.000000	65.044641 
2507.000000	65.053963 
2506.000000	65.063214 
2505.000000	65.072250 
2504.000000	65.080595 
2503.000000	65.087628 
2502.000000	65.092635 
2501.000000	65.095043 
2500.000000	65.094614 
2499.000000	65.091657 
2498.000000	65.087127 
2497.000000	65.082430 
2496.000000	65.078973 
2495.000000	65.077877 
2494.000000	65.079617 
2493.000000	65.084075 
2492.000000	65.090394 
2491.000000	65.097188 
2490.000000	65.102815 
2489.000000	65.105938 
2488.000000	65.105724 
2487.000000	65.101981 
2486.000000	65.094995 
2485.000000	65.085721 
2484.000000	65.075302 
2483.000000	65.065121 
2482.000000	65.056276 
2481.000000	65.049767 
2480.000000	65.046215 
2479.000000	65.046072 
2478.000000	65.049314 
2477.000000	65.055775 
2476.000000	65.064954 
2475.000000	65.076160 
2474.000000	65.088534 
2473.000000	65.101361 
2472.000000	65.113997 
2471.000000	65.126085 
2470.000000	65.137577 
2469.000000	65.148520 
2468.000000	65.159177 
2467.000000	65.169501 
2466.000000	65.179252 
2465.000000	65.187931 
2464.000000	65.194559 
2463.000000	65.198206 
2462.000000	65.197849 
2461.000000	65.192818 
2460.000000	65.182948 
2459.000000	65.168619 
2458.000000	65.150952 
2457.000000	65.131783 
2456.000000	65.113401 
2455.000000	65.098142 
2454.000000	65.087985 
2453.000000	65.084314 
2452.000000	65.087318 
2451.000000	65.096116 
2450.000000	65.108823 
2449.000000	65.122795 
2448.000000	65.135240 
2447.000000	65.143728 
2446.000000	65.146732 
2445.000000	65.143990 
2444.000000	65.136456 
2443.000000	65.125966 
2442.000000	65.114998 
2441.000000	65.105962 
2440.000000	65.100550 
2439.000000	65.099453 
2438.000000	65.102267 
2437.000000	65.107846 
2436.000000	65.114331 
2435.000000	65.119981 
2434.000000	65.123438 
2433.000000	65.124106 
2432.000000	65.122270 
2431.000000	65.118837 
2430.000000	65.115308 
2429.000000	65.113210 
2428.000000	65.113711 
2427.000000	65.117239 
2426.000000	65.123391 
2425.000000	65.130996 
2424.000000	65.138506 
2423.000000	65.144515 
2422.000000	65.147876 
2421.000000	65.148067 
2420.000000	65.145349 
2419.000000	65.140223 
2418.000000	65.133261 
2417.000000	65.124750 
2416.000000	65.114426 
2415.000000	65.101766 
2414.000000	65.086293 
2413.000000	65.067744 
2412.000000	65.046572 
2411.000000	65.023994 
2410.000000	65.002059 
2409.000000	64.983034 
2408.000000	64.969015 
2407.000000	64.961099 
2406.000000	64.959430 
2405.000000	64.962720 
2404.000000	64.968991 
2403.000000	64.975929 
2402.000000	64.981675 
2401.000000	64.985156 
2400.000000	64.986467 
2399.000000	64.986419 
2398.000000	64.986491 
2397.000000	64.987969 
2396.000000	64.991927 
2395.000000	64.998960 
2394.000000	65.008854 
2393.000000	65.020990 
2392.000000	65.034174 
2391.000000	65.047144 
2390.000000	65.058255 
2389.000000	65.065908 
2388.000000	65.068531 
2387.000000	65.064811 
2386.000000	65.053963 
2385.000000	65.036058 
2384.000000	65.012216 
2383.000000	64.984798 
2382.000000	64.957118 
2381.000000	64.933085 
2380.000000	64.916253 
2379.000000	64.909315 
2378.000000	64.913487 
2377.000000	64.928245 
2376.000000	64.951372 
2375.000000	64.979434 
2374.000000	65.008544 
2373.000000	65.035057 
2372.000000	65.055990 
2371.000000	65.069508 
2370.000000	65.075039 
2369.000000	65.072989 
2368.000000	65.064334 
2367.000000	65.050649 
2366.000000	65.033531 
2365.000000	65.014529 
2364.000000	64.995074 
2363.000000	64.976334 
2362.000000	64.959454 
2361.000000	64.945006 
2360.000000	64.933371 
2359.000000	64.924311 
2358.000000	64.917373 
2357.000000	64.911866 
2356.000000	64.907360 
2355.000000	64.903545 
2354.000000	64.900708 
2353.000000	64.899539 
2352.000000	64.900970 
2351.000000	64.905714 
2350.000000	64.914417 
2349.000000	64.926838 
2348.000000	64.942455 
2347.000000	64.960074 
2346.000000	64.978623 
2345.000000	64.996957 
2344.000000	65.014696 
2343.000000	65.031909 
2342.000000	65.049147 
2341.000000	65.067219 
2340.000000	65.086770 
2339.000000	65.107703 
2338.000000	65.129399 
2337.000000	65.150308 
2336.000000	65.168619 
2335.000000	65.182590 
2334.000000	65.190577 
2333.000000	65.191650 
2332.000000	65.185785 
2331.000000	65.173935 
2330.000000	65.157675 
2329.000000	65.138936 
2328.000000	65.119767 
2327.000000	65.101838 
2326.000000	65.086388 
2325.000000	65.073752 
2324.000000	65.063858 
2323.000000	65.056061 
2322.000000	65.049767 
2321.000000	65.044379 
2320.000000	65.039706 
2319.000000	65.035796 
2318.000000	65.033006 
2317.000000	65.031886 
2316.000000	65.032696 
2315.000000	65.035462 
2314.000000	65.039992 
2313.000000	65.045714 
2312.000000	65.051817 
2311.000000	65.057802 
2310.000000	65.063524 
2309.000000	65.069341 
2308.000000	65.075874 
2307.000000	65.083956 
2306.000000	65.094256 
2305.000000	65.106987 
2304.000000	65.121626 
2303.000000	65.136837 
2302.000000	65.150880 
2301.000000	65.161919 
2300.000000	65.168523 
2299.000000	65.169954 
2298.000000	65.166282 
2297.000000	65.158557 
2296.000000	65.148520 
2295.000000	65.138030 
2294.000000	65.128779 
2293.000000	65.121889 
2292.000000	65.117597 
2291.000000	65.115404 
2290.000000	65.114212 
2289.000000	65.112781 
2288.000000	65.109992 
2287.000000	65.105152 
2286.000000	65.098142 
2285.000000	65.089297 
2284.000000	65.079045 
2283.000000	65.067744 
2282.000000	65.055656 
2281.000000	65.042734 
2280.000000	65.029025 
2279.000000	65.014958 
2278.000000	65.001344 
2277.000000	64.989662 
2276.000000	64.982008 
2275.000000	64.980506 
2274.000000	64.986705 
2273.000000	65.001058 
2272.000000	65.022540 
2271.000000	65.048646 
2270.000000	65.075588 
2269.000000	65.099239 
2268.000000	65.116000 
2267.000000	65.123772 
2266.000000	65.122175 
2265.000000	65.112948 
2264.000000	65.099239 
2263.000000	65.085101 
2262.000000	65.074324 
2261.000000	65.069651 
2260.000000	65.072393 
2259.000000	65.082025 
2258.000000	65.096926 
2257.000000	65.114474 
2256.000000	65.132045 
2255.000000	65.147161 
2254.000000	65.158152 
2253.000000	65.163922 
2252.000000	65.164017 
2251.000000	65.158462 
2250.000000	65.147733 
2249.000000	65.132641 
2248.000000	65.114450 
2247.000000	65.094995 
2246.000000	65.076279 
2245.000000	65.060162 
2244.000000	65.048098 
2243.000000	65.040731 
2242.000000	65.037631 
2241.000000	65.037393 
2240.000000	65.038132 
2239.000000	65.037584 
2238.000000	65.034294 
2237.000000	65.027618 
2236.000000	65.018057 
2235.000000	65.007162 
2234.000000	64.996862 
2233.000000	64.989018 
2232.000000	64.984893 
2231.000000	64.984536 
2230.000000	64.987063 
2229.000000	64.990758 
2228.000000	64.993715 
2227.000000	64.994311 
2226.000000	64.991712 
2225.000000	64.986157 
2224.000000	64.978575 
2223.000000	64.970517 
2222.000000	64.963722 
2221.000000	64.959764 
2220.000000	64.959549 
2219.000000	64.963269 
2218.000000	64.970254 
2217.000000	64.979243 
2216.000000	64.988780 
2215.000000	64.997434 
2214.000000	65.004229 
2213.000000	65.008807 
2212.000000	65.011525 
2211.000000	65.013217 
2210.000000	65.015077 
2209.000000	65.018177 
2208.000000	65.023350 
2207.000000	65.030646 
2206.000000	65.039300 
2205.000000	65.047931 
2204.000000	65.054821 
2203.000000	65.058255 
2202.000000	65.056991 
2201.000000	65.050578 
2200.000000	65.039443 
2199.000000	65.024781 
2198.000000	65.008330 
2197.000000	64.991927 
2196.000000	64.977216 
2195.000000	64.965677 
2194.000000	64.958357 
2193.000000	64.955925 
2192.000000	64.958477 
2191.000000	64.965319 
2190.000000	64.975190 
2189.000000	64.986181 
2188.000000	64.996027 
2187.000000	65.002608 
2186.000000	65.004491 
2185.000000	65.001010 
2184.000000	64.992856 
2183.000000	64.981818 
2182.000000	64.970541 
2181.000000	64.961886 
2180.000000	64.958548 
2179.000000	64.962291 
2178.000000	64.973521 
2177.000000	64.991283 
2176.000000	65.013384 
2175.000000	65.036773 
2174.000000	65.058088 
2173.000000	65.074372 
2172.000000	65.083217 
2171.000000	65.083408 
2170.000000	65.074777 
2169.000000	65.058493 
2168.000000	65.036463 
2167.000000	65.011072 
2166.000000	64.985251 
2165.000000	64.961624 
2164.000000	64.942526 
2163.000000	64.929366 
2162.000000	64.922881 
2161.000000	64.922809 
2160.000000	64.927911 
2159.000000	64.936470 
2158.000000	64.946293 
2157.000000	64.955449 
2156.000000	64.962410 
2155.000000	64.966416 
2154.000000	64.967465 
2153.000000	64.966225 
2152.000000	64.963698 
2151.000000	64.961028 
2150.000000	64.959096 
2149.000000	64.958429 
2148.000000	64.959311 
2147.000000	64.961600 
2146.000000	64.965128 
2145.000000	64.969611 
2144.000000	64.974665 
2143.000000	64.979720 
2142.000000	64.984107 
2141.000000	64.986968 
2140.000000	64.987564 
2139.000000	64.985108 
2138.000000	64.979362 
2137.000000	64.970588 
2136.000000	64.959788 
2135.000000	64.948558 
2134.000000	64.938950 
2133.000000	64.932680 
2132.000000	64.931106 
2131.000000	64.934730 
2130.000000	64.943242 
2129.000000	64.955544 
2128.000000	64.970207 
2127.000000	64.985609 
2126.000000	65.000224 
2125.000000	65.012812 
2124.000000	65.022468 
2123.000000	65.028619 
2122.000000	65.030908 
2121.000000	65.029311 
2120.000000	65.024089 
2119.000000	65.015697 
2118.000000	65.005040 
2117.000000	64.993357 
2116.000000	64.981961 
2115.000000	64.972114 
2114.000000	64.964818 
2113.000000	64.960646 
2112.000000	64.959669 
2111.000000	64.961481 
2110.000000	64.965415 
2109.000000	64.970803 
2108.000000	64.976978 
2107.000000	64.983439 
2106.000000	64.989542 
2105.000000	64.994764 
2104.000000	64.998245 
2103.000000	64.999222 
2102.000000	64.997076 
2101.000000	64.991569 
2100.000000	64.983105 
2099.000000	64.972710 
2098.000000	64.961957 
2097.000000	64.952516 
2096.000000	64.945864 
2095.000000	64.942908 
2094.000000	64.943695 
2093.000000	64.947295 
2092.000000	64.952135 
2091.000000	64.956355 
2090.000000	64.958477 
2089.000000	64.957618 
2088.000000	64.954066 
2087.000000	64.948678 
2086.000000	64.943075 
2085.000000	64.938831 
2084.000000	64.937424 
2083.000000	64.939618 
2082.000000	64.945459 
2081.000000	64.954447 
2080.000000	64.965248 
2079.000000	64.976453 
2078.000000	64.986395 
2077.000000	64.993643 
2076.000000	64.997172 
2075.000000	64.996576 
2074.000000	64.992046 
2073.000000	64.984393 
2072.000000	64.974761 
2071.000000	64.964556 
2070.000000	64.954853 
2069.000000	64.946603 
2068.000000	64.940142 
2067.000000	64.935374 
2066.000000	64.931821 
2065.000000	64.928841 
2064.000000	64.926004 
2063.000000	64.923262 
2062.000000	64.920926 
2061.000000	64.919805 
2060.000000	64.920830 
2059.000000	64.924764 
2058.000000	64.931750 
2057.000000	64.941501 
2056.000000	64.953064 
2055.000000	64.965176 
2054.000000	64.976477 
2053.000000	64.986062 
2052.000000	64.993309 
2051.000000	64.998340 
2050.000000	65.001797 
2049.000000	65.004658 
2048.000000	65.007948 
2047.000000	65.012574 
2046.000000	65.019011 
2045.000000	65.027022 
2044.000000	65.035915 
2043.000000	65.044498 
2042.000000	65.051507 
2041.000000	65.055775 
2040.000000	65.056395 
2039.000000	65.052938 
2038.000000	65.045380 
2037.000000	65.034151 
2036.000000	65.020132 
2035.000000	65.004277 
2034.000000	64.987754 
2033.000000	64.971733 
2032.000000	64.957356 
2031.000000	64.945650 
2030.000000	64.937543 
2029.000000	64.933633 
2028.000000	64.934182 
2027.000000	64.939069 
2026.000000	64.947581 
2025.000000	64.958500 
2024.000000	64.970350 
2023.000000	64.981269 
2022.000000	64.989852 
2021.000000	64.995169 
2020.000000	64.997005 
2019.000000	64.996004 
2018.000000	64.993453 
2017.000000	64.990949 
2016.000000	64.990067 
2015.000000	64.991879 
2014.000000	64.996671 
2013.000000	65.003800 
2012.000000	65.011930 
2011.000000	65.019273 
2010.000000	65.024161 
2009.000000	65.025234 
2008.000000	65.021991 
2007.000000	65.014863 
2006.000000	65.004897 
2005.000000	64.993739 
2004.000000	64.983296 
2003.000000	64.975261 
2002.000000	64.970684 
2001.000000	64.970016 
2000.000000	64.973139 
1999.000000	64.979290 
1998.000000	64.987373 
1997.000000	64.996099 
1996.000000	65.004253 
1995.000000	65.010881 
1994.000000	65.015530 
1993.000000	65.018248 
1992.000000	65.019369 
1991.000000	65.019607 
1990.000000	65.019917 
1989.000000	65.021085 
1988.000000	65.023779 
1987.000000	65.028238 
1986.000000	65.034317 
1985.000000	65.041565 
1984.000000	65.049219 
1983.000000	65.056371 
1982.000000	65.062117 
1981.000000	65.065741 
1980.000000	65.067148 
1979.000000	65.066695 
1978.000000	65.065431 
1977.000000	65.064692 
1976.000000	65.065670 
1975.000000	65.069174 
1974.000000	65.074968 
1973.000000	65.082120 
1972.000000	65.088725 
1971.000000	65.092611 
1970.000000	65.091586 
1969.000000	65.084218 
1968.000000	65.070128 
1967.000000	65.050172 
1966.000000	65.026307 
1965.000000	65.001106 
1964.000000	64.977550 
1963.000000	64.958333 
1962.000000	64.945721 
1961.000000	64.941143 
1960.000000	64.945054 
1959.000000	64.956974 
1958.000000	64.975643 
1957.000000	64.999079 
1956.000000	65.024924 
1955.000000	65.050530 
1954.000000	65.073347 
1953.000000	65.091204 
1952.000000	65.102577 
1951.000000	65.106987 
1950.000000	65.104937 
1949.000000	65.097904 
1948.000000	65.088009 
1947.000000	65.077519 
1946.000000	65.068578 
1945.000000	65.062427 
1944.000000	65.059518 
1943.000000	65.059256 
1942.000000	65.060424 
1941.000000	65.061545 
1940.000000	65.061044 
1939.000000	65.058159 
1938.000000	65.052747 
1937.000000	65.045714 
1936.000000	65.038561 
1935.000000	65.033197 
1934.000000	65.031075 
1933.000000	65.033030 
1932.000000	65.038633 
1931.000000	65.046548 
1930.000000	65.054655 
1929.000000	65.060615 
1928.000000	65.062618 
1927.000000	65.059709 
1926.000000	65.052127 
1925.000000	65.041232 
1924.000000	65.029335 
1923.000000	65.018630 
1922.000000	65.011215 
1921.000000	65.008473 
1920.000000	65.010833 
1919.000000	65.017962 
1918.000000	65.028953 
1917.000000	65.042734 
1916.000000	65.058302 
1915.000000	65.074944 
1914.000000	65.091943 
1913.000000	65.108633 
1912.000000	65.124082 
1911.000000	65.136861 
1910.000000	65.145492 
1909.000000	65.148401 
1908.000000	65.144586 
1907.000000	65.133881 
1906.000000	65.117144 
1905.000000	65.096163 
1904.000000	65.073490 
1903.000000	65.051889 
1902.000000	65.033912 
1901.000000	65.021133 
1900.000000	65.014195 
1899.000000	65.012574 
1898.000000	65.014910 
1897.000000	65.019273 
1896.000000	65.023660 
1895.000000	65.026450 
1894.000000	65.026807 
1893.000000	65.024614 
1892.000000	65.020394 
1891.000000	65.015077 
1890.000000	65.009498 
1889.000000	65.004301 
1888.000000	64.999628 
1887.000000	64.995288 
1886.000000	64.990973 
1885.000000	64.986491 
1884.000000	64.981889 
1883.000000	64.977765 
1882.000000	64.975047 
1881.000000	64.974784 
1880.000000	64.977955 
1879.000000	64.985013 
1878.000000	64.995741 
1877.000000	65.009212 
1876.000000	65.023922 
1875.000000	65.038013 
1874.000000	65.049672 
1873.000000	65.057587 
1872.000000	65.061235 
1871.000000	65.060591 
1870.000000	65.056419 
1869.000000	65.049862 
1868.000000	65.042448 
1867.000000	65.035605 
1866.000000	65.030431 
1865.000000	65.027737 
1864.000000	65.027761 
1863.000000	65.030241 
1862.000000	65.034675 
1861.000000	65.039992 
1860.000000	65.045166 
1859.000000	65.049314 
1858.000000	65.051889 
1857.000000	65.052723 
1856.000000	65.052032 
1855.000000	65.050482 
1854.000000	65.048861 
1853.000000	65.047955 
1852.000000	65.048289 
1851.000000	65.050196 
1850.000000	65.053582 
1849.000000	65.058135 
1848.000000	65.063333 
1847.000000	65.068840 
1846.000000	65.074563 
1845.000000	65.080666 
1844.000000	65.087437 
1843.000000	65.095281 
1842.000000	65.104436 
1841.000000	65.114712 
1840.000000	65.125536 
1839.000000	65.135788 
1838.000000	65.144062 
1837.000000	65.148806 
1836.000000	65.148520 
1835.000000	65.142011 
1834.000000	65.128827 
1833.000000	65.109205 
1832.000000	65.084099 
1831.000000	65.055227 
1830.000000	65.024733 
1829.000000	64.995074 
1828.000000	64.968395 
1827.000000	64.946484 
1826.000000	64.930391 
1825.000000	64.920473 
1824.000000	64.916539 
1823.000000	64.917969 
1822.000000	64.923787 
1821.000000	64.933109 
1820.000000	64.945244 
1819.000000	64.959526 
1818.000000	64.975380 
1817.000000	64.992213 
1816.000000	65.009236 
1815.000000	65.025520 
1814.000000	65.039920 
1813.000000	65.051484 
1812.000000	65.059494 
1811.000000	65.063667 
1810.000000	65.064311 
1809.000000	65.062355 
1808.000000	65.058898 
1807.000000	65.055227 
1806.000000	65.052366 
1805.000000	65.051007 
1804.000000	65.051078 
1803.000000	65.052199 
1802.000000	65.053582 
1801.000000	65.054178 
1800.000000	65.053009 
1799.000000	65.049457 
1798.000000	65.043234 
1797.000000	65.034413 
1796.000000	65.023303 
1795.000000	65.010714 
1794.000000	64.997577 
1793.000000	64.984965 
1792.000000	64.973974 
1791.000000	64.965629 
1790.000000	64.960861 
1789.000000	64.960312 
1788.000000	64.964056 
1787.000000	64.971613 
1786.000000	64.981961 
1785.000000	64.993667 
1784.000000	65.004992 
1783.000000	65.014290 
1782.000000	65.020370 
1781.000000	65.022492 
1780.000000	65.020632 
1779.000000	65.015482 
1778.000000	65.008497 
1777.000000	65.001273 
1776.000000	64.995431 
1775.000000	64.992165 
1774.000000	64.992237 
1773.000000	64.995622 
1772.000000	65.001773 
1771.000000	65.009593 
1770.000000	65.017843 
1769.000000	65.025138 
1768.000000	65.030312 
1767.000000	65.032601 
1766.000000	65.031504 
1765.000000	65.026831 
1764.000000	65.018844 
1763.000000	65.008068 
1762.000000	64.995408 
1761.000000	64.982104 
1760.000000	64.969348 
1759.000000	64.958333 
1758.000000	64.949941 
1757.000000	64.944767 
1756.000000	64.942693 
1755.000000	64.943051 
1754.000000	64.944767 
1753.000000	64.946341 
1752.000000	64.946413 
1751.000000	64.943814 
1750.000000	64.937925 
1749.000000	64.928746 
1748.000000	64.916825 
1747.000000	64.903187 
1746.000000	64.889192 
1745.000000	64.876151 
1744.000000	64.864945 
1743.000000	64.855957 
1742.000000	64.848875 
1741.000000	64.843010 
1740.000000	64.837193 
1739.000000	64.830207 
1738.000000	64.821052 
1737.000000	64.809250 
1736.000000	64.794898 
1735.000000	64.778923 
1734.000000	64.762639 
1733.000000	64.747858 
1732.000000	64.736342 
1731.000000	64.729595 
1730.000000	64.728546 
1729.000000	64.733338 
1728.000000	64.743447 
1727.000000	64.757657 
1726.000000	64.774227 
1725.000000	64.791345 
1724.000000	64.807581 
1723.000000	64.821934 
1722.000000	64.834117 
1721.000000	64.844703 
1720.000000	64.854741 
1719.000000	64.865636 
1718.000000	64.878726 
1717.000000	64.894866 
1716.000000	64.914083 
1715.000000	64.935708 
1714.000000	64.958429 
1713.000000	64.980435 
1712.000000	64.999771 
1711.000000	65.014934 
1710.000000	65.024971 
1709.000000	65.029644 
1708.000000	65.029430 
1707.000000	65.025329 
1706.000000	65.018510 
1705.000000	65.010237 
1704.000000	65.001273 
1703.000000	64.992237 
1702.000000	64.983177 
1701.000000	64.973998 
1700.000000	64.964342 
1699.000000	64.953947 
1698.000000	64.942812 
1697.000000	64.931082 
1696.000000	64.919233 
1695.000000	64.907813 
1694.000000	64.897632 
1693.000000	64.889383 
1692.000000	64.883804 
1691.000000	64.881157 
1690.000000	64.881563 
1689.000000	64.884805 
1688.000000	64.890265 
1687.000000	64.897179 
1686.000000	64.904594 
1685.000000	64.911746 
1684.000000	64.917945 
1683.000000	64.922642 
1682.000000	64.925622 
1681.000000	64.926624 
1680.000000	64.925527 
1679.000000	64.922046 
1678.000000	64.916372 
1677.000000	64.908790 
1676.000000	64.899778 
1675.000000	64.890098 
1674.000000	64.880871 
1673.000000	64.873194 
1672.000000	64.868116 
1671.000000	64.866518 
1670.000000	64.868593 
1669.000000	64.874148 
1668.000000	64.882397 
1667.000000	64.892315 
1666.000000	64.902496 
1665.000000	64.911818 
1664.000000	64.919257 
1663.000000	64.924120 
1662.000000	64.926075 
1661.000000	64.925146 
1660.000000	64.921665 
1659.000000	64.916133 
1658.000000	64.909219 
1657.000000	64.901518 
1656.000000	64.893531 
1655.000000	64.885544 
1654.000000	64.877414 
1653.000000	64.868807 
1652.000000	64.859294 
1651.000000	64.848494 
1650.000000	64.836478 
1649.000000	64.823794 
1648.000000	64.811563 
1647.000000	64.801454 
1646.000000	64.795184 
1645.000000	64.794206 
1644.000000	64.799356 
1643.000000	64.810299 
1642.000000	64.825606 
1641.000000	64.842963 
1640.000000	64.859533 
1639.000000	64.872646 
1638.000000	64.880394 
1637.000000	64.881968 
1636.000000	64.878058 
1635.000000	64.870405 
1634.000000	64.861583 
1633.000000	64.854168 
1632.000000	64.850211 
1631.000000	64.850735 
1630.000000	64.855647 
1629.000000	64.863681 
1628.000000	64.872956 
1627.000000	64.881396 
1626.000000	64.887189 
1625.000000	64.889240 
1624.000000	64.887213 
1623.000000	64.881587 
1622.000000	64.873337 
1621.000000	64.863920 
1620.000000	64.854788 
1619.000000	64.847326 
1618.000000	64.842510 
1617.000000	64.841008 
1616.000000	64.842796 
1615.000000	64.847493 
1614.000000	64.854168 
1613.000000	64.861559 
1612.000000	64.868354 
1611.000000	64.873361 
1610.000000	64.875745 
1609.000000	64.875173 
1608.000000	64.872026 
1607.000000	64.867067 
1606.000000	64.861249 
1605.000000	64.855337 
1604.000000	64.849805 
1603.000000	64.844441 
1602.000000	64.838743 
1601.000000	64.831972 
1600.000000	64.823698 
1599.000000	64.814162 
1598.000000	64.804172 
1597.000000	64.795088 
1596.000000	64.788413 
1595.000000	64.785432 
1594.000000	64.786767 
1593.000000	64.792037 
1592.000000	64.799952 
1591.000000	64.808607 
1590.000000	64.815878 
1589.000000	64.819693 
1588.000000	64.818763 
1587.000000	64.812707 
1586.000000	64.802145 
1585.000000	64.788389 
1584.000000	64.773106 
1583.000000	64.758157 
1582.000000	64.745044 
1581.000000	64.734792 
1580.000000	64.727807 
1579.000000	64.723873 
1578.000000	64.722418 
1577.000000	64.722728 
1576.000000	64.724087 
1575.000000	64.725995 
1574.000000	64.728164 
1573.000000	64.730858 
1572.000000	64.734458 
1571.000000	64.739704 
1570.000000	64.747166 
1569.000000	64.757180 
1568.000000	64.769673 
1567.000000	64.784121 
1566.000000	64.799594 
1565.000000	64.814758 
1564.000000	64.828348 
1563.000000	64.839220 
1562.000000	64.846706 
1561.000000	64.850473 
1560.000000	64.850831 
1559.000000	64.848399 
1558.000000	64.844012 
1557.000000	64.838409 
1556.000000	64.832162 
1555.000000	64.825272 
1554.000000	64.817357 
1553.000000	64.807748 
1552.000000	64.795994 
1551.000000	64.781951 
1550.000000	64.766097 
1549.000000	64.749455 
1548.000000	64.733672 
1547.000000	64.720392 
1546.000000	64.711165 
1545.000000	64.706850 
1544.000000	64.707541 
1543.000000	64.712786 
1542.000000	64.721488 
1541.000000	64.732217 
1540.000000	64.743566 
1539.000000	64.754366 
1538.000000	64.763641 
1537.000000	64.770483 
1536.000000	64.774370 
1535.000000	64.774632 
1534.000000	64.771127 
1533.000000	64.763927 
1532.000000	64.753913 
1531.000000	64.742660 
1530.000000	64.732408 
1529.000000	64.725637 
1528.000000	64.724302 
1527.000000	64.729380 
1526.000000	64.740300 
1525.000000	64.755129 
1524.000000	64.770865 
1523.000000	64.784312 
1522.000000	64.792895 
1521.000000	64.795231 
1520.000000	64.791584 
1519.000000	64.783334 
1518.000000	64.772868 
1517.000000	64.762663 
1516.000000	64.754533 
1515.000000	64.749360 
1514.000000	64.747047 
1513.000000	64.746546 
1512.000000	64.746665 
1511.000000	64.746332 
1510.000000	64.744925 
1509.000000	64.742588 
1508.000000	64.739942 
1507.000000	64.737939 
1506.000000	64.737033 
1505.000000	64.737391 
1504.000000	64.738535 
1503.000000	64.739584 
1502.000000	64.739680 
1501.000000	64.738249 
1500.000000	64.735460 
1499.000000	64.732098 
1498.000000	64.729595 
1497.000000	64.729642 
1496.000000	64.733624 
1495.000000	64.742350 
1494.000000	64.755797 
1493.000000	64.773225 
1492.000000	64.793276 
1491.000000	64.814472 
1490.000000	64.835095 
1489.000000	64.853692 
1488.000000	64.868760 
1487.000000	64.878940 
1486.000000	64.883041 
1485.000000	64.879941 
1484.000000	64.868831 
1483.000000	64.849591 
1482.000000	64.822936 
1481.000000	64.790630 
1480.000000	64.755439 
1479.000000	64.720821 
1478.000000	64.690423 
1477.000000	64.667439 
1476.000000	64.653992 
1475.000000	64.650702 
1474.000000	64.656615 
1473.000000	64.669418 
1472.000000	64.685845 
1471.000000	64.702439 
1470.000000	64.716219 
1469.000000	64.725327 
1468.000000	64.729213 
1467.000000	64.728641 
1466.000000	64.725327 
1465.000000	64.721775 
1464.000000	64.720392 
1463.000000	64.722967 
1462.000000	64.730691 
1461.000000	64.743351 
1460.000000	64.760017 
1459.000000	64.778661 
1458.000000	64.796829 
1457.000000	64.811968 
1456.000000	64.821648 
1455.000000	64.824390 
1454.000000	64.819574 
1453.000000	64.807796 
1452.000000	64.790511 
1451.000000	64.769840 
1450.000000	64.748167 
1449.000000	64.727997 
1448.000000	64.711213 
1447.000000	64.699268 
1446.000000	64.692854 
1445.000000	64.692091 
1444.000000	64.696574 
1443.000000	64.705300 
1442.000000	64.716958 
1441.000000	64.729666 
1440.000000	64.741468 
1439.000000	64.750456 
1438.000000	64.755320 
1437.000000	64.755344 
1436.000000	64.750862 
1435.000000	64.743494 
1434.000000	64.735412 
1433.000000	64.729571 
1432.000000	64.727997 
1431.000000	64.732074 
1430.000000	64.741420 
1429.000000	64.754176 
1428.000000	64.766955 
1427.000000	64.775991 
1426.000000	64.777803 
1425.000000	64.770269 
1424.000000	64.753246 
1423.000000	64.728713 
1422.000000	64.700317 
1421.000000	64.672565 
1420.000000	64.649462 
1419.000000	64.633917 
1418.000000	64.626836 
1417.000000	64.627385 
1416.000000	64.633226 
1415.000000	64.641594 
1414.000000	64.650011 
1413.000000	64.657139 
1412.000000	64.663004 
1411.000000	64.668560 
1410.000000	64.675211 
1409.000000	64.684081 
1408.000000	64.695191 
1407.000000	64.707517 
1406.000000	64.718842 
1405.000000	64.726710 
1404.000000	64.728999 
1403.000000	64.724588 
1402.000000	64.714145 
1401.000000	64.699673 
1400.000000	64.684176 
1399.000000	64.670705 
1398.000000	64.661765 
1397.000000	64.658641 
1396.000000	64.661288 
1395.000000	64.668321 
1394.000000	64.677667 
1393.000000	64.687085 
1392.000000	64.694643 
1391.000000	64.699101 
1390.000000	64.700126 
1389.000000	64.698052 
1388.000000	64.693737 
1387.000000	64.688229 
1386.000000	64.682579 
1385.000000	64.677429 
1384.000000	64.673018 
1383.000000	64.669275 
1382.000000	64.665985 
1381.000000	64.662909 
1380.000000	64.660215 
1379.000000	64.658164 
1378.000000	64.657473 
1377.000000	64.659142 
1376.000000	64.663910 
1375.000000	64.672517 
1374.000000	64.684963 
1373.000000	64.700531 
1372.000000	64.717793 
1371.000000	64.734578 
1370.000000	64.748525 
1369.000000	64.757418 
1368.000000	64.759540 
1367.000000	64.754223 
1366.000000	64.741802 
1365.000000	64.723658 
1364.000000	64.701914 
1363.000000	64.679121 
1362.000000	64.657807 
1361.000000	64.640188 
1360.000000	64.627814 
1359.000000	64.621472 
1358.000000	64.621257 
1357.000000	64.626646 
1356.000000	64.636540 
1355.000000	64.649701 
1354.000000	64.664506 
1353.000000	64.679622 
1352.000000	64.693593 
1351.000000	64.705467 
1350.000000	64.714741 
1349.000000	64.721345 
1348.000000	64.725732 
1347.000000	64.728188 
1346.000000	64.729166 
1345.000000	64.728736 
1344.000000	64.726567 
1343.000000	64.722084 
1342.000000	64.714598 
1341.000000	64.703822 
1340.000000	64.689922 
1339.000000	64.673757 
1338.000000	64.656805 
1337.000000	64.640951 
1336.000000	64.628100 
1335.000000	64.619851 
1334.000000	64.617061 
1333.000000	64.619827 
1332.000000	64.627575 
1331.000000	64.639186 
1330.000000	64.653182 
1329.000000	64.668202 
1328.000000	64.682793 
1327.000000	64.695429 
1326.000000	64.704632 
1325.000000	64.708757 
1324.000000	64.706659 
1323.000000	64.697527 
1322.000000	64.681506 
1321.000000	64.659690 
1320.000000	64.634203 
1319.000000	64.607763 
1318.000000	64.583373 
1317.000000	64.563775 
1316.000000	64.551186 
1315.000000	64.546942 
1314.000000	64.551639 
1313.000000	64.565038 
1312.000000	64.586281 
1311.000000	64.613938 
1310.000000	64.646244 
1309.000000	64.681148 
1308.000000	64.716482 
1307.000000	64.750051 
1306.000000	64.779734 
1305.000000	64.803767 
1304.000000	64.820933 
1303.000000	64.830541 
1302.000000	64.832949 
1301.000000	64.829087 
1300.000000	64.820551 
1299.000000	64.809012 
1298.000000	64.796328 
1297.000000	64.783668 
1296.000000	64.771938 
1295.000000	64.761424 
1294.000000	64.752054 
1293.000000	64.743590 
1292.000000	64.735794 
1291.000000	64.728689 
1290.000000	64.722514 
1289.000000	64.717698 
1288.000000	64.714813 
1287.000000	64.714193 
1286.000000	64.715909 
1285.000000	64.719462 
1284.000000	64.723801 
1283.000000	64.727568 
1282.000000	64.729285 
1281.000000	64.727997 
1280.000000	64.723539 
1279.000000	64.716506 
1278.000000	64.708113 
1277.000000	64.700078 
1276.000000	64.694285 
1275.000000	64.691972 
1274.000000	64.693593 
1273.000000	64.698815 
1272.000000	64.706611 
1271.000000	64.715576 
1270.000000	64.724183 
1269.000000	64.731144 
1268.000000	64.735698 
1267.000000	64.737772 
1266.000000	64.737749 
1265.000000	64.736127 
1264.000000	64.733719 
1263.000000	64.731121 
1262.000000	64.728832 
1261.000000	64.727067 
1260.000000	64.725780 
1259.000000	64.724826 
1258.000000	64.723563 
1257.000000	64.721179 
1256.000000	64.716601 
1255.000000	64.708805 
1254.000000	64.697003 
1253.000000	64.681053 
1252.000000	64.661550 
1251.000000	64.639925 
1250.000000	64.618110 
1249.000000	64.598464 
1248.000000	64.582920 
1247.000000	64.573073 
1246.000000	64.569711 
1245.000000	64.572858 
1244.000000	64.581727 
1243.000000	64.595007 
1242.000000	64.610886 
1241.000000	64.627552 
1240.000000	64.643168 
1239.000000	64.656352 
1238.000000	64.666199 
1237.000000	64.672422 
1236.000000	64.675188 
1235.000000	64.675283 
1234.000000	64.673733 
1233.000000	64.671635 
1232.000000	64.670133 
1231.000000	64.669990 
1230.000000	64.671397 
1229.000000	64.674067 
1228.000000	64.677262 
1227.000000	64.679861 
1226.000000	64.680719 
1225.000000	64.678859 
1224.000000	64.673590 
1223.000000	64.664864 
1222.000000	64.652991 
1221.000000	64.638686 
1220.000000	64.622879 
1219.000000	64.606642 
1218.000000	64.590883 
1217.000000	64.576339 
1216.000000	64.563584 
1215.000000	64.552640 
1214.000000	64.543318 
1213.000000	64.535284 
1212.000000	64.528417 
1211.000000	64.522743 
1210.000000	64.518737 
1209.000000	64.517092 
1208.000000	64.518475 
1207.000000	64.523482 
1206.000000	64.532232 
1205.000000	64.544010 
1204.000000	64.557504 
1203.000000	64.571094 
1202.000000	64.582777 
1201.000000	64.590787 
1200.000000	64.593672 
1199.000000	64.590644 
1198.000000	64.581465 
1197.000000	64.566612 
1196.000000	64.547181 
1195.000000	64.524841 
1194.000000	64.501452 
1193.000000	64.479303 
1192.000000	64.460611 
1191.000000	64.447641 
1190.000000	64.442229 
1189.000000	64.445424 
1188.000000	64.457249 
1187.000000	64.476537 
1186.000000	64.501118 
1185.000000	64.528036 
1184.000000	64.553928 
1183.000000	64.575648 
1182.000000	64.590787 
1181.000000	64.597773 
1180.000000	64.595937 
1179.000000	64.585590 
1178.000000	64.567828 
1177.000000	64.544582 
1176.000000	64.518260 
1175.000000	64.491653 
1174.000000	64.467525 
1173.000000	64.448165 
1172.000000	64.435148 
1171.000000	64.428639 
1170.000000	64.427614 
1169.000000	64.429831 
1168.000000	64.432597 
1167.000000	64.432930 
1166.000000	64.428973 
1165.000000	64.420008 
1164.000000	64.407062 
1163.000000	64.392709 
1162.000000	64.380478 
1161.000000	64.373874 
1160.000000	64.375591 
1159.000000	64.386773 
1158.000000	64.406538 
1157.000000	64.432406 
1156.000000	64.460635 
1155.000000	64.487171 
1154.000000	64.508390 
1153.000000	64.521884 
1152.000000	64.526772 
1151.000000	64.523530 
1150.000000	64.513731 
1149.000000	64.499449 
1148.000000	64.482808 
1147.000000	64.465403 
1146.000000	64.448022 
1145.000000	64.430737 
1144.000000	64.413261 
1143.000000	64.395475 
1142.000000	64.377665 
1141.000000	64.360857 
1140.000000	64.346790 
1139.000000	64.337611 
1138.000000	64.335322 
1137.000000	64.341354 
1136.000000	64.355850 
1135.000000	64.377808 
1134.000000	64.404964 
1133.000000	64.434313 
1132.000000	64.462542 
1131.000000	64.486742 
1130.000000	64.504814 
1129.000000	64.515614 
1128.000000	64.519190 
1127.000000	64.516425 
1126.000000	64.508652 
1125.000000	64.497375 
1124.000000	64.483880 
1123.000000	64.469027 
1122.000000	64.453649 
1121.000000	64.438247 
1120.000000	64.423465 
1119.000000	64.410161 
1118.000000	64.399456 
1117.000000	64.392590 
1116.000000	64.390802 
1115.000000	64.395093 
1114.000000	64.406061 
1113.000000	64.423632 
1112.000000	64.446735 
1111.000000	64.473772 
1110.000000	64.502477 
1109.000000	64.530277 
1108.000000	64.554715 
1107.000000	64.573860 
1106.000000	64.586329 
1105.000000	64.591646 
1104.000000	64.589858 
1103.000000	64.581775 
1102.000000	64.568352 
1101.000000	64.550900 
1100.000000	64.530706 
1099.000000	64.509177 
1098.000000	64.487814 
1097.000000	64.468073 
1096.000000	64.451289 
1095.000000	64.438557 
1094.000000	64.430451 
1093.000000	64.426851 
1092.000000	64.426612 
1091.000000	64.427804 
1090.000000	64.427876 
1089.000000	64.424371 
1088.000000	64.415240 
1087.000000	64.399528 
1086.000000	64.377713 
1085.000000	64.351701 
1084.000000	64.324235 
1083.000000	64.298486 
1082.000000	64.277362 
1081.000000	64.262986 
1080.000000	64.256405 
1079.000000	64.257597 
1078.000000	64.265394 
1077.000000	64.278078 
1076.000000	64.293932 
1075.000000	64.311242 
1074.000000	64.328575 
1073.000000	64.344835 
1072.000000	64.359283 
1071.000000	64.371442 
1070.000000	64.381051 
1069.000000	64.388084 
1068.000000	64.392733 
1067.000000	64.395475 
1066.000000	64.396929 
1065.000000	64.397549 
1064.000000	64.397454 
1063.000000	64.396429 
1062.000000	64.394068 
1061.000000	64.389896 
1060.000000	64.383816 
1059.000000	64.376235 
1058.000000	64.368247 
1057.000000	64.361524 
1056.000000	64.357590 
1055.000000	64.357900 
1054.000000	64.362597 
1053.000000	64.370322 
1052.000000	64.378547 
1051.000000	64.383983 
1050.000000	64.383578 
1049.000000	64.375495 
1048.000000	64.359688 
1047.000000	64.338326 
1046.000000	64.314961 
1045.000000	64.293694 
1044.000000	64.277863 
1043.000000	64.269399 
1042.000000	64.268350 
1041.000000	64.272999 
1040.000000	64.280676 
1039.000000	64.288353 
1038.000000	64.293241 
1037.000000	64.293599 
1036.000000	64.288640 
1035.000000	64.278602 
1034.000000	64.264345 
1033.000000	64.247298 
1032.000000	64.228940 
1031.000000	64.210963 
1030.000000	64.195322 
1029.000000	64.183688 
1028.000000	64.177775 
1027.000000	64.178776 
1026.000000	64.186954 
1025.000000	64.201831 
1024.000000	64.221692 
1023.000000	64.244437 
1022.000000	64.267778 
1021.000000	64.289903 
1020.000000	64.309811 
1019.000000	64.327192 
1018.000000	64.342141 
1017.000000	64.354610 
1016.000000	64.364337 
1015.000000	64.370489 
1014.000000	64.372014 
1013.000000	64.368295 
1012.000000	64.359402 
1011.000000	64.346766 
1010.000000	64.332818 
1009.000000	64.320874 
1008.000000	64.314007 
1007.000000	64.314150 
1006.000000	64.321136 
1005.000000	64.332652 
1004.000000	64.344811 
1003.000000	64.352869 
1002.000000	64.352917 
1001.000000	64.342975 
1000.000000	64.323878 
999.000000	 64.298844 
998.000000	 64.273166 
997.000000	 64.252638 
996.000000	 64.242243 
995.000000	 64.244723 
994.000000	 64.260029 
993.000000	 64.285755 
992.000000	 64.317083 
991.000000	 64.348053 
990.000000	 64.372777 
989.000000	 64.386558 
988.000000	 64.386773 
987.000000	 64.373278 
986.000000	 64.347958 
985.000000	 64.314222 
984.000000	 64.276409 
983.000000	 64.238929 
982.000000	 64.205646 
981.000000	 64.179491 
980.000000	 64.162778 
979.000000	 64.156818 
978.000000	 64.161539 
977.000000	 64.175772 
976.000000	 64.196705 
975.000000	 64.221048 
974.000000	 64.244461 
973.000000	 64.263629 
972.000000	 64.276146 
971.000000	 64.282560 
970.000000	 64.285492 
969.000000	 64.290189 
968.000000	 64.303088 
967.000000	 64.330029 
966.000000	 64.374351 
965.000000	 64.435482 
964.000000	 64.508748 
963.000000	 64.585757 
962.000000	 64.656162 
961.000000	 64.710330 
960.000000	 64.741539 
959.000000	 64.747476 
958.000000	 64.730525 
957.000000	 64.695620 
956.000000	 64.648556 
955.000000	 64.594078 
954.000000	 64.534521 
953.000000	 64.469885 
952.000000	 64.398765 
951.000000	 64.320397 
950.000000	 64.236378 
949.000000	 64.152121 
948.000000	 64.075994 
947.000000	 64.017939 
946.000000	 63.986611 
945.000000	 63.987016 
944.000000	 64.018058 
943.000000	 64.071702 
942.000000	 64.134216 
941.000000	 64.189100 
940.000000	 64.220452 
939.000000	 64.216279 
938.000000	 64.171648 
937.000000	 64.089202 
936.000000	 63.979721 
935.000000	 63.858938 
934.000000	 63.746142 
933.000000	 63.659977 
932.000000	 63.615703 
931.000000	 63.621807 
930.000000	 63.678812 
929.000000	 63.778758 
928.000000	 63.906455 
927.000000	 64.042234 
926.000000	 64.164805 
925.000000	 64.255356 
924.000000	 64.300942 
923.000000	 64.296674 
922.000000	 64.245796 
921.000000	 64.158558 
920.000000	 64.050316 
919.000000	 63.936972 
918.000000	 63.832187 
917.000000	 63.744401 
916.000000	 63.677334 
915.000000	 63.629722 
914.000000	 63.597989 
913.000000	 63.577842 
912.000000	 63.567018 
911.000000	 63.565230 
910.000000	 63.573527 
909.000000	 63.593053 
908.000000	 63.622999 
907.000000	 63.660597 
906.000000	 63.700747 
905.000000	 63.737726 
904.000000	 63.766360 
903.000000	 63.784790 
902.000000	 63.794970 
901.000000	 63.802695 
900.000000	 63.815665 
899.000000	 63.840818 
898.000000	 63.881993 
897.000000	 63.937902 
896.000000	 64.002323 
895.000000	 64.066004 
894.000000	 64.118933 
893.000000	 64.153552 
892.000000	 64.166355 
891.000000	 64.158940 
890.000000	 64.137434 
889.000000	 64.110445 
888.000000	 64.087390 
887.000000	 64.075589 
886.000000	 64.079403 
885.000000	 64.100217 
884.000000	 64.135718 
883.000000	 64.181470 
882.000000	 64.230966 
881.000000	 64.277744 
880.000000	 64.314985 
879.000000	 64.336490 
878.000000	 64.336633 
877.000000	 64.311242 
876.000000	 64.258790 
875.000000	 64.181160 
874.000000	 64.083909 
873.000000	 63.976001 
872.000000	 63.868641 
871.000000	 63.773584 
870.000000	 63.700962 
869.000000	 63.657736 
868.000000	 63.646817 
867.000000	 63.666892 
866.000000	 63.712596 
865.000000	 63.775897 
864.000000	 63.847374 
863.000000	 63.917875 
862.000000	 63.978838 
861.000000	 64.024662 
860.000000	 64.052343 
859.000000	 64.062404 
858.000000	 64.057683 
857.000000	 64.042758 
856.000000	 64.022636 
855.000000	 64.001679 
854.000000	 63.982915 
853.000000	 63.966989 
852.000000	 63.952660 
851.000000	 63.937044 
850.000000	 63.917016 
849.000000	 63.890504 
848.000000	 63.857650 
847.000000	 63.821148 
846.000000	 63.785719 
845.000000	 63.756895 
844.000000	 63.739323 
843.000000	 63.735628 
842.000000	 63.745307 
841.000000	 63.764643 
840.000000	 63.787508 
839.000000	 63.807082 
838.000000	 63.817477 
837.000000	 63.814663 
836.000000	 63.797998 
835.000000	 63.769459 
834.000000	 63.734030 
833.000000	 63.698387 
832.000000	 63.669419 
831.000000	 63.652420 
830.000000	 63.649940 
829.000000	 63.661527 
828.000000	 63.683462 
827.000000	 63.710093 
826.000000	 63.734912 
825.000000	 63.752341 
824.000000	 63.759112 
823.000000	 63.754773 
822.000000	 63.741660 
821.000000	 63.724040 
820.000000	 63.706946 
819.000000	 63.694834 
818.000000	 63.690686 
817.000000	 63.695049 
816.000000	 63.706541 
815.000000	 63.721776 
814.000000	 63.736414 
813.000000	 63.745880 
812.000000	 63.746738 
811.000000	 63.736867 
810.000000	 63.715767 
809.000000	 63.684773 
808.000000	 63.646268 
807.000000	 63.603734 
806.000000	 63.560724 
805.000000	 63.520669 
804.000000	 63.486433 
803.000000	 63.460135 
802.000000	 63.443207 
801.000000	 63.436317 
800.000000	 63.439130 
799.000000	 63.450813 
798.000000	 63.469982 
797.000000	 63.494539 
796.000000	 63.521838 
795.000000	 63.548994 
794.000000	 63.573145 
793.000000	 63.591456 
792.000000	 63.601636 
791.000000	 63.602232 
790.000000	 63.592934 
789.000000	 63.574600 
788.000000	 63.549470 
787.000000	 63.520622 
786.000000	 63.491868 
785.000000	 63.467383 
784.000000	 63.450789 
783.000000	 63.445138 
782.000000	 63.451862 
781.000000	 63.470911 
780.000000	 63.499808 
779.000000	 63.534379 
778.000000	 63.568639 
777.000000	 63.596057 
776.000000	 63.609957 
775.000000	 63.604879 
774.000000	 63.577699 
773.000000	 63.528418 
772.000000	 63.460397 
771.000000	 63.379669 
770.000000	 63.294529 
769.000000	 63.213944 
768.000000	 63.146042 
767.000000	 63.096642 
766.000000	 63.068342 
765.000000	 63.060450 
764.000000	 63.069391 
763.000000	 63.089585 
762.000000	 63.114666 
761.000000	 63.138651 
760.000000	 63.156843 
759.000000	 63.166522 
758.000000	 63.166570 
757.000000	 63.157558 
756.000000	 63.140940 
755.000000	 63.118839 
754.000000	 63.093423 
753.000000	 63.066577 
752.000000	 63.039731 
751.000000	 63.014030 
750.000000	 62.990474 
749.000000	 62.970018 
748.000000	 62.953591 
747.000000	 62.942314 
746.000000	 62.937164 
745.000000	 62.939357 
744.000000	 62.949728 
743.000000	 62.968683 
742.000000	 62.995600 
741.000000	 63.028621 
740.000000	 63.064646 
739.000000	 63.099646 
738.000000	 63.129377 
737.000000	 63.150000 
736.000000	 63.158631 
735.000000	 63.154458 
734.000000	 63.138222 
733.000000	 63.112330 
732.000000	 63.079786 
731.000000	 63.043594 
730.000000	 63.005876 
729.000000	 62.968420 
728.000000	 62.932395 
727.000000	 62.898397 
726.000000	 62.867379 
725.000000	 62.840986 
724.000000	 62.821483 
723.000000	 62.811231 
722.000000	 62.811946 
721.000000	 62.823939 
720.000000	 62.845516 
719.000000	 62.872910 
718.000000	 62.900781 
717.000000	 62.923073 
716.000000	 62.934517 
715.000000	 62.931895 
714.000000	 62.914419 
713.000000	 62.883949 
712.000000	 62.844634 
711.000000	 62.801623 
710.000000	 62.759852 
709.000000	 62.722492 
708.000000	 62.690758 
707.000000	 62.663006 
706.000000	 62.636113 
705.000000	 62.605667 
704.000000	 62.567615 
703.000000	 62.519288 
702.000000	 62.460184 
701.000000	 62.392401 
700.000000	 62.319898 
699.000000	 62.248373 
698.000000	 62.183475 
697.000000	 62.130475 
696.000000	 62.092828 
695.000000	 62.072205 
694.000000	 62.067961 
693.000000	 62.078022 
692.000000	 62.099218 
691.000000	 62.128472 
690.000000	 62.163209 
689.000000	 62.201929 
688.000000	 62.243866 
687.000000	 62.288784 
686.000000	 62.336158 
685.000000	 62.384796 
684.000000	 62.432360 
683.000000	 62.475800 
682.000000	 62.511396 
681.000000	 62.535881 
680.000000	 62.546706 
679.000000	 62.542963 
678.000000	 62.525224 
677.000000	 62.495946 
676.000000	 62.458586 
675.000000	 62.417411 
674.000000	 62.376403 
673.000000	 62.339115 
672.000000	 62.307882 
671.000000	 62.283635 
670.000000	 62.266278 
669.000000	 62.255144 
668.000000	 62.249326 
667.000000	 62.247490 
666.000000	 62.249159 
665.000000	 62.254261 
664.000000	 62.263464 
663.000000	 62.277412 
662.000000	 62.296557 
661.000000	 62.320446 
660.000000	 62.347555 
659.000000	 62.375020 
658.000000	 62.398815 
657.000000	 62.414169 
656.000000	 62.416982 
655.000000	 62.403988 
654.000000	 62.373924 
653.000000	 62.327194 
652.000000	 62.265896 
651.000000	 62.193346 
650.000000	 62.113523 
649.000000	 62.030959 
648.000000	 61.949896 
647.000000	 61.875128 
646.000000	 61.811256 
645.000000	 61.763024 
644.000000	 61.734485 
643.000000	 61.729168 
642.000000	 61.748647 
641.000000	 61.792516 
640.000000	 61.857461 
639.000000	 61.937761 
638.000000	 62.025523 
637.000000	 62.111616 
636.000000	 62.186789 
635.000000	 62.243151 
634.000000	 62.275099 
633.000000	 62.280106 
632.000000	 62.258911 
631.000000	 62.215232 
630.000000	 62.154912 
629.000000	 62.085294 
628.000000	 62.014031 
627.000000	 61.948347 
626.000000	 61.894059 
625.000000	 61.855721 
624.000000	 61.835932 
623.000000	 61.835289 
622.000000	 61.852192 
621.000000	 61.882877 
620.000000	 61.922264 
619.000000	 61.964106 
618.000000	 62.002587 
617.000000	 62.032580 
616.000000	 62.051439 
615.000000	 62.058711 
614.000000	 62.056612 
613.000000	 62.048959 
612.000000	 62.040328 
611.000000	 62.034749 
610.000000	 62.034606 
609.000000	 62.040257 
608.000000	 62.049508 
607.000000	 62.058544 
606.000000	 62.062788 
605.000000	 62.058067 
604.000000	 62.041306 
603.000000	 62.011194 
602.000000	 61.968135 
601.000000	 61.914157 
600.000000	 61.852025 
599.000000	 61.785268 
598.000000	 61.717724 
597.000000	 61.653256 
596.000000	 61.596059 
595.000000	 61.549448 
594.000000	 61.515593 
593.000000	 61.494779 
592.000000	 61.485099 
591.000000	 61.483573 
590.000000	 61.486506 
589.000000	 61.490297 
588.000000	 61.491894 
587.000000	 61.489176 
586.000000	 61.480998 
585.000000	 61.467194 
584.000000	 61.447954 
583.000000	 61.425042 
582.000000	 61.401391 
581.000000	 61.380839 
580.000000	 61.367154 
579.000000	 61.362910 
578.000000	 61.368656 
577.000000	 61.381959 
576.000000	 61.398053 
575.000000	 61.411166 
574.000000	 61.416172 
573.000000	 61.410045 
572.000000	 61.392474 
571.000000	 61.365866 
570.000000	 61.334133 
569.000000	 61.301898 
568.000000	 61.272263 
567.000000	 61.246109 
566.000000	 61.221694 
565.000000	 61.195659 
564.000000	 61.163783 
563.000000	 61.122822 
562.000000	 61.071658 
561.000000	 61.012101 
560.000000	 60.948157 
559.000000	 60.885143 
558.000000	 60.828256 
557.000000	 60.781097 
556.000000	 60.744953 
555.000000	 60.718655 
554.000000	 60.698938 
553.000000	 60.681366 
552.000000	 60.661077 
551.000000	 60.634255 
550.000000	 60.598373 
549.000000	 60.553097 
548.000000	 60.500454 
547.000000	 60.444593 
546.000000	 60.391139 
545.000000	 60.345840 
544.000000	 60.313558 
543.000000	 60.296726 
542.000000	 60.294985 
541.000000	 60.304689 
540.000000	 60.320162 
539.000000	 60.334777 
538.000000	 60.341978 
537.000000	 60.337924 
536.000000	 60.321807 
535.000000	 60.296630 
534.000000	 60.268259 
533.000000	 60.243701 
532.000000	 60.229015 
531.000000	 60.227465 
530.000000	 60.238742 
529.000000	 60.258817 
528.000000	 60.280895 
527.000000	 60.297513 
526.000000	 60.302352 
525.000000	 60.291457 
524.000000	 60.264062 
523.000000	 60.222816 
522.000000	 60.173130 
521.000000	 60.122108 
520.000000	 60.076785 
519.000000	 60.043358 
518.000000	 60.024881 
517.000000	 60.020875 
516.000000	 60.026574 
515.000000	 60.035061 
514.000000	 60.037970 
513.000000	 60.027265 
512.000000	 59.997773 
511.000000	 59.947633 
510.000000	 59.879732 
509.000000	 59.801387 
508.000000	 59.722256 
507.000000	 59.651374 
506.000000	 59.596157 
505.000000	 59.561181 
504.000000	 59.546470 
503.000000	 59.547638 
502.000000	 59.557628 
501.000000	 59.568572 
500.000000	 59.573554 
499.000000	 59.568166 
498.000000	 59.550547 
497.000000	 59.521698 
496.000000	 59.484529 
495.000000	 59.443449 
494.000000	 59.403085 
493.000000	 59.368157 
492.000000	 59.343695 
491.000000	 59.334349 
490.000000	 59.344482 
489.000000	 59.375905 
488.000000	 59.429407 
487.000000	 59.500265 
486.000000	 59.579849 
485.000000	 59.653162 
484.000000	 59.702849 
483.000000	 59.709477 
482.000000	 59.656000 
481.000000	 59.531331 
480.000000	 59.333944 
479.000000	 59.073472 
478.000000	 58.769869 
477.000000	 58.451437 
476.000000	 58.150100 
475.000000	 57.895946 
474.000000	 57.711672 
473.000000	 57.609987 
472.000000	 57.592344 
471.000000	 57.649898 
470.000000	 57.766628 
469.000000	 57.922482 
468.000000	 58.097720 
467.000000	 58.275747 
466.000000	 58.445286 
465.000000	 58.597707 
464.000000	 58.728027 
463.000000	 58.833551 
462.000000	 58.913397 
461.000000	 58.966469 
460.000000	 58.992552 
459.000000	 58.994722 
458.000000	 58.977174 
457.000000	 58.947706 
456.000000	 58.913373 
455.000000	 58.880209 
454.000000	 58.851790 
453.000000	 58.829689 
452.000000	 58.814263 
451.000000	 58.805012 
450.000000	 58.803558 
449.000000	 58.814549 
448.000000	 58.843612 
447.000000	 58.894991 
446.000000	 58.970952 
445.000000	 59.069824 
444.000000	 59.182381 
443.000000	 59.291982 
442.000000	 59.379386 
441.000000	 59.424352 
440.000000	 59.409523 
439.000000	 59.321808 
438.000000	 59.155535 
437.000000	 58.912038 
436.000000	 58.600974 
435.000000	 58.239245 
434.000000	 57.844614 
433.000000	 57.440733 
432.000000	 57.058095 
431.000000	 56.731009 
430.000000	 56.489276 
429.000000	 56.358647 
428.000000	 56.355977 
427.000000	 56.484770 
426.000000	 56.728649 
425.000000	 57.058858 
424.000000	 57.436060 
423.000000	 57.820343 
422.000000	 58.174681 
421.000000	 58.477950 
420.000000	 58.726620 
419.000000	 58.930873 
418.000000	 59.107112 
417.000000	 59.276866 
416.000000	 59.457564 
415.000000	 59.653139 
414.000000	 59.849214 
413.000000	 60.026144 
412.000000	 60.154318 
411.000000	 60.204696 
410.000000	 60.145068 
409.000000	 59.954142 
408.000000	 59.613680 
407.000000	 59.118771 
406.000000	 58.472061 
405.000000	 57.680273 
404.000000	 56.764268 
403.000000	 55.767488 
402.000000	 54.749584 
401.000000	 53.782010 
400.000000	 52.935814 
399.000000	 52.267360 
398.000000	 51.810693 
397.000000	 51.580405 
396.000000	 51.544857 
395.000000	 51.627635 
394.000000	 51.723027 
393.000000	 51.717591 
392.000000	 51.505064 
391.000000	 51.007199 
390.000000	 50.193428 
389.000000	 49.083161 
388.000000	 47.738099 
387.000000	 46.247386 
386.000000	 44.692468 
385.000000	 43.149495 
384.000000	 41.667270 
383.000000	 40.301942 
382.000000	 39.117932 
381.000000	 38.219261 
380.000000	 37.728214 
379.000000	 37.777376 
378.000000	 38.504910 
377.000000	 39.957785 
376.000000	 42.066955 
375.000000	 44.586515 
374.000000	 47.127246 
373.000000	 49.192905 
372.000000	 50.276660 
371.000000	 49.984860 
370.000000	 48.138165 

