PE IR       SPECTRUM    SPECTRUM    ASCII       PEDS        1.60        
  -1
C-1A61~1.ASC
17/05/02
11:37:33.00
17/05/02
11:37:33.00
tln
$C-4040-8_t0010$<tbV0>[-2.5,-8.0,8.0,0.0,22,1,0]
370.000000
64









2002,4.07    
MIRTGS : RIGHTBACK : INTERNAL 2
MIR : ON : INTERNAL 2
OPTKBR

0.200000
8
8.000000
FILLER
RATIO
SPECTRUM
UNLOCKED 256

DOUBLE
64
COMBINED
1
0
0


1.000000
RATIO


1
0
TRUE
51149
0
LEFT NOT FITTED RIGHT NOT FITTED 0
NONE
NONE
15600
12.000000
4.427000
51148
TRUE
1 0 8 72 0 0 0 0 

15798.010000






#HDR
-1
-1
#GR
CM-1
%T
0.00002384185791015625
0.0
7800.000000
-1.000000
7431
8
75.051450
32.564234
#DATA
7800.000000	67.779326 
7799.000000	68.249940 
7798.000000	68.664884 
7797.000000	68.847298 
7796.000000	68.667149 
7795.000000	68.067073 
7794.000000	67.082810 
7793.000000	65.830826 
7792.000000	64.490580 
7791.000000	63.264870 
7790.000000	62.330174 
7789.000000	61.803531 
7788.000000	61.738729 
7787.000000	62.117600 
7786.000000	62.864208 
7785.000000	63.858580 
7784.000000	64.965867 
7783.000000	66.050219 
7782.000000	66.987514 
7781.000000	67.678833 
7780.000000	68.045854 
7779.000000	68.051171 
7778.000000	67.684340 
7777.000000	66.990017 
7776.000000	66.054391 
7775.000000	65.016770 
7774.000000	64.059400 
7773.000000	63.366699 
7772.000000	63.096141 
7771.000000	63.332247 
7770.000000	64.076042 
7769.000000	65.212440 
7768.000000	66.533780 
7767.000000	67.769360 
7766.000000	68.645524 
7765.000000	68.933725 
7764.000000	68.504452 
7763.000000	67.356181 
7762.000000	65.620708 
7761.000000	63.532662 
7760.000000	61.384487 
7759.000000	59.468293 
7758.000000	58.021545 
7757.000000	57.185077 
7756.000000	56.991958 
7755.000000	57.373023 
7754.000000	58.196759 
7753.000000	59.308576 
7752.000000	60.574793 
7751.000000	61.886525 
7750.000000	63.189435 
7749.000000	64.461708 
7748.000000	65.704536 
7747.000000	66.898894 
7746.000000	68.010377 
7745.000000	68.977212 
7744.000000	69.733548 
7743.000000	70.229148 
7742.000000	70.452404 
7741.000000	70.445084 
7740.000000	70.298814 
7739.000000	70.139646 
7738.000000	70.087528 
7737.000000	70.225024 
7736.000000	70.570135 
7735.000000	71.069669 
7734.000000	71.616005 
7733.000000	72.074103 
7732.000000	72.327995 
7731.000000	72.305011 
7730.000000	71.997690 
7729.000000	71.455788 
7728.000000	70.774412 
7727.000000	70.056462 
7726.000000	69.383645 
7725.000000	68.793606 
7724.000000	68.276476 
7723.000000	67.784619 
7722.000000	67.264199 
7721.000000	66.671848 
7720.000000	65.995836 
7719.000000	65.265941 
7718.000000	64.550900 
7717.000000	63.933658 
7716.000000	63.483881 
7715.000000	63.236236 
7714.000000	63.173222 
7713.000000	63.242006 
7712.000000	63.368916 
7711.000000	63.491845 
7710.000000	63.579010 
7709.000000	63.642358 
7708.000000	63.727712 
7707.000000	63.897323 
7706.000000	64.197564 
7705.000000	64.628338 
7704.000000	65.131044 
7703.000000	65.602350 
7702.000000	65.909838 
7701.000000	65.937423 
7700.000000	65.604186 
7699.000000	64.892625 
7698.000000	63.848948 
7697.000000	62.576007 
7696.000000	61.213040 
7695.000000	59.891033 
7694.000000	58.737206 
7693.000000	57.838988 
7692.000000	57.275032 
7691.000000	57.102560 
7690.000000	57.382512 
7689.000000	58.166551 
7688.000000	59.493112 
7687.000000	61.362385 
7686.000000	63.708400 
7685.000000	66.382050 
7684.000000	69.144439 
7683.000000	71.690750 
7682.000000	73.696279 
7681.000000	74.877405 
7680.000000	75.051450 
7679.000000	74.182796 
7678.000000	72.401380 
7677.000000	69.984579 
7676.000000	67.310452 
7675.000000	64.783191 
7674.000000	62.771058 
7673.000000	61.526370 
7672.000000	61.161756 
7671.000000	61.624407 
7670.000000	62.745094 
7669.000000	64.260053 
7668.000000	65.877842 
7667.000000	67.329764 
7666.000000	68.404102 
7665.000000	68.986845 
7664.000000	69.047570 
7663.000000	68.649721 
7662.000000	67.910075 
7661.000000	66.980314 
7660.000000	66.008162 
7659.000000	65.120935 
7658.000000	64.408373 
7657.000000	63.915801 
7656.000000	63.647341 
7655.000000	63.563442 
7654.000000	63.599514 
7653.000000	63.678526 
7652.000000	63.739562 
7651.000000	63.732910 
7650.000000	63.652014 
7649.000000	63.532853 
7648.000000	63.453650 
7647.000000	63.511610 
7646.000000	63.794898 
7645.000000	64.353251 
7644.000000	65.174269 
7643.000000	66.186618 
7642.000000	67.260813 
7641.000000	68.229889 
7640.000000	68.938016 
7639.000000	69.278883 
7638.000000	69.226598 
7637.000000	68.844366 
7636.000000	68.266558 
7635.000000	67.664456 
7634.000000	67.197799 
7633.000000	66.976976 
7632.000000	67.028236 
7631.000000	67.292976 
7630.000000	67.656612 
7629.000000	67.988348 
7628.000000	68.184590 
7627.000000	68.200445 
7626.000000	68.059015 
7625.000000	67.840933 
7624.000000	67.647695 
7623.000000	67.570877 
7622.000000	67.658638 
7621.000000	67.902851 
7620.000000	68.242073 
7619.000000	68.582296 
7618.000000	68.828225 
7617.000000	68.915534 
7616.000000	68.828916 
7615.000000	68.614101 
7614.000000	68.365550 
7613.000000	68.199896 
7612.000000	68.220686 
7611.000000	68.485045 
7610.000000	68.988060 
7609.000000	69.651818 
7608.000000	70.349764 
7607.000000	70.922803 
7606.000000	71.223020 
7605.000000	71.137189 
7604.000000	70.616078 
7603.000000	69.674038 
7602.000000	68.386673 
7601.000000	66.872334 
7600.000000	65.272092 
7599.000000	63.725757 
7598.000000	62.354779 
7597.000000	61.253976 
7596.000000	60.482907 
7595.000000	60.069203 
7594.000000	60.005736 
7593.000000	60.251808 
7592.000000	60.739874 
7591.000000	61.375260 
7590.000000	62.057709 
7589.000000	62.670207 
7588.000000	63.125586 
7587.000000	63.366746 
7586.000000	63.394331 
7585.000000	63.252592 
7584.000000	63.031601 
7583.000000	62.843489 
7582.000000	62.792396 
7581.000000	62.951588 
7580.000000	63.333535 
7579.000000	63.888144 
7578.000000	64.511322 
7577.000000	65.074944 
7576.000000	65.458202 
7575.000000	65.582942 
7574.000000	65.438747 
7573.000000	65.087747 
7572.000000	64.647769 
7571.000000	64.258790 
7570.000000	64.054417 
7569.000000	64.114332 
7568.000000	64.445734 
7567.000000	64.967322 
7566.000000	65.544962 
7565.000000	66.006612 
7564.000000	66.188669 
7563.000000	65.973544 
7562.000000	65.316939 
7561.000000	64.264726 
7560.000000	62.939476 
7559.000000	61.520004 
7558.000000	60.193443 
7557.000000	59.126496 
7556.000000	58.433651 
7555.000000	58.156681 
7554.000000	58.262634 
7553.000000	58.665013 
7552.000000	59.252119 
7551.000000	59.914207 
7550.000000	60.566663 
7549.000000	61.168932 
7548.000000	61.721968 
7547.000000	62.256646 
7546.000000	62.810039 
7545.000000	63.399696 
7544.000000	64.007997 
7543.000000	64.583015 
7542.000000	65.047240 
7541.000000	65.326595 
7540.000000	65.365386 
7539.000000	65.159320 
7538.000000	64.744901 
7537.000000	64.196634 
7536.000000	63.601326 
7535.000000	63.041853 
7534.000000	62.571978 
7533.000000	62.213730 
7532.000000	61.947011 
7531.000000	61.732506 
7530.000000	61.509609 
7529.000000	61.219215 
7528.000000	60.815072 
7527.000000	60.276651 
7526.000000	59.615826 
7525.000000	58.871769 
7524.000000	58.116436 
7523.000000	57.438993 
7522.000000	56.942892 
7521.000000	56.723904 
7520.000000	56.854772 
7519.000000	57.364416 
7518.000000	58.227777 
7517.000000	59.362840 
7516.000000	60.633420 
7515.000000	61.876702 
7514.000000	62.932229 
7513.000000	63.676548 
7512.000000	64.044070 
7511.000000	64.040207 
7510.000000	63.733124 
7509.000000	63.236451 
7508.000000	62.679147 
7507.000000	62.179207 
7506.000000	61.827540 
7505.000000	61.665844 
7504.000000	61.699652 
7503.000000	61.888146 
7502.000000	62.167429 
7501.000000	62.461662 
7500.000000	62.705945 
7499.000000	62.854170 
7498.000000	62.884926 
7497.000000	62.806773 
7496.000000	62.650847 
7495.000000	62.462973 
7494.000000	62.290072 
7493.000000	62.173271 
7492.000000	62.138271 
7491.000000	62.192964 
7490.000000	62.326645 
7489.000000	62.515449 
7488.000000	62.727594 
7487.000000	62.935280 
7486.000000	63.115429 
7485.000000	63.253021 
7484.000000	63.337087 
7483.000000	63.363289 
7482.000000	63.325023 
7481.000000	63.210797 
7480.000000	63.008069 
7479.000000	62.705469 
7478.000000	62.305736 
7477.000000	61.829304 
7476.000000	61.321973 
7475.000000	60.847043 
7474.000000	60.481929 
7473.000000	60.303139 
7472.000000	60.365557 
7471.000000	60.686707 
7470.000000	61.236834 
7469.000000	61.940574 
7468.000000	62.691736 
7467.000000	63.373637 
7466.000000	63.880586 
7465.000000	64.138650 
7464.000000	64.115929 
7463.000000	63.827824 
7462.000000	63.328790 
7461.000000	62.701654 
7460.000000	62.039041 
7459.000000	61.428141 
7458.000000	60.940432 
7457.000000	60.621356 
7456.000000	60.491275 
7455.000000	60.546278 
7454.000000	60.763502 
7453.000000	61.111903 
7452.000000	61.555194 
7451.000000	62.063241 
7450.000000	62.606072 
7449.000000	63.163518 
7448.000000	63.719129 
7447.000000	64.258193 
7446.000000	64.764022 
7445.000000	65.210247 
7444.000000	65.561604 
7443.000000	65.779495 
7442.000000	65.832257 
7441.000000	65.704727 
7440.000000	65.407013 
7439.000000	64.980435 
7438.000000	64.491868 
7437.000000	64.023041 
7436.000000	63.652539 
7435.000000	63.437509 
7434.000000	63.402080 
7433.000000	63.535618 
7432.000000	63.796210 
7431.000000	64.124393 
7430.000000	64.456152 
7429.000000	64.738106 
7428.000000	64.935302 
7427.000000	65.036225 
7426.000000	65.046739 
7425.000000	64.976954 
7424.000000	64.841222 
7423.000000	64.647793 
7422.000000	64.407134 
7421.000000	64.133906 
7420.000000	63.851952 
7419.000000	63.595867 
7418.000000	63.406848 
7417.000000	63.327264 
7416.000000	63.383865 
7415.000000	63.579249 
7414.000000	63.889479 
7413.000000	64.267706 
7412.000000	64.652323 
7411.000000	64.981245 
7410.000000	65.208292 
7409.000000	65.312576 
7408.000000	65.299916 
7407.000000	65.199542 
7406.000000	65.052342 
7405.000000	64.901614 
7404.000000	64.778256 
7403.000000	64.700365 
7402.000000	64.675140 
7401.000000	64.700984 
7400.000000	64.776992 
7399.000000	64.900612 
7398.000000	65.072894 
7397.000000	65.290069 
7396.000000	65.542125 
7395.000000	65.807414 
7394.000000	66.051459 
7393.000000	66.235280 
7392.000000	66.324067 
7391.000000	66.294836 
7390.000000	66.142964 
7389.000000	65.886092 
7388.000000	65.561223 
7387.000000	65.215873 
7386.000000	64.896130 
7385.000000	64.635848 
7384.000000	64.446759 
7383.000000	64.319086 
7382.000000	64.221954 
7381.000000	64.112544 
7380.000000	63.945436 
7379.000000	63.686108 
7378.000000	63.318943 
7377.000000	62.845969 
7376.000000	62.293696 
7375.000000	61.698555 
7374.000000	61.114811 
7373.000000	60.593962 
7372.000000	60.194611 
7371.000000	59.968924 
7370.000000	59.961533 
7369.000000	60.200691 
7368.000000	60.688495 
7367.000000	61.394166 
7366.000000	62.254452 
7365.000000	63.178110 
7364.000000	64.062356 
7363.000000	64.808464 
7362.000000	65.339636 
7361.000000	65.612602 
7360.000000	65.620541 
7359.000000	65.389680 
7358.000000	64.967846 
7357.000000	64.413022 
7356.000000	63.783645 
7355.000000	63.130950 
7354.000000	62.502479 
7353.000000	61.937570 
7352.000000	61.471009 
7351.000000	61.129164 
7350.000000	60.932183 
7349.000000	60.888099 
7348.000000	60.986280 
7347.000000	61.202692 
7346.000000	61.490869 
7345.000000	61.805152 
7344.000000	62.100172 
7343.000000	62.352728 
7342.000000	62.561154 
7341.000000	62.747263 
7340.000000	62.945461 
7339.000000	63.188314 
7338.000000	63.493967 
7337.000000	63.850927 
7336.000000	64.218068 
7335.000000	64.528942 
7334.000000	64.709615 
7333.000000	64.696478 
7332.000000	64.456939 
7331.000000	64.000391 
7330.000000	63.381171 
7329.000000	62.690544 
7328.000000	62.036585 
7327.000000	61.523842 
7326.000000	61.226105 
7325.000000	61.168932 
7324.000000	61.323285 
7323.000000	61.618995 
7322.000000	61.959886 
7321.000000	62.247633 
7320.000000	62.406897 
7319.000000	62.396645 
7318.000000	62.222886 
7317.000000	61.927747 
7316.000000	61.581969 
7315.000000	61.255669 
7314.000000	61.011838 
7313.000000	60.890388 
7312.000000	60.904955 
7311.000000	61.043977 
7310.000000	61.279439 
7309.000000	61.578106 
7308.000000	61.909008 
7307.000000	62.250542 
7306.000000	62.588429 
7305.000000	62.915706 
7304.000000	63.228702 
7303.000000	63.525986 
7302.000000	63.810992 
7301.000000	64.088368 
7300.000000	64.368939 
7299.000000	64.659047 
7298.000000	64.959621 
7297.000000	65.255665 
7296.000000	65.524291 
7295.000000	65.727496 
7294.000000	65.824246 
7293.000000	65.772938 
7292.000000	65.549325 
7291.000000	65.146541 
7290.000000	64.583015 
7289.000000	63.899493 
7288.000000	63.151001 
7287.000000	62.405705 
7286.000000	61.733293 
7285.000000	61.200213 
7284.000000	60.858345 
7283.000000	60.742735 
7282.000000	60.865807 
7281.000000	61.215162 
7280.000000	61.753988 
7279.000000	62.420392 
7278.000000	63.136029 
7277.000000	63.812446 
7276.000000	64.367818 
7275.000000	64.745068 
7274.000000	64.922046 
7273.000000	64.915347 
7272.000000	64.772176 
7271.000000	64.560866 
7270.000000	64.347743 
7269.000000	64.183330 
7268.000000	64.087033 
7267.000000	64.053416 
7266.000000	64.049220 
7265.000000	64.037704 
7264.000000	63.979101 
7263.000000	63.844704 
7262.000000	63.623595 
7261.000000	63.324666 
7260.000000	62.976098 
7259.000000	62.613368 
7258.000000	62.279391 
7257.000000	62.014174 
7256.000000	61.848998 
7255.000000	61.798930 
7254.000000	61.865329 
7253.000000	62.036204 
7252.000000	62.287306 
7251.000000	62.585544 
7250.000000	62.892603 
7249.000000	63.168883 
7248.000000	63.376975 
7247.000000	63.486504 
7246.000000	63.472557 
7245.000000	63.324069 
7244.000000	63.047766 
7243.000000	62.672472 
7242.000000	62.239289 
7241.000000	61.806201 
7240.000000	61.439013 
7239.000000	61.205315 
7238.000000	61.161065 
7237.000000	61.342906 
7236.000000	61.759281 
7235.000000	62.387752 
7234.000000	63.175153 
7233.000000	64.047765 
7232.000000	64.922213 
7231.000000	65.719127 
7230.000000	66.373896 
7229.000000	66.845893 
7228.000000	67.119860 
7227.000000	67.210674 
7226.000000	67.156386 
7225.000000	67.010068 
7224.000000	66.825199 
7223.000000	66.651892 
7222.000000	66.521382 
7221.000000	66.439175 
7220.000000	66.381001 
7219.000000	66.301679 
7218.000000	66.145896 
7217.000000	65.866613 
7216.000000	65.439343 
7215.000000	64.872264 
7214.000000	64.207172 
7213.000000	63.511109 
7212.000000	62.860894 
7211.000000	62.324261 
7210.000000	61.944437 
7209.000000	61.728858 
7208.000000	61.651992 
7207.000000	61.660432 
7206.000000	61.696028 
7205.000000	61.710357 
7204.000000	61.683011 
7203.000000	61.619806 
7202.000000	61.560821 
7201.000000	61.564040 
7200.000000	61.688280 
7199.000000	61.970257 
7198.000000	62.418580 
7197.000000	63.006401 
7196.000000	63.674569 
7195.000000	64.343380 
7194.000000	64.932703 
7193.000000	65.377497 
7192.000000	65.640187 
7191.000000	65.716433 
7190.000000	65.630435 
7189.000000	65.428614 
7188.000000	65.168428 
7187.000000	64.904785 
7186.000000	64.684724 
7185.000000	64.533400 
7184.000000	64.464735 
7183.000000	64.466810 
7182.000000	64.512014 
7181.000000	64.558863 
7180.000000	64.565515 
7179.000000	64.497303 
7178.000000	64.332604 
7177.000000	64.073443 
7176.000000	63.744854 
7175.000000	63.388729 
7174.000000	63.052797 
7173.000000	62.778186 
7172.000000	62.588715 
7171.000000	62.481451 
7170.000000	62.427854 
7169.000000	62.380027 
7168.000000	62.284827 
7167.000000	62.099266 
7166.000000	61.804318 
7165.000000	61.409091 
7164.000000	60.951638 
7163.000000	60.487675 
7162.000000	60.079669 
7161.000000	59.775662 
7160.000000	59.604740 
7159.000000	59.570050 
7158.000000	59.653925 
7157.000000	59.824156 
7156.000000	60.044980 
7155.000000	60.282754 
7154.000000	60.516715 
7153.000000	60.735964 
7152.000000	60.944366 
7151.000000	61.149597 
7150.000000	61.364722 
7149.000000	61.599159 
7148.000000	61.858129 
7147.000000	62.139463 
7146.000000	62.434697 
7145.000000	62.731289 
7144.000000	63.011217 
7143.000000	63.254690 
7142.000000	63.443398 
7141.000000	63.565158 
7140.000000	63.615894 
7139.000000	63.601970 
7138.000000	63.543272 
7137.000000	63.467884 
7136.000000	63.407444 
7135.000000	63.388061 
7134.000000	63.427901 
7133.000000	63.529539 
7132.000000	63.679289 
7131.000000	63.851022 
7130.000000	64.014673 
7129.000000	64.142942 
7128.000000	64.216709 
7127.000000	64.231801 
7126.000000	64.198780 
7125.000000	64.140725 
7124.000000	64.086508 
7123.000000	64.062142 
7122.000000	64.083003 
7121.000000	64.151024 
7120.000000	64.255666 
7119.000000	64.375185 
7118.000000	64.483666 
7117.000000	64.556789 
7116.000000	64.579010 
7115.000000	64.544439 
7114.000000	64.459276 
7113.000000	64.342212 
7112.000000	64.220714 
7111.000000	64.122128 
7110.000000	64.069843 
7109.000000	64.079332 
7108.000000	64.156246 
7107.000000	64.295578 
7106.000000	64.484477 
7105.000000	64.706420 
7104.000000	64.944052 
7103.000000	65.182948 
7102.000000	65.411496 
7101.000000	65.620994 
7100.000000	65.803647 
7099.000000	65.950632 
7098.000000	66.052722 
7097.000000	66.101241 
7096.000000	66.091489 
7095.000000	66.025733 
7094.000000	65.915489 
7093.000000	65.781664 
7092.000000	65.649724 
7091.000000	65.544533 
7090.000000	65.479636 
7089.000000	65.453410 
7088.000000	65.443968 
7087.000000	65.415787 
7086.000000	65.330243 
7085.000000	65.158915 
7084.000000	64.893174 
7083.000000	64.550876 
7082.000000	64.172840 
7081.000000	63.815331 
7080.000000	63.537335 
7079.000000	63.384556 
7078.000000	63.375234 
7077.000000	63.497304 
7076.000000	63.709664 
7075.000000	63.955521 
7074.000000	64.177298 
7073.000000	64.331746 
7072.000000	64.396548 
7071.000000	64.378213 
7070.000000	64.306855 
7069.000000	64.224338 
7068.000000	64.167904 
7067.000000	64.161562 
7066.000000	64.209580 
7065.000000	64.291763 
7064.000000	64.370298 
7063.000000	64.395451 
7062.000000	64.321088 
7061.000000	64.115381 
7060.000000	63.775014 
7059.000000	63.326478 
7058.000000	62.828350 
7057.000000	62.361407 
7056.000000	62.015199 
7055.000000	61.868643 
7054.000000	61.971068 
7053.000000	62.335538 
7052.000000	62.926316 
7051.000000	63.663816 
7050.000000	64.436841 
7049.000000	65.127944 
7048.000000	65.631318 
7047.000000	65.873694 
7046.000000	65.824317 
7045.000000	65.500378 
7044.000000	64.953374 
7043.000000	64.255523 
7042.000000	63.481783 
7041.000000	62.695860 
7040.000000	61.946606 
7039.000000	61.268782 
7038.000000	60.687685 
7037.000000	60.226440 
7036.000000	59.905791 
7035.000000	59.745526 
7034.000000	59.755468 
7033.000000	59.934616 
7032.000000	60.263061 
7031.000000	60.709691 
7030.000000	61.228871 
7029.000000	61.777925 
7028.000000	62.322378 
7027.000000	62.846446 
7026.000000	63.352632 
7025.000000	63.855218 
7024.000000	64.370417 
7023.000000	64.902758 
7022.000000	65.440225 
7021.000000	65.948367 
7020.000000	66.380572 
7019.000000	66.683959 
7018.000000	66.820645 
7017.000000	66.771817 
7016.000000	66.550898 
7015.000000	66.196250 
7014.000000	65.768265 
7013.000000	65.331578 
7012.000000	64.942884 
7011.000000	64.641451 
7010.000000	64.445042 
7009.000000	64.349627 
7008.000000	64.335489 
7007.000000	64.377546 
7006.000000	64.453387 
7005.000000	64.544653 
7004.000000	64.640164 
7003.000000	64.731526 
7002.000000	64.813423 
7001.000000	64.880347 
7000.000000	64.926958 
6999.000000	64.945244 
6998.000000	64.928531 
6997.000000	64.875626 
6996.000000	64.791655 
6995.000000	64.683318 
6994.000000	64.565443 
6993.000000	64.461016 
6992.000000	64.396405 
6991.000000	64.395475 
6990.000000	64.474558 
6989.000000	64.639925 
6988.000000	64.880251 
6987.000000	65.167617 
6986.000000	65.460443 
6985.000000	65.711998 
6984.000000	65.878558 
6983.000000	65.929746 
6982.000000	65.853929 
6981.000000	65.661501 
6980.000000	65.386867 
6979.000000	65.080595 
6978.000000	64.800119 
6977.000000	64.594650 
6976.000000	64.498591 
6975.000000	64.518594 
6974.000000	64.634132 
6973.000000	64.798307 
6972.000000	64.950752 
6971.000000	65.029954 
6970.000000	64.987993 
6969.000000	64.802193 
6968.000000	64.480352 
6967.000000	64.057731 
6966.000000	63.585162 
6965.000000	63.119053 
6964.000000	62.707686 
6963.000000	62.382435 
6962.000000	62.152481 
6961.000000	62.009310 
6960.000000	61.932969 
6959.000000	61.902952 
6958.000000	61.905765 
6957.000000	61.938786 
6956.000000	62.008500 
6955.000000	62.126994 
6954.000000	62.304139 
6953.000000	62.539386 
6952.000000	62.818002 
6951.000000	63.111972 
6950.000000	63.385558 
6949.000000	63.602924 
6948.000000	63.738036 
6947.000000	63.781070 
6946.000000	63.743448 
6945.000000	63.653230 
6944.000000	63.552808 
6943.000000	63.487935 
6942.000000	63.499999 
6941.000000	63.617897 
6940.000000	63.851451 
6939.000000	64.192366 
6938.000000	64.612030 
6937.000000	65.071725 
6936.000000	65.523028 
6935.000000	65.917301 
6934.000000	66.212415 
6933.000000	66.380333 
6932.000000	66.410088 
6931.000000	66.307902 
6930.000000	66.099882 
6929.000000	65.826845 
6928.000000	65.538358 
6927.000000	65.282511 
6926.000000	65.097737 
6925.000000	65.003204 
6924.000000	64.995622 
6923.000000	65.048289 
6922.000000	65.117120 
6921.000000	65.151000 
6920.000000	65.103888 
6919.000000	64.948368 
6918.000000	64.678597 
6917.000000	64.317512 
6916.000000	63.910269 
6915.000000	63.516664 
6914.000000	63.193035 
6913.000000	62.984108 
6912.000000	62.911653 
6911.000000	62.973093 
6910.000000	63.142681 
6909.000000	63.381886 
6908.000000	63.650107 
6907.000000	63.912940 
6906.000000	64.147448 
6905.000000	64.343452 
6904.000000	64.500379 
6903.000000	64.620232 
6902.000000	64.701581 
6901.000000	64.739847 
6900.000000	64.727425 
6899.000000	64.659976 
6898.000000	64.539504 
6897.000000	64.377284 
6896.000000	64.191913 
6895.000000	64.010620 
6894.000000	63.859629 
6893.000000	63.756060 
6892.000000	63.703060 
6891.000000	63.688826 
6890.000000	63.690662 
6889.000000	63.681268 
6888.000000	63.638043 
6887.000000	63.551044 
6886.000000	63.425040 
6885.000000	63.276553 
6884.000000	63.130521 
6883.000000	63.011741 
6882.000000	62.938857 
6881.000000	62.918567 
6880.000000	62.944364 
6879.000000	62.998604 
6878.000000	63.057899 
6877.000000	63.100743 
6876.000000	63.111639 
6875.000000	63.085079 
6874.000000	63.030886 
6873.000000	62.971830 
6872.000000	62.938261 
6871.000000	62.960243 
6870.000000	63.059687 
6869.000000	63.243293 
6868.000000	63.500642 
6867.000000	63.805055 
6866.000000	64.117813 
6865.000000	64.398765 
6864.000000	64.614057 
6863.000000	64.746737 
6862.000000	64.800500 
6861.000000	64.797616 
6860.000000	64.775347 
6859.000000	64.769864 
6858.000000	64.808273 
6857.000000	64.895224 
6856.000000	65.015149 
6855.000000	65.130591 
6854.000000	65.196514 
6853.000000	65.168976 
6852.000000	65.021729 
6851.000000	64.749693 
6850.000000	64.372467 
6849.000000	63.930463 
6848.000000	63.476109 
6847.000000	63.065958 
6846.000000	62.749385 
6845.000000	62.561821 
6844.000000	62.518644 
6843.000000	62.615323 
6842.000000	62.828254 
6841.000000	63.119196 
6840.000000	63.441848 
6839.000000	63.747286 
6838.000000	63.993716 
6837.000000	64.147591 
6836.000000	64.193773 
6835.000000	64.134621 
6834.000000	63.991284 
6833.000000	63.797211 
6832.000000	63.591837 
6831.000000	63.414263 
6830.000000	63.292956 
6829.000000	63.242650 
6828.000000	63.260722 
6827.000000	63.331222 
6826.000000	63.429427 
6825.000000	63.530421 
6824.000000	63.613748 
6823.000000	63.667750 
6822.000000	63.690972 
6821.000000	63.690233 
6820.000000	63.677167 
6819.000000	63.663363 
6818.000000	63.658022 
6817.000000	63.665294 
6816.000000	63.683867 
6815.000000	63.708376 
6814.000000	63.733863 
6813.000000	63.756704 
6812.000000	63.776850 
6811.000000	63.796401 
6810.000000	63.817691 
6809.000000	63.841748 
6808.000000	63.867616 
6807.000000	63.891696 
6806.000000	63.907027 
6805.000000	63.907074 
6804.000000	63.887906 
6803.000000	63.850641 
6802.000000	63.801693 
6801.000000	63.752555 
6800.000000	63.716983 
6799.000000	63.707947 
6798.000000	63.734388 
6797.000000	63.798332 
6796.000000	63.894081 
6795.000000	64.009332 
6794.000000	64.127826 
6793.000000	64.235043 
6792.000000	64.320993 
6791.000000	64.381337 
6790.000000	64.416456 
6789.000000	64.428591 
6788.000000	64.419054 
6787.000000	64.386439 
6786.000000	64.326643 
6785.000000	64.234519 
6784.000000	64.106631 
6783.000000	63.946390 
6782.000000	63.763546 
6781.000000	63.574099 
6780.000000	63.397121 
6779.000000	63.251543 
6778.000000	63.151359 
6777.000000	63.101506 
6776.000000	63.098049 
6775.000000	63.128948 
6774.000000	63.177466 
6773.000000	63.227057 
6772.000000	63.263010 
6771.000000	63.275623 
6770.000000	63.258194 
6769.000000	63.206553 
6768.000000	63.118648 
6767.000000	62.994074 
6766.000000	62.837076 
6765.000000	62.657141 
6764.000000	62.470960 
6763.000000	62.300634 
6762.000000	62.169885 
6761.000000	62.100124 
6760.000000	62.102985 
6759.000000	62.180137 
6758.000000	62.322068 
6757.000000	62.513113 
6756.000000	62.733078 
6755.000000	62.964153 
6754.000000	63.194346 
6753.000000	63.418030 
6752.000000	63.634490 
6751.000000	63.843488 
6750.000000	64.040875 
6749.000000	64.216804 
6748.000000	64.356994 
6747.000000	64.445209 
6746.000000	64.467644 
6745.000000	64.420056 
6744.000000	64.313197 
6743.000000	64.169335 
6742.000000	64.019298 
6741.000000	63.895034 
6740.000000	63.822841 
6739.000000	63.816618 
6738.000000	63.874840 
6737.000000	63.981962 
6736.000000	64.111924 
6735.000000	64.234113 
6734.000000	64.319705 
6733.000000	64.347839 
6732.000000	64.308595 
6731.000000	64.202451 
6730.000000	64.039373 
6729.000000	63.834547 
6728.000000	63.606476 
6727.000000	63.371944 
6726.000000	63.147735 
6725.000000	62.947845 
6724.000000	62.787485 
6723.000000	62.681961 
6722.000000	62.647366 
6721.000000	62.696576 
6720.000000	62.838292 
6719.000000	63.072371 
6718.000000	63.388204 
6717.000000	63.762307 
6716.000000	64.162302 
6715.000000	64.550471 
6714.000000	64.889669 
6713.000000	65.148878 
6712.000000	65.310311 
6711.000000	65.371727 
6710.000000	65.345287 
6709.000000	65.253543 
6708.000000	65.125393 
6707.000000	64.989352 
6706.000000	64.869117 
6705.000000	64.779806 
6704.000000	64.729094 
6703.000000	64.717435 
6702.000000	64.741659 
6701.000000	64.797163 
6700.000000	64.880061 
6699.000000	64.988660 
6698.000000	65.120816 
6697.000000	65.275382 
6696.000000	65.447807 
6695.000000	65.632510 
6694.000000	65.821480 
6693.000000	66.005539 
6692.000000	66.176128 
6691.000000	66.323661 
6690.000000	66.440415 
6689.000000	66.515851 
6688.000000	66.539406 
6687.000000	66.497230 
6686.000000	66.376161 
6685.000000	66.165614 
6684.000000	65.862727 
6683.000000	65.474891 
6682.000000	65.021944 
6681.000000	64.536738 
6680.000000	64.060711 
6679.000000	63.636970 
6678.000000	63.302636 
6677.000000	63.081598 
6676.000000	62.981247 
6675.000000	62.988996 
6674.000000	63.079214 
6673.000000	63.218593 
6672.000000	63.375234 
6671.000000	63.521599 
6670.000000	63.640999 
6669.000000	63.725757 
6668.000000	63.777160 
6667.000000	63.798356 
6666.000000	63.793873 
6665.000000	63.765573 
6664.000000	63.714241 
6663.000000	63.640165 
6662.000000	63.546681 
6661.000000	63.442850 
6660.000000	63.341856 
6659.000000	63.259649 
6658.000000	63.211083 
6657.000000	63.206291 
6656.000000	63.248395 
6655.000000	63.332056 
6654.000000	63.443994 
6653.000000	63.564324 
6652.000000	63.674688 
6651.000000	63.757562 
6650.000000	63.795232 
6649.000000	63.772487 
6648.000000	63.678836 
6647.000000	63.511729 
6646.000000	63.274812 
6645.000000	62.983775 
6644.000000	62.665414 
6643.000000	62.355947 
6642.000000	62.096691 
6641.000000	61.924457 
6640.000000	61.866211 
6639.000000	61.928081 
6638.000000	62.093544 
6637.000000	62.323856 
6636.000000	62.565588 
6635.000000	62.762498 
6634.000000	62.867546 
6633.000000	62.855601 
6632.000000	62.728977 
6631.000000	62.518572 
6630.000000	62.276840 
6629.000000	62.065696 
6628.000000	61.943364 
6627.000000	61.955714 
6626.000000	62.125682 
6625.000000	62.451505 
6624.000000	62.904763 
6623.000000	63.437891 
6622.000000	63.991022 
6621.000000	64.501476 
6620.000000	64.915966 
6619.000000	65.197110 
6618.000000	65.332007 
6617.000000	65.329313 
6616.000000	65.219736 
6615.000000	65.047526 
6614.000000	64.862966 
6613.000000	64.714837 
6612.000000	64.639377 
6611.000000	64.657402 
6610.000000	64.770054 
6609.000000	64.965271 
6608.000000	65.215039 
6607.000000	65.483736 
6606.000000	65.731906 
6605.000000	65.923714 
6604.000000	66.029429 
6603.000000	66.029620 
6602.000000	65.915536 
6601.000000	65.690588 
6600.000000	65.371394 
6599.000000	64.985656 
6598.000000	64.569926 
6597.000000	64.163160 
6596.000000	63.804292 
6595.000000	63.522768 
6594.000000	63.335680 
6593.000000	63.243079 
6592.000000	63.229298 
6591.000000	63.267755 
6590.000000	63.321733 
6589.000000	63.360619 
6588.000000	63.364219 
6587.000000	63.332056 
6586.000000	63.276886 
6585.000000	63.227224 
6584.000000	63.215613 
6583.000000	63.271999 
6582.000000	63.412523 
6581.000000	63.636970 
6580.000000	63.927221 
6579.000000	64.250969 
6578.000000	64.568877 
6577.000000	64.841508 
6576.000000	65.037083 
6575.000000	65.134477 
6574.000000	65.125870 
6573.000000	65.015673 
6572.000000	64.818477 
6571.000000	64.557266 
6570.000000	64.258790 
6569.000000	63.949775 
6568.000000	63.653492 
6567.000000	63.394045 
6566.000000	63.189053 
6565.000000	63.047790 
6564.000000	62.970376 
6563.000000	62.949395 
6562.000000	62.971258 
6561.000000	63.016915 
6560.000000	63.067865 
6559.000000	63.107538 
6558.000000	63.125586 
6557.000000	63.117218 
6556.000000	63.083457 
6555.000000	63.029193 
6554.000000	62.959098 
6553.000000	62.875366 
6552.000000	62.776660 
6551.000000	62.659406 
6550.000000	62.519812 
6549.000000	62.358069 
6548.000000	62.180161 
6547.000000	62.001347 
6546.000000	61.846256 
6545.000000	61.747670 
6544.000000	61.737632 
6543.000000	61.842846 
6542.000000	62.079524 
6541.000000	62.446904 
6540.000000	62.924742 
6539.000000	63.473510 
6538.000000	64.039397 
6537.000000	64.563322 
6536.000000	64.989042 
6535.000000	65.277338 
6534.000000	65.411067 
6533.000000	65.402030 
6532.000000	65.287280 
6531.000000	65.121912 
6530.000000	64.967131 
6529.000000	64.876198 
6528.000000	64.885950 
6527.000000	65.005922 
6526.000000	65.220165 
6525.000000	65.490889 
6524.000000	65.770792 
6523.000000	66.011571 
6522.000000	66.175341 
6521.000000	66.241097 
6520.000000	66.206836 
6519.000000	66.085743 
6518.000000	65.899372 
6517.000000	65.671920 
6516.000000	65.421938 
6515.000000	65.160870 
6514.000000	64.890146 
6513.000000	64.608907 
6512.000000	64.313411 
6511.000000	64.003801 
6510.000000	63.684868 
6509.000000	63.365387 
6508.000000	63.060545 
6507.000000	62.787556 
6506.000000	62.565612 
6505.000000	62.405514 
6504.000000	62.316608 
6503.000000	62.303113 
6502.000000	62.365603 
6501.000000	62.497782 
6500.000000	62.689924 
6499.000000	62.927961 
6498.000000	63.193917 
6497.000000	63.466167 
6496.000000	63.721346 
6495.000000	63.936924 
6494.000000	64.094281 
6493.000000	64.182281 
6492.000000	64.200401 
6491.000000	64.159822 
6490.000000	64.082074 
6489.000000	63.995051 
6488.000000	63.929533 
6487.000000	63.910245 
6486.000000	63.955688 
6485.000000	64.068055 
6484.000000	64.233827 
6483.000000	64.423823 
6482.000000	64.603471 
6481.000000	64.736413 
6480.000000	64.792609 
6479.000000	64.755272 
6478.000000	64.625430 
6477.000000	64.419984 
6476.000000	64.166927 
6475.000000	63.899517 
6474.000000	63.649249 
6473.000000	63.439702 
6472.000000	63.283514 
6471.000000	63.181614 
6470.000000	63.126063 
6469.000000	63.103914 
6468.000000	63.102173 
6467.000000	63.109397 
6466.000000	63.118934 
6465.000000	63.127994 
6464.000000	63.138771 
6463.000000	63.153338 
6462.000000	63.175535 
6461.000000	63.209390 
6460.000000	63.260293 
6459.000000	63.332724 
6458.000000	63.430595 
6457.000000	63.557291 
6456.000000	63.712596 
6455.000000	63.891983 
6454.000000	64.084744 
6453.000000	64.275979 
6452.000000	64.446878 
6451.000000	64.578938 
6450.000000	64.656257 
6449.000000	64.669775 
6448.000000	64.618182 
6447.000000	64.509773 
6446.000000	64.359331 
6445.000000	64.185643 
6444.000000	64.009356 
6443.000000	63.850212 
6442.000000	63.724446 
6441.000000	63.643240 
6440.000000	63.613295 
6439.000000	63.635945 
6438.000000	63.707923 
6437.000000	63.820242 
6436.000000	63.958096 
6435.000000	64.101290 
6434.000000	64.225625 
6433.000000	64.306473 
6432.000000	64.321923 
6431.000000	64.258122 
6430.000000	64.111804 
6429.000000	63.893342 
6428.000000	63.624668 
6427.000000	63.337469 
6426.000000	63.067650 
6425.000000	62.849044 
6424.000000	62.706470 
6423.000000	62.652897 
6422.000000	62.688064 
6421.000000	62.799668 
6420.000000	62.966728 
6419.000000	63.164234 
6418.000000	63.367795 
6417.000000	63.555932 
6416.000000	63.711833 
6415.000000	63.822340 
6414.000000	63.877487 
6413.000000	63.870954 
6412.000000	63.801121 
6411.000000	63.671565 
6410.000000	63.492512 
6409.000000	63.284397 
6408.000000	63.074278 
6407.000000	62.892580 
6406.000000	62.765741 
6405.000000	62.712574 
6404.000000	62.737607 
6403.000000	62.830090 
6402.000000	62.965559 
6401.000000	63.110065 
6400.000000	63.229799 
6399.000000	63.297343 
6398.000000	63.300275 
6397.000000	63.242197 
6396.000000	63.142776 
6395.000000	63.030338 
6394.000000	62.935948 
6393.000000	62.884974 
6392.000000	62.890815 
6391.000000	62.951922 
6390.000000	63.054490 
6389.000000	63.177609 
6388.000000	63.301253 
6387.000000	63.413119 
6386.000000	63.511276 
6385.000000	63.604569 
6384.000000	63.710141 
6383.000000	63.847208 
6382.000000	64.029002 
6381.000000	64.256882 
6380.000000	64.519166 
6379.000000	64.790821 
6378.000000	65.040850 
6377.000000	65.237021 
6376.000000	65.355014 
6375.000000	65.382933 
6374.000000	65.325284 
6373.000000	65.200805 
6372.000000	65.037775 
6371.000000	64.868211 
6370.000000	64.721822 
6369.000000	64.620065 
6368.000000	64.574456 
6367.000000	64.584469 
6366.000000	64.641475 
6365.000000	64.729070 
6364.000000	64.828348 
6363.000000	64.920139 
6362.000000	64.988422 
6361.000000	65.021228 
6360.000000	65.011572 
6359.000000	64.957404 
6358.000000	64.860963 
6357.000000	64.729714 
6356.000000	64.574122 
6355.000000	64.405536 
6354.000000	64.234209 
6353.000000	64.069437 
6352.000000	63.918423 
6351.000000	63.783955 
6350.000000	63.667583 
6349.000000	63.570976 
6348.000000	63.497400 
6347.000000	63.449788 
6346.000000	63.432741 
6345.000000	63.449597 
6344.000000	63.502907 
6343.000000	63.590192 
6342.000000	63.706254 
6341.000000	63.840723 
6340.000000	63.983225 
6339.000000	64.124417 
6338.000000	64.257884 
6337.000000	64.379930 
6336.000000	64.489483 
6335.000000	64.586496 
6334.000000	64.668536 
6333.000000	64.729475 
6332.000000	64.758682 
6331.000000	64.742660 
6330.000000	64.670205 
6329.000000	64.534759 
6328.000000	64.339232 
6327.000000	64.094805 
6326.000000	63.819241 
6325.000000	63.533329 
6324.000000	63.257265 
6323.000000	63.008451 
6322.000000	62.795805 
6321.000000	62.625288 
6320.000000	62.499547 
6319.000000	62.423682 
6318.000000	62.403059 
6317.000000	62.446689 
6316.000000	62.562179 
6315.000000	62.754178 
6314.000000	63.018584 
6313.000000	63.340473 
6312.000000	63.692235 
6311.000000	64.038133 
6310.000000	64.339494 
6309.000000	64.561367 
6308.000000	64.679312 
6307.000000	64.682483 
6306.000000	64.575672 
6305.000000	64.376330 
6304.000000	64.111495 
6303.000000	63.813209 
6302.000000	63.514590 
6301.000000	63.244915 
6300.000000	63.029003 
6299.000000	62.887358 
6298.000000	62.835955 
6297.000000	62.885046 
6296.000000	63.038372 
6295.000000	63.290739 
6294.000000	63.627433 
6293.000000	64.022850 
6292.000000	64.443087 
6291.000000	64.847445 
6290.000000	65.195488 
6289.000000	65.453195 
6288.000000	65.598130 
6287.000000	65.621995 
6286.000000	65.533709 
6285.000000	65.357995 
6284.000000	65.130829 
6283.000000	64.893341 
6282.000000	64.684009 
6281.000000	64.532256 
6280.000000	64.451289 
6279.000000	64.436531 
6278.000000	64.465379 
6277.000000	64.503002 
6276.000000	64.510345 
6275.000000	64.453935 
6274.000000	64.311981 
6273.000000	64.081311 
6272.000000	63.777065 
6271.000000	63.431429 
6270.000000	63.085007 
6269.000000	62.779760 
6268.000000	62.547302 
6267.000000	62.406229 
6266.000000	62.358427 
6265.000000	62.393569 
6264.000000	62.492108 
6263.000000	62.634038 
6262.000000	62.801623 
6261.000000	62.985038 
6260.000000	63.180017 
6259.000000	63.387131 
6258.000000	63.604283 
6257.000000	63.828039 
6256.000000	64.050173 
6255.000000	64.258623 
6254.000000	64.438724 
6253.000000	64.575266 
6252.000000	64.655017 
6251.000000	64.669609 
6250.000000	64.616680 
6249.000000	64.498209 
6248.000000	64.321374 
6247.000000	64.097571 
6246.000000	63.843512 
6245.000000	63.580822 
6244.000000	63.335633 
6243.000000	63.135027 
6242.000000	63.005304 
6241.000000	62.967348 
6240.000000	63.034129 
6239.000000	63.205265 
6238.000000	63.468980 
6237.000000	63.801431 
6236.000000	64.171934 
6235.000000	64.547061 
6234.000000	64.894890 
6233.000000	65.187907 
6232.000000	65.406394 
6231.000000	65.539598 
6230.000000	65.586137 
6229.000000	65.552902 
6228.000000	65.454125 
6227.000000	65.309214 
6226.000000	65.140509 
6225.000000	64.970135 
6224.000000	64.817309 
6223.000000	64.694547 
6222.000000	64.606523 
6221.000000	64.547967 
6220.000000	64.504456 
6219.000000	64.454960 
6218.000000	64.377069 
6217.000000	64.251971 
6216.000000	64.067935 
6215.000000	63.825249 
6214.000000	63.534235 
6213.000000	63.217782 
6212.000000	62.904095 
6211.000000	62.626004 
6210.000000	62.411904 
6209.000000	62.285232 
6208.000000	62.258338 
6207.000000	62.333941 
6206.000000	62.504386 
6205.000000	62.753438 
6204.000000	63.057374 
6203.000000	63.389229 
6202.000000	63.721132 
6201.000000	64.027118 
6200.000000	64.284729 
6199.000000	64.478254 
6198.000000	64.598464 
6197.000000	64.644265 
6196.000000	64.619874 
6195.000000	64.532089 
6194.000000	64.387559 
6193.000000	64.193940 
6192.000000	63.958978 
6191.000000	63.692378 
6190.000000	63.407349 
6189.000000	63.123345 
6188.000000	62.864279 
6187.000000	62.655854 
6186.000000	62.521386 
6185.000000	62.475609 
6184.000000	62.522768 
6183.000000	62.652993 
6182.000000	62.846279 
6181.000000	63.072657 
6180.000000	63.302445 
6179.000000	63.509416 
6178.000000	63.678956 
6177.000000	63.807797 
6176.000000	63.904786 
6175.000000	63.985228 
6174.000000	64.066052 
6173.000000	64.159393 
6172.000000	64.269256 
6171.000000	64.390015 
6170.000000	64.508533 
6169.000000	64.608049 
6168.000000	64.673471 
6167.000000	64.695453 
6166.000000	64.673495 
6165.000000	64.615345 
6164.000000	64.535427 
6163.000000	64.449262 
6162.000000	64.371323 
6161.000000	64.308357 
6160.000000	64.259028 
6159.000000	64.212775 
6158.000000	64.155530 
6157.000000	64.071965 
6156.000000	63.950943 
6155.000000	63.789510 
6154.000000	63.594222 
6153.000000	63.381600 
6152.000000	63.173437 
6151.000000	62.994527 
6150.000000	62.865018 
6149.000000	62.800598 
6148.000000	62.808942 
6147.000000	62.889170 
6146.000000	63.031888 
6145.000000	63.222885 
6144.000000	63.445472 
6143.000000	63.681626 
6142.000000	63.913965 
6141.000000	64.127111 
6140.000000	64.308667 
6139.000000	64.448952 
6138.000000	64.541649 
6137.000000	64.584636 
6136.000000	64.579200 
6135.000000	64.531779 
6134.000000	64.451003 
6133.000000	64.347863 
6132.000000	64.233016 
6131.000000	64.118146 
6130.000000	64.012455 
6129.000000	63.922905 
6128.000000	63.853049 
6127.000000	63.805103 
6126.000000	63.777780 
6125.000000	63.767051 
6124.000000	63.767170 
6123.000000	63.771605 
6122.000000	63.774371 
6121.000000	63.770198 
6120.000000	63.756585 
6119.000000	63.733649 
6118.000000	63.703727 
6117.000000	63.670516 
6116.000000	63.637685 
6115.000000	63.608050 
6114.000000	63.583254 
6113.000000	63.563895 
6112.000000	63.548874 
6111.000000	63.537287 
6110.000000	63.530611 
6109.000000	63.532900 
6108.000000	63.548421 
6107.000000	63.582158 
6106.000000	63.637614 
6105.000000	63.716197 
6104.000000	63.814616 
6103.000000	63.927030 
6102.000000	64.045524 
6101.000000	64.162731 
6100.000000	64.273715 
6099.000000	64.375948 
6098.000000	64.469122 
6097.000000	64.553976 
6096.000000	64.631462 
6095.000000	64.700222 
6094.000000	64.756250 
6093.000000	64.793896 
6092.000000	64.807605 
6091.000000	64.793992 
6090.000000	64.753460 
6089.000000	64.691138 
6088.000000	64.615511 
6087.000000	64.536118 
6086.000000	64.460134 
6085.000000	64.390850 
6084.000000	64.326167 
6083.000000	64.258956 
6082.000000	64.179396 
6081.000000	64.079213 
6080.000000	63.954710 
6079.000000	63.807845 
6078.000000	63.647866 
6077.000000	63.488507 
6076.000000	63.346672 
6075.000000	63.237190 
6074.000000	63.171553 
6073.000000	63.153409 
6072.000000	63.180613 
6071.000000	63.246273 
6070.000000	63.339900 
6069.000000	63.449311 
6068.000000	63.562560 
6067.000000	63.669061 
6066.000000	63.759994 
6065.000000	63.828372 
6064.000000	63.869667 
6063.000000	63.882064 
6062.000000	63.867664 
6061.000000	63.832616 
6060.000000	63.786745 
6059.000000	63.742566 
6058.000000	63.713693 
6057.000000	63.712549 
6056.000000	63.747930 
6055.000000	63.823485 
6054.000000	63.937449 
6053.000000	64.082622 
6052.000000	64.248418 
6051.000000	64.420771 
6050.000000	64.586400 
6049.000000	64.730834 
6048.000000	64.840054 
6047.000000	64.901518 
6046.000000	64.905524 
6045.000000	64.848399 
6044.000000	64.733529 
6043.000000	64.573669 
6042.000000	64.390254 
6041.000000	64.210462 
6040.000000	64.062762 
6039.000000	63.971471 
6038.000000	63.952064 
6037.000000	64.007973 
6036.000000	64.129924 
6035.000000	64.297485 
6034.000000	64.483499 
6033.000000	64.659690 
6032.000000	64.802265 
6031.000000	64.894795 
6030.000000	64.931154 
6029.000000	64.914202 
6028.000000	64.854979 
6027.000000	64.768671 
6026.000000	64.671754 
6025.000000	64.579820 
6024.000000	64.504027 
6023.000000	64.453101 
6022.000000	64.428758 
6021.000000	64.428138 
6020.000000	64.442896 
6019.000000	64.460825 
6018.000000	64.470505 
6017.000000	64.463663 
6016.000000	64.438390 
6015.000000	64.398145 
6014.000000	64.353251 
6013.000000	64.317226 
6012.000000	64.303946 
6011.000000	64.323186 
6010.000000	64.377999 
6009.000000	64.463186 
6008.000000	64.566397 
6007.000000	64.670825 
6006.000000	64.757776 
6005.000000	64.811563 
6004.000000	64.822673 
6003.000000	64.791107 
6002.000000	64.725828 
6001.000000	64.644265 
6000.000000	64.567303 
5999.000000	64.515733 
5998.000000	64.507675 
5997.000000	64.552378 
5996.000000	64.650440 
5995.000000	64.790105 
5994.000000	64.950704 
5993.000000	65.104746 
5992.000000	65.223932 
5991.000000	65.284800 
5990.000000	65.273880 
5989.000000	65.190434 
5988.000000	65.046072 
5987.000000	64.862227 
5986.000000	64.665341 
5985.000000	64.480972 
5984.000000	64.328980 
5983.000000	64.222812 
5982.000000	64.169073 
5981.000000	64.168262 
5980.000000	64.216399 
5979.000000	64.307260 
5978.000000	64.433073 
5977.000000	64.583897 
5976.000000	64.747643 
5975.000000	64.908790 
5974.000000	65.050411 
5973.000000	65.155243 
5972.000000	65.209436 
5971.000000	65.205192 
5970.000000	65.142416 
5969.000000	65.031647 
5968.000000	64.888858 
5967.000000	64.733695 
5966.000000	64.583563 
5965.000000	64.451980 
5964.000000	64.344167 
5963.000000	64.259171 
5962.000000	64.188838 
5961.000000	64.122843 
5960.000000	64.049148 
5959.000000	63.958692 
5958.000000	63.844275 
5957.000000	63.702106 
5956.000000	63.532090 
5955.000000	63.338351 
5954.000000	63.129234 
5953.000000	62.917733 
5952.000000	62.720036 
5951.000000	62.555122 
5950.000000	62.442326 
5949.000000	62.398862 
5948.000000	62.435340 
5947.000000	62.554049 
5946.000000	62.745785 
5945.000000	62.992191 
5944.000000	63.266706 
5943.000000	63.540863 
5942.000000	63.787770 
5941.000000	63.987350 
5940.000000	64.128708 
5939.000000	64.210152 
5938.000000	64.238619 
5937.000000	64.224243 
5936.000000	64.178037 
5935.000000	64.107036 
5934.000000	64.015483 
5933.000000	63.902473 
5932.000000	63.765597 
5931.000000	63.604283 
5930.000000	63.423681 
5929.000000	63.235235 
5928.000000	63.056731 
5927.000000	62.909436 
5926.000000	62.814211 
5925.000000	62.785625 
5924.000000	62.829399 
5923.000000	62.940120 
5922.000000	63.103699 
5921.000000	63.299322 
5920.000000	63.505673 
5919.000000	63.704347 
5918.000000	63.883686 
5917.000000	64.039611 
5916.000000	64.173698 
5915.000000	64.289903 
5914.000000	64.390587 
5913.000000	64.475178 
5912.000000	64.537262 
5911.000000	64.567399 
5910.000000	64.554977 
5909.000000	64.494371 
5908.000000	64.386010 
5907.000000	64.239716 
5906.000000	64.072203 
5905.000000	63.904857 
5904.000000	63.759040 
5903.000000	63.652157 
5902.000000	63.594341 
5901.000000	63.586997 
5900.000000	63.624572 
5899.000000	63.696408 
5898.000000	63.789057 
5897.000000	63.889026 
5896.000000	63.984751 
5895.000000	64.067697 
5894.000000	64.131546 
5893.000000	64.172506 
5892.000000	64.187550 
5891.000000	64.175391 
5890.000000	64.136886 
5889.000000	64.075422 
5888.000000	63.996863 
5887.000000	63.909840 
5886.000000	63.825845 
5885.000000	63.756632 
5884.000000	63.712430 
5883.000000	63.699746 
5882.000000	63.720035 
5881.000000	63.769388 
5880.000000	63.838887 
5879.000000	63.917589 
5878.000000	63.994622 
5877.000000	64.062070 
5876.000000	64.116024 
5875.000000	64.157342 
5874.000000	64.190459 
5873.000000	64.222502 
5872.000000	64.260244 
5871.000000	64.307236 
5870.000000	64.361858 
5869.000000	64.418649 
5868.000000	64.468407 
5867.000000	64.500331 
5866.000000	64.504575 
5865.000000	64.475131 
5864.000000	64.412069 
5863.000000	64.322018 
5862.000000	64.218020 
5861.000000	64.116621 
5860.000000	64.035034 
5859.000000	63.988399 
5858.000000	63.985228 
5857.000000	64.026761 
5856.000000	64.104628 
5855.000000	64.203286 
5854.000000	64.302062 
5853.000000	64.379572 
5852.000000	64.418840 
5851.000000	64.410901 
5850.000000	64.357447 
5849.000000	64.269590 
5848.000000	64.167666 
5847.000000	64.076638 
5846.000000	64.020442 
5845.000000	64.016795 
5844.000000	64.074993 
5843.000000	64.193439 
5842.000000	64.360928 
5841.000000	64.558315 
5840.000000	64.762663 
5839.000000	64.951086 
5838.000000	65.104913 
5837.000000	65.212225 
5836.000000	65.268135 
5835.000000	65.274858 
5834.000000	65.240526 
5833.000000	65.175867 
5832.000000	65.092611 
5831.000000	65.000009 
5830.000000	64.906573 
5829.000000	64.816284 
5828.000000	64.731788 
5827.000000	64.651918 
5826.000000	64.574885 
5825.000000	64.496660 
5824.000000	64.413189 
5823.000000	64.319825 
5822.000000	64.212560 
5821.000000	64.089798 
5820.000000	63.953495 
5819.000000	63.809347 
5818.000000	63.666939 
5817.000000	63.538718 
5816.000000	63.438677 
5815.000000	63.378930 
5814.000000	63.368535 
5813.000000	63.410687 
5812.000000	63.503265 
5811.000000	63.637709 
5810.000000	63.801860 
5809.000000	63.982415 
5808.000000	64.165949 
5807.000000	64.340400 
5806.000000	64.494943 
5805.000000	64.621400 
5804.000000	64.712119 
5803.000000	64.760828 
5802.000000	64.762115 
5801.000000	64.713191 
5800.000000	64.614939 
5799.000000	64.474320 
5798.000000	64.303302 
5797.000000	64.118862 
5796.000000	63.940191 
5795.000000	63.786482 
5794.000000	63.672232 
5793.000000	63.605070 
5792.000000	63.584733 
5791.000000	63.604092 
5790.000000	63.651466 
5789.000000	63.713979 
5788.000000	63.780355 
5787.000000	63.843202 
5786.000000	63.899302 
5785.000000	63.948941 
5784.000000	63.993310 
5783.000000	64.032793 
5782.000000	64.065194 
5781.000000	64.085721 
5780.000000	64.088630 
5779.000000	64.068174 
5778.000000	64.022994 
5777.000000	63.954854 
5776.000000	63.870310 
5775.000000	63.777995 
5774.000000	63.687157 
5773.000000	63.605499 
5772.000000	63.537192 
5771.000000	63.483834 
5770.000000	63.444614 
5769.000000	63.418555 
5768.000000	63.405752 
5767.000000	63.406229 
5766.000000	63.419222 
5765.000000	63.442277 
5764.000000	63.470506 
5763.000000	63.495039 
5762.000000	63.504958 
5761.000000	63.489890 
5760.000000	63.443303 
5759.000000	63.365054 
5758.000000	63.262391 
5757.000000	63.148975 
5756.000000	63.041615 
5755.000000	62.956547 
5754.000000	62.905073 
5753.000000	62.889981 
5752.000000	62.906336 
5751.000000	62.942814 
5750.000000	62.986373 
5749.000000	63.025879 
5748.000000	63.055753 
5747.000000	63.076329 
5746.000000	63.094377 
5745.000000	63.119292 
5744.000000	63.160753 
5743.000000	63.224124 
5742.000000	63.310217 
5741.000000	63.414478 
5740.000000	63.528442 
5739.000000	63.641929 
5738.000000	63.746333 
5737.000000	63.836002 
5736.000000	63.908791 
5735.000000	63.965153 
5734.000000	64.006447 
5733.000000	64.033246 
5732.000000	64.044785 
5731.000000	64.038538 
5730.000000	64.011406 
5729.000000	63.961458 
5728.000000	63.889718 
5727.000000	63.801479 
5726.000000	63.706207 
5725.000000	63.616776 
5724.000000	63.546848 
5723.000000	63.508701 
5722.000000	63.510251 
5721.000000	63.553690 
5720.000000	63.634657 
5719.000000	63.743352 
5718.000000	63.866209 
5717.000000	63.988971 
5716.000000	64.099168 
5715.000000	64.188575 
5714.000000	64.253759 
5713.000000	64.295959 
5712.000000	64.319109 
5711.000000	64.328193 
5710.000000	64.326572 
5709.000000	64.315223 
5708.000000	64.291667 
5707.000000	64.251399 
5706.000000	64.189052 
5705.000000	64.101743 
5704.000000	63.990330 
5703.000000	63.860869 
5702.000000	63.723921 
5701.000000	63.593125 
5700.000000	63.482236 
5699.000000	63.401746 
5698.000000	63.356804 
5697.000000	63.345170 
5696.000000	63.359475 
5695.000000	63.387608 
5694.000000	63.418626 
5693.000000	63.444352 
5692.000000	63.463497 
5691.000000	63.480830 
5690.000000	63.506221 
5689.000000	63.549923 
5688.000000	63.619160 
5687.000000	63.714504 
5686.000000	63.828659 
5685.000000	63.947582 
5684.000000	64.053320 
5683.000000	64.128589 
5682.000000	64.161920 
5681.000000	64.150428 
5680.000000	64.100837 
5679.000000	64.027118 
5678.000000	63.946819 
5677.000000	63.876366 
5676.000000	63.827419 
5675.000000	63.804030 
5674.000000	63.803124 
5673.000000	63.815808 
5672.000000	63.831639 
5671.000000	63.841629 
5670.000000	63.840889 
5669.000000	63.830423 
5668.000000	63.815212 
5667.000000	63.804244 
5666.000000	63.806462 
5665.000000	63.829755 
5664.000000	63.877940 
5663.000000	63.950347 
5662.000000	64.041638 
5661.000000	64.142608 
5660.000000	64.242482 
5659.000000	64.328956 
5658.000000	64.390826 
5657.000000	64.418983 
5656.000000	64.408278 
5655.000000	64.358520 
5654.000000	64.274859 
5653.000000	64.167785 
5652.000000	64.051103 
5651.000000	63.940954 
5650.000000	63.851428 
5649.000000	63.793182 
5648.000000	63.769221 
5647.000000	63.775324 
5646.000000	63.799548 
5645.000000	63.825464 
5644.000000	63.835835 
5643.000000	63.815784 
5642.000000	63.758111 
5641.000000	63.663148 
5640.000000	63.541841 
5639.000000	63.411808 
5638.000000	63.295435 
5637.000000	63.213586 
5636.000000	63.182806 
5635.000000	63.211441 
5634.000000	63.298606 
5633.000000	63.434481 
5632.000000	63.602256 
5631.000000	63.781690 
5630.000000	63.952255 
5629.000000	64.097023 
5628.000000	64.204216 
5627.000000	64.268660 
5626.000000	64.291477 
5625.000000	64.278721 
5624.000000	64.239168 
5623.000000	64.182043 
5622.000000	64.116978 
5621.000000	64.050912 
5620.000000	63.988780 
5619.000000	63.931870 
5618.000000	63.880872 
5617.000000	63.834333 
5616.000000	63.790059 
5615.000000	63.746023 
5614.000000	63.700795 
5613.000000	63.654637 
5612.000000	63.608598 
5611.000000	63.565611 
5610.000000	63.529109 
5609.000000	63.503479 
5608.000000	63.492441 
5607.000000	63.499140 
5606.000000	63.525104 
5605.000000	63.570618 
5604.000000	63.634395 
5603.000000	63.714003 
5602.000000	63.806295 
5601.000000	63.908410 
5600.000000	64.017844 
5599.000000	64.131402 
5598.000000	64.244985 
5597.000000	64.354491 
5596.000000	64.454865 
5595.000000	64.540243 
5594.000000	64.604926 
5593.000000	64.644479 
5592.000000	64.657235 
5591.000000	64.645743 
5590.000000	64.616322 
5589.000000	64.578390 
5588.000000	64.542484 
5587.000000	64.519500 
5586.000000	64.516735 
5585.000000	64.537072 
5584.000000	64.577555 
5583.000000	64.630842 
5582.000000	64.686059 
5581.000000	64.731884 
5580.000000	64.759039 
5579.000000	64.762353 
5578.000000	64.741325 
5577.000000	64.699697 
5576.000000	64.643669 
5575.000000	64.579939 
5574.000000	64.513230 
5573.000000	64.445376 
5572.000000	64.375233 
5571.000000	64.300251 
5570.000000	64.218473 
5569.000000	64.130949 
5568.000000	64.042019 
5567.000000	63.960552 
5566.000000	63.898134 
5565.000000	63.866615 
5564.000000	63.873887 
5563.000000	63.921952 
5562.000000	64.005923 
5561.000000	64.114284 
5560.000000	64.229989 
5559.000000	64.335441 
5558.000000	64.415693 
5557.000000	64.462161 
5556.000000	64.473676 
5555.000000	64.456295 
5554.000000	64.420557 
5553.000000	64.378952 
5552.000000	64.342594 
5551.000000	64.319133 
5550.000000	64.311742 
5549.000000	64.319825 
5548.000000	64.340376 
5547.000000	64.369940 
5546.000000	64.405655 
5545.000000	64.446330 
5544.000000	64.491653 
5543.000000	64.541006 
5542.000000	64.592003 
5541.000000	64.640378 
5540.000000	64.679074 
5539.000000	64.698839 
5538.000000	64.689898 
5537.000000	64.645600 
5536.000000	64.563083 
5535.000000	64.444518 
5534.000000	64.297676 
5533.000000	64.135193 
5532.000000	63.972878 
5531.000000	63.826966 
5530.000000	63.711738 
5529.000000	63.636875 
5528.000000	63.606142 
5527.000000	63.617181 
5526.000000	63.661694 
5525.000000	63.727355 
5524.000000	63.800263 
5523.000000	63.867616 
5522.000000	63.919210 
5521.000000	63.948869 
5520.000000	63.954281 
5519.000000	63.937044 
5518.000000	63.901424 
5517.000000	63.854193 
5516.000000	63.803195 
5515.000000	63.757085 
5514.000000	63.724660 
5513.000000	63.713717 
5512.000000	63.731026 
5511.000000	63.780021 
5510.000000	63.860106 
5509.000000	63.965606 
5508.000000	64.085960 
5507.000000	64.207339 
5506.000000	64.314055 
5505.000000	64.393067 
5504.000000	64.436340 
5503.000000	64.443135 
5502.000000	64.420509 
5501.000000	64.380502 
5500.000000	64.336729 
5499.000000	64.301347 
5498.000000	64.282131 
5497.000000	64.280915 
5496.000000	64.294195 
5495.000000	64.315390 
5494.000000	64.337635 
5493.000000	64.356255 
5492.000000	64.370036 
5491.000000	64.381051 
5490.000000	64.393138 
5489.000000	64.409947 
5488.000000	64.432644 
5487.000000	64.458680 
5486.000000	64.481496 
5485.000000	64.492225 
5484.000000	64.481687 
5483.000000	64.443588 
5482.000000	64.375948 
5481.000000	64.282393 
5480.000000	64.171624 
5479.000000	64.055132 
5478.000000	63.946032 
5477.000000	63.856530 
5476.000000	63.795590 
5475.000000	63.767480 
5474.000000	63.771295 
5473.000000	63.801598 
5472.000000	63.849735 
5471.000000	63.905549 
5470.000000	63.959598 
5469.000000	64.004683 
5468.000000	64.037036 
5467.000000	64.056348 
5466.000000	64.064908 
5465.000000	64.066433 
5464.000000	64.064812 
5463.000000	64.063024 
5462.000000	64.063596 
5461.000000	64.067435 
5460.000000	64.074420 
5459.000000	64.082860 
5458.000000	64.091277 
5457.000000	64.097023 
5456.000000	64.097046 
5455.000000	64.087748 
5454.000000	64.065504 
5453.000000	64.028096 
5452.000000	63.974761 
5451.000000	63.908481 
5450.000000	63.835382 
5449.000000	63.765358 
5448.000000	63.710212 
5447.000000	63.681173 
5446.000000	63.686084 
5445.000000	63.728117 
5444.000000	63.804697 
5443.000000	63.907575 
5442.000000	64.024186 
5441.000000	64.140486 
5440.000000	64.243197 
5439.000000	64.322423 
5438.000000	64.371824 
5437.000000	64.388799 
5436.000000	64.372825 
5435.000000	64.324498 
5434.000000	64.244484 
5433.000000	64.134049 
5432.000000	63.995766 
5431.000000	63.834834 
5430.000000	63.659691 
5429.000000	63.483405 
5428.000000	63.320684 
5427.000000	63.185787 
5426.000000	63.090157 
5425.000000	63.038730 
5424.000000	63.031387 
5423.000000	63.061594 
5422.000000	63.120579 
5421.000000	63.198256 
5420.000000	63.287091 
5419.000000	63.382649 
5418.000000	63.483333 
5417.000000	63.588571 
5416.000000	63.695931 
5415.000000	63.799262 
5414.000000	63.888406 
5413.000000	63.950729 
5412.000000	63.974261 
5411.000000	63.951325 
5410.000000	63.882231 
5409.000000	63.776326 
5408.000000	63.651108 
5407.000000	63.528895 
5406.000000	63.431739 
5405.000000	63.377094 
5404.000000	63.374590 
5403.000000	63.424062 
5402.000000	63.517427 
5401.000000	63.639664 
5400.000000	63.772392 
5399.000000	63.897252 
5398.000000	63.999938 
5397.000000	64.071178 
5396.000000	64.106631 
5395.000000	64.107465 
5394.000000	64.078664 
5393.000000	64.027857 
5392.000000	63.963246 
5391.000000	63.893651 
5390.000000	63.827681 
5389.000000	63.773941 
5388.000000	63.740444 
5387.000000	63.733410 
5386.000000	63.756251 
5385.000000	63.808441 
5384.000000	63.885045 
5383.000000	63.976120 
5382.000000	64.068555 
5381.000000	64.148020 
5380.000000	64.201974 
5379.000000	64.221763 
5378.000000	64.205217 
5377.000000	64.156723 
5376.000000	64.087057 
5375.000000	64.011526 
5374.000000	63.946318 
5373.000000	63.904404 
5372.000000	63.893890 
5371.000000	63.917088 
5370.000000	63.970541 
5369.000000	64.047217 
5368.000000	64.137482 
5367.000000	64.231657 
5366.000000	64.321017 
5365.000000	64.399123 
5364.000000	64.461231 
5363.000000	64.504265 
5362.000000	64.527630 
5361.000000	64.532637 
5360.000000	64.523124 
5359.000000	64.504337 
5358.000000	64.481568 
5357.000000	64.459061 
5356.000000	64.438629 
5355.000000	64.420008 
5354.000000	64.401197 
5353.000000	64.380764 
5352.000000	64.357376 
5351.000000	64.333653 
5350.000000	64.316534 
5349.000000	64.316821 
5348.000000	64.346003 
5347.000000	64.413213 
5346.000000	64.522647 
5345.000000	64.670181 
5344.000000	64.842462 
5343.000000	65.019130 
5342.000000	65.177202 
5341.000000	65.295076 
5340.000000	65.357565 
5339.000000	65.358638 
5338.000000	65.302801 
5337.000000	65.203857 
5336.000000	65.081477 
5335.000000	64.957642 
5334.000000	64.851808 
5333.000000	64.778113 
5332.000000	64.742374 
5331.000000	64.741253 
5330.000000	64.762949 
5329.000000	64.790964 
5328.000000	64.807462 
5327.000000	64.795684 
5326.000000	64.744496 
5325.000000	64.651203 
5324.000000	64.521551 
5323.000000	64.367485 
5322.000000	64.204120 
5321.000000	64.047122 
5320.000000	63.907480 
5319.000000	63.790440 
5318.000000	63.693451 
5317.000000	63.607311 
5316.000000	63.520455 
5315.000000	63.423085 
5314.000000	63.311529 
5313.000000	63.188529 
5312.000000	63.066530 
5311.000000	62.964248 
5310.000000	62.901854 
5309.000000	62.894392 
5308.000000	62.949347 
5307.000000	63.064122 
5306.000000	63.225960 
5305.000000	63.415861 
5304.000000	63.614392 
5303.000000	63.807654 
5302.000000	63.991022 
5301.000000	64.170074 
5300.000000	64.357185 
5299.000000	64.565587 
5298.000000	64.804840 
5297.000000	65.072464 
5296.000000	65.353822 
5295.000000	65.620231 
5294.000000	65.838456 
5293.000000	65.974330 
5292.000000	66.004633 
5291.000000	65.919232 
5290.000000	65.729045 
5289.000000	65.458488 
5288.000000	65.141797 
5287.000000	64.814281 
5286.000000	64.508080 
5285.000000	64.242482 
5284.000000	64.022564 
5283.000000	63.842225 
5282.000000	63.690567 
5281.000000	63.554692 
5280.000000	63.426041 
5279.000000	63.302350 
5278.000000	63.189315 
5277.000000	63.098669 
5276.000000	63.045668 
5275.000000	63.040637 
5274.000000	63.087558 
5273.000000	63.186359 
5272.000000	63.330006 
5271.000000	63.502907 
5270.000000	63.683319 
5269.000000	63.849401 
5268.000000	63.980436 
5267.000000	64.056277 
5266.000000	64.065790 
5265.000000	64.006590 
5264.000000	63.891792 
5263.000000	63.744139 
5262.000000	63.600111 
5261.000000	63.501572 
5260.000000	63.491559 
5259.000000	63.604950 
5258.000000	63.860940 
5257.000000	64.257144 
5256.000000	64.768981 
5255.000000	65.353250 
5254.000000	65.950870 
5253.000000	66.495251 
5252.000000	66.924667 
5251.000000	67.189550 
5250.000000	67.255115 
5249.000000	67.103266 
5248.000000	66.736316 
5247.000000	66.173148 
5246.000000	65.448069 
5245.000000	64.605188 
5244.000000	63.699817 
5243.000000	62.789869 
5242.000000	61.932587 
5241.000000	61.179018 
5240.000000	60.569047 
5239.000000	60.130262 
5238.000000	59.873747 
5237.000000	59.797263 
5236.000000	59.879636 
5235.000000	60.091543 
5234.000000	60.392165 
5233.000000	60.742306 
5232.000000	61.100363 
5231.000000	61.438012 
5230.000000	61.737155 
5229.000000	61.996412 
5228.000000	62.224721 
5227.000000	62.440633 
5226.000000	62.663769 
5225.000000	62.908935 
5224.000000	63.179659 
5223.000000	63.468241 
5222.000000	63.755774 
5221.000000	64.016509 
5220.000000	64.224123 
5219.000000	64.361000 
5218.000000	64.421868 
5217.000000	64.417695 
5216.000000	64.371418 
5215.000000	64.310932 
5214.000000	64.263057 
5213.000000	64.250731 
5212.000000	64.284992 
5211.000000	64.363121 
5210.000000	64.471435 
5209.000000	64.594984 
5208.000000	64.716482 
5207.000000	64.820957 
5206.000000	64.898705 
5205.000000	64.946675 
5204.000000	64.967203 
5203.000000	64.966106 
5202.000000	64.949488 
5201.000000	64.921188 
5200.000000	64.883351 
5199.000000	64.836287 
5198.000000	64.777088 
5197.000000	64.700937 
5196.000000	64.603781 
5195.000000	64.484238 
5194.000000	64.342331 
5193.000000	64.182162 
5192.000000	64.012193 
5191.000000	63.845968 
5190.000000	63.697695 
5189.000000	63.583064 
5188.000000	63.515973 
5187.000000	63.507342 
5186.000000	63.559818 
5185.000000	63.670301 
5184.000000	63.829660 
5183.000000	64.024877 
5182.000000	64.239668 
5181.000000	64.457440 
5180.000000	64.662814 
5179.000000	64.842629 
5178.000000	64.986634 
5177.000000	65.087532 
5176.000000	65.141248 
5175.000000	65.146422 
5174.000000	65.104985 
5173.000000	65.020585 
5172.000000	64.898920 
5171.000000	64.748549 
5170.000000	64.580678 
5169.000000	64.407849 
5168.000000	64.242529 
5167.000000	64.096689 
5166.000000	63.979291 
5165.000000	63.894772 
5164.000000	63.841748 
5163.000000	63.813757 
5162.000000	63.799905 
5161.000000	63.786125 
5160.000000	63.759303 
5159.000000	63.709044 
5158.000000	63.631415 
5157.000000	63.527894 
5156.000000	63.407111 
5155.000000	63.281250 
5154.000000	63.164925 
5153.000000	63.070487 
5152.000000	63.007688 
5151.000000	62.980055 
5150.000000	62.988567 
5149.000000	63.032054 
5148.000000	63.108730 
5147.000000	63.215994 
5146.000000	63.351631 
5145.000000	63.512706 
5144.000000	63.693046 
5143.000000	63.882613 
5142.000000	64.067077 
5141.000000	64.229917 
5140.000000	64.355278 
5139.000000	64.431524 
5138.000000	64.454150 
5137.000000	64.427328 
5136.000000	64.364433 
5135.000000	64.284682 
5134.000000	64.208841 
5133.000000	64.154720 
5132.000000	64.134454 
5131.000000	64.151954 
5130.000000	64.203643 
5129.000000	64.279747 
5128.000000	64.368939 
5127.000000	64.459276 
5126.000000	64.541172 
5125.000000	64.607334 
5124.000000	64.653515 
5123.000000	64.676618 
5122.000000	64.673829 
5121.000000	64.643287 
5120.000000	64.584064 
5119.000000	64.497995 
5118.000000	64.390182 
5117.000000	64.269208 
5116.000000	64.146161 
5115.000000	64.032959 
5114.000000	63.939833 
5113.000000	63.872170 
5112.000000	63.829851 
5111.000000	63.807463 
5110.000000	63.797116 
5109.000000	63.789319 
5108.000000	63.777709 
5107.000000	63.760471 
5106.000000	63.741588 
5105.000000	63.728094 
5104.000000	63.728857 
5103.000000	63.750505 
5102.000000	63.796401 
5101.000000	63.864040 
5100.000000	63.946795 
5099.000000	64.035058 
5098.000000	64.118909 
5097.000000	64.191079 
5096.000000	64.246869 
5095.000000	64.284920 
5094.000000	64.305615 
5093.000000	64.310002 
5092.000000	64.298677 
5091.000000	64.271283 
5090.000000	64.227771 
5089.000000	64.169406 
5088.000000	64.100050 
5087.000000	64.026093 
5086.000000	63.956809 
5085.000000	63.901972 
5084.000000	63.869547 
5083.000000	63.863182 
5082.000000	63.880920 
5081.000000	63.915348 
5080.000000	63.954925 
5079.000000	63.987255 
5078.000000	64.001727 
5077.000000	63.993120 
5076.000000	63.961839 
5075.000000	63.915038 
5074.000000	63.863348 
5073.000000	63.819789 
5072.000000	63.795685 
5071.000000	63.799118 
5070.000000	63.832855 
5069.000000	63.894653 
5068.000000	63.978290 
5067.000000	64.074778 
5066.000000	64.174604 
5065.000000	64.269113 
5064.000000	64.351463 
5063.000000	64.416575 
5062.000000	64.460873 
5061.000000	64.481997 
5060.000000	64.478254 
5059.000000	64.449048 
5058.000000	64.394831 
5057.000000	64.317822 
5056.000000	64.222168 
5055.000000	64.114904 
5054.000000	64.004945 
5053.000000	63.902354 
5052.000000	63.817048 
5051.000000	63.757348 
5050.000000	63.728594 
5049.000000	63.731980 
5048.000000	63.764810 
5047.000000	63.820075 
5046.000000	63.888788 
5045.000000	63.961458 
5044.000000	64.029860 
5043.000000	64.087486 
5042.000000	64.131045 
5041.000000	64.160060 
5040.000000	64.176106 
5039.000000	64.181756 
5038.000000	64.179396 
5037.000000	64.170551 
5036.000000	64.155578 
5035.000000	64.134049 
5034.000000	64.105653 
5033.000000	64.071130 
5032.000000	64.032793 
5031.000000	63.994503 
5030.000000	63.960790 
5029.000000	63.936281 
5028.000000	63.924622 
5027.000000	63.927674 
5026.000000	63.944816 
5025.000000	63.972878 
5024.000000	64.007282 
5023.000000	64.041829 
5022.000000	64.070224 
5021.000000	64.086437 
5020.000000	64.085865 
5019.000000	64.065814 
5018.000000	64.025878 
5017.000000	63.968014 
5016.000000	63.896369 
5015.000000	63.816881 
5014.000000	63.736557 
5013.000000	63.662290 
5012.000000	63.599991 
5011.000000	63.553690 
5010.000000	63.525485 
5009.000000	63.515281 
5008.000000	63.521528 
5007.000000	63.542485 
5006.000000	63.576889 
5005.000000	63.624382 
5004.000000	63.685250 
5003.000000	63.759160 
5002.000000	63.844132 
5001.000000	63.936066 
5000.000000	64.027976 
4999.000000	64.110374 
4998.000000	64.172744 
4997.000000	64.206051 
4996.000000	64.204120 
4995.000000	64.166021 
4994.000000	64.096021 
4993.000000	64.002990 
4992.000000	63.898897 
4991.000000	63.796949 
4990.000000	63.708972 
4989.000000	63.643431 
4988.000000	63.604807 
4987.000000	63.593530 
4986.000000	63.606739 
4985.000000	63.639664 
4984.000000	63.685917 
4983.000000	63.738846 
4982.000000	63.792037 
4981.000000	63.840484 
4980.000000	63.880586 
4979.000000	63.911175 
4978.000000	63.933610 
4977.000000	63.951516 
4976.000000	63.970637 
4975.000000	63.996505 
4974.000000	64.034175 
4973.000000	64.084506 
4972.000000	64.144873 
4971.000000	64.206862 
4970.000000	64.258599 
4969.000000	64.286065 
4968.000000	64.277362 
4967.000000	64.225268 
4966.000000	64.129519 
4965.000000	63.998126 
4964.000000	63.846087 
4963.000000	63.693213 
4962.000000	63.560271 
4961.000000	63.464903 
4960.000000	63.418292 
4959.000000	63.423538 
4958.000000	63.475775 
4957.000000	63.563132 
4956.000000	63.669419 
4955.000000	63.777804 
4954.000000	63.874101 
4953.000000	63.948869 
4952.000000	63.998556 
4951.000000	64.024686 
4950.000000	64.032340 
4949.000000	64.028477 
4948.000000	64.018988 
4947.000000	64.007687 
4946.000000	63.994646 
4945.000000	63.977694 
4944.000000	63.952755 
4943.000000	63.916182 
4942.000000	63.866353 
4941.000000	63.805365 
4940.000000	63.738942 
4939.000000	63.675308 
4938.000000	63.623833 
4937.000000	63.592243 
4936.000000	63.585567 
4935.000000	63.604211 
4934.000000	63.645267 
4933.000000	63.702988 
4932.000000	63.771438 
4931.000000	63.845562 
4930.000000	63.922166 
4929.000000	63.999462 
4928.000000	64.077067 
4927.000000	64.154529 
4926.000000	64.229774 
4925.000000	64.298486 
4924.000000	64.354777 
4923.000000	64.391803 
4922.000000	64.403772 
4921.000000	64.386987 
4920.000000	64.341950 
4919.000000	64.272904 
4918.000000	64.187455 
4917.000000	64.094805 
4916.000000	64.004230 
4915.000000	63.923811 
4914.000000	63.859724 
4913.000000	63.815164 
4912.000000	63.790917 
4911.000000	63.784956 
4910.000000	63.793540 
4909.000000	63.811612 
4908.000000	63.833165 
4907.000000	63.853287 
4906.000000	63.868403 
4905.000000	63.877511 
4904.000000	63.881492 
4903.000000	63.884019 
4902.000000	63.890218 
4901.000000	63.905787 
4900.000000	63.935899 
4899.000000	63.985204 
4898.000000	64.056658 
4897.000000	64.150881 
4896.000000	64.265322 
4895.000000	64.395046 
4894.000000	64.531707 
4893.000000	64.665246 
4892.000000	64.783644 
4891.000000	64.874982 
4890.000000	64.928555 
4889.000000	64.937472 
4888.000000	64.899206 
4887.000000	64.817905 
4886.000000	64.702534 
4885.000000	64.567255 
4884.000000	64.426827 
4883.000000	64.294886 
4882.000000	64.180827 
4881.000000	64.089417 
4880.000000	64.020705 
4879.000000	63.971567 
4878.000000	63.937640 
4877.000000	63.915133 
4876.000000	63.901233 
4875.000000	63.894486 
4874.000000	63.893580 
4873.000000	63.896942 
4872.000000	63.902592 
4871.000000	63.908386 
4870.000000	63.912391 
4869.000000	63.913416 
4868.000000	63.911914 
4867.000000	63.909387 
4866.000000	63.908386 
4865.000000	63.910841 
4864.000000	63.917231 
4863.000000	63.925385 
4862.000000	63.930535 
4861.000000	63.926649 
4860.000000	63.908123 
4859.000000	63.871622 
4858.000000	63.817334 
4857.000000	63.749337 
4856.000000	63.674521 
4855.000000	63.601899 
4854.000000	63.540363 
4853.000000	63.497471 
4852.000000	63.477659 
4851.000000	63.482379 
4850.000000	63.510179 
4849.000000	63.556265 
4848.000000	63.613462 
4847.000000	63.673400 
4846.000000	63.728094 
4845.000000	63.771629 
4844.000000	63.801360 
4843.000000	63.818359 
4842.000000	63.827037 
4841.000000	63.834047 
4840.000000	63.846182 
4839.000000	63.868856 
4838.000000	63.904190 
4837.000000	63.950753 
4836.000000	64.003634 
4835.000000	64.055991 
4834.000000	64.100623 
4833.000000	64.132285 
4832.000000	64.148783 
4831.000000	64.152097 
4830.000000	64.146971 
4829.000000	64.139318 
4828.000000	64.134550 
4827.000000	64.136171 
4826.000000	64.144420 
4825.000000	64.156579 
4824.000000	64.167881 
4823.000000	64.173436 
4822.000000	64.169144 
4821.000000	64.153075 
4820.000000	64.125680 
4819.000000	64.089989 
4818.000000	64.050507 
4817.000000	64.012336 
4816.000000	63.979792 
4815.000000	63.955330 
4814.000000	63.939619 
4813.000000	63.931393 
4812.000000	63.927793 
4811.000000	63.925695 
4810.000000	63.922500 
4809.000000	63.917660 
4808.000000	63.911938 
4807.000000	63.908672 
4806.000000	63.912129 
4805.000000	63.927268 
4804.000000	63.957738 
4803.000000	64.005422 
4802.000000	64.069557 
4801.000000	64.146113 
4800.000000	64.228367 
4799.000000	64.307427 
4798.000000	64.374041 
4797.000000	64.420175 
4796.000000	64.440870 
4795.000000	64.435219 
4794.000000	64.406538 
4793.000000	64.362072 
4792.000000	64.311146 
4791.000000	64.263319 
4790.000000	64.225888 
4789.000000	64.202785 
4788.000000	64.193773 
4787.000000	64.195227 
4786.000000	64.201569 
4785.000000	64.207386 
4784.000000	64.209079 
4783.000000	64.206027 
4782.000000	64.200425 
4781.000000	64.196419 
4780.000000	64.198064 
4779.000000	64.207482 
4778.000000	64.223861 
4777.000000	64.243054 
4776.000000	64.258956 
4775.000000	64.265346 
4774.000000	64.257955 
4773.000000	64.236283 
4772.000000	64.203953 
4771.000000	64.168047 
4770.000000	64.137125 
4769.000000	64.118742 
4768.000000	64.117813 
4767.000000	64.135169 
4766.000000	64.167261 
4765.000000	64.207029 
4764.000000	64.245700 
4763.000000	64.274764 
4762.000000	64.287972 
4761.000000	64.282727 
4760.000000	64.259767 
4759.000000	64.223408 
4758.000000	64.179825 
4757.000000	64.136075 
4756.000000	64.098668 
4755.000000	64.072656 
4754.000000	64.060902 
4753.000000	64.064002 
4752.000000	64.081072 
4751.000000	64.109516 
4750.000000	64.145565 
4749.000000	64.185261 
4748.000000	64.224767 
4747.000000	64.260768 
4746.000000	64.290642 
4745.000000	64.312577 
4744.000000	64.325284 
4743.000000	64.328479 
4742.000000	64.322805 
4741.000000	64.310050 
4740.000000	64.292979 
4739.000000	64.275264 
4738.000000	64.260864 
4737.000000	64.253020 
4736.000000	64.253330 
4735.000000	64.261651 
4734.000000	64.275431 
4733.000000	64.290666 
4732.000000	64.302086 
4731.000000	64.305090 
4730.000000	64.295625 
4729.000000	64.271521 
4728.000000	64.232349 
4727.000000	64.179873 
4726.000000	64.117312 
4725.000000	64.048433 
4724.000000	63.977289 
4723.000000	63.907933 
4722.000000	63.844370 
4721.000000	63.790535 
4720.000000	63.750123 
4719.000000	63.726139 
4718.000000	63.720655 
4717.000000	63.734436 
4716.000000	63.765835 
4715.000000	63.810825 
4714.000000	63.863563 
4713.000000	63.917374 
4712.000000	63.965415 
4711.000000	64.001941 
4710.000000	64.023303 
4709.000000	64.028859 
4708.000000	64.020395 
4707.000000	64.002466 
4706.000000	63.981556 
4705.000000	63.965106 
4704.000000	63.960266 
4703.000000	63.972544 
4702.000000	64.005184 
4701.000000	64.057588 
4700.000000	64.126348 
4699.000000	64.204525 
4698.000000	64.283347 
4697.000000	64.352989 
4696.000000	64.405107 
4695.000000	64.433336 
4694.000000	64.434385 
4693.000000	64.408802 
4692.000000	64.361143 
4691.000000	64.298272 
4690.000000	64.227890 
4689.000000	64.157438 
4688.000000	64.092946 
4687.000000	64.038062 
4686.000000	63.994193 
4685.000000	63.960552 
4684.000000	63.935327 
4683.000000	63.916182 
4682.000000	63.901329 
4681.000000	63.889098 
4680.000000	63.878631 
4679.000000	63.869953 
4678.000000	63.863825 
4677.000000	63.860225 
4676.000000	63.859105 
4675.000000	63.859772 
4674.000000	63.861799 
4673.000000	63.864541 
4672.000000	63.868498 
4671.000000	63.874888 
4670.000000	63.886308 
4669.000000	63.905906 
4668.000000	63.936614 
4667.000000	63.980102 
4666.000000	64.035749 
4665.000000	64.100289 
4664.000000	64.168071 
4663.000000	64.231991 
4662.000000	64.285111 
4661.000000	64.322185 
4660.000000	64.340710 
4659.000000	64.341211 
4658.000000	64.327406 
4657.000000	64.304709 
4656.000000	64.278221 
4655.000000	64.250874 
4654.000000	64.222812 
4653.000000	64.191222 
4652.000000	64.151692 
4651.000000	64.100170 
4650.000000	64.034223 
4649.000000	63.955569 
4648.000000	63.869881 
4647.000000	63.786959 
4646.000000	63.717746 
4645.000000	63.673162 
4644.000000	63.660955 
4643.000000	63.684558 
4642.000000	63.741421 
4641.000000	63.823962 
4640.000000	63.921022 
4639.000000	64.020228 
4638.000000	64.110088 
4637.000000	64.182400 
4636.000000	64.233016 
4635.000000	64.262247 
4634.000000	64.273667 
4633.000000	64.272713 
4632.000000	64.264726 
4631.000000	64.253568 
4630.000000	64.240241 
4629.000000	64.223194 
4628.000000	64.198350 
4627.000000	64.161062 
4626.000000	64.107680 
4625.000000	64.037013 
4624.000000	63.951516 
4623.000000	63.857126 
4622.000000	63.762474 
4621.000000	63.676667 
4620.000000	63.607811 
4619.000000	63.560914 
4618.000000	63.537597 
4617.000000	63.535404 
4616.000000	63.549375 
4615.000000	63.573074 
4614.000000	63.600802 
4613.000000	63.628149 
4612.000000	63.653516 
4611.000000	63.677191 
4610.000000	63.701725 
4609.000000	63.730216 
4608.000000	63.765048 
4607.000000	63.806605 
4606.000000	63.853049 
4605.000000	63.900589 
4604.000000	63.943886 
4603.000000	63.977217 
4602.000000	63.995504 
4601.000000	63.995695 
4600.000000	63.977503 
4599.000000	63.943672 
4598.000000	63.899707 
4597.000000	63.853096 
4596.000000	63.811898 
4595.000000	63.782954 
4594.000000	63.770866 
4593.000000	63.776969 
4592.000000	63.799381 
4591.000000	63.833785 
4590.000000	63.874459 
4589.000000	63.915657 
4588.000000	63.953232 
4587.000000	63.984370 
4586.000000	64.007425 
4585.000000	64.021658 
4584.000000	64.026784 
4583.000000	64.022564 
4582.000000	64.008760 
4581.000000	63.985776 
4580.000000	63.955163 
4579.000000	63.920068 
4578.000000	63.885283 
4577.000000	63.856339 
4576.000000	63.838410 
4575.000000	63.835096 
4574.000000	63.847064 
4573.000000	63.871335 
4572.000000	63.901400 
4571.000000	63.929319 
4570.000000	63.947010 
4569.000000	63.948035 
4568.000000	63.929176 
4567.000000	63.891029 
4566.000000	63.838195 
4565.000000	63.777589 
4564.000000	63.717746 
4563.000000	63.666772 
4562.000000	63.631558 
4561.000000	63.616657 
4560.000000	63.624000 
4559.000000	63.653302 
4558.000000	63.702011 
4557.000000	63.765788 
4556.000000	63.839101 
4555.000000	63.915991 
4554.000000	63.990092 
4553.000000	64.054870 
4552.000000	64.104652 
4551.000000	64.134764 
4550.000000	64.142084 
4549.000000	64.125251 
4548.000000	64.084601 
4547.000000	64.022135 
4546.000000	63.941621 
4545.000000	63.848018 
4544.000000	63.747096 
4543.000000	63.645172 
4542.000000	63.548779 
4541.000000	63.464117 
4540.000000	63.396477 
4539.000000	63.349628 
4538.000000	63.324928 
4537.000000	63.321495 
4536.000000	63.335537 
4535.000000	63.361525 
4534.000000	63.392448 
4533.000000	63.421440 
4532.000000	63.442254 
4531.000000	63.450908 
4530.000000	63.445711 
4529.000000	63.427042 
4528.000000	63.396573 
4527.000000	63.356637 
4526.000000	63.309597 
4525.000000	63.257646 
4524.000000	63.202714 
4523.000000	63.146829 
4522.000000	63.092446 
4521.000000	63.042783 
4520.000000	63.001775 
4519.000000	62.972974 
4518.000000	62.958884 
4517.000000	62.959671 
4516.000000	62.973165 
4515.000000	62.994503 
4514.000000	63.017821 
4513.000000	63.036918 
4512.000000	63.047623 
4511.000000	63.048529 
4510.000000	63.041543 
4509.000000	63.030576 
4508.000000	63.021230 
4507.000000	63.018798 
4506.000000	63.027548 
4505.000000	63.049435 
4504.000000	63.084268 
4503.000000	63.129949 
4502.000000	63.182830 
4501.000000	63.238453 
4500.000000	63.291883 
4499.000000	63.338685 
4498.000000	63.374710 
4497.000000	63.396620 
4496.000000	63.402223 
4495.000000	63.391041 
4494.000000	63.364267 
4493.000000	63.324689 
4492.000000	63.277053 
4491.000000	63.226747 
4490.000000	63.178825 
4489.000000	63.136601 
4488.000000	63.101983 
4487.000000	63.074827 
4486.000000	63.052988 
4485.000000	63.033986 
4484.000000	63.015627 
4483.000000	62.997508 
4482.000000	62.980365 
4481.000000	62.966799 
4480.000000	62.959575 
4479.000000	62.961816 
4478.000000	62.975454 
4477.000000	63.000869 
4476.000000	63.036346 
4475.000000	63.078427 
4474.000000	63.122797 
4473.000000	63.164663 
4472.000000	63.199806 
4471.000000	63.224959 
4470.000000	63.238406 
4469.000000	63.239908 
4468.000000	63.230657 
4467.000000	63.212943 
4466.000000	63.190031 
4465.000000	63.165545 
4464.000000	63.143801 
4463.000000	63.129568 
4462.000000	63.127446 
4461.000000	63.141655 
4460.000000	63.174748 
4459.000000	63.226628 
4458.000000	63.294577 
4457.000000	63.373112 
4456.000000	63.455009 
4455.000000	63.532400 
4454.000000	63.597679 
4453.000000	63.644957 
4452.000000	63.670372 
4451.000000	63.672471 
4450.000000	63.652133 
4449.000000	63.612031 
4448.000000	63.557124 
4447.000000	63.493633 
4446.000000	63.429951 
4445.000000	63.375592 
4444.000000	63.339638 
4443.000000	63.328671 
4442.000000	63.346576 
4441.000000	63.393354 
4440.000000	63.461422 
4439.000000	63.537287 
4438.000000	63.607287 
4437.000000	63.660120 
4436.000000	63.684940 
4435.000000	63.676476 
4434.000000	63.638830 
4433.000000	63.582825 
4432.000000	63.524794 
4431.000000	63.479804 
4430.000000	63.453769 
4429.000000	63.445234 
4428.000000	63.449835 
4427.000000	63.458466 
4426.000000	63.459992 
4425.000000	63.445305 
4424.000000	63.409972 
4423.000000	63.356566 
4422.000000	63.291311 
4421.000000	63.229227 
4420.000000	63.190126 
4419.000000	63.195824 
4418.000000	63.266396 
4417.000000	63.409256 
4416.000000	63.619542 
4415.000000	63.887476 
4414.000000	64.206790 
4413.000000	64.593768 
4412.000000	65.082645 
4411.000000	65.728068 
4410.000000	66.571879 
4409.000000	67.623901 
4408.000000	68.829822 
4407.000000	70.068669 
4406.000000	71.161484 
4405.000000	71.913218 
4404.000000	72.151184 
4403.000000	71.779894 
4402.000000	70.800042 
4401.000000	69.323134 
4400.000000	67.543029 
4399.000000	65.699768 
4398.000000	64.026641 
4397.000000	62.702751 
4396.000000	61.829137 
4395.000000	61.417293 
4394.000000	61.416578 
4393.000000	61.743259 
4392.000000	62.311530 
4391.000000	63.055467 
4390.000000	63.929939 
4389.000000	64.903163 
4388.000000	65.933251 
4387.000000	66.955661 
4386.000000	67.885327 
4385.000000	68.624258 
4384.000000	69.086909 
4383.000000	69.214963 
4382.000000	69.002199 
4381.000000	68.488955 
4380.000000	67.761945 
4379.000000	66.926383 
4378.000000	66.090011 
4377.000000	65.335607 
4376.000000	64.712119 
4375.000000	64.229464 
4374.000000	63.874363 
4373.000000	63.616275 
4372.000000	63.427829 
4371.000000	63.289046 
4370.000000	63.190317 
4369.000000	63.132596 
4368.000000	63.116049 
4367.000000	63.140392 
4366.000000	63.192629 
4365.000000	63.260030 
4364.000000	63.330030 
4363.000000	63.392806 
4362.000000	63.442397 
4361.000000	63.475966 
4360.000000	63.492751 
4359.000000	63.494801 
4358.000000	63.485479 
4357.000000	63.465046 
4356.000000	63.432502 
4355.000000	63.389492 
4354.000000	63.340401 
4353.000000	63.292479 
4352.000000	63.254427 
4351.000000	63.235902 
4350.000000	63.243222 
4349.000000	63.277530 
4348.000000	63.333487 
4347.000000	63.397455 
4346.000000	63.453674 
4345.000000	63.490533 
4344.000000	63.500928 
4343.000000	63.482999 
4342.000000	63.441467 
4341.000000	63.386631 
4340.000000	63.329911 
4339.000000	63.280487 
4338.000000	63.242840 
4337.000000	63.216185 
4336.000000	63.194465 
4335.000000	63.169050 
4334.000000	63.131928 
4333.000000	63.078999 
4332.000000	63.012313 
4331.000000	62.940239 
4330.000000	62.875008 
4329.000000	62.829732 
4328.000000	62.814283 
4327.000000	62.832880 
4326.000000	62.882137 
4325.000000	62.952256 
4324.000000	63.029527 
4323.000000	63.099551 
4322.000000	63.151288 
4321.000000	63.178706 
4320.000000	63.181233 
4319.000000	63.163447 
4318.000000	63.132667 
4317.000000	63.097310 
4316.000000	63.064527 
4315.000000	63.039040 
4314.000000	63.023185 
4313.000000	63.016700 
4312.000000	63.018012 
4311.000000	63.024663 
4310.000000	63.034439 
4309.000000	63.045454 
4308.000000	63.056302 
4307.000000	63.065934 
4306.000000	63.073849 
4305.000000	63.079452 
4304.000000	63.082504 
4303.000000	63.083291 
4302.000000	63.082647 
4301.000000	63.081789 
4300.000000	63.082146 
4299.000000	63.085269 
4298.000000	63.092303 
4297.000000	63.103795 
4296.000000	63.119769 
4295.000000	63.139390 
4294.000000	63.161754 
4293.000000	63.185834 
4292.000000	63.211059 
4291.000000	63.236904 
4290.000000	63.263368 
4289.000000	63.291120 
4288.000000	63.320684 
4287.000000	63.352489 
4286.000000	63.385653 
4285.000000	63.418149 
4284.000000	63.446879 
4283.000000	63.468265 
4282.000000	63.479185 
4281.000000	63.477706 
4280.000000	63.464260 
4279.000000	63.441920 
4278.000000	63.415765 
4277.000000	63.392162 
4276.000000	63.377380 
4275.000000	63.376045 
4274.000000	63.390040 
4273.000000	63.417696 
4272.000000	63.454222 
4271.000000	63.492584 
4270.000000	63.525271 
4269.000000	63.545775 
4268.000000	63.549971 
4267.000000	63.537001 
4266.000000	63.509249 
4265.000000	63.471841 
4264.000000	63.431024 
4263.000000	63.393259 
4262.000000	63.364100 
4261.000000	63.346838 
4260.000000	63.342452 
4259.000000	63.349652 
4258.000000	63.365554 
4257.000000	63.386654 
4256.000000	63.409495 
4255.000000	63.432002 
4254.000000	63.453674 
4253.000000	63.475561 
4252.000000	63.499617 
4251.000000	63.527965 
4250.000000	63.561558 
4249.000000	63.599681 
4248.000000	63.639426 
4247.000000	63.675808 
4246.000000	63.702869 
4245.000000	63.715267 
4244.000000	63.709521 
4243.000000	63.685321 
4242.000000	63.645601 
4241.000000	63.596725 
4240.000000	63.546347 
4239.000000	63.501858 
4238.000000	63.468503 
4237.000000	63.448119 
4236.000000	63.439345 
4235.000000	63.438367 
4234.000000	63.440680 
4233.000000	63.442397 
4232.000000	63.441729 
4231.000000	63.439011 
4230.000000	63.436746 
4229.000000	63.438320 
4228.000000	63.446831 
4227.000000	63.463759 
4226.000000	63.488268 
4225.000000	63.517260 
4224.000000	63.546228 
4223.000000	63.570427 
4222.000000	63.586139 
4221.000000	63.591790 
4220.000000	63.588142 
4219.000000	63.578510 
4218.000000	63.567614 
4217.000000	63.560652 
4216.000000	63.562464 
4215.000000	63.575959 
4214.000000	63.601899 
4213.000000	63.637876 
4212.000000	63.679337 
4211.000000	63.719868 
4210.000000	63.752579 
4209.000000	63.771891 
4208.000000	63.774728 
4207.000000	63.761448 
4206.000000	63.735771 
4205.000000	63.703918 
4204.000000	63.672995 
4203.000000	63.649535 
4202.000000	63.638257 
4201.000000	63.640666 
4200.000000	63.655185 
4199.000000	63.678121 
4198.000000	63.704681 
4197.000000	63.730478 
4196.000000	63.752293 
4195.000000	63.768768 
4194.000000	63.779854 
4193.000000	63.786268 
4192.000000	63.788414 
4191.000000	63.785767 
4190.000000	63.776898 
4189.000000	63.760304 
4188.000000	63.734459 
4187.000000	63.699388 
4186.000000	63.655781 
4185.000000	63.605451 
4184.000000	63.550448 
4183.000000	63.492512 
4182.000000	63.433408 
4181.000000	63.374471 
4180.000000	63.317918 
4179.000000	63.266324 
4178.000000	63.224124 
4177.000000	63.196730 
4176.000000	63.189816 
4175.000000	63.207697 
4174.000000	63.252329 
4173.000000	63.321971 
4172.000000	63.410735 
4171.000000	63.509106 
4170.000000	63.605594 
4169.000000	63.688683 
4168.000000	63.749265 
4167.000000	63.782167 
4166.000000	63.786911 
4165.000000	63.767147 
4164.000000	63.729906 
4163.000000	63.683295 
4162.000000	63.634943 
4161.000000	63.590407 
4160.000000	63.553476 
4159.000000	63.525295 
4158.000000	63.505363 
4157.000000	63.492155 
4156.000000	63.484787 
4155.000000	63.482880 
4154.000000	63.486552 
4153.000000	63.496017 
4152.000000	63.510942 
4151.000000	63.529539 
4150.000000	63.547778 
4149.000000	63.560676 
4148.000000	63.563013 
4147.000000	63.551235 
4146.000000	63.524580 
4145.000000	63.485813 
4144.000000	63.440823 
4143.000000	63.397455 
4142.000000	63.363599 
4141.000000	63.344979 
4140.000000	63.344144 
4139.000000	63.360142 
4138.000000	63.389563 
4137.000000	63.427305 
4136.000000	63.468575 
4135.000000	63.510060 
4134.000000	63.550591 
4133.000000	63.590383 
4132.000000	63.630771 
4131.000000	63.672256 
4130.000000	63.714528 
4129.000000	63.755631 
4128.000000	63.792800 
4127.000000	63.823151 
4126.000000	63.844656 
4125.000000	63.857579 
4124.000000	63.863444 
4123.000000	63.865113 
4122.000000	63.864898 
4121.000000	63.864111 
4120.000000	63.861894 
4119.000000	63.855504 
4118.000000	63.841247 
4117.000000	63.815951 
4116.000000	63.778567 
4115.000000	63.731050 
4114.000000	63.678598 
4113.000000	63.628649 
4112.000000	63.589453 
4111.000000	63.567805 
4110.000000	63.567328 
4109.000000	63.587594 
4108.000000	63.623547 
4107.000000	63.667249 
4106.000000	63.709330 
4105.000000	63.741731 
4104.000000	63.759636 
4103.000000	63.762354 
4102.000000	63.752841 
4101.000000	63.736748 
4100.000000	63.720273 
4099.000000	63.708710 
4098.000000	63.704466 
4097.000000	63.707613 
4096.000000	63.716292 
4095.000000	63.727498 
4094.000000	63.738775 
4093.000000	63.748359 
4092.000000	63.755726 
4091.000000	63.761043 
4090.000000	63.764882 
4089.000000	63.767671 
4088.000000	63.769507 
4087.000000	63.770389 
4086.000000	63.770198 
4085.000000	63.769412 
4084.000000	63.768839 
4083.000000	63.770008 
4082.000000	63.774538 
4081.000000	63.783740 
4080.000000	63.798093 
4079.000000	63.817262 
4078.000000	63.839745 
4077.000000	63.863563 
4076.000000	63.886284 
4075.000000	63.905715 
4074.000000	63.919973 
4073.000000	63.927721 
4072.000000	63.928055 
4071.000000	63.920402 
4070.000000	63.904976 
4069.000000	63.882851 
4068.000000	63.856101 
4067.000000	63.827610 
4066.000000	63.800644 
4065.000000	63.778352 
4064.000000	63.762807 
4063.000000	63.754653 
4062.000000	63.752698 
4061.000000	63.754558 
4060.000000	63.756704 
4059.000000	63.755822 
4058.000000	63.749432 
4057.000000	63.736939 
4056.000000	63.719534 
4055.000000	63.700056 
4054.000000	63.681960 
4053.000000	63.668751 
4052.000000	63.662815 
4051.000000	63.665080 
4050.000000	63.674831 
4049.000000	63.689947 
4048.000000	63.707709 
4047.000000	63.724780 
4046.000000	63.738226 
4045.000000	63.745355 
4044.000000	63.744187 
4043.000000	63.733363 
4042.000000	63.712692 
4041.000000	63.682961 
4040.000000	63.645935 
4039.000000	63.604307 
4038.000000	63.561487 
4037.000000	63.521194 
4036.000000	63.486886 
4035.000000	63.460922 
4034.000000	63.444375 
4033.000000	63.436889 
4032.000000	63.436937 
4031.000000	63.442087 
4030.000000	63.449931 
4029.000000	63.458561 
4028.000000	63.467240 
4027.000000	63.476061 
4026.000000	63.486170 
4025.000000	63.498711 
4024.000000	63.514280 
4023.000000	63.532638 
4022.000000	63.552093 
4021.000000	63.570117 
4020.000000	63.583350 
4019.000000	63.588690 
4018.000000	63.583660 
4017.000000	63.567233 
4016.000000	63.539695 
4015.000000	63.502788 
4014.000000	63.459253 
4013.000000	63.412475 
4012.000000	63.366198 
4011.000000	63.324165 
4010.000000	63.289856 
4009.000000	63.266229 
4008.000000	63.255310 
4007.000000	63.257956 
4006.000000	63.273644 
4005.000000	63.300585 
4004.000000	63.335657 
4003.000000	63.375043 
4002.000000	63.414597 
4001.000000	63.450598 
4000.000000	63.480019 
3999.000000	63.501167 
3998.000000	63.513493 
3997.000000	63.517665 
3996.000000	63.515257 
3995.000000	63.508272 
3994.000000	63.498806 
3993.000000	63.488745 
3992.000000	63.479661 
3991.000000	63.472652 
3990.000000	63.468623 
3989.000000	63.467764 
3988.000000	63.469743 
3987.000000	63.473820 
3986.000000	63.478946 
3985.000000	63.484048 
3984.000000	63.488268 
3983.000000	63.491249 
3982.000000	63.493132 
3981.000000	63.494586 
3980.000000	63.496327 
3979.000000	63.499021 
3978.000000	63.503003 
3977.000000	63.507986 
3976.000000	63.513135 
3975.000000	63.517379 
3974.000000	63.519382 
3973.000000	63.518095 
3972.000000	63.512897 
3971.000000	63.503694 
3970.000000	63.490915 
3969.000000	63.475251 
3968.000000	63.457870 
3967.000000	63.439917 
3966.000000	63.422822 
3965.000000	63.408446 
3964.000000	63.398790 
3963.000000	63.395929 
3962.000000	63.401341 
3961.000000	63.415622 
3960.000000	63.437676 
3959.000000	63.464832 
3958.000000	63.492894 
3957.000000	63.516902 
3956.000000	63.531851 
3955.000000	63.533616 
3954.000000	63.520002 
3953.000000	63.491392 
3952.000000	63.450479 
3951.000000	63.401985 
3950.000000	63.351750 
3949.000000	63.305830 
3948.000000	63.269400 
3947.000000	63.246273 
3946.000000	63.238215 
3945.000000	63.244986 
3944.000000	63.264751 
3943.000000	63.294219 
3942.000000	63.329434 
3941.000000	63.366198 
3940.000000	63.400435 
3939.000000	63.428974 
3938.000000	63.449573 
3937.000000	63.461303 
3936.000000	63.464355 
3935.000000	63.459563 
3934.000000	63.448071 
3933.000000	63.430738 
3932.000000	63.408112 
3931.000000	63.380289 
3930.000000	63.347172 
3929.000000	63.308858 
3928.000000	63.266086 
3927.000000	63.220906 
3926.000000	63.176846 
3925.000000	63.138341 
3924.000000	63.109993 
3923.000000	63.096141 
3922.000000	63.099431 
3921.000000	63.120222 
3920.000000	63.156080 
3919.000000	63.201975 
3918.000000	63.251423 
3917.000000	63.297271 
3916.000000	63.333654 
3915.000000	63.356256 
3914.000000	63.364076 
3913.000000	63.359069 
3912.000000	63.345909 
3911.000000	63.330650 
3910.000000	63.319396 
3909.000000	63.317227 
3908.000000	63.326287 
3907.000000	63.345742 
3906.000000	63.371610 
3905.000000	63.398027 
3904.000000	63.417983 
3903.000000	63.425087 
3902.000000	63.414883 
3901.000000	63.385891 
3900.000000	63.339972 
3899.000000	63.281726 
3898.000000	63.217735 
3897.000000	63.154959 
3896.000000	63.099288 
3895.000000	63.054728 
3894.000000	63.022518 
3893.000000	63.001918 
3892.000000	62.990808 
3891.000000	62.987208 
3890.000000	62.989306 
3889.000000	62.997031 
3888.000000	63.011145 
3887.000000	63.033723 
3886.000000	63.065981 
3885.000000	63.108849 
3884.000000	63.161754 
3883.000000	63.223028 
3882.000000	63.289308 
3881.000000	63.356661 
3880.000000	63.420939 
3879.000000	63.478326 
3878.000000	63.525986 
3877.000000	63.561725 
3876.000000	63.583850 
3875.000000	63.591623 
3874.000000	63.584923 
3873.000000	63.564443 
3872.000000	63.531422 
3871.000000	63.488173 
3870.000000	63.437390 
3869.000000	63.381934 
3868.000000	63.324427 
3867.000000	63.267087 
3866.000000	63.211989 
3865.000000	63.160824 
3864.000000	63.115429 
3863.000000	63.077807 
3862.000000	63.049793 
3861.000000	63.032341 
3860.000000	63.025617 
3859.000000	63.028097 
3858.000000	63.037323 
3857.000000	63.049912 
3856.000000	63.062882 
3855.000000	63.073515 
3854.000000	63.081073 
3853.000000	63.086676 
3852.000000	63.093185 
3851.000000	63.103866 
3850.000000	63.121914 
3849.000000	63.149428 
3848.000000	63.186383 
3847.000000	63.230156 
3846.000000	63.276624 
3845.000000	63.320517 
3844.000000	63.356924 
3843.000000	63.381719 
3842.000000	63.392519 
3841.000000	63.388729 
3840.000000	63.371729 
3839.000000	63.344407 
3838.000000	63.310384 
3837.000000	63.273763 
3836.000000	63.239264 
3835.000000	63.211011 
3834.000000	63.191962 
3833.000000	63.183426 
3832.000000	63.185596 
3831.000000	63.196539 
3830.000000	63.212871 
3829.000000	63.229894 
3828.000000	63.242578 
3827.000000	63.246369 
3826.000000	63.238477 
3825.000000	63.218045 
3824.000000	63.186120 
3823.000000	63.145804 
3822.000000	63.101267 
3821.000000	63.056921 
3820.000000	63.016200 
3819.000000	62.981104 
3818.000000	62.951993 
3817.000000	62.927579 
3816.000000	62.906265 
3815.000000	62.886643 
3814.000000	62.869191 
3813.000000	62.855482 
3812.000000	62.849164 
3811.000000	62.854838 
3810.000000	62.877416 
3809.000000	62.920284 
3808.000000	62.984204 
3807.000000	63.066530 
3806.000000	63.160896 
3805.000000	63.258624 
3804.000000	63.349056 
3803.000000	63.421654 
3802.000000	63.467574 
3801.000000	63.481783 
3800.000000	63.463544 
3799.000000	63.416361 
3798.000000	63.347744 
3797.000000	63.267827 
3796.000000	63.187575 
3795.000000	63.116645 
3794.000000	63.062262 
3793.000000	63.027858 
3792.000000	63.012790 
3791.000000	63.012623 
3790.000000	63.020515 
3789.000000	63.028907 
3788.000000	63.030600 
3787.000000	63.021016 
3786.000000	62.998080 
3785.000000	62.963867 
3784.000000	62.922835 
3783.000000	62.881922 
3782.000000	62.847900 
3781.000000	62.826991 
3780.000000	62.823057 
3779.000000	62.837362 
3778.000000	62.868237 
3777.000000	62.911963 
3776.000000	62.964081 
3775.000000	63.019919 
3774.000000	63.075208 
3773.000000	63.126969 
3772.000000	63.173437 
3771.000000	63.213562 
3770.000000	63.246345 
3769.000000	63.270974 
3768.000000	63.286733 
3767.000000	63.293361 
3766.000000	63.291406 
3765.000000	63.282036 
3764.000000	63.267064 
3763.000000	63.249397 
3762.000000	63.232088 
3761.000000	63.217663 
3760.000000	63.207316 
3759.000000	63.201165 
3758.000000	63.197970 
3757.000000	63.195896 
3756.000000	63.192796 
3755.000000	63.187217 
3754.000000	63.178348 
3753.000000	63.166260 
3752.000000	63.151717 
3751.000000	63.135790 
3750.000000	63.119173 
3749.000000	63.101983 
3748.000000	63.083910 
3747.000000	63.063979 
3746.000000	63.041520 
3745.000000	63.016557 
3744.000000	62.989974 
3743.000000	62.963414 
3742.000000	62.939548 
3741.000000	62.921500 
3740.000000	62.912201 
3739.000000	62.913417 
3738.000000	62.925696 
3737.000000	62.947750 
3736.000000	62.976932 
3735.000000	63.009214 
3734.000000	63.040137 
3733.000000	63.065528 
3732.000000	63.081932 
3731.000000	63.087534 
3730.000000	63.082242 
3729.000000	63.067913 
3728.000000	63.047909 
3727.000000	63.026285 
3726.000000	63.007497 
3725.000000	62.994790 
3724.000000	62.990498 
3723.000000	62.994647 
3722.000000	63.005328 
3721.000000	63.018965 
3720.000000	63.031172 
3719.000000	63.037776 
3718.000000	63.035535 
3717.000000	63.023209 
3716.000000	63.001751 
3715.000000	62.974238 
3714.000000	62.944984 
3713.000000	62.918782 
3712.000000	62.899613 
3711.000000	62.889981 
3710.000000	62.890172 
3709.000000	62.898588 
3708.000000	62.911939 
3707.000000	62.926197 
3706.000000	62.937355 
3705.000000	62.942194 
3704.000000	62.939238 
3703.000000	62.928390 
3702.000000	62.911391 
3701.000000	62.890648 
3700.000000	62.869262 
3699.000000	62.850332 
3698.000000	62.836670 
3697.000000	62.830424 
3696.000000	62.832736 
3695.000000	62.844157 
3694.000000	62.864089 
3693.000000	62.891101 
3692.000000	62.922739 
3691.000000	62.955760 
3690.000000	62.986445 
3689.000000	63.011097 
3688.000000	63.026857 
3687.000000	63.032221 
3686.000000	63.027596 
3685.000000	63.015222 
3684.000000	62.998867 
3683.000000	62.982821 
3682.000000	62.971353 
3681.000000	62.967395 
3680.000000	62.972235 
3679.000000	62.985014 
3678.000000	63.003277 
3677.000000	63.023376 
3676.000000	63.041472 
3675.000000	63.054203 
3674.000000	63.059401 
3673.000000	63.056111 
3672.000000	63.044810 
3671.000000	63.027119 
3670.000000	63.005089 
3669.000000	62.981295 
3668.000000	62.957882 
3667.000000	62.936902 
3666.000000	62.920069 
3665.000000	62.908697 
3664.000000	62.903833 
3663.000000	62.906050 
3662.000000	62.915325 
3661.000000	62.931203 
3660.000000	62.952756 
3659.000000	62.978434 
3658.000000	63.006162 
3657.000000	63.033819 
3656.000000	63.059353 
3655.000000	63.080883 
3654.000000	63.096880 
3653.000000	63.106346 
3652.000000	63.108944 
3651.000000	63.104796 
3650.000000	63.094854 
3649.000000	63.080286 
3648.000000	63.062882 
3647.000000	63.044786 
3646.000000	63.028240 
3645.000000	63.015723 
3644.000000	63.008952 
3643.000000	63.008904 
3642.000000	63.015437 
3641.000000	63.027215 
3640.000000	63.041830 
3639.000000	63.056111 
3638.000000	63.066959 
3637.000000	63.071918 
3636.000000	63.069629 
3635.000000	63.060164 
3634.000000	63.044500 
3633.000000	63.024210 
3632.000000	63.000941 
3631.000000	62.975978 
3630.000000	62.949824 
3629.000000	62.922286 
3628.000000	62.893009 
3627.000000	62.861895 
3626.000000	62.829852 
3625.000000	62.798810 
3624.000000	62.771463 
3623.000000	62.750840 
3622.000000	62.739396 
3621.000000	62.738394 
3620.000000	62.747144 
3619.000000	62.763118 
3618.000000	62.782454 
3617.000000	62.800502 
3616.000000	62.812876 
3615.000000	62.816166 
3614.000000	62.808489 
3613.000000	62.789893 
3612.000000	62.761926 
3611.000000	62.727761 
3610.000000	62.691259 
3609.000000	62.656927 
3608.000000	62.629103 
3607.000000	62.611436 
3606.000000	62.606358 
3605.000000	62.614822 
3604.000000	62.636137 
3603.000000	62.667655 
3602.000000	62.705373 
3601.000000	62.744212 
3600.000000	62.779164 
3599.000000	62.805843 
3598.000000	62.821269 
3597.000000	62.824630 
3596.000000	62.816834 
3595.000000	62.800288 
3594.000000	62.777924 
3593.000000	62.752819 
3592.000000	62.727117 
3591.000000	62.702035 
3590.000000	62.677597 
3589.000000	62.653446 
3588.000000	62.629079 
3587.000000	62.604641 
3586.000000	62.581300 
3585.000000	62.560844 
3584.000000	62.545847 
3583.000000	62.539052 
3582.000000	62.542676 
3581.000000	62.557721 
3580.000000	62.583923 
3579.000000	62.619352 
3578.000000	62.661004 
3577.000000	62.704920 
3576.000000	62.747073 
3575.000000	62.783789 
3574.000000	62.812137 
3573.000000	62.830448 
3572.000000	62.838268 
3571.000000	62.836432 
3570.000000	62.826895 
3569.000000	62.811970 
3568.000000	62.794566 
3567.000000	62.776684 
3566.000000	62.760066 
3565.000000	62.745094 
3564.000000	62.731385 
3563.000000	62.717485 
3562.000000	62.701773 
3561.000000	62.682628 
3560.000000	62.659144 
3559.000000	62.631678 
3558.000000	62.601923 
3557.000000	62.572646 
3556.000000	62.547039 
3555.000000	62.528038 
3554.000000	62.517452 
3553.000000	62.515282 
3552.000000	62.519669 
3551.000000	62.527036 
3550.000000	62.533164 
3549.000000	62.534284 
3548.000000	62.528181 
3547.000000	62.514615 
3546.000000	62.495613 
3545.000000	62.475156 
3544.000000	62.457942 
3543.000000	62.447834 
3542.000000	62.446761 
3541.000000	62.454080 
3540.000000	62.466716 
3539.000000	62.479686 
3538.000000	62.487792 
3537.000000	62.486886 
3536.000000	62.475323 
3535.000000	62.454414 
3534.000000	62.428307 
3533.000000	62.402534 
3532.000000	62.383031 
3531.000000	62.374329 
3530.000000	62.378573 
3529.000000	62.395071 
3528.000000	62.420749 
3527.000000	62.451124 
3526.000000	62.481236 
3525.000000	62.506961 
3524.000000	62.525606 
3523.000000	62.536501 
3522.000000	62.540340 
3521.000000	62.538647 
3520.000000	62.533235 
3519.000000	62.525558 
3518.000000	62.516260 
3517.000000	62.505292 
3516.000000	62.492322 
3515.000000	62.477064 
3514.000000	62.459874 
3513.000000	62.441921 
3512.000000	62.425112 
3511.000000	62.411665 
3510.000000	62.403678 
3509.000000	62.402510 
3508.000000	62.408256 
3507.000000	62.420034 
3506.000000	62.436223 
3505.000000	62.454581 
3504.000000	62.472844 
3503.000000	62.489008 
3502.000000	62.501716 
3501.000000	62.510442 
3500.000000	62.515354 
3499.000000	62.517499 
3498.000000	62.518405 
3497.000000	62.519812 
3496.000000	62.523198 
3495.000000	62.529397 
3494.000000	62.538242 
3493.000000	62.548351 
3492.000000	62.557268 
3491.000000	62.562179 
3490.000000	62.560534 
3489.000000	62.550830 
3488.000000	62.533092 
3487.000000	62.508893 
3486.000000	62.481164 
3485.000000	62.453603 
3484.000000	62.429547 
3483.000000	62.411189 
3482.000000	62.398910 
3481.000000	62.391400 
3480.000000	62.386083 
3479.000000	62.380027 
3478.000000	62.371015 
3477.000000	62.358140 
3476.000000	62.342286 
3475.000000	62.325859 
3474.000000	62.311959 
3473.000000	62.303328 
3472.000000	62.301540 
3471.000000	62.306547 
3470.000000	62.316465 
3469.000000	62.328052 
3468.000000	62.337613 
3467.000000	62.341976 
3466.000000	62.339520 
3465.000000	62.330460 
3464.000000	62.316846 
3463.000000	62.302017 
3462.000000	62.289834 
3461.000000	62.283730 
3460.000000	62.285852 
3459.000000	62.296581 
3458.000000	62.314605 
3457.000000	62.336945 
3456.000000	62.359905 
3455.000000	62.379336 
3454.000000	62.391805 
3453.000000	62.394905 
3452.000000	62.387704 
3451.000000	62.370729 
3450.000000	62.345814 
3449.000000	62.315440 
3448.000000	62.282562 
3447.000000	62.249970 
3446.000000	62.219977 
3445.000000	62.194275 
3444.000000	62.174010 
3443.000000	62.159776 
3442.000000	62.152004 
3441.000000	62.151026 
3440.000000	62.157082 
3439.000000	62.170124 
3438.000000	62.189817 
3437.000000	62.215137 
3436.000000	62.244391 
3435.000000	62.275147 
3434.000000	62.304615 
3433.000000	62.330007 
3432.000000	62.348985 
3431.000000	62.360358 
3430.000000	62.363529 
3429.000000	62.358999 
3428.000000	62.347435 
3427.000000	62.330007 
3426.000000	62.307476 
3425.000000	62.280559 
3424.000000	62.249755 
3423.000000	62.215828 
3422.000000	62.179923 
3421.000000	62.143850 
3420.000000	62.110042 
3419.000000	62.081360 
3418.000000	62.060499 
3417.000000	62.049317 
3416.000000	62.048387 
3415.000000	62.056899 
3414.000000	62.072682 
3413.000000	62.092804 
3412.000000	62.114024 
3411.000000	62.133622 
3410.000000	62.149763 
3409.000000	62.161898 
3408.000000	62.170219 
3407.000000	62.175559 
3406.000000	62.178897 
3405.000000	62.180972 
3404.000000	62.181854 
3403.000000	62.181115 
3402.000000	62.178325 
3401.000000	62.173247 
3400.000000	62.166118 
3399.000000	62.158179 
3398.000000	62.151408 
3397.000000	62.148213 
3396.000000	62.150835 
3395.000000	62.160563 
3394.000000	62.177062 
3393.000000	62.198376 
3392.000000	62.221193 
3391.000000	62.241339 
3390.000000	62.254619 
3389.000000	62.258076 
3388.000000	62.250518 
3387.000000	62.232732 
3386.000000	62.207508 
3385.000000	62.178802 
3384.000000	62.151265 
3383.000000	62.128973 
3382.000000	62.114596 
3381.000000	62.109303 
3380.000000	62.112069 
3379.000000	62.120485 
3378.000000	62.131118 
3377.000000	62.140011 
3376.000000	62.143802 
3375.000000	62.140226 
3374.000000	62.128758 
3373.000000	62.110137 
3372.000000	62.086725 
3371.000000	62.061762 
3370.000000	62.038850 
3369.000000	62.021112 
3368.000000	62.010478 
3367.000000	62.007546 
3366.000000	62.011265 
3365.000000	62.019419 
3364.000000	62.028980 
3363.000000	62.036919 
3362.000000	62.040972 
3361.000000	62.040162 
3360.000000	62.035083 
3359.000000	62.027907 
3358.000000	62.021493 
3357.000000	62.018632 
3356.000000	62.021279 
3355.000000	62.029647 
3354.000000	62.042260 
3353.000000	62.055826 
3352.000000	62.066078 
3351.000000	62.068581 
3350.000000	62.060236 
3349.000000	62.039899 
3348.000000	62.008619 
3347.000000	61.969685 
3346.000000	61.927962 
3345.000000	61.889052 
3344.000000	61.857914 
3343.000000	61.838006 
3342.000000	61.830854 
3341.000000	61.835885 
3340.000000	61.850690 
3339.000000	61.871838 
3338.000000	61.895704 
3337.000000	61.919021 
3336.000000	61.939382 
3335.000000	61.955332 
3334.000000	61.966300 
3333.000000	61.972236 
3332.000000	61.973381 
3331.000000	61.969923 
3330.000000	61.961913 
3329.000000	61.949634 
3328.000000	61.933565 
3327.000000	61.914658 
3326.000000	61.894655 
3325.000000	61.875677 
3324.000000	61.860466 
3323.000000	61.851620 
3322.000000	61.851191 
3321.000000	61.860346 
3320.000000	61.878800 
3319.000000	61.905097 
3318.000000	61.936569 
3317.000000	61.969685 
3316.000000	62.000679 
3315.000000	62.026190 
3314.000000	62.043714 
3313.000000	62.051630 
3312.000000	62.049651 
3311.000000	62.038826 
3310.000000	62.020874 
3309.000000	61.998200 
3308.000000	61.973118 
3307.000000	61.947655 
3306.000000	61.923360 
3305.000000	61.901235 
3304.000000	61.881399 
3303.000000	61.863398 
3302.000000	61.846446 
3301.000000	61.829829 
3300.000000	61.812877 
3299.000000	61.795282 
3298.000000	61.777544 
3297.000000	61.760783 
3296.000000	61.746597 
3295.000000	61.736989 
3294.000000	61.733412 
3293.000000	61.736989 
3292.000000	61.747741 
3291.000000	61.764907 
3290.000000	61.786866 
3289.000000	61.811590 
3288.000000	61.836743 
3287.000000	61.860394 
3286.000000	61.881184 
3285.000000	61.898207 
3284.000000	61.911010 
3283.000000	61.919236 
3282.000000	61.922597 
3281.000000	61.920523 
3280.000000	61.912131 
3279.000000	61.896014 
3278.000000	61.870813 
3277.000000	61.835575 
3276.000000	61.790537 
3275.000000	61.737155 
3274.000000	61.678576 
3273.000000	61.619329 
3272.000000	61.565256 
3271.000000	61.522173 
3270.000000	61.495232 
3269.000000	61.487817 
3268.000000	61.500740 
3267.000000	61.531972 
3266.000000	61.576628 
3265.000000	61.627864 
3264.000000	61.678028 
3263.000000	61.719942 
3262.000000	61.748099 
3261.000000	61.759281 
3260.000000	61.753296 
3259.000000	61.732292 
3258.000000	61.700391 
3257.000000	61.662554 
3256.000000	61.623883 
3255.000000	61.588907 
3254.000000	61.561083 
3253.000000	61.542558 
3252.000000	61.534142 
3251.000000	61.535429 
3250.000000	61.544871 
3249.000000	61.560511 
3248.000000	61.579680 
3247.000000	61.600041 
3246.000000	61.619281 
3245.000000	61.635899 
3244.000000	61.648941 
3243.000000	61.658239 
3242.000000	61.664509 
3241.000000	61.668419 
3240.000000	61.670589 
3239.000000	61.671018 
3238.000000	61.669301 
3237.000000	61.664390 
3236.000000	61.655116 
3235.000000	61.640453 
3234.000000	61.620116 
3233.000000	61.595106 
3232.000000	61.567544 
3231.000000	61.540460 
3230.000000	61.517143 
3229.000000	61.500406 
3228.000000	61.492109 
3227.000000	61.492466 
3226.000000	61.500191 
3225.000000	61.512708 
3224.000000	61.526727 
3223.000000	61.539173 
3222.000000	61.547732 
3221.000000	61.551165 
3220.000000	61.549735 
3219.000000	61.544561 
3218.000000	61.537575 
3217.000000	61.530590 
3216.000000	61.525225 
3215.000000	61.522316 
3214.000000	61.521840 
3213.000000	61.523461 
3212.000000	61.526393 
3211.000000	61.530065 
3210.000000	61.533927 
3209.000000	61.537694 
3208.000000	61.541271 
3207.000000	61.544561 
3206.000000	61.547636 
3205.000000	61.550498 
3204.000000	61.553025 
3203.000000	61.555099 
3202.000000	61.556172 
3201.000000	61.555504 
3200.000000	61.552119 
3199.000000	61.545157 
3198.000000	61.533999 
3197.000000	61.518764 
3196.000000	61.500191 
3195.000000	61.479926 
3194.000000	61.460185 
3193.000000	61.443281 
3192.000000	61.431097 
3191.000000	61.424565 
3190.000000	61.423540 
3189.000000	61.426806 
3188.000000	61.432266 
3187.000000	61.437749 
3186.000000	61.441397 
3185.000000	61.442232 
3184.000000	61.440157 
3183.000000	61.436223 
3182.000000	61.431741 
3181.000000	61.428165 
3180.000000	61.426305 
3179.000000	61.426544 
3178.000000	61.428499 
3177.000000	61.431407 
3176.000000	61.434483 
3175.000000	61.437082 
3174.000000	61.438775 
3173.000000	61.439275 
3172.000000	61.438345 
3171.000000	61.435484 
3170.000000	61.429834 
3169.000000	61.420297 
3168.000000	61.405849 
3167.000000	61.385917 
3166.000000	61.360979 
3165.000000	61.332535 
3164.000000	61.303162 
3163.000000	61.276149 
3162.000000	61.254787 
3161.000000	61.241650 
3160.000000	61.238050 
3159.000000	61.243653 
3158.000000	61.256623 
3157.000000	61.274051 
3156.000000	61.292600 
3155.000000	61.309099 
3154.000000	61.321258 
3153.000000	61.327886 
3152.000000	61.329078 
3151.000000	61.325883 
3150.000000	61.319851 
3149.000000	61.312341 
3148.000000	61.304354 
3147.000000	61.296105 
3146.000000	61.287188 
3145.000000	61.276602 
3144.000000	61.263155 
3143.000000	61.245846 
3142.000000	61.223983 
3141.000000	61.197614 
3140.000000	61.167359 
3139.000000	61.134457 
3138.000000	61.100578 
3137.000000	61.067700 
3136.000000	61.037588 
3135.000000	61.012148 
3134.000000	60.992956 
3133.000000	60.981678 
3132.000000	60.979557 
3131.000000	60.987496 
3130.000000	61.005854 
3129.000000	61.033630 
3128.000000	61.068439 
3127.000000	61.106371 
3126.000000	61.142301 
3125.000000	61.171007 
3124.000000	61.187958 
3123.000000	61.190509 
3122.000000	61.178326 
3121.000000	61.153483 
3120.000000	61.120080 
3119.000000	61.083269 
3118.000000	61.048221 
3117.000000	61.019134 
3116.000000	60.998463 
3115.000000	60.986876 
3114.000000	60.983443 
3113.000000	60.986232 
3112.000000	60.993194 
3111.000000	61.002421 
3110.000000	61.013126 
3109.000000	61.025047 
3108.000000	61.038756 
3107.000000	61.054968 
3106.000000	61.074042 
3105.000000	61.095714 
3104.000000	61.118817 
3103.000000	61.141562 
3102.000000	61.161637 
3101.000000	61.176776 
3100.000000	61.185121 
3099.000000	61.185622 
3098.000000	61.178278 
3097.000000	61.164069 
3096.000000	61.144781 
3095.000000	61.122703 
3094.000000	61.100292 
3093.000000	61.079835 
3092.000000	61.063027 
3091.000000	61.050653 
3090.000000	61.042690 
3089.000000	61.038303 
3088.000000	61.036109 
3087.000000	61.034727 
3086.000000	61.032772 
3085.000000	61.029314 
3084.000000	61.024236 
3083.000000	61.017799 
3082.000000	61.010479 
3081.000000	61.002779 
3080.000000	60.994935 
3079.000000	60.986948 
3078.000000	60.978651 
3077.000000	60.970163 
3076.000000	60.961747 
3075.000000	60.954475 
3074.000000	60.949897 
3073.000000	60.949921 
3072.000000	60.956120 
3071.000000	60.968875 
3070.000000	60.987305 
3069.000000	61.008906 
3068.000000	61.029911 
3067.000000	61.046123 
3066.000000	61.053872 
3065.000000	61.051034 
3064.000000	61.037707 
3063.000000	61.016011 
3062.000000	60.989737 
3061.000000	60.963487 
3060.000000	60.941529 
3059.000000	60.927271 
3058.000000	60.922265 
3057.000000	60.926461 
3056.000000	60.938143 
3055.000000	60.954856 
3054.000000	60.973691 
3053.000000	60.992074 
3052.000000	61.007952 
3051.000000	61.019754 
3050.000000	61.026430 
3049.000000	61.027216 
3048.000000	61.021852 
3047.000000	61.010241 
3046.000000	60.993075 
3045.000000	60.971713 
3044.000000	60.948395 
3043.000000	60.926032 
3042.000000	60.907769 
3041.000000	60.896587 
3040.000000	60.894751 
3039.000000	60.903239 
3038.000000	60.921335 
3037.000000	60.946655 
3036.000000	60.975646 
3035.000000	61.003994 
3034.000000	61.027455 
3033.000000	61.042547 
3032.000000	61.047005 
3031.000000	61.040401 
3030.000000	61.024069 
3029.000000	61.000633 
3028.000000	60.973644 
3027.000000	60.946583 
3026.000000	60.922622 
3025.000000	60.903620 
3024.000000	60.890388 
3023.000000	60.882234 
3022.000000	60.877776 
3021.000000	60.875010 
3020.000000	60.872316 
3019.000000	60.868620 
3018.000000	60.863614 
3017.000000	60.857748 
3016.000000	60.851883 
3015.000000	60.846757 
3014.000000	60.842776 
3013.000000	60.839605 
3012.000000	60.836267 
3011.000000	60.831499 
3010.000000	60.824012 
3009.000000	60.813117 
3008.000000	60.798835 
3007.000000	60.782074 
3006.000000	60.764288 
3005.000000	60.747265 
3004.000000	60.732626 
3003.000000	60.721063 
3002.000000	60.712313 
3001.000000	60.705542 
3000.000000	60.699582 
2999.000000	60.693240 
2998.000000	60.685634 
2997.000000	60.676765 
2996.000000	60.667324 
2995.000000	60.658574 
2994.000000	60.652065 
2993.000000	60.648870 
2992.000000	60.649561 
2991.000000	60.653829 
2990.000000	60.660624 
2989.000000	60.668301 
2988.000000	60.675001 
2987.000000	60.679173 
2986.000000	60.679745 
2985.000000	60.676336 
2984.000000	60.669231 
2983.000000	60.659146 
2982.000000	60.646820 
2981.000000	60.632729 
2980.000000	60.616827 
2979.000000	60.598635 
2978.000000	60.577321 
2977.000000	60.552024 
2976.000000	60.522413 
2975.000000	60.489106 
2974.000000	60.453653 
2973.000000	60.418725 
2972.000000	60.387730 
2971.000000	60.363912 
2970.000000	60.349965 
2969.000000	60.347223 
2968.000000	60.355043 
2967.000000	60.371017 
2966.000000	60.391545 
2965.000000	60.412359 
2964.000000	60.429310 
2963.000000	60.439419 
2962.000000	60.441327 
2961.000000	60.435461 
2960.000000	60.423803 
2959.000000	60.409212 
2958.000000	60.394740 
2957.000000	60.383033 
2956.000000	60.375475 
2955.000000	60.372304 
2954.000000	60.372519 
2953.000000	60.374498 
2952.000000	60.376572 
2951.000000	60.377669 
2950.000000	60.377454 
2949.000000	60.376644 
2948.000000	60.376191 
2947.000000	60.376954 
2946.000000	60.378885 
2945.000000	60.381054 
2944.000000	60.381531 
2943.000000	60.377836 
2942.000000	60.367631 
2941.000000	60.349726 
2940.000000	60.324311 
2939.000000	60.292959 
2938.000000	60.258555 
2937.000000	60.224604 
2936.000000	60.194587 
2935.000000	60.171270 
2934.000000	60.156059 
2933.000000	60.148882 
2932.000000	60.148215 
2931.000000	60.151433 
2930.000000	60.155391 
2929.000000	60.157108 
2928.000000	60.154390 
2927.000000	60.146188 
2926.000000	60.132741 
2925.000000	60.115504 
2924.000000	60.096263 
2923.000000	60.077047 
2922.000000	60.059595 
2921.000000	60.045480 
2920.000000	60.035777 
2919.000000	60.031342 
2918.000000	60.033011 
2917.000000	60.041213 
2916.000000	60.055899 
2915.000000	60.076355 
2914.000000	60.100936 
2913.000000	60.127305 
2912.000000	60.152745 
2911.000000	60.174489 
2910.000000	60.190296 
2909.000000	60.198903 
2908.000000	60.200119 
2907.000000	60.194826 
2906.000000	60.184836 
2905.000000	60.172176 
2904.000000	60.158705 
2903.000000	60.145831 
2902.000000	60.134315 
2901.000000	60.124135 
2900.000000	60.114979 
2899.000000	60.106325 
2898.000000	60.098004 
2897.000000	60.090160 
2896.000000	60.083675 
2895.000000	60.079550 
2894.000000	60.079073 
2893.000000	60.083198 
2892.000000	60.092639 
2891.000000	60.107254 
2890.000000	60.126042 
2889.000000	60.147166 
2888.000000	60.168027 
2887.000000	60.185813 
2886.000000	60.197663 
2885.000000	60.201454 
2884.000000	60.195875 
2883.000000	60.180926 
2882.000000	60.157752 
2881.000000	60.128617 
2880.000000	60.096359 
2879.000000	60.063910 
2878.000000	60.034155 
2877.000000	60.009527 
2876.000000	59.991788 
2875.000000	59.981942 
2874.000000	59.980225 
2873.000000	59.986209 
2872.000000	59.998846 
2871.000000	60.016465 
2870.000000	60.036945 
2869.000000	60.057854 
2868.000000	60.076594 
2867.000000	60.090827 
2866.000000	60.098862 
2865.000000	60.099959 
2864.000000	60.094332 
2863.000000	60.083293 
2862.000000	60.069060 
2861.000000	60.054302 
2860.000000	60.041594 
2859.000000	60.032868 
2858.000000	60.029172 
2857.000000	60.030198 
2856.000000	60.034728 
2855.000000	60.040712 
2854.000000	60.045599 
2853.000000	60.047245 
2852.000000	60.044217 
2851.000000	60.035967 
2850.000000	60.022950 
2849.000000	60.006713 
2848.000000	59.989166 
2847.000000	59.972500 
2846.000000	59.958362 
2845.000000	59.947872 
2844.000000	59.940958 
2843.000000	59.936594 
2842.000000	59.932875 
2841.000000	59.927487 
2840.000000	59.918308 
2839.000000	59.903812 
2838.000000	59.883642 
2837.000000	59.858489 
2836.000000	59.830403 
2835.000000	59.802246 
2834.000000	59.777426 
2833.000000	59.758853 
2832.000000	59.748983 
2831.000000	59.748983 
2830.000000	59.758853 
2829.000000	59.777426 
2828.000000	59.802579 
2827.000000	59.831643 
2826.000000	59.861707 
2825.000000	59.889888 
2824.000000	59.913587 
2823.000000	59.930658 
2822.000000	59.939527 
2821.000000	59.939360 
2820.000000	59.930205 
2819.000000	59.913301 
2818.000000	59.890913 
2817.000000	59.866142 
2816.000000	59.842610 
2815.000000	59.823393 
2814.000000	59.811091 
2813.000000	59.806847 
2812.000000	59.810352 
2811.000000	59.819626 
2810.000000	59.831690 
2809.000000	59.843254 
2808.000000	59.851145 
2807.000000	59.853339 
2806.000000	59.849071 
2805.000000	59.839081 
2804.000000	59.825229 
2803.000000	59.810090 
2802.000000	59.796118 
2801.000000	59.785151 
2800.000000	59.778046 
2799.000000	59.774518 
2798.000000	59.773492 
2797.000000	59.773349 
2796.000000	59.772539 
2795.000000	59.769940 
2794.000000	59.765028 
2793.000000	59.758281 
2792.000000	59.750771 
2791.000000	59.743881 
2790.000000	59.738802 
2789.000000	59.736418 
2788.000000	59.736776 
2787.000000	59.739303 
2786.000000	59.742951 
2785.000000	59.746575 
2784.000000	59.749150 
2783.000000	59.750080 
2782.000000	59.749102 
2781.000000	59.746265 
2780.000000	59.741568 
2779.000000	59.734916 
2778.000000	59.725952 
2777.000000	59.714269 
2776.000000	59.699630 
2775.000000	59.682035 
2774.000000	59.662222 
2773.000000	59.641599 
2772.000000	59.622025 
2771.000000	59.605598 
2770.000000	59.594011 
2769.000000	59.588074 
2768.000000	59.587526 
2767.000000	59.591245 
2766.000000	59.597444 
2765.000000	59.604120 
2764.000000	59.609580 
2763.000000	59.612631 
2762.000000	59.612870 
2761.000000	59.610366 
2760.000000	59.605479 
2759.000000	59.598755 
2758.000000	59.590578 
2757.000000	59.581398 
2756.000000	59.571862 
2755.000000	59.562683 
2754.000000	59.554934 
2753.000000	59.549713 
2752.000000	59.548068 
2751.000000	59.550261 
2750.000000	59.555625 
2749.000000	59.562492 
2748.000000	59.568476 
2747.000000	59.571242 
2746.000000	59.568977 
2745.000000	59.561371 
2744.000000	59.549498 
2743.000000	59.535765 
2742.000000	59.523081 
2741.000000	59.514117 
2740.000000	59.510421 
2739.000000	59.512138 
2738.000000	59.517836 
2737.000000	59.525203 
2736.000000	59.531593 
2735.000000	59.534978 
2734.000000	59.534358 
2733.000000	59.530067 
2732.000000	59.523582 
2731.000000	59.516882 
2730.000000	59.511828 
2729.000000	59.509539 
2728.000000	59.510016 
2727.000000	59.512257 
2726.000000	59.514379 
2725.000000	59.514355 
2724.000000	59.510350 
2723.000000	59.501528 
2722.000000	59.487915 
2721.000000	59.470295 
2720.000000	59.450173 
2719.000000	59.429454 
2718.000000	59.409761 
2717.000000	59.392285 
2716.000000	59.377479 
2715.000000	59.365177 
2714.000000	59.354686 
2713.000000	59.345102 
2712.000000	59.335541 
2711.000000	59.325528 
2710.000000	59.315061 
2709.000000	59.304857 
2708.000000	59.295725 
2707.000000	59.288859 
2706.000000	59.285116 
2705.000000	59.285092 
2704.000000	59.288692 
2703.000000	59.295177 
2702.000000	59.303236 
2701.000000	59.310913 
2700.000000	59.316039 
2699.000000	59.316277 
2698.000000	59.309840 
2697.000000	59.295487 
2696.000000	59.272599 
2695.000000	59.241652 
2694.000000	59.204077 
2693.000000	59.162521 
2692.000000	59.120273 
2691.000000	59.081220 
2690.000000	59.048986 
2689.000000	59.026551 
2688.000000	59.015679 
2687.000000	59.016561 
2686.000000	59.027886 
2685.000000	59.046983 
2684.000000	59.070491 
2683.000000	59.094762 
2682.000000	59.116554 
2681.000000	59.133291 
2680.000000	59.143447 
2679.000000	59.146380 
2678.000000	59.142446 
2677.000000	59.132933 
2676.000000	59.119820 
2675.000000	59.105443 
2674.000000	59.092378 
2673.000000	59.082984 
2672.000000	59.079051 
2671.000000	59.081578 
2670.000000	59.090423 
2669.000000	59.104275 
2668.000000	59.120845 
2667.000000	59.137177 
2666.000000	59.150433 
2665.000000	59.158277 
2664.000000	59.159612 
2663.000000	59.154582 
2662.000000	59.144663 
2661.000000	59.132075 
2660.000000	59.119439 
2659.000000	59.109067 
2658.000000	59.102296 
2657.000000	59.099292 
2656.000000	59.099054 
2655.000000	59.099602 
2654.000000	59.098362 
2653.000000	59.092855 
2652.000000	59.080982 
2651.000000	59.061789 
2650.000000	59.035539 
2649.000000	59.003925 
2648.000000	58.969736 
2647.000000	58.936238 
2646.000000	58.906745 
2645.000000	58.884048 
2644.000000	58.869886 
2643.000000	58.864641 
2642.000000	58.867144 
2641.000000	58.875155 
2640.000000	58.885741 
2639.000000	58.895635 
2638.000000	58.902072 
2637.000000	58.902955 
2636.000000	58.897352 
2635.000000	58.885502 
2634.000000	58.868598 
2633.000000	58.848524 
2632.000000	58.827328 
2631.000000	58.806896 
2630.000000	58.788681 
2629.000000	58.773636 
2628.000000	58.762216 
2627.000000	58.754348 
2626.000000	58.749556 
2625.000000	58.747410 
2624.000000	58.747506 
2623.000000	58.749485 
2622.000000	58.753323 
2621.000000	58.758783 
2620.000000	58.765721 
2619.000000	58.773756 
2618.000000	58.782434 
2617.000000	58.791208 
2616.000000	58.799648 
2615.000000	58.807396 
2614.000000	58.814311 
2613.000000	58.820557 
2612.000000	58.826351 
2611.000000	58.831763 
2610.000000	58.836746 
2609.000000	58.840775 
2608.000000	58.843278 
2607.000000	58.843779 
2606.000000	58.842086 
2605.000000	58.838343 
2604.000000	58.833384 
2603.000000	58.828616 
2602.000000	58.825659 
2601.000000	58.825755 
2600.000000	58.829760 
2599.000000	58.837342 
2598.000000	58.847308 
2597.000000	58.857369 
2596.000000	58.864927 
2595.000000	58.867263 
2594.000000	58.862543 
2593.000000	58.849740 
2592.000000	58.829283 
2591.000000	58.802819 
2590.000000	58.772873 
2589.000000	58.742284 
2588.000000	58.713817 
2587.000000	58.689284 
2586.000000	58.669686 
2585.000000	58.654880 
2584.000000	58.643817 
2583.000000	58.634948 
2582.000000	58.626508 
2581.000000	58.616995 
2580.000000	58.605480 
2579.000000	58.591675 
2578.000000	58.575892 
2577.000000	58.558869 
2576.000000	58.541631 
2575.000000	58.525133 
2574.000000	58.510112 
2573.000000	58.496928 
2572.000000	58.485627 
2571.000000	58.475947 
2570.000000	58.467411 
2569.000000	58.459615 
2568.000000	58.452272 
2567.000000	58.445191 
2566.000000	58.438634 
2565.000000	58.433175 
2564.000000	58.429598 
2563.000000	58.428740 
2562.000000	58.431124 
2561.000000	58.436942 
2560.000000	58.445596 
2559.000000	58.455991 
2558.000000	58.466315 
2557.000000	58.474516 
2556.000000	58.478569 
2555.000000	58.477020 
2554.000000	58.469223 
2553.000000	58.455443 
2552.000000	58.437061 
2551.000000	58.416199 
2550.000000	58.395457 
2549.000000	58.377361 
2548.000000	58.363890 
2547.000000	58.356237 
2546.000000	58.354663 
2545.000000	58.358430 
2544.000000	58.366250 
2543.000000	58.376288 
2542.000000	58.386754 
2541.000000	58.396339 
2540.000000	58.403968 
2539.000000	58.409500 
2538.000000	58.413171 
2537.000000	58.415818 
2536.000000	58.418393 
2535.000000	58.421516 
2534.000000	58.425426 
2533.000000	58.429884 
2532.000000	58.434343 
2531.000000	58.437848 
2530.000000	58.439493 
2529.000000	58.438611 
2528.000000	58.434963 
2527.000000	58.428931 
2526.000000	58.421444 
2525.000000	58.413481 
2524.000000	58.405804 
2523.000000	58.398795 
2522.000000	58.392143 
2521.000000	58.384943 
2520.000000	58.375906 
2519.000000	58.363676 
2518.000000	58.347392 
2517.000000	58.326745 
2516.000000	58.302354 
2515.000000	58.275389 
2514.000000	58.247613 
2513.000000	58.220839 
2512.000000	58.196926 
2511.000000	58.177495 
2510.000000	58.163952 
2509.000000	58.157277 
2508.000000	58.158135 
2507.000000	58.166718 
2506.000000	58.182501 
2505.000000	58.204126 
2504.000000	58.229279 
2503.000000	58.254766 
2502.000000	58.276772 
2501.000000	58.291411 
2500.000000	58.295583 
2499.000000	58.287620 
2498.000000	58.267593 
2497.000000	58.237624 
2496.000000	58.201217 
2495.000000	58.162808 
2494.000000	58.126783 
2493.000000	58.096504 
2492.000000	58.073973 
2491.000000	58.059406 
2490.000000	58.051729 
2489.000000	58.048987 
2488.000000	58.049130 
2487.000000	58.050513 
2486.000000	58.052206 
2485.000000	58.054184 
2484.000000	58.056759 
2483.000000	58.060479 
2482.000000	58.065342 
2481.000000	58.071064 
2480.000000	58.076763 
2479.000000	58.081221 
2478.000000	58.083391 
2477.000000	58.082461 
2476.000000	58.078241 
2475.000000	58.070898 
2474.000000	58.061051 
2473.000000	58.049201 
2472.000000	58.035802 
2471.000000	58.021140 
2470.000000	58.005285 
2469.000000	57.988357 
2468.000000	57.970738 
2467.000000	57.953310 
2466.000000	57.937335 
2465.000000	57.924342 
2464.000000	57.915711 
2463.000000	57.912445 
2462.000000	57.914996 
2461.000000	57.922863 
2460.000000	57.934617 
2459.000000	57.948589 
2458.000000	57.962703 
2457.000000	57.974982 
2456.000000	57.983827 
2455.000000	57.988071 
2454.000000	57.987022 
2453.000000	57.980370 
2452.000000	57.968378 
2451.000000	57.951498 
2450.000000	57.930636 
2449.000000	57.907128 
2448.000000	57.882595 
2447.000000	57.858872 
2446.000000	57.837724 
2445.000000	57.820701 
2444.000000	57.808637 
2443.000000	57.801508 
2442.000000	57.798504 
2441.000000	57.798171 
2440.000000	57.798814 
2439.000000	57.799148 
2438.000000	57.798314 
2437.000000	57.796263 
2436.000000	57.793807 
2435.000000	57.792305 
2434.000000	57.793259 
2433.000000	57.797861 
2432.000000	57.806539 
2431.000000	57.818460 
2430.000000	57.832074 
2429.000000	57.844758 
2428.000000	57.853841 
2427.000000	57.856893 
2426.000000	57.852315 
2425.000000	57.839608 
2424.000000	57.819533 
2423.000000	57.793569 
2422.000000	57.763791 
2421.000000	57.732152 
2420.000000	57.700467 
2419.000000	57.669997 
2418.000000	57.641649 
2417.000000	57.616162 
2416.000000	57.594490 
2415.000000	57.577776 
2414.000000	57.567405 
2413.000000	57.564687 
2412.000000	57.570362 
2411.000000	57.584214 
2410.000000	57.604598 
2409.000000	57.628488 
2408.000000	57.652044 
2407.000000	57.670974 
2406.000000	57.681679 
2405.000000	57.681655 
2404.000000	57.670283 
2403.000000	57.648682 
2402.000000	57.619690 
2401.000000	57.586956 
2400.000000	57.554483 
2399.000000	57.525610 
2398.000000	57.502675 
2397.000000	57.486677 
2396.000000	57.477235 
2395.000000	57.473015 
2394.000000	57.472038 
2393.000000	57.472252 
2392.000000	57.471871 
2391.000000	57.469534 
2390.000000	57.464718 
2389.000000	57.457590 
2388.000000	57.449126 
2387.000000	57.440733 
2386.000000	57.434105 
2385.000000	57.430839 
2384.000000	57.431864 
2383.000000	57.437372 
2382.000000	57.446384 
2381.000000	57.457065 
2380.000000	57.467055 
2379.000000	57.473969 
2378.000000	57.475781 
2377.000000	57.471442 
2376.000000	57.461047 
2375.000000	57.445788 
2374.000000	57.427453 
2373.000000	57.408094 
2372.000000	57.389640 
2371.000000	57.373261 
2370.000000	57.359433 
2369.000000	57.347869 
2368.000000	57.337927 
2367.000000	57.328820 
2366.000000	57.320213 
2365.000000	57.312154 
2364.000000	57.305002 
2363.000000	57.299327 
2362.000000	57.295584 
2361.000000	57.293868 
2360.000000	57.293796 
2359.000000	57.294440 
2358.000000	57.294654 
2357.000000	57.293200 
2356.000000	57.288980 
2355.000000	57.281446 
2354.000000	57.270550 
2353.000000	57.256746 
2352.000000	57.240915 
2351.000000	57.224011 
2350.000000	57.206892 
2349.000000	57.190203 
2348.000000	57.174181 
2347.000000	57.158780 
2346.000000	57.143855 
2345.000000	57.129311 
2344.000000	57.115554 
2343.000000	57.103276 
2342.000000	57.093620 
2341.000000	57.087755 
2340.000000	57.086920 
2339.000000	57.091832 
2338.000000	57.102417 
2337.000000	57.117605 
2336.000000	57.135462 
2335.000000	57.153367 
2334.000000	57.168364 
2333.000000	57.177758 
2332.000000	57.179689 
2331.000000	57.173442 
2330.000000	57.159590 
2329.000000	57.139849 
2328.000000	57.116889 
2327.000000	57.093739 
2326.000000	57.073140 
2325.000000	57.056879 
2324.000000	57.045745 
2323.000000	57.039213 
2322.000000	57.035613 
2321.000000	57.032871 
2320.000000	57.028770 
2319.000000	57.021903 
2318.000000	57.011961 
2317.000000	56.999802 
2316.000000	56.987094 
2315.000000	56.976032 
2314.000000	56.968355 
2313.000000	56.964826 
2312.000000	56.964850 
2311.000000	56.966757 
2310.000000	56.968331 
2309.000000	56.967258 
2308.000000	56.962060 
2307.000000	56.952404 
2306.000000	56.939625 
2305.000000	56.926131 
2304.000000	56.914877 
2303.000000	56.908559 
2302.000000	56.908965 
2301.000000	56.916475 
2300.000000	56.929826 
2299.000000	56.946611 
2298.000000	56.963729 
2297.000000	56.978178 
2296.000000	56.987524 
2295.000000	56.990265 
2294.000000	56.985855 
2293.000000	56.974768 
2292.000000	56.958055 
2291.000000	56.937289 
2290.000000	56.913995 
2289.000000	56.889605 
2288.000000	56.865024 
2287.000000	56.840777 
2286.000000	56.816744 
2285.000000	56.792712 
2284.000000	56.768226 
2283.000000	56.743121 
2282.000000	56.717586 
2281.000000	56.692385 
2280.000000	56.668782 
2279.000000	56.648468 
2278.000000	56.633210 
2277.000000	56.624507 
2276.000000	56.623148 
2275.000000	56.629133 
2274.000000	56.641411 
2273.000000	56.658005 
2272.000000	56.676554 
2271.000000	56.694507 
2270.000000	56.709408 
2269.000000	56.719279 
2268.000000	56.722784 
2267.000000	56.719255 
2266.000000	56.708478 
2265.000000	56.691050 
2264.000000	56.667971 
2263.000000	56.640911 
2262.000000	56.611847 
2261.000000	56.582856 
2260.000000	56.556034 
2259.000000	56.533169 
2258.000000	56.515550 
2257.000000	56.503844 
2256.000000	56.498003 
2255.000000	56.497454 
2254.000000	56.501293 
2253.000000	56.508398 
2252.000000	56.517720 
2251.000000	56.528282 
2250.000000	56.539177 
2249.000000	56.549406 
2248.000000	56.557893 
2247.000000	56.563663 
2246.000000	56.565594 
2245.000000	56.562948 
2244.000000	56.555294 
2243.000000	56.543064 
2242.000000	56.527328 
2241.000000	56.509923 
2240.000000	56.492948 
2239.000000	56.478357 
2238.000000	56.467723 
2237.000000	56.461811 
2236.000000	56.460452 
2235.000000	56.462740 
2234.000000	56.467247 
2233.000000	56.472420 
2232.000000	56.476879 
2231.000000	56.479597 
2230.000000	56.479883 
2229.000000	56.477165 
2228.000000	56.470942 
2227.000000	56.460666 
2226.000000	56.445932 
2225.000000	56.426668 
2224.000000	56.403255 
2223.000000	56.377053 
2222.000000	56.350374 
2221.000000	56.326055 
2220.000000	56.307220 
2219.000000	56.296229 
2218.000000	56.294393 
2217.000000	56.301307 
2216.000000	56.314754 
2215.000000	56.331205 
2214.000000	56.346631 
2213.000000	56.357145 
2212.000000	56.359910 
2211.000000	56.353664 
2210.000000	56.338667 
2209.000000	56.316661 
2208.000000	56.290102 
2207.000000	56.261730 
2206.000000	56.234097 
2205.000000	56.209111 
2204.000000	56.188058 
2203.000000	56.171560 
2202.000000	56.159782 
2201.000000	56.152534 
2200.000000	56.149435 
2199.000000	56.149983 
2198.000000	56.153750 
2197.000000	56.159973 
2196.000000	56.167864 
2195.000000	56.176567 
2194.000000	56.185102 
2193.000000	56.192660 
2192.000000	56.198453 
2191.000000	56.201696 
2190.000000	56.201648 
2189.000000	56.197667 
2188.000000	56.189465 
2187.000000	56.176996 
2186.000000	56.160545 
2185.000000	56.141066 
2184.000000	56.119775 
2183.000000	56.098031 
2182.000000	56.077170 
2181.000000	56.058287 
2180.000000	56.041979 
2179.000000	56.028580 
2178.000000	56.017899 
2177.000000	56.009578 
2176.000000	56.003117 
2175.000000	55.998110 
2174.000000	55.994081 
2173.000000	55.990695 
2172.000000	55.987620 
2171.000000	55.984377 
2170.000000	55.980396 
2169.000000	55.975174 
2168.000000	55.968308 
2167.000000	55.960011 
2166.000000	55.950665 
2165.000000	55.941224 
2164.000000	55.932760 
2163.000000	55.926537 
2162.000000	55.923390 
2161.000000	55.923771 
2160.000000	55.927658 
2159.000000	55.934691 
2158.000000	55.944132 
2157.000000	55.954861 
2156.000000	55.965757 
2155.000000	55.975627 
2154.000000	55.983281 
2153.000000	55.987524 
2152.000000	55.987238 
2151.000000	55.981588 
2150.000000	55.970263 
2149.000000	55.953288 
2148.000000	55.931234 
2147.000000	55.905246 
2146.000000	55.876970 
2145.000000	55.848217 
2144.000000	55.820608 
2143.000000	55.795598 
2142.000000	55.774235 
2141.000000	55.757212 
2140.000000	55.744981 
2139.000000	55.737733 
2138.000000	55.735373 
2137.000000	55.737543 
2136.000000	55.743503 
2135.000000	55.752182 
2134.000000	55.761933 
2133.000000	55.770921 
2132.000000	55.777120 
2131.000000	55.778694 
2130.000000	55.774211 
2129.000000	55.762934 
2128.000000	55.745029 
2127.000000	55.721473 
2126.000000	55.694198 
2125.000000	55.665946 
2124.000000	55.639815 
2123.000000	55.618691 
2122.000000	55.604934 
2121.000000	55.599784 
2120.000000	55.603027 
2119.000000	55.613064 
2118.000000	55.627036 
2117.000000	55.641484 
2116.000000	55.652713 
2115.000000	55.657839 
2114.000000	55.655193 
2113.000000	55.644893 
2112.000000	55.628418 
2111.000000	55.608630 
2110.000000	55.588865 
2109.000000	55.572271 
2108.000000	55.561208 
2107.000000	55.556559 
2106.000000	55.557847 
2105.000000	55.563092 
2104.000000	55.569744 
2103.000000	55.574893 
2102.000000	55.575919 
2101.000000	55.571126 
2100.000000	55.559897 
2099.000000	55.542969 
2098.000000	55.522131 
2097.000000	55.500006 
2096.000000	55.479407 
2095.000000	55.462622 
2094.000000	55.450940 
2093.000000	55.444359 
2092.000000	55.441522 
2091.000000	55.439925 
2090.000000	55.436325 
2089.000000	55.427598 
2088.000000	55.411505 
2087.000000	55.387163 
2086.000000	55.355477 
2085.000000	55.319070 
2084.000000	55.281805 
2083.000000	55.248260 
2082.000000	55.222535 
2081.000000	55.207681 
2080.000000	55.204868 
2079.000000	55.213499 
2078.000000	55.231237 
2077.000000	55.254340 
2076.000000	55.278611 
2075.000000	55.300307 
2074.000000	55.316638 
2073.000000	55.325984 
2072.000000	55.328273 
2071.000000	55.324554 
2070.000000	55.316686 
2069.000000	55.306529 
2068.000000	55.295515 
2067.000000	55.284476 
2066.000000	55.273652 
2065.000000	55.262947 
2064.000000	55.252242 
2063.000000	55.241847 
2062.000000	55.232548 
2061.000000	55.225658 
2060.000000	55.222415 
2059.000000	55.223560 
2058.000000	55.228948 
2057.000000	55.237150 
2056.000000	55.245637 
2055.000000	55.251264 
2054.000000	55.250906 
2053.000000	55.242300 
2052.000000	55.224370 
2051.000000	55.197691 
2050.000000	55.164575 
2049.000000	55.128240 
2048.000000	55.092406 
2047.000000	55.060315 
2046.000000	55.034351 
2045.000000	55.015420 
2044.000000	55.003380 
2043.000000	54.996919 
2042.000000	54.994130 
2041.000000	54.992985 
2040.000000	54.991960 
2039.000000	54.989910 
2038.000000	54.986429 
2037.000000	54.981493 
2036.000000	54.975628 
2035.000000	54.969286 
2034.000000	54.962921 
2033.000000	54.956817 
2032.000000	54.950952 
2031.000000	54.945158 
2030.000000	54.939150 
2029.000000	54.932522 
2028.000000	54.924941 
2027.000000	54.916238 
2026.000000	54.906511 
2025.000000	54.896092 
2024.000000	54.885625 
2023.000000	54.875850 
2022.000000	54.867458 
2021.000000	54.860973 
2020.000000	54.856371 
2019.000000	54.853343 
2018.000000	54.851150 
2017.000000	54.848790 
2016.000000	54.845356 
2015.000000	54.840230 
2014.000000	54.833173 
2013.000000	54.824233 
2012.000000	54.813885 
2011.000000	54.802703 
2010.000000	54.791331 
2009.000000	54.780316 
2008.000000	54.770064 
2007.000000	54.760813 
2006.000000	54.752755 
2005.000000	54.746174 
2004.000000	54.741358 
2003.000000	54.738497 
2002.000000	54.737734 
2001.000000	54.739046 
2000.000000	54.742050 
1999.000000	54.746079 
1998.000000	54.750227 
1997.000000	54.753351 
1996.000000	54.754447 
1995.000000	54.752635 
1994.000000	54.747366 
1993.000000	54.738569 
1992.000000	54.726386 
1991.000000	54.711389 
1990.000000	54.694294 
1989.000000	54.675865 
1988.000000	54.656863 
1987.000000	54.638147 
1986.000000	54.620623 
1985.000000	54.605102 
1984.000000	54.592180 
1983.000000	54.582095 
1982.000000	54.574728 
1981.000000	54.569411 
1980.000000	54.565048 
1979.000000	54.560327 
1978.000000	54.554057 
1977.000000	54.545307 
1976.000000	54.533767 
1975.000000	54.519748 
1974.000000	54.504084 
1973.000000	54.487967 
1972.000000	54.472827 
1971.000000	54.459953 
1970.000000	54.450440 
1969.000000	54.445004 
1968.000000	54.443693 
1967.000000	54.446125 
1966.000000	54.451394 
1965.000000	54.458236 
1964.000000	54.465174 
1963.000000	54.470658 
1962.000000	54.473328 
1961.000000	54.472088 
1960.000000	54.466414 
1959.000000	54.456257 
1958.000000	54.442167 
1957.000000	54.425191 
1956.000000	54.406571 
1955.000000	54.387688 
1954.000000	54.369783 
1953.000000	54.353737 
1952.000000	54.340171 
1951.000000	54.329228 
1950.000000	54.320645 
1949.000000	54.313921 
1948.000000	54.308342 
1947.000000	54.303145 
1946.000000	54.297447 
1945.000000	54.290652 
1944.000000	54.282522 
1943.000000	54.273223 
1942.000000	54.263234 
1941.000000	54.253435 
1940.000000	54.244756 
1939.000000	54.238152 
1938.000000	54.234313 
1937.000000	54.233646 
1936.000000	54.236054 
1935.000000	54.241156 
1934.000000	54.248237 
1933.000000	54.256486 
1932.000000	54.264974 
1931.000000	54.272770 
1930.000000	54.278993 
1929.000000	54.282832 
1928.000000	54.283618 
1927.000000	54.280757 
1926.000000	54.273915 
1925.000000	54.263067 
1924.000000	54.248523 
1923.000000	54.231023 
1922.000000	54.211688 
1921.000000	54.191684 
1920.000000	54.172062 
1919.000000	54.153704 
1918.000000	54.137277 
1917.000000	54.123139 
1916.000000	54.111576 
1915.000000	54.102849 
1914.000000	54.097247 
1913.000000	54.095339 
1912.000000	54.097628 
1911.000000	54.104447 
1910.000000	54.115605 
1909.000000	54.130291 
1908.000000	54.147005 
1907.000000	54.163527 
1906.000000	54.177284 
1905.000000	54.185748 
1904.000000	54.186940 
1903.000000	54.179739 
1902.000000	54.164290 
1901.000000	54.141759 
1900.000000	54.114365 
1899.000000	54.084658 
1898.000000	54.055261 
1897.000000	54.028487 
1896.000000	54.005885 
1895.000000	53.988265 
1894.000000	53.975796 
1893.000000	53.968071 
1892.000000	53.964400 
1891.000000	53.963851 
1890.000000	53.965282 
1889.000000	53.967404 
1888.000000	53.968667 
1887.000000	53.967738 
1886.000000	53.963351 
1885.000000	53.954863 
1884.000000	53.942203 
1883.000000	53.926157 
1882.000000	53.908252 
1881.000000	53.890442 
1880.000000	53.874635 
1879.000000	53.862357 
1878.000000	53.854274 
1877.000000	53.850102 
1876.000000	53.848576 
1875.000000	53.847956 
1874.000000	53.846621 
1873.000000	53.843188 
1872.000000	53.837084 
1871.000000	53.828501 
1870.000000	53.818202 
1869.000000	53.807282 
1868.000000	53.796958 
1867.000000	53.787922 
1866.000000	53.780364 
1865.000000	53.774189 
1864.000000	53.768801 
1863.000000	53.763341 
1862.000000	53.756713 
1861.000000	53.748106 
1860.000000	53.736996 
1859.000000	53.723168 
1858.000000	53.706979 
1857.000000	53.688979 
1856.000000	53.670239 
1855.000000	53.651928 
1854.000000	53.635311 
1853.000000	53.621315 
1852.000000	53.610396 
1851.000000	53.602409 
1850.000000	53.596591 
1849.000000	53.591847 
1848.000000	53.586864 
1847.000000	53.580546 
1846.000000	53.572249 
1845.000000	53.562045 
1844.000000	53.550601 
1843.000000	53.538990 
1842.000000	53.528547 
1841.000000	53.520464 
1840.000000	53.515481 
1839.000000	53.513956 
1838.000000	53.515696 
1837.000000	53.519964 
1836.000000	53.525638 
1835.000000	53.531503 
1834.000000	53.536105 
1833.000000	53.538393 
1832.000000	53.537535 
1831.000000	53.532981 
1830.000000	53.524661 
1829.000000	53.512954 
1828.000000	53.498601 
1827.000000	53.482580 
1826.000000	53.465986 
1825.000000	53.449940 
1824.000000	53.435254 
1823.000000	53.422570 
1822.000000	53.412151 
1821.000000	53.403925 
1820.000000	53.397631 
1819.000000	53.392696 
1818.000000	53.388524 
1817.000000	53.384804 
1816.000000	53.381252 
1815.000000	53.377914 
1814.000000	53.374600 
1813.000000	53.371167 
1812.000000	53.367185 
1811.000000	53.361868 
1810.000000	53.354406 
1809.000000	53.344297 
1808.000000	53.331232 
1807.000000	53.315734 
1806.000000	53.298592 
1805.000000	53.281068 
1804.000000	53.264403 
1803.000000	53.249597 
1802.000000	53.237295 
1801.000000	53.227877 
1800.000000	53.221344 
1799.000000	53.217458 
1798.000000	53.215575 
1797.000000	53.214788 
1796.000000	53.213930 
1795.000000	53.211760 
1794.000000	53.207182 
1793.000000	53.199315 
1792.000000	53.188014 
1791.000000	53.173494 
1790.000000	53.156590 
1789.000000	53.138470 
1788.000000	53.120326 
1787.000000	53.103041 
1786.000000	53.087091 
1785.000000	53.072381 
1784.000000	53.058409 
1783.000000	53.044605 
1782.000000	53.030681 
1781.000000	53.016781 
1780.000000	53.003501 
1779.000000	52.991795 
1778.000000	52.982783 
1777.000000	52.977299 
1776.000000	52.975487 
1775.000000	52.976918 
1774.000000	52.980518 
1773.000000	52.984952 
1772.000000	52.988910 
1771.000000	52.991485 
1770.000000	52.992200 
1769.000000	52.991008 
1768.000000	52.988266 
1767.000000	52.984285 
1766.000000	52.979111 
1765.000000	52.972459 
1764.000000	52.963948 
1763.000000	52.953290 
1762.000000	52.940654 
1761.000000	52.926826 
1760.000000	52.912855 
1759.000000	52.899885 
1758.000000	52.888655 
1757.000000	52.879238 
1756.000000	52.870845 
1755.000000	52.862071 
1754.000000	52.851319 
1753.000000	52.837347 
1752.000000	52.819657 
1751.000000	52.798509 
1750.000000	52.775073 
1749.000000	52.751231 
1748.000000	52.728939 
1747.000000	52.709770 
1746.000000	52.694654 
1745.000000	52.683615 
1744.000000	52.676177 
1743.000000	52.671313 
1742.000000	52.667808 
1741.000000	52.664542 
1740.000000	52.660560 
1739.000000	52.655076 
1738.000000	52.647471 
1737.000000	52.637267 
1736.000000	52.624201 
1735.000000	52.608251 
1734.000000	52.589631 
1733.000000	52.568960 
1732.000000	52.546787 
1731.000000	52.523851 
1730.000000	52.500677 
1729.000000	52.478194 
1728.000000	52.457284 
1727.000000	52.439641 
1726.000000	52.427077 
1725.000000	52.421760 
1724.000000	52.425599 
1723.000000	52.439713 
1722.000000	52.463984 
1721.000000	52.496528 
1720.000000	52.533698 
1719.000000	52.570533 
1718.000000	52.601671 
1717.000000	52.622222 
1716.000000	52.628779 
1715.000000	52.620291 
1714.000000	52.598333 
1713.000000	52.566480 
1712.000000	52.529764 
1711.000000	52.493333 
1710.000000	52.461695 
1709.000000	52.437996 
1708.000000	52.423429 
1707.000000	52.417659 
1706.000000	52.418947 
1705.000000	52.424764 
1704.000000	52.432107 
1703.000000	52.438211 
1702.000000	52.441024 
1701.000000	52.439165 
1700.000000	52.432560 
1699.000000	52.421641 
1698.000000	52.407860 
1697.000000	52.392840 
1696.000000	52.378344 
1695.000000	52.365946 
1694.000000	52.356886 
1693.000000	52.351641 
1692.000000	52.349948 
1691.000000	52.350926 
1690.000000	52.353239 
1689.000000	52.355289 
1688.000000	52.355504 
1687.000000	52.352571 
1686.000000	52.345633 
1685.000000	52.334690 
1684.000000	52.320265 
1683.000000	52.303314 
1682.000000	52.285265 
1681.000000	52.267575 
1680.000000	52.251601 
1679.000000	52.238249 
1678.000000	52.227807 
1677.000000	52.220010 
1676.000000	52.213954 
1675.000000	52.208709 
1674.000000	52.203273 
1673.000000	52.197027 
1672.000000	52.189731 
1671.000000	52.181553 
1670.000000	52.173066 
1669.000000	52.164840 
1668.000000	52.157354 
1667.000000	52.150654 
1666.000000	52.144455 
1665.000000	52.138233 
1664.000000	52.131247 
1663.000000	52.122783 
1662.000000	52.112483 
1661.000000	52.100157 
1660.000000	52.086067 
1659.000000	52.070641 
1658.000000	52.054357 
1657.000000	52.037668 
1656.000000	52.021002 
1655.000000	52.004432 
1654.000000	51.987981 
1653.000000	51.971673 
1652.000000	51.955556 
1651.000000	51.939773 
1650.000000	51.924514 
1649.000000	51.910114 
1648.000000	51.896929 
1647.000000	51.885271 
1646.000000	51.875424 
1645.000000	51.867532 
1644.000000	51.861310 
1643.000000	51.856231 
1642.000000	51.851248 
1641.000000	51.845097 
1640.000000	51.836276 
1639.000000	51.823496 
1638.000000	51.805853 
1637.000000	51.783156 
1636.000000	51.756238 
1635.000000	51.726841 
1634.000000	51.697540 
1633.000000	51.671218 
1632.000000	51.650834 
1631.000000	51.638507 
1630.000000	51.635384 
1629.000000	51.641058 
1628.000000	51.653885 
1627.000000	51.671004 
1626.000000	51.688933 
1625.000000	51.704216 
1624.000000	51.713895 
1623.000000	51.716232 
1622.000000	51.710653 
1621.000000	51.698064 
1620.000000	51.680469 
1619.000000	51.660609 
1618.000000	51.641321 
1617.000000	51.625037 
1616.000000	51.613330 
1615.000000	51.606535 
1614.000000	51.604032 
1613.000000	51.604223 
1612.000000	51.604962 
1611.000000	51.604199 
1610.000000	51.600313 
1609.000000	51.592421 
1608.000000	51.580572 
1607.000000	51.565456 
1606.000000	51.548194 
1605.000000	51.530075 
1604.000000	51.512193 
1603.000000	51.495265 
1602.000000	51.479506 
1601.000000	51.464819 
1600.000000	51.450943 
1599.000000	51.437759 
1598.000000	51.425218 
1597.000000	51.413536 
1596.000000	51.403021 
1595.000000	51.393842 
1594.000000	51.386046 
1593.000000	51.379132 
1592.000000	51.372361 
1591.000000	51.364755 
1590.000000	51.355695 
1589.000000	51.345062 
1588.000000	51.333403 
1587.000000	51.322078 
1586.000000	51.312828 
1585.000000	51.307201 
1584.000000	51.306176 
1583.000000	51.309657 
1582.000000	51.316523 
1581.000000	51.324677 
1580.000000	51.331424 
1579.000000	51.334214 
1578.000000	51.330852 
1577.000000	51.320099 
1576.000000	51.301813 
1575.000000	51.277065 
1574.000000	51.247739 
1573.000000	51.216483 
1572.000000	51.186156 
1571.000000	51.159811 
1570.000000	51.140165 
1569.000000	51.129126 
1568.000000	51.127791 
1567.000000	51.135969 
1566.000000	51.152420 
1565.000000	51.174688 
1564.000000	51.199460 
1563.000000	51.223111 
1562.000000	51.242208 
1561.000000	51.254153 
1560.000000	51.257586 
1559.000000	51.252532 
1558.000000	51.240181 
1557.000000	51.222634 
1556.000000	51.202511 
1555.000000	51.182031 
1554.000000	51.162815 
1553.000000	51.145720 
1552.000000	51.131033 
1551.000000	51.118898 
1550.000000	51.109671 
1549.000000	51.103925 
1548.000000	51.102399 
1547.000000	51.105427 
1546.000000	51.112580 
1545.000000	51.122140 
1544.000000	51.131439 
1543.000000	51.137018 
1542.000000	51.135468 
1541.000000	51.124620 
1540.000000	51.103663 
1539.000000	51.073670 
1538.000000	51.037049 
1537.000000	50.997257 
1536.000000	50.958108 
1535.000000	50.922799 
1534.000000	50.893640 
1533.000000	50.871515 
1532.000000	50.856494 
1531.000000	50.847911 
1530.000000	50.844812 
1529.000000	50.846242 
1528.000000	50.851249 
1527.000000	50.859165 
1526.000000	50.868940 
1525.000000	50.879049 
1524.000000	50.887680 
1523.000000	50.892782 
1522.000000	50.892567 
1521.000000	50.885987 
1520.000000	50.873112 
1519.000000	50.855398 
1518.000000	50.835275 
1517.000000	50.816011 
1516.000000	50.800967 
1515.000000	50.792670 
1514.000000	50.792336 
1513.000000	50.799369 
1512.000000	50.811624 
1511.000000	50.825762 
1510.000000	50.838017 
1509.000000	50.845026 
1508.000000	50.844526 
1507.000000	50.835895 
1506.000000	50.820159 
1505.000000	50.799560 
1504.000000	50.776863 
1503.000000	50.754642 
1502.000000	50.734949 
1501.000000	50.718736 
1500.000000	50.706005 
1499.000000	50.696134 
1498.000000	50.688123 
1497.000000	50.681018 
1496.000000	50.674223 
1495.000000	50.667572 
1494.000000	50.660991 
1493.000000	50.654244 
1492.000000	50.646901 
1491.000000	50.638222 
1490.000000	50.627326 
1489.000000	50.613451 
1488.000000	50.596237 
1487.000000	50.576257 
1486.000000	50.554513 
1485.000000	50.532507 
1484.000000	50.511598 
1483.000000	50.492763 
1482.000000	50.476551 
1481.000000	50.462841 
1480.000000	50.451159 
1479.000000	50.440835 
1478.000000	50.431227 
1477.000000	50.422000 
1476.000000	50.413012 
1475.000000	50.404310 
1474.000000	50.395989 
1473.000000	50.388073 
1472.000000	50.380539 
1471.000000	50.373315 
1470.000000	50.366353 
1469.000000	50.359725 
1468.000000	50.353598 
1467.000000	50.348591 
1466.000000	50.345349 
1465.000000	50.344634 
1464.000000	50.346827 
1463.000000	50.351905 
1462.000000	50.359368 
1461.000000	50.368070 
1460.000000	50.376582 
1459.000000	50.383162 
1458.000000	50.386238 
1457.000000	50.384593 
1456.000000	50.377535 
1455.000000	50.365209 
1454.000000	50.348496 
1453.000000	50.328755 
1452.000000	50.307750 
1451.000000	50.287342 
1450.000000	50.268983 
1449.000000	50.253725 
1448.000000	50.242066 
1447.000000	50.233960 
1446.000000	50.229072 
1445.000000	50.226783 
1444.000000	50.226378 
1443.000000	50.227212 
1442.000000	50.228428 
1441.000000	50.229191 
1440.000000	50.228667 
1439.000000	50.226092 
1438.000000	50.220847 
1437.000000	50.212693 
1436.000000	50.201654 
1435.000000	50.188255 
1434.000000	50.173211 
1433.000000	50.157499 
1432.000000	50.141859 
1431.000000	50.126957 
1430.000000	50.113153 
1429.000000	50.100445 
1428.000000	50.088524 
1427.000000	50.077152 
1426.000000	50.066161 
1425.000000	50.055551 
1424.000000	50.045537 
1423.000000	50.036406 
1422.000000	50.028562 
1421.000000	50.022125 
1420.000000	50.017142 
1419.000000	50.013351 
1418.000000	50.010251 
1417.000000	50.007247 
1416.000000	50.003600 
1415.000000	49.998474 
1414.000000	49.991130 
1413.000000	49.981045 
1412.000000	49.968171 
1411.000000	49.952840 
1410.000000	49.936032 
1409.000000	49.918913 
1408.000000	49.902844 
1407.000000	49.889135 
1406.000000	49.878573 
1405.000000	49.871301 
1404.000000	49.866652 
1403.000000	49.863362 
1402.000000	49.859762 
1401.000000	49.854445 
1400.000000	49.846529 
1399.000000	49.836111 
1398.000000	49.824142 
1397.000000	49.812054 
1396.000000	49.801278 
1395.000000	49.792838 
1394.000000	49.787020 
1393.000000	49.783301 
1392.000000	49.780583 
1391.000000	49.777579 
1390.000000	49.773216 
1389.000000	49.766635 
1388.000000	49.757552 
1387.000000	49.745988 
1386.000000	49.732303 
1385.000000	49.717211 
1384.000000	49.701714 
1383.000000	49.686884 
1382.000000	49.674034 
1381.000000	49.664402 
1380.000000	49.658966 
1379.000000	49.658417 
1378.000000	49.662590 
1377.000000	49.670338 
1376.000000	49.679613 
1375.000000	49.687719 
1374.000000	49.692034 
1373.000000	49.690461 
1372.000000	49.681973 
1371.000000	49.667000 
1370.000000	49.647235 
1369.000000	49.625205 
1368.000000	49.603748 
1367.000000	49.585056 
1366.000000	49.570584 
1365.000000	49.560618 
1364.000000	49.554467 
1363.000000	49.550533 
1362.000000	49.546813 
1361.000000	49.541354 
1360.000000	49.532365 
1359.000000	49.518752 
1358.000000	49.500274 
1357.000000	49.477791 
1356.000000	49.452710 
1355.000000	49.427103 
1354.000000	49.403524 
1353.000000	49.384498 
1352.000000	49.372100 
1351.000000	49.367547 
1350.000000	49.370980 
1349.000000	49.381184 
1348.000000	49.396014 
1347.000000	49.412536 
1346.000000	49.427843 
1345.000000	49.439454 
1344.000000	49.445652 
1343.000000	49.445772 
1342.000000	49.439835 
1341.000000	49.428534 
1340.000000	49.412894 
1339.000000	49.394059 
1338.000000	49.373173 
1337.000000	49.351358 
1336.000000	49.329710 
1335.000000	49.308967 
1334.000000	49.289441 
1333.000000	49.270915 
1332.000000	49.252891 
1331.000000	49.234390 
1330.000000	49.214529 
1329.000000	49.192476 
1328.000000	49.168062 
1327.000000	49.141812 
1326.000000	49.115061 
1325.000000	49.089622 
1324.000000	49.067497 
1323.000000	49.050307 
1322.000000	49.039053 
1321.000000	49.033617 
1320.000000	49.033117 
1319.000000	49.036026 
1318.000000	49.040603 
1317.000000	49.045300 
1316.000000	49.049162 
1315.000000	49.051833 
1314.000000	49.053549 
1313.000000	49.054694 
1312.000000	49.055743 
1311.000000	49.056839 
1310.000000	49.057769 
1309.000000	49.058055 
1308.000000	49.056935 
1307.000000	49.053716 
1306.000000	49.047899 
1305.000000	49.039459 
1304.000000	49.028801 
1303.000000	49.016571 
1302.000000	49.003577 
1301.000000	48.990440 
1300.000000	48.977398 
1299.000000	48.964381 
1298.000000	48.950862 
1297.000000	48.936176 
1296.000000	48.919868 
1295.000000	48.901724 
1294.000000	48.882079 
1293.000000	48.861908 
1292.000000	48.842239 
1291.000000	48.824214 
1290.000000	48.808717 
1289.000000	48.796176 
1288.000000	48.786449 
1287.000000	48.779034 
1286.000000	48.773074 
1285.000000	48.767828 
1284.000000	48.762845 
1283.000000	48.757958 
1282.000000	48.753285 
1281.000000	48.749089 
1280.000000	48.745369 
1279.000000	48.741912 
1278.000000	48.737907 
1277.000000	48.732137 
1276.000000	48.723196 
1275.000000	48.709917 
1274.000000	48.691487 
1273.000000	48.667955 
1272.000000	48.640203 
1271.000000	48.609948 
1270.000000	48.579430 
1269.000000	48.551058 
1268.000000	48.526883 
1267.000000	48.508453 
1266.000000	48.496484 
1265.000000	48.490881 
1264.000000	48.490715 
1263.000000	48.494648 
1262.000000	48.501157 
1261.000000	48.508691 
1260.000000	48.515963 
1259.000000	48.521900 
1258.000000	48.525810 
1257.000000	48.527193 
1256.000000	48.525834 
1255.000000	48.521566 
1254.000000	48.514485 
1253.000000	48.504590 
1252.000000	48.492074 
1251.000000	48.477339 
1250.000000	48.460793 
1249.000000	48.443150 
1248.000000	48.425292 
1247.000000	48.408269 
1246.000000	48.393344 
1245.000000	48.381662 
1244.000000	48.374319 
1243.000000	48.371958 
1242.000000	48.374605 
1241.000000	48.381400 
1240.000000	48.390960 
1239.000000	48.401212 
1238.000000	48.409748 
1237.000000	48.414301 
1236.000000	48.413252 
1235.000000	48.405599 
1234.000000	48.391318 
1233.000000	48.371005 
1232.000000	48.345923 
1231.000000	48.317527 
1230.000000	48.287439 
1229.000000	48.256993 
1228.000000	48.227310 
1227.000000	48.199295 
1226.000000	48.173904 
1225.000000	48.151898 
1224.000000	48.134016 
1223.000000	48.120927 
1222.000000	48.113155 
1221.000000	48.110556 
1220.000000	48.112773 
1219.000000	48.118853 
1218.000000	48.127913 
1217.000000	48.138833 
1216.000000	48.150706 
1215.000000	48.162889 
1214.000000	48.175120 
1213.000000	48.187184 
1212.000000	48.198890 
1211.000000	48.209834 
1210.000000	48.219180 
1209.000000	48.225903 
1208.000000	48.228931 
1207.000000	48.227429 
1206.000000	48.221039 
1205.000000	48.210287 
1204.000000	48.196268 
1203.000000	48.180532 
1202.000000	48.164629 
1201.000000	48.149847 
1200.000000	48.136544 
1199.000000	48.124146 
1198.000000	48.111295 
1197.000000	48.096179 
1196.000000	48.076796 
1195.000000	48.051738 
1194.000000	48.020577 
1193.000000	47.984194 
1192.000000	47.944831 
1191.000000	47.905683 
1190.000000	47.870230 
1189.000000	47.841525 
1188.000000	47.821736 
1187.000000	47.811579 
1186.000000	47.809910 
1185.000000	47.814369 
1184.000000	47.821831 
1183.000000	47.829174 
1182.000000	47.833609 
1181.000000	47.833657 
1180.000000	47.828960 
1179.000000	47.820448 
1178.000000	47.809648 
1177.000000	47.798418 
1176.000000	47.788405 
1175.000000	47.780752 
1174.000000	47.775816 
1173.000000	47.773599 
1172.000000	47.773838 
1171.000000	47.776222 
1170.000000	47.780418 
1169.000000	47.785758 
1168.000000	47.791528 
1167.000000	47.796416 
1166.000000	47.798991 
1165.000000	47.797513 
1164.000000	47.790646 
1163.000000	47.777628 
1162.000000	47.758555 
1161.000000	47.734189 
1160.000000	47.706007 
1159.000000	47.675943 
1158.000000	47.645998 
1157.000000	47.617959 
1156.000000	47.593212 
1155.000000	47.572708 
1154.000000	47.556877 
1153.000000	47.545623 
1152.000000	47.538304 
1151.000000	47.533988 
1150.000000	47.531366 
1149.000000	47.528862 
1148.000000	47.524762 
1147.000000	47.517347 
1146.000000	47.505187 
1145.000000	47.487640 
1144.000000	47.464728 
1143.000000	47.437477 
1142.000000	47.407817 
1141.000000	47.378182 
1140.000000	47.351217 
1139.000000	47.329068 
1138.000000	47.313261 
1137.000000	47.304272 
1136.000000	47.301387 
1135.000000	47.302913 
1134.000000	47.306656 
1133.000000	47.310495 
1132.000000	47.312521 
1131.000000	47.311973 
1130.000000	47.308945 
1129.000000	47.304630 
1128.000000	47.300744 
1127.000000	47.299027 
1126.000000	47.300720 
1125.000000	47.306036 
1124.000000	47.314095 
1123.000000	47.322940 
1122.000000	47.329759 
1121.000000	47.331714 
1120.000000	47.326588 
1119.000000	47.313594 
1118.000000	47.293281 
1117.000000	47.267794 
1116.000000	47.240090 
1115.000000	47.213244 
1114.000000	47.189378 
1113.000000	47.169280 
1112.000000	47.152495 
1111.000000	47.137451 
1110.000000	47.122097 
1109.000000	47.104978 
1108.000000	47.085356 
1107.000000	47.063612 
1106.000000	47.041368 
1105.000000	47.020435 
1104.000000	47.002720 
1103.000000	46.989655 
1102.000000	46.981835 
1101.000000	46.978640 
1100.000000	46.978783 
1099.000000	46.980714 
1098.000000	46.983003 
1097.000000	46.984601 
1096.000000	46.985030 
1095.000000	46.984481 
1094.000000	46.983528 
1093.000000	46.982955 
1092.000000	46.983623 
1091.000000	46.986198 
1090.000000	46.991038 
1089.000000	46.997976 
1088.000000	47.005915 
1087.000000	47.013092 
1086.000000	47.017288 
1085.000000	47.016239 
1084.000000	47.008371 
1083.000000	46.992993 
1082.000000	46.971178 
1081.000000	46.945023 
1080.000000	46.917366 
1079.000000	46.890807 
1078.000000	46.867465 
1077.000000	46.847891 
1076.000000	46.831202 
1075.000000	46.815204 
1074.000000	46.797299 
1073.000000	46.775269 
1072.000000	46.747970 
1071.000000	46.715950 
1070.000000	46.681189 
1069.000000	46.646761 
1068.000000	46.616029 
1067.000000	46.591615 
1066.000000	46.574807 
1065.000000	46.565651 
1064.000000	46.563124 
1063.000000	46.565508 
1062.000000	46.570944 
1061.000000	46.577858 
1060.000000	46.585416 
1059.000000	46.593165 
1058.000000	46.601343 
1057.000000	46.610593 
1056.000000	46.621775 
1055.000000	46.635651 
1054.000000	46.652841 
1053.000000	46.673274 
1052.000000	46.696209 
1051.000000	46.720480 
1050.000000	46.743917 
1049.000000	46.763992 
1048.000000	46.778225 
1047.000000	46.784543 
1046.000000	46.781659 
1045.000000	46.769261 
1044.000000	46.747994 
1043.000000	46.719789 
1042.000000	46.686863 
1041.000000	46.651506 
1040.000000	46.615505 
1039.000000	46.580028 
1038.000000	46.545290 
1037.000000	46.510982 
1036.000000	46.476483 
1035.000000	46.441221 
1034.000000	46.405363 
1033.000000	46.369838 
1032.000000	46.336150 
1031.000000	46.306419 
1030.000000	46.282720 
1029.000000	46.267199 
1028.000000	46.260881 
1027.000000	46.263933 
1026.000000	46.275472 
1025.000000	46.293807 
1024.000000	46.316432 
1023.000000	46.340632 
1022.000000	46.363711 
1021.000000	46.383380 
1020.000000	46.397924 
1019.000000	46.406507 
1018.000000	46.409082 
1017.000000	46.406245 
1016.000000	46.399021 
1015.000000	46.388483 
1014.000000	46.375417 
1013.000000	46.360015 
1012.000000	46.341896 
1011.000000	46.320056 
1010.000000	46.293425 
1009.000000	46.261358 
1008.000000	46.224093 
1007.000000	46.183085 
1006.000000	46.140909 
1005.000000	46.101236 
1004.000000	46.068000 
1003.000000	46.044301 
1002.000000	46.032023 
1001.000000	46.031093 
1000.000000	46.039748 
999.000000	 46.054577 
998.000000	 46.071743 
997.000000	 46.087527 
996.000000	 46.099257 
995.000000	 46.105813 
994.000000	 46.107459 
993.000000	 46.105456 
992.000000	 46.101045 
991.000000	 46.095132 
990.000000	 46.087408 
989.000000	 46.076536 
988.000000	 46.060442 
987.000000	 46.037316 
986.000000	 46.006035 
985.000000	 45.967030 
984.000000	 45.922064 
983.000000	 45.874047 
982.000000	 45.826411 
981.000000	 45.782637 
980.000000	 45.745563 
979.000000	 45.717096 
978.000000	 45.698213 
977.000000	 45.689058 
976.000000	 45.688819 
975.000000	 45.696115 
974.000000	 45.708990 
973.000000	 45.725154 
972.000000	 45.742058 
971.000000	 45.757126 
970.000000	 45.767807 
969.000000	 45.772194 
968.000000	 45.769023 
967.000000	 45.758128 
966.000000	 45.740556 
965.000000	 45.718455 
964.000000	 45.694637 
963.000000	 45.671963 
962.000000	 45.653104 
961.000000	 45.639634 
960.000000	 45.632076 
959.000000	 45.629572 
958.000000	 45.630335 
957.000000	 45.632195 
956.000000	 45.633220 
955.000000	 45.632266 
954.000000	 45.629167 
953.000000	 45.624613 
952.000000	 45.619750 
951.000000	 45.615839 
950.000000	 45.613288 
949.000000	 45.611310 
948.000000	 45.607662 
947.000000	 45.599174 
946.000000	 45.582938 
945.000000	 45.556783 
944.000000	 45.520710 
943.000000	 45.476841 
942.000000	 45.429801 
941.000000	 45.386171 
940.000000	 45.352673 
939.000000	 45.334744 
938.000000	 45.335125 
937.000000	 45.353150 
936.000000	 45.384192 
935.000000	 45.420551 
934.000000	 45.453262 
933.000000	 45.473885 
932.000000	 45.476341 
931.000000	 45.458221 
930.000000	 45.421195 
929.000000	 45.370745 
928.000000	 45.314502 
927.000000	 45.260596 
926.000000	 45.216155 
925.000000	 45.185732 
924.000000	 45.170712 
923.000000	 45.169067 
922.000000	 45.176601 
921.000000	 45.187687 
920.000000	 45.196843 
919.000000	 45.199584 
918.000000	 45.193219 
917.000000	 45.177149 
916.000000	 45.152139 
915.000000	 45.120167 
914.000000	 45.083689 
913.000000	 45.044851 
912.000000	 45.005369 
911.000000	 44.966149 
910.000000	 44.927406 
909.000000	 44.889068 
908.000000	 44.851398 
907.000000	 44.814729 
906.000000	 44.779491 
905.000000	 44.746208 
904.000000	 44.715261 
903.000000	 44.686603 
902.000000	 44.659495 
901.000000	 44.632792 
900.000000	 44.605040 
899.000000	 44.574689 
898.000000	 44.540929 
897.000000	 44.504165 
896.000000	 44.466185 
895.000000	 44.429278 
894.000000	 44.395804 
893.000000	 44.368052 
892.000000	 44.346904 
891.000000	 44.331550 
890.000000	 44.319653 
889.000000	 44.307279 
888.000000	 44.290804 
887.000000	 44.267559 
886.000000	 44.237589 
885.000000	 44.202828 
884.000000	 44.168305 
883.000000	 44.140625 
882.000000	 44.126582 
881.000000	 44.131255 
880.000000	 44.156098 
879.000000	 44.198226 
878.000000	 44.251036 
877.000000	 44.305658 
876.000000	 44.353485 
875.000000	 44.388628 
874.000000	 44.409680 
873.000000	 44.420194 
872.000000	 44.427466 
871.000000	 44.440269 
870.000000	 44.466567 
869.000000	 44.510459 
868.000000	 44.570899 
867.000000	 44.640469 
866.000000	 44.708871 
865.000000	 44.762802 
864.000000	 44.790387 
863.000000	 44.781899 
862.000000	 44.733548 
861.000000	 44.646692 
860.000000	 44.527459 
859.000000	 44.385862 
858.000000	 44.233751 
857.000000	 44.083714 
856.000000	 43.947577 
855.000000	 43.835043 
854.000000	 43.752622 
853.000000	 43.702960 
852.000000	 43.685030 
851.000000	 43.693494 
850.000000	 43.720054 
849.000000	 43.754911 
848.000000	 43.788838 
847.000000	 43.814373 
846.000000	 43.827700 
845.000000	 43.829321 
844.000000	 43.824052 
843.000000	 43.818926 
842.000000	 43.821883 
841.000000	 43.839454 
840.000000	 43.875288 
839.000000	 43.929457 
838.000000	 43.998408 
837.000000	 44.076657 
836.000000	 44.157075 
835.000000	 44.233393 
834.000000	 44.299340 
833.000000	 44.349455 
832.000000	 44.378829 
831.000000	 44.383478 
830.000000	 44.360828 
829.000000	 44.310450 
828.000000	 44.235014 
827.000000	 44.141125 
826.000000	 44.037628 
825.000000	 43.934750 
824.000000	 43.842411 
823.000000	 43.768668 
822.000000	 43.717861 
821.000000	 43.690395 
820.000000	 43.682885 
819.000000	 43.689513 
818.000000	 43.704056 
817.000000	 43.721413 
816.000000	 43.737840 
815.000000	 43.751740 
814.000000	 43.762898 
813.000000	 43.772387 
812.000000	 43.779945 
811.000000	 43.785524 
810.000000	 43.789291 
809.000000	 43.791842 
808.000000	 43.794894 
807.000000	 43.800210 
806.000000	 43.809819 
805.000000	 43.824243 
804.000000	 43.842291 
803.000000	 43.861031 
802.000000	 43.876576 
801.000000	 43.884921 
800.000000	 43.883132 
799.000000	 43.869876 
798.000000	 43.845748 
797.000000	 43.813228 
796.000000	 43.775892 
795.000000	 43.737459 
794.000000	 43.700766 
793.000000	 43.667602 
792.000000	 43.638181 
791.000000	 43.611311 
790.000000	 43.584275 
789.000000	 43.554520 
788.000000	 43.519568 
787.000000	 43.477654 
786.000000	 43.428230 
785.000000	 43.371725 
784.000000	 43.310141 
783.000000	 43.246936 
782.000000	 43.186736 
781.000000	 43.134164 
780.000000	 43.093585 
779.000000	 43.067431 
778.000000	 43.056511 
777.000000	 43.059110 
776.000000	 43.072199 
775.000000	 43.091988 
774.000000	 43.115091 
773.000000	 43.138885 
772.000000	 43.161821 
771.000000	 43.183207 
770.000000	 43.202567 
769.000000	 43.218874 
768.000000	 43.230986 
767.000000	 43.237614 
766.000000	 43.237829 
765.000000	 43.231463 
764.000000	 43.219709 
763.000000	 43.204689 
762.000000	 43.189549 
761.000000	 43.176817 
760.000000	 43.167567 
759.000000	 43.160939 
758.000000	 43.154096 
757.000000	 43.143558 
756.000000	 43.125915 
755.000000	 43.099641 
754.000000	 43.066239 
753.000000	 43.029999 
752.000000	 42.997002 
751.000000	 42.973446 
750.000000	 42.964076 
749.000000	 42.970490 
748.000000	 42.990589 
747.000000	 43.018794 
746.000000	 43.047571 
745.000000	 43.068647 
744.000000	 43.075203 
743.000000	 43.062949 
742.000000	 43.030929 
741.000000	 42.981600 
740.000000	 42.920160 
739.000000	 42.852997 
738.000000	 42.786264 
737.000000	 42.725276 
736.000000	 42.673778 
735.000000	 42.633748 
734.000000	 42.605805 
733.000000	 42.590045 
732.000000	 42.586350 
731.000000	 42.594146 
730.000000	 42.612457 
729.000000	 42.639350 
728.000000	 42.671847 
727.000000	 42.705607 
726.000000	 42.735767 
725.000000	 42.757439 
724.000000	 42.766952 
723.000000	 42.762589 
722.000000	 42.745113 
721.000000	 42.717862 
720.000000	 42.685675 
719.000000	 42.654013 
718.000000	 42.627215 
717.000000	 42.607665 
716.000000	 42.595005 
715.000000	 42.586374 
714.000000	 42.577338 
713.000000	 42.563128 
712.000000	 42.539787 
711.000000	 42.504906 
710.000000	 42.457985 
709.000000	 42.400455 
708.000000	 42.334818 
707.000000	 42.264676 
706.000000	 42.193722 
705.000000	 42.125821 
704.000000	 42.064690 
703.000000	 42.013454 
702.000000	 41.974520 
701.000000	 41.949057 
700.000000	 41.936612 
699.000000	 41.935181 
698.000000	 41.941475 
697.000000	 41.951012 
696.000000	 41.958522 
695.000000	 41.959214 
694.000000	 41.949462 
693.000000	 41.927409 
692.000000	 41.893124 
691.000000	 41.848516 
690.000000	 41.796755 
689.000000	 41.741776 
688.000000	 41.687417 
687.000000	 41.636729 
686.000000	 41.591262 
685.000000	 41.551518 
684.000000	 41.516757 
683.000000	 41.485214 
682.000000	 41.455006 
681.000000	 41.424345 
680.000000	 41.392469 
679.000000	 41.359543 
678.000000	 41.326904 
677.000000	 41.296958 
676.000000	 41.272020 
675.000000	 41.253423 
674.000000	 41.240596 
673.000000	 41.231441 
672.000000	 41.221809 
671.000000	 41.206502 
670.000000	 41.180539 
669.000000	 41.140341 
668.000000	 41.085529 
667.000000	 41.018915 
666.000000	 40.946841 
665.000000	 40.877676 
664.000000	 40.820407 
663.000000	 40.782642 
662.000000	 40.768694 
661.000000	 40.778398 
660.000000	 40.807437 
659.000000	 40.848493 
658.000000	 40.892529 
657.000000	 40.931081 
656.000000	 40.957975 
655.000000	 40.970849 
654.000000	 40.970683 
653.000000	 40.961790 
652.000000	 40.950083 
651.000000	 40.941357 
650.000000	 40.940022 
649.000000	 40.947318 
648.000000	 40.961360 
647.000000	 40.977239 
646.000000	 40.988969 
645.000000	 40.990471 
644.000000	 40.977883 
643.000000	 40.950083 
642.000000	 40.909433 
641.000000	 40.860509 
640.000000	 40.808963 
639.000000	 40.759754 
638.000000	 40.716314 
637.000000	 40.679121 
636.000000	 40.645909 
635.000000	 40.612649 
634.000000	 40.574884 
633.000000	 40.528535 
632.000000	 40.471386 
631.000000	 40.403246 
630.000000	 40.326499 
629.000000	 40.245151 
628.000000	 40.164351 
627.000000	 40.089082 
626.000000	 40.023517 
625.000000	 39.970684 
624.000000	 39.931750 
623.000000	 39.906072 
622.000000	 39.891219 
621.000000	 39.883637 
620.000000	 39.879274 
619.000000	 39.873170 
618.000000	 39.862060 
617.000000	 39.844202 
616.000000	 39.820742 
615.000000	 39.794707 
614.000000	 39.771485 
613.000000	 39.757370 
612.000000	 39.758086 
611.000000	 39.777207 
610.000000	 39.814758 
609.000000	 39.866781 
608.000000	 39.925789 
607.000000	 39.982366 
606.000000	 40.027070 
605.000000	 40.052652 
604.000000	 40.055966 
603.000000	 40.038251 
602.000000	 40.005183 
601.000000	 39.964962 
600.000000	 39.926338 
599.000000	 39.895868 
598.000000	 39.877128 
597.000000	 39.868879 
596.000000	 39.866757 
595.000000	 39.863038 
594.000000	 39.849257 
593.000000	 39.817762 
592.000000	 39.764213 
591.000000	 39.688515 
590.000000	 39.594769 
589.000000	 39.490890 
588.000000	 39.387083 
587.000000	 39.293456 
586.000000	 39.217925 
585.000000	 39.164686 
584.000000	 39.133715 
583.000000	 39.120984 
582.000000	 39.119887 
581.000000	 39.122343 
580.000000	 39.120578 
579.000000	 39.108228 
578.000000	 39.081072 
577.000000	 39.036703 
576.000000	 38.974523 
575.000000	 38.895535 
574.000000	 38.802266 
573.000000	 38.697791 
572.000000	 38.586425 
571.000000	 38.473606 
570.000000	 38.366198 
569.000000	 38.271093 
568.000000	 38.195395 
567.000000	 38.144874 
566.000000	 38.123869 
565.000000	 38.133311 
564.000000	 38.171720 
563.000000	 38.234353 
562.000000	 38.314580 
561.000000	 38.404059 
560.000000	 38.494157 
559.000000	 38.576555 
558.000000	 38.644123 
557.000000	 38.691663 
556.000000	 38.715863 
555.000000	 38.715457 
554.000000	 38.691592 
553.000000	 38.647413 
552.000000	 38.587594 
551.000000	 38.517522 
550.000000	 38.443136 
549.000000	 38.369488 
548.000000	 38.300013 
547.000000	 38.235735 
546.000000	 38.175702 
545.000000	 38.117337 
544.000000	 38.056993 
543.000000	 37.991738 
542.000000	 37.919330 
541.000000	 37.840080 
540.000000	 37.756586 
539.000000	 37.673568 
538.000000	 37.596511 
537.000000	 37.531089 
536.000000	 37.481617 
535.000000	 37.450408 
534.000000	 37.436604 
533.000000	 37.437033 
532.000000	 37.446808 
531.000000	 37.459754 
530.000000	 37.469339 
529.000000	 37.469911 
528.000000	 37.457704 
527.000000	 37.430882 
526.000000	 37.389779 
525.000000	 37.338447 
524.000000	 37.283539 
523.000000	 37.233471 
522.000000	 37.196230 
521.000000	 37.177324 
520.000000	 37.177491 
519.000000	 37.192845 
518.000000	 37.214231 
517.000000	 37.229514 
516.000000	 37.225437 
515.000000	 37.191796 
514.000000	 37.122845 
513.000000	 37.018895 
512.000000	 36.885881 
511.000000	 36.734390 
510.000000	 36.577343 
509.000000	 36.426973 
508.000000	 36.293268 
507.000000	 36.182260 
506.000000	 36.096167 
505.000000	 36.034035 
504.000000	 35.992312 
503.000000	 35.966682 
502.000000	 35.951328 
501.000000	 35.940170 
500.000000	 35.926604 
499.000000	 35.904502 
498.000000	 35.870194 
497.000000	 35.823273 
496.000000	 35.766839 
495.000000	 35.706949 
494.000000	 35.651636 
493.000000	 35.608959 
492.000000	 35.584330 
491.000000	 35.579705 
490.000000	 35.593032 
489.000000	 35.619163 
488.000000	 35.651636 
487.000000	 35.683369 
486.000000	 35.708022 
485.000000	 35.720610 
484.000000	 35.718202 
483.000000	 35.700058 
482.000000	 35.666942 
481.000000	 35.621356 
480.000000	 35.566735 
479.000000	 35.507798 
478.000000	 35.449886 
477.000000	 35.398554 
476.000000	 35.359215 
475.000000	 35.335135 
474.000000	 35.326695 
473.000000	 35.330247 
472.000000	 35.338497 
471.000000	 35.340476 
470.000000	 35.323762 
469.000000	 35.277175 
468.000000	 35.193753 
467.000000	 35.071778 
466.000000	 34.917378 
465.000000	 34.743165 
464.000000	 34.567928 
463.000000	 34.413886 
462.000000	 34.302449 
461.000000	 34.249687 
460.000000	 34.262418 
459.000000	 34.337997 
458.000000	 34.462237 
457.000000	 34.612178 
456.000000	 34.759736 
455.000000	 34.877300 
454.000000	 34.942770 
453.000000	 34.942817 
452.000000	 34.875559 
451.000000	 34.749436 
450.000000	 34.581446 
449.000000	 34.392714 
448.000000	 34.205412 
447.000000	 34.038615 
446.000000	 33.907318 
445.000000	 33.821153 
444.000000	 33.785605 
443.000000	 33.802103 
442.000000	 33.869028 
441.000000	 33.980631 
440.000000	 34.125947 
439.000000	 34.287595 
438.000000	 34.443378 
437.000000	 34.567284 
436.000000	 34.631228 
435.000000	 34.611582 
434.000000	 34.495568 
433.000000	 34.285044 
432.000000	 33.996415 
431.000000	 33.659768 
430.000000	 33.317041 
429.000000	 33.010506 
428.000000	 32.772445 
427.000000	 32.621622 
426.000000	 32.564234 
425.000000	 32.589030 
424.000000	 32.667851 
423.000000	 32.770419 
422.000000	 32.874798 
421.000000	 32.962870 
420.000000	 33.021521 
419.000000	 33.044505 
418.000000	 33.030271 
417.000000	 32.985234 
416.000000	 32.921862 
415.000000	 32.854628 
414.000000	 32.799625 
413.000000	 32.768964 
412.000000	 32.772421 
411.000000	 32.826066 
410.000000	 32.945656 
409.000000	 33.135390 
408.000000	 33.392477 
407.000000	 33.700156 
406.000000	 34.039735 
405.000000	 34.397673 
404.000000	 34.772038 
403.000000	 35.143947 
402.000000	 35.524964 
401.000000	 35.933947 
400.000000	 36.434602 
399.000000	 37.134599 
398.000000	 38.139772 
397.000000	 39.505004 
396.000000	 41.234374 
395.000000	 43.285083 
394.000000	 45.503425 
393.000000	 47.636723 
392.000000	 49.411630 
391.000000	 50.601172 
390.000000	 51.007652 
389.000000	 50.542879 
388.000000	 49.232363 
387.000000	 47.266936 
386.000000	 45.108985 
385.000000	 43.339514 
384.000000	 42.651844 
383.000000	 43.512153 
382.000000	 45.926499 
381.000000	 49.406743 
380.000000	 52.935338 
379.000000	 55.386662 
378.000000	 55.878663 
377.000000	 54.069614 
376.000000	 50.366926 
375.000000	 45.755505 
374.000000	 41.435766 
373.000000	 38.636016 
372.000000	 37.958264 
371.000000	 39.836311 
370.000000	 44.489860 

