PE IR       SPECTRUM    SPECTRUM    ASCII       PEDS        1.60        
  -1
C-1AE4~1.ASC
17/05/02
11:42:14.00
17/05/02
11:42:14.00
tln
$C-4040-8_t0011$<tbV0>[-7.5,-8.0,8.0,0.0,22,1,0]
370.000000
64









2002,4.07    
MIRTGS : RIGHTBACK : INTERNAL 2
MIR : ON : INTERNAL 2
OPTKBR

0.200000
8
8.000000
FILLER
RATIO
SPECTRUM
UNLOCKED 256

DOUBLE
64
COMBINED
1
0
0


1.000000
RATIO


1
0
TRUE
51149
0
LEFT NOT FITTED RIGHT NOT FITTED 0
NONE
NONE
15600
12.000000
4.427000
51148
TRUE
1 0 8 72 0 0 0 0 

15798.010000






#HDR
-1
-1
#GR
CM-1
%T
0.00002384185791015625
0.0
7800.000000
-1.000000
7431
8
76.469516
19.313955
#DATA
7800.000000	64.542078 
7799.000000	63.506317 
7798.000000	63.006067 
7797.000000	62.924098 
7796.000000	63.126373 
7795.000000	63.491058 
7794.000000	63.933944 
7793.000000	64.409708 
7792.000000	64.913654 
7791.000000	65.460872 
7790.000000	66.061091 
7789.000000	66.701555 
7788.000000	67.349290 
7787.000000	67.950582 
7786.000000	68.444776 
7785.000000	68.774271 
7784.000000	68.912935 
7783.000000	68.860244 
7782.000000	68.639826 
7781.000000	68.292450 
7780.000000	67.865943 
7779.000000	67.411327 
7778.000000	66.970419 
7777.000000	66.585993 
7776.000000	66.300344 
7775.000000	66.158080 
7774.000000	66.212391 
7773.000000	66.498088 
7772.000000	67.015409 
7771.000000	67.729425 
7770.000000	68.572139 
7769.000000	69.445443 
7768.000000	70.233893 
7767.000000	70.839214 
7766.000000	71.199059 
7765.000000	71.291804 
7764.000000	71.136665 
7763.000000	70.778203 
7762.000000	70.272278 
7761.000000	69.681358 
7760.000000	69.059443 
7759.000000	68.444848 
7758.000000	67.858362 
7757.000000	67.316317 
7756.000000	66.831517 
7755.000000	66.413545 
7754.000000	66.076803 
7753.000000	65.841245 
7752.000000	65.730118 
7751.000000	65.752482 
7750.000000	65.911674 
7749.000000	66.188931 
7748.000000	66.562032 
7747.000000	66.999316 
7746.000000	67.478513 
7745.000000	67.982196 
7744.000000	68.510532 
7743.000000	69.076752 
7742.000000	69.692230 
7741.000000	70.354676 
7740.000000	71.034717 
7739.000000	71.673107 
7738.000000	72.178196 
7737.000000	72.441196 
7736.000000	72.357225 
7735.000000	71.849727 
7734.000000	70.896458 
7733.000000	69.536662 
7732.000000	67.879176 
7731.000000	66.075420 
7730.000000	64.286994 
7729.000000	62.656950 
7728.000000	61.283850 
7727.000000	60.216975 
7726.000000	59.454512 
7725.000000	58.969569 
7724.000000	58.712649 
7723.000000	58.653998 
7722.000000	58.780527 
7721.000000	59.113192 
7720.000000	59.667515 
7719.000000	60.468912 
7718.000000	61.519885 
7717.000000	62.794828 
7716.000000	64.224052 
7715.000000	65.702319 
7714.000000	67.100477 
7713.000000	68.285799 
7712.000000	69.147801 
7711.000000	69.614791 
7710.000000	69.671320 
7709.000000	69.368743 
7708.000000	68.818116 
7707.000000	68.175578 
7706.000000	67.605590 
7705.000000	67.268896 
7704.000000	67.265963 
7703.000000	67.624330 
7702.000000	68.269038 
7701.000000	69.056439 
7700.000000	69.782423 
7699.000000	70.234799 
7698.000000	70.232534 
7697.000000	69.676351 
7696.000000	68.561553 
7695.000000	66.971039 
7694.000000	65.068030 
7693.000000	63.052511 
7692.000000	61.137604 
7691.000000	59.508013 
7690.000000	58.301734 
7689.000000	57.592558 
7688.000000	57.396578 
7687.000000	57.682180 
7686.000000	58.380436 
7685.000000	59.399652 
7684.000000	60.650086 
7683.000000	62.053322 
7682.000000	63.536953 
7681.000000	65.034341 
7680.000000	66.487216 
7679.000000	67.838525 
7678.000000	69.029188 
7677.000000	69.996809 
7676.000000	70.690631 
7675.000000	71.070170 
7674.000000	71.128058 
7673.000000	70.880818 
7672.000000	70.377922 
7671.000000	69.689273 
7670.000000	68.911576 
7669.000000	68.141317 
7668.000000	67.471003 
7667.000000	66.965794 
7666.000000	66.665148 
7665.000000	66.568756 
7664.000000	66.644597 
7663.000000	66.835260 
7662.000000	67.073249 
7661.000000	67.294311 
7660.000000	67.447280 
7659.000000	67.508554 
7658.000000	67.480945 
7657.000000	67.385745 
7656.000000	67.249441 
7655.000000	67.090821 
7654.000000	66.910529 
7653.000000	66.692471 
7652.000000	66.408109 
7651.000000	66.020774 
7650.000000	65.506410 
7649.000000	64.870071 
7648.000000	64.156889 
7647.000000	63.437366 
7646.000000	62.808156 
7645.000000	62.375998 
7644.000000	62.229228 
7643.000000	62.416791 
7642.000000	62.926435 
7641.000000	63.681244 
7640.000000	64.550709 
7639.000000	65.375614 
7638.000000	66.003990 
7637.000000	66.321516 
7636.000000	66.280603 
7635.000000	65.909385 
7634.000000	65.295600 
7633.000000	64.559650 
7632.000000	63.826608 
7631.000000	63.195896 
7630.000000	62.731266 
7629.000000	62.451791 
7628.000000	62.342286 
7627.000000	62.360239 
7626.000000	62.448859 
7625.000000	62.548303 
7624.000000	62.600517 
7623.000000	62.562108 
7622.000000	62.400817 
7621.000000	62.109208 
7620.000000	61.700439 
7619.000000	61.213231 
7618.000000	60.698080 
7617.000000	60.216665 
7616.000000	59.831762 
7615.000000	59.596061 
7614.000000	59.539365 
7613.000000	59.666919 
7612.000000	59.958696 
7611.000000	60.373878 
7610.000000	60.857820 
7609.000000	61.352992 
7608.000000	61.807179 
7607.000000	62.180781 
7606.000000	62.449836 
7605.000000	62.601733 
7604.000000	62.632179 
7603.000000	62.540340 
7602.000000	62.327885 
7601.000000	62.003397 
7600.000000	61.586070 
7599.000000	61.104774 
7598.000000	60.601377 
7597.000000	60.133695 
7596.000000	59.768033 
7595.000000	59.562849 
7594.000000	59.563064 
7593.000000	59.785771 
7592.000000	60.222411 
7591.000000	60.837578 
7590.000000	61.578226 
7589.000000	62.377762 
7588.000000	63.171100 
7587.000000	63.902449 
7586.000000	64.531683 
7585.000000	65.033125 
7584.000000	65.397572 
7583.000000	65.629124 
7582.000000	65.740013 
7581.000000	65.747475 
7580.000000	65.671181 
7579.000000	65.534520 
7578.000000	65.360164 
7577.000000	65.172576 
7576.000000	64.995384 
7575.000000	64.854168 
7574.000000	64.776182 
7573.000000	64.791083 
7572.000000	64.931273 
7571.000000	65.223765 
7570.000000	65.689682 
7569.000000	66.325402 
7568.000000	67.096710 
7567.000000	67.930102 
7566.000000	68.722248 
7565.000000	69.351959 
7564.000000	69.707417 
7563.000000	69.705367 
7562.000000	69.317841 
7561.000000	68.571329 
7560.000000	67.550444 
7559.000000	66.371297 
7558.000000	65.161466 
7557.000000	64.032411 
7556.000000	63.066887 
7555.000000	62.303948 
7554.000000	61.741471 
7553.000000	61.353802 
7552.000000	61.110067 
7551.000000	60.987210 
7550.000000	60.977983 
7549.000000	61.095166 
7548.000000	61.362433 
7547.000000	61.797285 
7546.000000	62.397122 
7545.000000	63.129782 
7544.000000	63.932633 
7543.000000	64.721941 
7542.000000	65.406489 
7541.000000	65.907216 
7540.000000	66.171002 
7539.000000	66.184973 
7538.000000	65.972852 
7537.000000	65.591573 
7536.000000	65.112185 
7535.000000	64.610385 
7534.000000	64.143729 
7533.000000	63.750219 
7532.000000	63.436007 
7531.000000	63.189625 
7530.000000	62.980294 
7529.000000	62.774372 
7528.000000	62.542843 
7527.000000	62.272810 
7526.000000	61.964559 
7525.000000	61.627745 
7524.000000	61.284089 
7523.000000	60.960769 
7522.000000	60.685062 
7521.000000	60.478973 
7520.000000	60.357713 
7519.000000	60.328173 
7518.000000	60.389328 
7517.000000	60.534262 
7516.000000	60.746598 
7515.000000	61.007332 
7514.000000	61.296367 
7513.000000	61.597967 
7512.000000	61.895775 
7511.000000	62.179231 
7510.000000	62.446618 
7509.000000	62.698841 
7508.000000	62.934851 
7507.000000	63.149404 
7506.000000	63.332867 
7505.000000	63.472414 
7504.000000	63.555264 
7503.000000	63.576173 
7502.000000	63.540863 
7501.000000	63.470745 
7500.000000	63.403463 
7499.000000	63.378977 
7498.000000	63.429784 
7497.000000	63.571000 
7496.000000	63.795471 
7495.000000	64.071464 
7494.000000	64.349722 
7493.000000	64.577031 
7492.000000	64.708590 
7491.000000	64.718985 
7490.000000	64.605522 
7489.000000	64.390730 
7488.000000	64.109277 
7487.000000	63.798499 
7486.000000	63.482737 
7485.000000	63.168954 
7484.000000	62.843179 
7483.000000	62.482643 
7482.000000	62.062072 
7481.000000	61.568140 
7480.000000	61.007070 
7479.000000	60.404562 
7478.000000	59.809136 
7477.000000	59.274554 
7476.000000	58.861947 
7475.000000	58.623003 
7474.000000	58.593130 
7473.000000	58.780407 
7472.000000	59.163379 
7471.000000	59.692335 
7470.000000	60.295820 
7469.000000	60.892367 
7468.000000	61.408209 
7467.000000	61.790204 
7466.000000	62.017560 
7465.000000	62.101125 
7464.000000	62.075567 
7463.000000	61.985421 
7462.000000	61.874103 
7461.000000	61.770272 
7460.000000	61.682152 
7459.000000	61.599373 
7458.000000	61.504960 
7457.000000	61.384224 
7456.000000	61.236119 
7455.000000	61.076760 
7454.000000	60.942649 
7453.000000	60.875034 
7452.000000	60.906052 
7451.000000	61.046457 
7450.000000	61.278152 
7449.000000	61.556315 
7448.000000	61.818218 
7447.000000	62.000679 
7446.000000	62.057185 
7445.000000	61.970496 
7444.000000	61.757397 
7443.000000	61.466765 
7442.000000	61.166906 
7441.000000	60.931563 
7440.000000	60.822582 
7439.000000	60.877704 
7438.000000	61.103200 
7437.000000	61.478924 
7436.000000	61.962962 
7435.000000	62.502050 
7434.000000	63.042163 
7433.000000	63.534927 
7432.000000	63.947248 
7431.000000	64.260244 
7430.000000	64.473628 
7429.000000	64.601111 
7428.000000	64.664435 
7427.000000	64.694070 
7426.000000	64.711332 
7425.000000	64.729475 
7424.000000	64.742708 
7423.000000	64.733648 
7422.000000	64.675903 
7421.000000	64.547443 
7420.000000	64.337778 
7419.000000	64.055991 
7418.000000	63.730907 
7417.000000	63.406777 
7416.000000	63.132119 
7415.000000	62.947964 
7414.000000	62.878489 
7413.000000	62.926340 
7412.000000	63.071942 
7411.000000	63.281250 
7410.000000	63.517165 
7409.000000	63.750863 
7408.000000	63.965797 
7407.000000	64.161896 
7406.000000	64.353156 
7405.000000	64.559793 
7404.000000	64.794087 
7403.000000	65.055847 
7402.000000	65.333437 
7401.000000	65.600371 
7400.000000	65.826249 
7399.000000	65.977406 
7398.000000	66.029906 
7397.000000	65.969896 
7396.000000	65.802574 
7395.000000	65.544462 
7394.000000	65.219020 
7393.000000	64.856767 
7392.000000	64.490890 
7391.000000	64.155888 
7390.000000	63.883996 
7389.000000	63.702630 
7388.000000	63.630414 
7387.000000	63.670015 
7386.000000	63.805317 
7385.000000	63.998723 
7384.000000	64.195799 
7383.000000	64.333605 
7382.000000	64.353084 
7381.000000	64.208650 
7380.000000	63.880777 
7379.000000	63.381171 
7378.000000	62.754344 
7377.000000	62.062168 
7376.000000	61.382341 
7375.000000	60.789370 
7374.000000	60.352921 
7373.000000	60.119605 
7372.000000	60.120272 
7371.000000	60.366678 
7370.000000	60.852384 
7369.000000	61.553359 
7368.000000	62.424516 
7367.000000	63.399529 
7366.000000	64.394330 
7365.000000	65.312218 
7364.000000	66.061949 
7363.000000	66.569614 
7362.000000	66.797232 
7361.000000	66.749000 
7360.000000	66.463422 
7359.000000	66.002058 
7358.000000	65.437459 
7357.000000	64.835691 
7356.000000	64.245343 
7355.000000	63.689184 
7354.000000	63.174247 
7353.000000	62.693428 
7352.000000	62.233853 
7351.000000	61.787772 
7350.000000	61.355805 
7349.000000	60.955262 
7348.000000	60.612750 
7347.000000	60.363221 
7346.000000	60.235023 
7345.000000	60.245466 
7344.000000	60.385012 
7343.000000	60.626482 
7342.000000	60.923886 
7341.000000	61.229205 
7340.000000	61.499142 
7339.000000	61.709380 
7338.000000	61.855792 
7337.000000	61.956262 
7336.000000	62.042117 
7335.000000	62.145543 
7334.000000	62.287473 
7333.000000	62.475752 
7332.000000	62.703561 
7331.000000	62.952375 
7330.000000	63.199591 
7329.000000	63.431143 
7328.000000	63.643860 
7327.000000	63.849616 
7326.000000	64.065670 
7325.000000	64.300322 
7324.000000	64.549541 
7323.000000	64.794111 
7322.000000	65.007114 
7321.000000	65.159320 
7320.000000	65.233993 
7319.000000	65.239167 
7318.000000	65.203785 
7317.000000	65.172839 
7316.000000	65.193724 
7315.000000	65.303039 
7314.000000	65.515327 
7313.000000	65.818572 
7312.000000	66.176199 
7311.000000	66.538810 
7310.000000	66.852259 
7309.000000	67.072677 
7308.000000	67.170524 
7307.000000	67.136764 
7306.000000	66.978645 
7305.000000	66.717743 
7304.000000	66.381359 
7303.000000	66.001081 
7302.000000	65.614056 
7301.000000	65.261387 
7300.000000	64.987969 
7299.000000	64.835810 
7298.000000	64.840030 
7297.000000	65.018343 
7296.000000	65.360617 
7295.000000	65.830969 
7294.000000	66.373062 
7293.000000	66.919660 
7292.000000	67.400765 
7291.000000	67.761087 
7290.000000	67.967176 
7289.000000	68.016433 
7288.000000	67.932105 
7287.000000	67.761182 
7286.000000	67.561650 
7285.000000	67.391514 
7284.000000	67.299699 
7283.000000	67.311215 
7282.000000	67.424821 
7281.000000	67.613816 
7280.000000	67.835760 
7279.000000	68.040347 
7278.000000	68.183326 
7277.000000	68.233466 
7276.000000	68.179607 
7275.000000	68.035650 
7274.000000	67.832660 
7273.000000	67.610359 
7272.000000	67.401528 
7271.000000	67.224025 
7270.000000	67.072582 
7269.000000	66.921591 
7268.000000	66.734170 
7267.000000	66.475558 
7266.000000	66.129422 
7265.000000	65.703725 
7264.000000	65.238857 
7263.000000	64.795374 
7262.000000	64.448809 
7261.000000	64.262151 
7260.000000	64.284396 
7259.000000	64.535045 
7258.000000	65.003943 
7257.000000	65.651297 
7256.000000	66.414952 
7255.000000	67.220354 
7254.000000	67.989516 
7253.000000	68.651294 
7252.000000	69.144701 
7251.000000	69.423580 
7250.000000	69.460105 
7249.000000	69.246196 
7248.000000	68.794941 
7247.000000	68.139362 
7246.000000	67.333698 
7245.000000	66.446065 
7244.000000	65.556573 
7243.000000	64.743709 
7242.000000	64.077234 
7241.000000	63.605618 
7240.000000	63.350296 
7239.000000	63.303852 
7238.000000	63.430428 
7237.000000	63.678431 
7236.000000	63.984918 
7235.000000	64.295744 
7234.000000	64.566802 
7233.000000	64.778876 
7232.000000	64.929485 
7231.000000	65.037131 
7230.000000	65.129065 
7229.000000	65.232348 
7228.000000	65.362405 
7227.000000	65.521383 
7226.000000	65.697169 
7225.000000	65.869307 
7224.000000	66.014957 
7223.000000	66.113257 
7222.000000	66.148924 
7221.000000	66.115689 
7220.000000	66.014599 
7219.000000	65.849566 
7218.000000	65.626168 
7217.000000	65.351724 
7216.000000	65.035057 
7215.000000	64.691948 
7214.000000	64.341902 
7213.000000	64.002966 
7212.000000	63.695430 
7211.000000	63.438367 
7210.000000	63.252830 
7209.000000	63.152003 
7208.000000	63.151001 
7207.000000	63.258910 
7206.000000	63.484930 
7205.000000	63.832855 
7204.000000	64.298915 
7203.000000	64.865779 
7202.000000	65.502214 
7201.000000	66.163682 
7200.000000	66.792416 
7199.000000	67.324304 
7198.000000	67.698287 
7197.000000	67.867231 
7196.000000	67.806911 
7195.000000	67.521977 
7194.000000	67.046546 
7193.000000	66.440200 
7192.000000	65.778422 
7191.000000	65.142059 
7190.000000	64.607429 
7189.000000	64.234781 
7188.000000	64.062070 
7187.000000	64.099812 
7186.000000	64.334058 
7185.000000	64.728093 
7184.000000	65.228343 
7183.000000	65.773677 
7182.000000	66.301536 
7181.000000	66.757822 
7180.000000	67.100071 
7179.000000	67.302799 
7178.000000	67.356061 
7177.000000	67.266702 
7176.000000	67.055439 
7175.000000	66.752314 
7174.000000	66.392827 
7173.000000	66.013026 
7172.000000	65.646743 
7171.000000	65.320444 
7170.000000	65.051937 
7169.000000	64.848613 
7168.000000	64.707970 
7167.000000	64.620471 
7166.000000	64.570713 
7165.000000	64.539122 
7164.000000	64.504432 
7163.000000	64.444756 
7162.000000	64.341759 
7161.000000	64.181733 
7160.000000	63.960003 
7159.000000	63.678050 
7158.000000	63.348746 
7157.000000	62.993526 
7156.000000	62.642240 
7155.000000	62.327194 
7154.000000	62.079858 
7153.000000	61.922574 
7152.000000	61.868667 
7151.000000	61.918401 
7150.000000	62.062001 
7149.000000	62.278437 
7148.000000	62.546777 
7147.000000	62.848281 
7146.000000	63.170433 
7145.000000	63.505482 
7144.000000	63.846468 
7143.000000	64.183068 
7142.000000	64.500021 
7141.000000	64.776802 
7140.000000	64.989638 
7139.000000	65.116572 
7138.000000	65.147852 
7137.000000	65.086746 
7136.000000	64.952111 
7135.000000	64.772200 
7134.000000	64.582109 
7133.000000	64.412689 
7132.000000	64.285945 
7131.000000	64.209151 
7130.000000	64.176917 
7129.000000	64.173316 
7128.000000	64.178967 
7127.000000	64.177131 
7126.000000	64.160180 
7125.000000	64.129805 
7124.000000	64.094185 
7123.000000	64.065790 
7122.000000	64.054727 
7121.000000	64.067983 
7120.000000	64.106273 
7119.000000	64.165902 
7118.000000	64.240002 
7117.000000	64.321851 
7116.000000	64.406514 
7115.000000	64.490604 
7114.000000	64.571952 
7113.000000	64.650392 
7112.000000	64.724802 
7111.000000	64.792299 
7110.000000	64.845895 
7109.000000	64.874434 
7108.000000	64.864897 
7107.000000	64.805984 
7106.000000	64.692592 
7105.000000	64.529514 
7104.000000	64.332056 
7103.000000	64.124751 
7102.000000	63.936257 
7101.000000	63.794422 
7100.000000	63.718080 
7099.000000	63.712501 
7098.000000	63.768219 
7097.000000	63.864040 
7096.000000	63.972163 
7095.000000	64.064478 
7094.000000	64.121246 
7093.000000	64.135098 
7092.000000	64.111232 
7091.000000	64.064192 
7090.000000	64.011716 
7089.000000	63.969779 
7088.000000	63.946914 
7087.000000	63.944816 
7086.000000	63.964295 
7085.000000	64.007592 
7084.000000	64.083266 
7083.000000	64.202404 
7082.000000	64.375758 
7081.000000	64.604854 
7080.000000	64.880895 
7079.000000	65.177488 
7078.000000	65.452313 
7077.000000	65.653443 
7076.000000	65.734195 
7075.000000	65.660333 
7074.000000	65.420842 
7073.000000	65.031170 
7072.000000	64.533448 
7071.000000	63.986730 
7070.000000	63.455629 
7069.000000	62.998223 
7068.000000	62.656235 
7067.000000	62.448763 
7066.000000	62.372660 
7065.000000	62.403392 
7064.000000	62.503242 
7063.000000	62.625718 
7062.000000	62.726926 
7061.000000	62.767505 
7060.000000	62.724542 
7059.000000	62.595248 
7058.000000	62.403750 
7057.000000	62.193608 
7056.000000	62.025046 
7055.000000	61.964702 
7054.000000	62.070441 
7053.000000	62.377452 
7052.000000	62.886095 
7051.000000	63.561034 
7050.000000	64.333057 
7049.000000	65.112447 
7048.000000	65.805983 
7047.000000	66.336655 
7046.000000	66.657328 
7045.000000	66.760396 
7044.000000	66.672110 
7043.000000	66.443848 
7042.000000	66.136598 
7041.000000	65.808033 
7040.000000	65.500211 
7039.000000	65.235662 
7038.000000	65.020227 
7037.000000	64.850902 
7036.000000	64.717149 
7035.000000	64.607787 
7034.000000	64.513683 
7033.000000	64.428663 
7032.000000	64.343309 
7031.000000	64.245986 
7030.000000	64.121460 
7029.000000	63.955926 
7028.000000	63.738322 
7027.000000	63.467955 
7026.000000	63.156437 
7025.000000	62.829303 
7024.000000	62.520647 
7023.000000	62.268328 
7022.000000	62.103104 
7021.000000	62.044692 
7020.000000	62.096309 
7019.000000	62.244224 
7018.000000	62.458014 
7017.000000	62.699627 
7016.000000	62.933158 
7015.000000	63.126730 
7014.000000	63.254666 
7013.000000	63.304781 
7012.000000	63.277888 
7011.000000	63.188433 
7010.000000	63.060641 
7009.000000	62.928318 
7008.000000	62.829327 
7007.000000	62.804937 
7006.000000	62.892079 
7005.000000	63.116002 
7004.000000	63.482737 
7003.000000	63.976430 
7002.000000	64.559054 
7001.000000	65.173864 
7000.000000	65.756750 
6999.000000	66.246700 
6998.000000	66.599178 
6997.000000	66.797184 
6996.000000	66.848587 
6995.000000	66.788744 
6994.000000	66.658329 
6993.000000	66.497302 
6992.000000	66.324305 
6991.000000	66.138911 
6990.000000	65.917038 
6989.000000	65.625739 
6988.000000	65.235805 
6987.000000	64.739680 
6986.000000	64.157915 
6985.000000	63.540506 
6984.000000	62.959122 
6983.000000	62.490916 
6982.000000	62.203335 
6981.000000	62.136769 
6980.000000	62.295794 
6979.000000	62.646150 
6978.000000	63.121986 
6977.000000	63.638687 
6976.000000	64.110255 
6975.000000	64.465475 
6974.000000	64.658021 
6973.000000	64.673423 
6972.000000	64.524650 
6971.000000	64.246964 
6970.000000	63.887238 
6969.000000	63.492965 
6968.000000	63.103342 
6967.000000	62.744855 
6966.000000	62.435269 
6965.000000	62.182593 
6964.000000	61.989998 
6963.000000	61.861348 
6962.000000	61.802983 
6961.000000	61.824941 
6960.000000	61.935400 
6959.000000	62.139368 
6958.000000	62.431502 
6957.000000	62.796950 
6956.000000	63.209962 
6955.000000	63.637423 
6954.000000	64.043569 
6953.000000	64.398312 
6952.000000	64.682674 
6951.000000	64.891767 
6950.000000	65.034461 
6949.000000	65.132021 
6948.000000	65.209889 
6947.000000	65.293264 
6946.000000	65.396285 
6945.000000	65.523147 
6944.000000	65.660500 
6943.000000	65.787100 
6942.000000	65.871882 
6941.000000	65.888309 
6940.000000	65.814113 
6939.000000	65.639328 
6938.000000	65.367531 
6937.000000	65.017318 
6936.000000	64.618682 
6935.000000	64.206671 
6934.000000	63.818717 
6933.000000	63.488554 
6932.000000	63.243198 
6931.000000	63.100028 
6930.000000	63.064455 
6929.000000	63.129806 
6928.000000	63.276100 
6927.000000	63.473629 
6926.000000	63.683819 
6925.000000	63.867235 
6924.000000	63.990521 
6923.000000	64.034581 
6922.000000	63.995432 
6921.000000	63.887715 
6920.000000	63.740253 
6919.000000	63.591337 
6918.000000	63.478922 
6917.000000	63.433361 
6916.000000	63.473773 
6915.000000	63.601374 
6914.000000	63.803076 
6913.000000	64.050626 
6912.000000	64.309000 
6911.000000	64.540791 
6910.000000	64.713191 
6909.000000	64.804959 
6908.000000	64.808201 
6907.000000	64.731693 
6906.000000	64.596772 
6905.000000	64.434456 
6904.000000	64.277863 
6903.000000	64.157247 
6902.000000	64.094901 
6901.000000	64.098811 
6900.000000	64.163064 
6899.000000	64.271235 
6898.000000	64.402294 
6897.000000	64.537453 
6896.000000	64.664626 
6895.000000	64.781165 
6894.000000	64.891123 
6893.000000	65.000915 
6892.000000	65.113210 
6891.000000	65.222191 
6890.000000	65.313196 
6889.000000	65.366053 
6888.000000	65.360379 
6887.000000	65.285205 
6886.000000	65.140438 
6885.000000	64.940571 
6884.000000	64.710021 
6883.000000	64.479303 
6882.000000	64.276242 
6881.000000	64.120626 
6880.000000	64.019131 
6879.000000	63.963913 
6878.000000	63.939523 
6877.000000	63.929200 
6876.000000	63.920712 
6875.000000	63.910555 
6874.000000	63.903164 
6873.000000	63.908481 
6872.000000	63.936662 
6871.000000	63.993859 
6870.000000	64.079666 
6869.000000	64.186573 
6868.000000	64.301443 
6867.000000	64.409208 
6866.000000	64.496994 
6865.000000	64.557814 
6864.000000	64.591312 
6863.000000	64.604759 
6862.000000	64.611506 
6861.000000	64.626240 
6860.000000	64.663577 
6859.000000	64.729237 
6858.000000	64.819860 
6857.000000	64.919018 
6856.000000	65.002655 
6855.000000	65.042281 
6854.000000	65.012693 
6853.000000	64.900612 
6852.000000	64.709234 
6851.000000	64.461231 
6850.000000	64.193916 
6849.000000	63.953924 
6848.000000	63.786268 
6847.000000	63.721728 
6846.000000	63.768863 
6845.000000	63.909435 
6844.000000	64.102816 
6843.000000	64.296054 
6842.000000	64.438533 
6841.000000	64.491629 
6840.000000	64.441800 
6839.000000	64.303541 
6838.000000	64.116859 
6837.000000	63.933873 
6836.000000	63.806676 
6835.000000	63.773965 
6834.000000	63.850188 
6833.000000	64.023327 
6832.000000	64.257550 
6831.000000	64.505052 
6830.000000	64.717030 
6829.000000	64.857411 
6828.000000	64.910554 
6827.000000	64.882159 
6826.000000	64.798688 
6825.000000	64.697480 
6824.000000	64.617776 
6823.000000	64.589118 
6822.000000	64.625620 
6821.000000	64.723205 
6820.000000	64.858436 
6819.000000	64.994263 
6818.000000	65.088486 
6817.000000	65.103292 
6816.000000	65.010285 
6815.000000	64.797997 
6814.000000	64.474272 
6813.000000	64.066243 
6812.000000	63.614654 
6811.000000	63.166856 
6810.000000	62.769126 
6809.000000	62.457227 
6808.000000	62.250685 
6807.000000	62.151527 
6806.000000	62.144041 
6805.000000	62.204289 
6804.000000	62.303876 
6803.000000	62.422537 
6802.000000	62.547588 
6801.000000	62.681317 
6800.000000	62.834239 
6799.000000	63.021397 
6798.000000	63.251543 
6797.000000	63.524079 
6796.000000	63.824987 
6795.000000	64.129018 
6794.000000	64.404678 
6793.000000	64.623880 
6792.000000	64.769339 
6791.000000	64.839792 
6790.000000	64.850330 
6789.000000	64.826989 
6788.000000	64.800071 
6787.000000	64.796042 
6786.000000	64.831781 
6785.000000	64.913439 
6784.000000	65.035033 
6783.000000	65.186119 
6782.000000	65.350604 
6781.000000	65.512895 
6780.000000	65.657639 
6779.000000	65.772080 
6778.000000	65.846824 
6777.000000	65.875530 
6776.000000	65.856766 
6775.000000	65.793275 
6774.000000	65.693831 
6773.000000	65.574336 
6772.000000	65.452647 
6771.000000	65.347504 
6770.000000	65.270876 
6769.000000	65.226769 
6768.000000	65.207552 
6767.000000	65.196633 
6766.000000	65.173721 
6765.000000	65.121269 
6764.000000	65.030264 
6763.000000	64.903712 
6762.000000	64.757227 
6761.000000	64.615035 
6760.000000	64.502882 
6759.000000	64.440870 
6758.000000	64.438676 
6757.000000	64.490485 
6756.000000	64.579749 
6755.000000	64.677333 
6754.000000	64.750051 
6753.000000	64.763927 
6752.000000	64.693069 
6751.000000	64.523053 
6750.000000	64.252829 
6749.000000	63.897705 
6748.000000	63.482952 
6747.000000	63.046312 
6746.000000	62.631678 
6745.000000	62.283539 
6744.000000	62.039256 
6743.000000	61.923980 
6742.000000	61.946558 
6741.000000	62.096548 
6740.000000	62.346410 
6739.000000	62.655806 
6738.000000	62.979793 
6737.000000	63.276815 
6736.000000	63.517618 
6735.000000	63.689041 
6734.000000	63.796448 
6733.000000	63.859033 
6732.000000	63.904953 
6731.000000	63.962364 
6730.000000	64.052677 
6729.000000	64.188551 
6728.000000	64.368295 
6727.000000	64.581036 
6726.000000	64.804434 
6725.000000	65.017700 
6724.000000	65.195512 
6723.000000	65.315771 
6722.000000	65.357518 
6721.000000	65.306043 
6720.000000	65.152883 
6719.000000	64.897441 
6718.000000	64.551663 
6717.000000	64.141130 
6716.000000	63.703298 
6715.000000	63.282847 
6714.000000	62.925887 
6713.000000	62.672615 
6712.000000	62.546205 
6711.000000	62.548995 
6710.000000	62.660145 
6709.000000	62.842059 
6708.000000	63.049817 
6707.000000	63.243341 
6706.000000	63.392591 
6705.000000	63.486433 
6704.000000	63.532638 
6703.000000	63.554906 
6702.000000	63.579797 
6701.000000	63.631772 
6700.000000	63.724207 
6699.000000	63.857913 
6698.000000	64.021730 
6697.000000	64.197349 
6696.000000	64.368510 
6695.000000	64.522480 
6694.000000	64.655184 
6693.000000	64.769029 
6692.000000	64.870786 
6691.000000	64.967393 
6690.000000	65.061283 
6689.000000	65.151953 
6688.000000	65.235972 
6687.000000	65.310025 
6686.000000	65.372920 
6685.000000	65.423774 
6684.000000	65.461683 
6683.000000	65.482687 
6682.000000	65.479421 
6681.000000	65.440368 
6680.000000	65.353345 
6679.000000	65.210294 
6678.000000	65.011525 
6677.000000	64.769268 
6676.000000	64.506125 
6675.000000	64.254403 
6674.000000	64.045739 
6673.000000	63.903856 
6672.000000	63.836908 
6671.000000	63.835406 
6670.000000	63.874220 
6669.000000	63.917994 
6668.000000	63.932371 
6667.000000	63.892459 
6666.000000	63.790464 
6665.000000	63.637709 
6664.000000	63.458991 
6663.000000	63.283801 
6662.000000	63.137412 
6661.000000	63.033580 
6660.000000	62.967681 
6659.000000	62.918519 
6658.000000	62.855219 
6657.000000	62.748217 
6656.000000	62.577223 
6655.000000	62.341070 
6654.000000	62.059116 
6653.000000	61.771655 
6652.000000	61.528253 
6651.000000	61.381268 
6650.000000	61.371040 
6649.000000	61.520457 
6648.000000	61.830139 
6647.000000	62.278127 
6646.000000	62.822604 
6645.000000	63.409948 
6644.000000	63.985705 
6643.000000	64.500284 
6642.000000	64.915132 
6641.000000	65.205574 
6640.000000	65.363717 
6639.000000	65.392637 
6638.000000	65.304350 
6637.000000	65.114402 
6636.000000	64.843153 
6635.000000	64.509272 
6634.000000	64.132738 
6633.000000	63.732337 
6632.000000	63.328909 
6631.000000	62.941694 
6630.000000	62.589883 
6629.000000	62.289834 
6628.000000	62.056684 
6627.000000	61.902165 
6626.000000	61.836862 
6625.000000	61.866259 
6624.000000	61.993908 
6623.000000	62.218618 
6622.000000	62.535500 
6621.000000	62.930727 
6620.000000	63.383555 
6619.000000	63.864588 
6618.000000	64.339637 
6617.000000	64.770793 
6616.000000	65.124487 
6615.000000	65.377593 
6614.000000	65.520358 
6613.000000	65.558314 
6612.000000	65.509986 
6611.000000	65.405988 
6610.000000	65.277814 
6609.000000	65.154457 
6608.000000	65.053248 
6607.000000	64.979887 
6606.000000	64.928603 
6605.000000	64.888525 
6604.000000	64.844799 
6603.000000	64.784836 
6602.000000	64.703726 
6601.000000	64.605712 
6600.000000	64.501333 
6599.000000	64.404058 
6598.000000	64.325356 
6597.000000	64.270830 
6596.000000	64.238524 
6595.000000	64.218568 
6594.000000	64.196538 
6593.000000	64.156723 
6592.000000	64.088129 
6591.000000	63.986182 
6590.000000	63.853096 
6589.000000	63.698196 
6588.000000	63.535571 
6587.000000	63.381147 
6586.000000	63.245368 
6585.000000	63.137650 
6584.000000	63.063645 
6583.000000	63.029718 
6582.000000	63.040828 
6581.000000	63.106060 
6580.000000	63.235998 
6579.000000	63.440752 
6578.000000	63.724470 
6577.000000	64.077973 
6576.000000	64.475226 
6575.000000	64.874243 
6574.000000	65.222907 
6573.000000	65.468144 
6572.000000	65.567517 
6571.000000	65.500617 
6570.000000	65.274214 
6569.000000	64.922451 
6568.000000	64.499473 
6567.000000	64.070749 
6566.000000	63.697123 
6565.000000	63.424205 
6564.000000	63.272380 
6563.000000	63.238692 
6562.000000	63.296985 
6561.000000	63.408398 
6560.000000	63.530755 
6559.000000	63.627910 
6558.000000	63.678979 
6557.000000	63.677978 
6556.000000	63.636898 
6555.000000	63.576674 
6554.000000	63.524985 
6553.000000	63.506126 
6552.000000	63.537526 
6551.000000	63.624715 
6550.000000	63.760161 
6549.000000	63.925051 
6548.000000	64.091897 
6547.000000	64.231419 
6546.000000	64.318418 
6545.000000	64.338850 
6544.000000	64.291000 
6543.000000	64.188122 
6542.000000	64.056921 
6541.000000	63.930678 
6540.000000	63.842821 
6539.000000	63.816785 
6538.000000	63.861131 
6537.000000	63.966727 
6536.000000	64.110040 
6535.000000	64.259481 
6534.000000	64.382886 
6533.000000	64.457750 
6532.000000	64.477396 
6531.000000	64.451003 
6530.000000	64.398741 
6529.000000	64.345860 
6528.000000	64.313578 
6527.000000	64.314413 
6526.000000	64.349007 
6525.000000	64.406728 
6524.000000	64.469957 
6523.000000	64.519381 
6522.000000	64.539861 
6521.000000	64.524006 
6520.000000	64.473915 
6519.000000	64.398765 
6518.000000	64.312338 
6517.000000	64.228391 
6516.000000	64.157843 
6515.000000	64.106917 
6514.000000	64.076280 
6513.000000	64.063811 
6512.000000	64.064574 
6511.000000	64.071702 
6510.000000	64.079546 
6509.000000	64.083409 
6508.000000	64.082789 
6507.000000	64.079952 
6506.000000	64.080905 
6505.000000	64.092779 
6504.000000	64.121890 
6503.000000	64.171957 
6502.000000	64.240860 
6501.000000	64.320325 
6500.000000	64.397406 
6499.000000	64.457845 
6498.000000	64.488816 
6497.000000	64.482426 
6496.000000	64.438748 
6495.000000	64.366483 
6494.000000	64.280605 
6493.000000	64.199995 
6492.000000	64.143490 
6491.000000	64.127278 
6490.000000	64.161324 
6489.000000	64.249515 
6488.000000	64.390850 
6487.000000	64.579224 
6486.000000	64.806604 
6485.000000	65.060520 
6484.000000	65.325450 
6483.000000	65.581440 
6482.000000	65.805530 
6481.000000	65.974402 
6480.000000	66.068172 
6479.000000	66.074776 
6478.000000	65.994715 
6477.000000	65.839958 
6476.000000	65.634274 
6475.000000	65.406322 
6474.000000	65.186548 
6473.000000	64.996671 
6472.000000	64.846944 
6471.000000	64.733600 
6470.000000	64.642477 
6469.000000	64.554500 
6468.000000	64.453244 
6467.000000	64.330005 
6466.000000	64.187741 
6465.000000	64.040803 
6464.000000	63.911223 
6463.000000	63.820290 
6462.000000	63.782835 
6461.000000	63.801693 
6460.000000	63.866972 
6459.000000	63.957452 
6458.000000	64.047217 
6457.000000	64.113020 
6456.000000	64.140248 
6455.000000	64.124703 
6454.000000	64.074683 
6453.000000	64.006733 
6452.000000	63.942909 
6451.000000	63.901448 
6450.000000	63.896799 
6449.000000	63.936662 
6448.000000	64.021348 
6447.000000	64.145636 
6446.000000	64.297914 
6445.000000	64.462852 
6444.000000	64.622020 
6443.000000	64.757275 
6442.000000	64.850091 
6441.000000	64.884710 
6440.000000	64.852976 
6439.000000	64.756155 
6438.000000	64.605450 
6437.000000	64.419555 
6436.000000	64.223933 
6435.000000	64.043211 
6434.000000	63.896799 
6433.000000	63.793468 
6432.000000	63.730621 
6431.000000	63.695931 
6430.000000	63.671326 
6429.000000	63.639569 
6428.000000	63.589191 
6427.000000	63.518214 
6426.000000	63.433313 
6425.000000	63.348102 
6424.000000	63.275742 
6423.000000	63.227772 
6422.000000	63.208675 
6421.000000	63.217306 
6420.000000	63.246154 
6419.000000	63.287901 
6418.000000	63.338041 
6417.000000	63.397789 
6416.000000	63.473582 
6415.000000	63.575220 
6414.000000	63.711404 
6413.000000	63.884973 
6412.000000	64.089417 
6411.000000	64.307904 
6410.000000	64.515614 
6409.000000	64.686322 
6408.000000	64.797639 
6407.000000	64.836955 
6406.000000	64.804005 
6405.000000	64.712929 
6404.000000	64.587426 
6403.000000	64.455962 
6402.000000	64.344048 
6401.000000	64.270687 
6400.000000	64.242219 
6399.000000	64.254689 
6398.000000	64.292597 
6397.000000	64.336395 
6396.000000	64.364480 
6395.000000	64.359712 
6394.000000	64.311480 
6393.000000	64.217329 
6392.000000	64.083218 
6391.000000	63.921141 
6390.000000	63.748526 
6389.000000	63.584613 
6388.000000	63.450622 
6387.000000	63.366460 
6386.000000	63.349008 
6385.000000	63.408756 
6384.000000	63.547873 
6383.000000	63.758277 
6382.000000	64.021182 
6381.000000	64.309048 
6380.000000	64.589810 
6379.000000	64.831256 
6378.000000	65.006637 
6377.000000	65.097928 
6376.000000	65.098285 
6375.000000	65.012073 
6374.000000	64.854168 
6373.000000	64.645695 
6372.000000	64.411401 
6371.000000	64.175176 
6370.000000	63.959193 
6369.000000	63.779735 
6368.000000	63.648080 
6367.000000	63.568472 
6366.000000	63.539886 
6365.000000	63.555812 
6364.000000	63.605594 
6363.000000	63.676404 
6362.000000	63.754701 
6361.000000	63.830757 
6360.000000	63.899517 
6359.000000	63.961029 
6358.000000	64.018917 
6357.000000	64.077615 
6356.000000	64.140772 
6355.000000	64.208197 
6354.000000	64.277148 
6353.000000	64.344382 
6352.000000	64.407587 
6351.000000	64.468574 
6350.000000	64.531064 
6349.000000	64.601874 
6348.000000	64.685034 
6347.000000	64.780044 
6346.000000	64.879155 
6345.000000	64.968585 
6344.000000	65.031075 
6343.000000	65.050911 
6342.000000	65.018367 
6341.000000	64.933466 
6340.000000	64.807057 
6339.000000	64.661049 
6338.000000	64.519381 
6337.000000	64.402127 
6336.000000	64.319634 
6335.000000	64.270234 
6334.000000	64.240789 
6333.000000	64.211726 
6332.000000	64.163398 
6331.000000	64.082765 
6330.000000	63.967418 
6329.000000	63.827180 
6328.000000	63.680171 
6327.000000	63.548827 
6326.000000	63.453054 
6325.000000	63.405466 
6324.000000	63.407659 
6323.000000	63.450598 
6322.000000	63.516354 
6321.000000	63.584613 
6320.000000	63.636732 
6319.000000	63.663339 
6318.000000	63.664650 
6317.000000	63.652825 
6316.000000	63.645505 
6315.000000	63.663625 
6314.000000	63.724708 
6313.000000	63.837146 
6312.000000	63.997316 
6311.000000	64.188718 
6310.000000	64.385795 
6309.000000	64.558911 
6308.000000	64.681696 
6307.000000	64.737033 
6306.000000	64.721369 
6305.000000	64.646077 
6304.000000	64.534711 
6303.000000	64.416646 
6302.000000	64.320564 
6301.000000	64.267849 
6300.000000	64.269280 
6299.000000	64.325094 
6298.000000	64.426398 
6297.000000	64.560437 
6296.000000	64.712548 
6295.000000	64.870262 
6294.000000	65.023112 
6293.000000	65.163373 
6292.000000	65.283346 
6291.000000	65.374469 
6290.000000	65.426635 
6289.000000	65.429425 
6288.000000	65.374565 
6287.000000	65.259671 
6286.000000	65.090346 
6285.000000	64.881849 
6284.000000	64.657163 
6283.000000	64.444351 
6282.000000	64.269948 
6281.000000	64.153885 
6280.000000	64.104914 
6279.000000	64.119052 
6278.000000	64.179444 
6277.000000	64.260649 
6276.000000	64.334654 
6275.000000	64.377689 
6274.000000	64.373922 
6273.000000	64.319658 
6272.000000	64.221787 
6271.000000	64.096689 
6270.000000	63.964653 
6269.000000	63.845992 
6268.000000	63.755488 
6267.000000	63.700771 
6266.000000	63.682270 
6265.000000	63.693928 
6264.000000	63.726949 
6263.000000	63.771414 
6262.000000	63.819003 
6261.000000	63.863611 
6260.000000	63.901400 
6259.000000	63.929843 
6258.000000	63.945913 
6257.000000	63.946700 
6256.000000	63.928937 
6255.000000	63.890624 
6254.000000	63.832044 
6253.000000	63.756227 
6252.000000	63.669204 
6251.000000	63.580250 
6250.000000	63.500809 
6249.000000	63.441324 
6248.000000	63.409543 
6247.000000	63.409304 
6246.000000	63.440084 
6245.000000	63.497209 
6244.000000	63.573694 
6243.000000	63.660407 
6242.000000	63.749432 
6241.000000	63.835096 
6240.000000	63.915133 
6239.000000	63.989353 
6238.000000	64.059138 
6237.000000	64.125871 
6236.000000	64.188909 
6235.000000	64.246320 
6234.000000	64.292597 
6233.000000	64.320015 
6232.000000	64.320468 
6231.000000	64.288997 
6230.000000	64.224791 
6229.000000	64.132595 
6228.000000	64.023900 
6227.000000	63.915681 
6226.000000	63.826680 
6225.000000	63.773441 
6224.000000	63.767170 
6223.000000	63.810682 
6222.000000	63.897776 
6221.000000	64.013314 
6220.000000	64.136719 
6219.000000	64.244866 
6218.000000	64.316749 
6217.000000	64.336729 
6216.000000	64.296436 
6215.000000	64.196419 
6214.000000	64.045381 
6213.000000	63.859272 
6212.000000	63.656735 
6211.000000	63.458776 
6210.000000	63.284564 
6209.000000	63.151931 
6208.000000	63.073945 
6207.000000	63.061070 
6206.000000	63.119125 
6205.000000	63.250541 
6204.000000	63.451886 
6203.000000	63.715219 
6202.000000	64.026808 
6201.000000	64.367151 
6200.000000	64.711165 
6199.000000	65.032219 
6198.000000	65.304780 
6197.000000	65.507841 
6196.000000	65.627098 
6195.000000	65.658068 
6194.000000	65.604734 
6193.000000	65.480589 
6192.000000	65.303850 
6191.000000	65.094780 
6190.000000	64.871382 
6189.000000	64.650106 
6188.000000	64.443087 
6187.000000	64.259052 
6186.000000	64.104676 
6185.000000	63.986253 
6184.000000	63.910508 
6183.000000	63.883376 
6182.000000	63.909316 
6181.000000	63.988566 
6180.000000	64.115262 
6179.000000	64.275336 
6178.000000	64.447450 
6177.000000	64.605402 
6176.000000	64.721226 
6175.000000	64.770531 
6174.000000	64.736127 
6173.000000	64.611911 
6172.000000	64.404201 
6171.000000	64.131379 
6170.000000	63.819861 
6169.000000	63.500714 
6168.000000	63.206195 
6167.000000	62.966227 
6166.000000	62.803196 
6165.000000	62.731194 
6164.000000	62.755942 
6163.000000	62.875080 
6162.000000	63.077759 
6161.000000	63.347029 
6160.000000	63.659715 
6159.000000	63.990712 
6158.000000	64.313364 
6157.000000	64.603900 
6156.000000	64.841413 
6155.000000	65.012073 
6154.000000	65.110421 
6153.000000	65.138959 
6152.000000	65.107440 
6151.000000	65.030360 
6150.000000	64.925932 
6149.000000	64.811515 
6148.000000	64.702701 
6147.000000	64.610171 
6146.000000	64.540266 
6145.000000	64.494037 
6144.000000	64.468693 
6143.000000	64.457917 
6142.000000	64.453649 
6141.000000	64.446663 
6140.000000	64.428901 
6139.000000	64.393854 
6138.000000	64.339065 
6137.000000	64.265108 
6136.000000	64.177536 
6135.000000	64.085912 
6134.000000	64.002585 
6133.000000	63.938903 
6132.000000	63.903641 
6131.000000	63.901305 
6130.000000	63.930988 
6129.000000	63.986802 
6128.000000	64.059066 
6127.000000	64.135789 
6126.000000	64.205789 
6125.000000	64.261102 
6124.000000	64.297175 
6123.000000	64.312243 
6122.000000	64.308142 
6121.000000	64.289283 
6120.000000	64.260578 
6119.000000	64.225888 
6118.000000	64.187335 
6117.000000	64.144873 
6116.000000	64.097237 
6115.000000	64.043045 
6114.000000	63.980865 
6113.000000	63.911199 
6112.000000	63.836336 
6111.000000	63.762426 
6110.000000	63.697838 
6109.000000	63.653993 
6108.000000	63.641810 
6107.000000	63.671731 
6106.000000	63.750910 
6105.000000	63.881897 
6104.000000	64.061093 
6103.000000	64.277911 
6102.000000	64.516425 
6101.000000	64.754962 
6100.000000	64.970660 
6099.000000	65.139317 
6098.000000	65.240335 
6097.000000	65.258240 
6096.000000	65.186357 
6095.000000	65.028047 
6094.000000	64.797282 
6093.000000	64.517760 
6092.000000	64.219903 
6091.000000	63.936638 
6090.000000	63.698387 
6089.000000	63.528609 
6088.000000	63.440084 
6087.000000	63.432455 
6086.000000	63.492965 
6085.000000	63.599324 
6084.000000	63.724613 
6083.000000	63.840842 
6082.000000	63.925409 
6081.000000	63.963031 
6080.000000	63.949298 
6079.000000	63.888311 
6078.000000	63.792109 
6077.000000	63.675856 
6076.000000	63.555216 
6075.000000	63.443708 
6074.000000	63.350248 
6073.000000	63.279008 
6072.000000	63.229751 
6071.000000	63.200759 
6070.000000	63.188791 
6069.000000	63.190507 
6068.000000	63.203001 
6067.000000	63.223528 
6066.000000	63.249707 
6065.000000	63.279080 
6064.000000	63.309431 
6063.000000	63.338971 
6062.000000	63.368225 
6061.000000	63.400244 
6060.000000	63.439345 
6059.000000	63.490247 
6058.000000	63.558030 
6057.000000	63.645720 
6056.000000	63.752436 
6055.000000	63.872003 
6054.000000	63.994383 
6053.000000	64.105772 
6052.000000	64.192914 
6051.000000	64.243340 
6050.000000	64.248704 
6049.000000	64.205455 
6048.000000	64.116120 
6047.000000	63.989186 
6046.000000	63.837623 
6045.000000	63.678503 
6044.000000	63.530445 
6043.000000	63.412308 
6042.000000	63.340973 
6041.000000	63.328361 
6040.000000	63.379144 
6039.000000	63.490295 
6038.000000	63.651347 
6037.000000	63.845849 
6036.000000	64.053964 
6035.000000	64.256215 
6034.000000	64.436125 
6033.000000	64.583206 
6032.000000	64.692854 
6031.000000	64.766120 
6030.000000	64.806008 
6029.000000	64.816665 
6028.000000	64.799523 
6027.000000	64.754319 
6026.000000	64.678287 
6025.000000	64.570569 
6024.000000	64.432334 
6023.000000	64.270663 
6022.000000	64.096593 
6021.000000	63.924479 
6020.000000	63.769531 
6019.000000	63.643431 
6018.000000	63.555192 
6017.000000	63.508772 
6016.000000	63.504958 
6015.000000	63.541030 
6014.000000	63.613200 
6013.000000	63.716435 
6012.000000	63.845562 
6011.000000	63.994431 
6010.000000	64.155054 
6009.000000	64.316797 
6008.000000	64.467334 
6007.000000	64.593386 
6006.000000	64.682888 
6005.000000	64.726686 
6004.000000	64.720749 
6003.000000	64.666867 
6002.000000	64.573478 
6001.000000	64.453744 
6000.000000	64.323830 
5999.000000	64.199590 
5998.000000	64.095711 
5997.000000	64.021754 
5996.000000	63.983058 
5995.000000	63.977885 
5994.000000	63.998818 
5993.000000	64.033722 
5992.000000	64.068198 
5991.000000	64.089059 
5990.000000	64.085721 
5989.000000	64.055013 
5988.000000	64.000225 
5987.000000	63.933038 
5986.000000	63.869810 
5985.000000	63.829374 
5984.000000	63.827991 
5983.000000	63.876748 
5982.000000	63.978624 
5981.000000	64.126682 
5980.000000	64.305138 
5979.000000	64.493513 
5978.000000	64.670348 
5977.000000	64.816451 
5976.000000	64.918541 
5975.000000	64.971137 
5974.000000	64.976572 
5973.000000	64.943456 
5972.000000	64.883708 
5971.000000	64.810085 
5970.000000	64.733242 
5969.000000	64.661979 
5968.000000	64.601159 
5967.000000	64.553475 
5966.000000	64.519143 
5965.000000	64.498901 
5964.000000	64.492130 
5963.000000	64.497709 
5962.000000	64.513134 
5961.000000	64.534544 
5960.000000	64.556527 
5959.000000	64.572548 
5958.000000	64.575028 
5957.000000	64.556717 
5956.000000	64.510917 
5955.000000	64.433050 
5954.000000	64.321494 
5953.000000	64.178991 
5952.000000	64.012885 
5951.000000	63.835620 
5950.000000	63.663554 
5949.000000	63.514828 
5948.000000	63.406682 
5947.000000	63.351655 
5946.000000	63.354659 
5945.000000	63.411784 
5944.000000	63.509678 
5943.000000	63.629627 
5942.000000	63.749241 
5941.000000	63.850116 
5940.000000	63.919806 
5939.000000	63.956403 
5938.000000	63.967299 
5937.000000	63.966393 
5936.000000	63.968729 
5935.000000	63.985991 
5934.000000	64.022493 
5933.000000	64.074730 
5932.000000	64.133167 
5931.000000	64.185309 
5930.000000	64.220404 
5929.000000	64.232540 
5928.000000	64.223265 
5927.000000	64.200139 
5926.000000	64.175224 
5925.000000	64.162206 
5924.000000	64.173054 
5923.000000	64.215350 
5922.000000	64.290785 
5921.000000	64.394688 
5920.000000	64.517784 
5919.000000	64.649438 
5918.000000	64.779615 
5917.000000	64.899873 
5916.000000	65.005111 
5915.000000	65.093660 
5914.000000	65.165925 
5913.000000	65.224003 
5912.000000	65.268826 
5911.000000	65.300798 
5910.000000	65.316939 
5909.000000	65.313434 
5908.000000	65.284538 
5907.000000	65.226030 
5906.000000	65.135478 
5905.000000	65.014934 
5904.000000	64.869809 
5903.000000	64.708971 
5902.000000	64.542269 
5901.000000	64.379310 
5900.000000	64.226937 
5899.000000	64.089608 
5898.000000	63.970780 
5897.000000	63.874650 
5896.000000	63.806223 
5895.000000	63.771891 
5894.000000	63.777828 
5893.000000	63.828134 
5892.000000	63.921666 
5891.000000	64.051079 
5890.000000	64.201235 
5889.000000	64.352560 
5888.000000	64.482879 
5887.000000	64.573788 
5886.000000	64.614057 
5885.000000	64.602828 
5884.000000	64.549875 
5883.000000	64.472579 
5882.000000	64.392018 
5881.000000	64.326381 
5880.000000	64.287257 
5879.000000	64.276027 
5878.000000	64.284920 
5877.000000	64.298868 
5876.000000	64.301013 
5875.000000	64.275956 
5874.000000	64.214658 
5873.000000	64.116477 
5872.000000	63.990187 
5871.000000	63.850712 
5870.000000	63.716602 
5869.000000	63.606667 
5868.000000	63.536477 
5867.000000	63.514304 
5866.000000	63.541436 
5865.000000	63.612341 
5864.000000	63.717222 
5863.000000	63.844299 
5862.000000	63.982391 
5861.000000	64.121651 
5860.000000	64.254832 
5859.000000	64.376902 
5858.000000	64.483833 
5857.000000	64.571213 
5856.000000	64.634180 
5855.000000	64.668440 
5854.000000	64.670181 
5853.000000	64.637875 
5852.000000	64.573192 
5851.000000	64.482092 
5850.000000	64.374637 
5849.000000	64.264488 
5848.000000	64.166760 
5847.000000	64.096021 
5846.000000	64.064073 
5845.000000	64.078307 
5844.000000	64.141058 
5843.000000	64.249110 
5842.000000	64.394497 
5841.000000	64.564800 
5840.000000	64.744114 
5839.000000	64.915037 
5838.000000	65.061092 
5837.000000	65.168881 
5836.000000	65.229582 
5835.000000	65.239763 
5834.000000	65.202736 
5833.000000	65.125679 
5832.000000	65.019392 
5831.000000	64.894390 
5830.000000	64.760375 
5829.000000	64.624691 
5828.000000	64.493966 
5827.000000	64.373111 
5826.000000	64.266633 
5825.000000	64.178299 
5824.000000	64.111709 
5823.000000	64.068460 
5822.000000	64.047574 
5821.000000	64.045357 
5820.000000	64.055967 
5819.000000	64.072346 
5818.000000	64.088463 
5817.000000	64.100885 
5816.000000	64.110112 
5815.000000	64.120888 
5814.000000	64.140772 
5813.000000	64.177656 
5812.000000	64.236974 
5811.000000	64.319038 
5810.000000	64.418435 
5809.000000	64.525341 
5808.000000	64.626812 
5807.000000	64.709973 
5806.000000	64.764165 
5805.000000	64.784693 
5804.000000	64.771652 
5803.000000	64.730381 
5802.000000	64.668464 
5801.000000	64.594078 
5800.000000	64.513874 
5799.000000	64.432621 
5798.000000	64.352393 
5797.000000	64.273405 
5796.000000	64.196205 
5795.000000	64.123201 
5794.000000	64.059305 
5793.000000	64.011621 
5792.000000	63.987779 
5791.000000	63.993859 
5790.000000	64.032697 
5789.000000	64.102387 
5788.000000	64.195585 
5787.000000	64.300370 
5786.000000	64.403414 
5785.000000	64.491534 
5784.000000	64.554548 
5783.000000	64.585804 
5782.000000	64.582705 
5781.000000	64.546370 
5780.000000	64.480948 
5779.000000	64.392709 
5778.000000	64.288783 
5777.000000	64.177465 
5776.000000	64.067888 
5775.000000	63.969302 
5774.000000	63.890981 
5773.000000	63.840031 
5772.000000	63.821268 
5771.000000	63.834762 
5770.000000	63.875555 
5769.000000	63.933825 
5768.000000	63.996434 
5767.000000	64.049077 
5766.000000	64.078903 
5765.000000	64.076519 
5764.000000	64.037823 
5763.000000	63.963866 
5762.000000	63.861227 
5761.000000	63.739347 
5760.000000	63.610458 
5759.000000	63.488006 
5758.000000	63.385844 
5757.000000	63.316440 
5756.000000	63.290071 
5755.000000	63.313531 
5754.000000	63.389015 
5753.000000	63.513040 
5752.000000	63.677120 
5751.000000	63.867259 
5750.000000	64.067339 
5749.000000	64.260101 
5748.000000	64.431118 
5747.000000	64.570021 
5746.000000	64.671945 
5745.000000	64.737915 
5744.000000	64.771580 
5743.000000	64.777779 
5742.000000	64.760303 
5741.000000	64.721536 
5740.000000	64.662170 
5739.000000	64.582252 
5738.000000	64.482831 
5737.000000	64.366912 
5736.000000	64.239072 
5735.000000	64.105367 
5734.000000	63.971686 
5733.000000	63.844299 
5732.000000	63.728117 
5731.000000	63.628554 
5730.000000	63.550877 
5729.000000	63.501667 
5728.000000	63.487291 
5727.000000	63.513469 
5726.000000	63.582706 
5725.000000	63.693046 
5724.000000	63.835859 
5723.000000	63.997030 
5722.000000	64.156889 
5721.000000	64.295959 
5720.000000	64.398336 
5719.000000	64.455151 
5718.000000	64.466261 
5717.000000	64.439392 
5716.000000	64.388012 
5715.000000	64.326310 
5714.000000	64.265894 
5713.000000	64.213156 
5712.000000	64.169001 
5711.000000	64.130377 
5710.000000	64.093160 
5709.000000	64.055490 
5708.000000	64.019703 
5707.000000	63.993000 
5706.000000	63.985371 
5705.000000	64.005279 
5704.000000	64.056921 
5703.000000	64.137434 
5702.000000	64.237046 
5701.000000	64.340209 
5700.000000	64.429616 
5699.000000	64.490795 
5698.000000	64.514827 
5697.000000	64.500188 
5696.000000	64.453148 
5695.000000	64.385104 
5694.000000	64.311051 
5693.000000	64.246106 
5692.000000	64.202594 
5691.000000	64.187955 
5690.000000	64.203143 
5689.000000	64.243793 
5688.000000	64.299964 
5687.000000	64.358925 
5686.000000	64.407420 
5685.000000	64.434790 
5684.000000	64.434671 
5683.000000	64.407038 
5682.000000	64.358258 
5681.000000	64.299893 
5680.000000	64.246702 
5679.000000	64.212751 
5678.000000	64.208531 
5677.000000	64.237689 
5676.000000	64.296269 
5675.000000	64.373588 
5674.000000	64.455366 
5673.000000	64.526844 
5672.000000	64.576387 
5671.000000	64.597916 
5670.000000	64.591550 
5669.000000	64.563059 
5668.000000	64.521408 
5667.000000	64.476490 
5666.000000	64.435982 
5665.000000	64.404559 
5664.000000	64.383697 
5663.000000	64.371705 
5662.000000	64.365434 
5661.000000	64.361476 
5660.000000	64.357829 
5659.000000	64.353728 
5658.000000	64.349651 
5657.000000	64.346027 
5656.000000	64.342832 
5655.000000	64.339947 
5654.000000	64.336633 
5653.000000	64.331579 
5652.000000	64.322948 
5651.000000	64.309024 
5650.000000	64.288282 
5649.000000	64.258646 
5648.000000	64.218974 
5647.000000	64.169239 
5646.000000	64.112520 
5645.000000	64.053320 
5644.000000	63.999867 
5643.000000	63.962125 
5642.000000	63.951373 
5641.000000	63.976955 
5640.000000	64.044642 
5639.000000	64.154577 
5638.000000	64.299941 
5637.000000	64.467716 
5636.000000	64.639592 
5635.000000	64.794921 
5634.000000	64.914417 
5633.000000	64.984130 
5632.000000	64.996957 
5631.000000	64.953708 
5630.000000	64.862728 
5629.000000	64.737200 
5628.000000	64.592337 
5627.000000	64.440941 
5626.000000	64.292669 
5625.000000	64.151382 
5624.000000	64.016246 
5623.000000	63.882851 
5622.000000	63.746356 
5621.000000	63.604426 
5620.000000	63.457942 
5619.000000	63.313508 
5618.000000	63.180470 
5617.000000	63.071393 
5616.000000	62.996339 
5615.000000	62.963700 
5614.000000	62.975883 
5613.000000	63.030791 
5612.000000	63.120603 
5611.000000	63.234996 
5610.000000	63.362336 
5609.000000	63.492178 
5608.000000	63.616204 
5607.000000	63.728499 
5606.000000	63.824939 
5605.000000	63.903689 
5604.000000	63.964176 
5603.000000	64.006423 
5602.000000	64.030647 
5601.000000	64.037919 
5600.000000	64.030027 
5599.000000	64.010548 
5598.000000	63.984107 
5597.000000	63.955545 
5596.000000	63.929724 
5595.000000	63.910961 
5594.000000	63.902950 
5593.000000	63.907289 
5592.000000	63.925313 
5591.000000	63.957691 
5590.000000	64.005851 
5589.000000	64.071655 
5588.000000	64.157199 
5587.000000	64.263892 
5586.000000	64.390540 
5585.000000	64.532613 
5584.000000	64.680957 
5583.000000	64.823079 
5582.000000	64.943385 
5581.000000	65.026259 
5580.000000	65.059113 
5579.000000	65.035700 
5578.000000	64.958095 
5577.000000	64.837169 
5576.000000	64.690876 
5575.000000	64.541125 
5574.000000	64.409351 
5573.000000	64.312124 
5572.000000	64.258837 
5571.000000	64.249920 
5570.000000	64.278388 
5569.000000	64.331340 
5568.000000	64.394474 
5567.000000	64.453721 
5566.000000	64.497542 
5565.000000	64.518141 
5564.000000	64.510536 
5563.000000	64.473819 
5562.000000	64.409518 
5561.000000	64.322829 
5560.000000	64.220166 
5559.000000	64.111161 
5558.000000	64.007949 
5557.000000	63.923788 
5556.000000	63.870906 
5555.000000	63.858914 
5554.000000	63.892817 
5553.000000	63.971233 
5552.000000	64.085936 
5551.000000	64.224243 
5550.000000	64.371442 
5549.000000	64.513230 
5548.000000	64.638638 
5547.000000	64.741873 
5546.000000	64.823102 
5545.000000	64.887166 
5544.000000	64.941501 
5543.000000	64.994645 
5542.000000	65.052175 
5541.000000	65.117502 
5540.000000	65.187644 
5539.000000	65.255618 
5538.000000	65.309238 
5537.000000	65.336298 
5536.000000	65.324950 
5535.000000	65.267539 
5534.000000	65.162324 
5533.000000	65.015196 
5532.000000	64.838767 
5531.000000	64.650726 
5530.000000	64.470720 
5529.000000	64.317274 
5528.000000	64.203953 
5527.000000	64.137554 
5526.000000	64.116978 
5525.000000	64.134335 
5524.000000	64.177179 
5523.000000	64.231324 
5522.000000	64.283418 
5521.000000	64.322924 
5520.000000	64.343047 
5519.000000	64.340925 
5518.000000	64.315533 
5517.000000	64.268374 
5516.000000	64.202284 
5515.000000	64.122605 
5514.000000	64.036035 
5513.000000	63.951921 
5512.000000	63.881874 
5511.000000	63.838315 
5510.000000	63.832592 
5509.000000	63.871908 
5508.000000	63.957357 
5507.000000	64.082264 
5506.000000	64.232444 
5505.000000	64.388465 
5504.000000	64.529109 
5503.000000	64.635682 
5502.000000	64.695858 
5501.000000	64.705276 
5500.000000	64.667654 
5499.000000	64.593958 
5498.000000	64.499616 
5497.000000	64.400815 
5496.000000	64.311575 
5495.000000	64.242053 
5494.000000	64.197397 
5493.000000	64.178061 
5492.000000	64.180827 
5491.000000	64.200210 
5490.000000	64.230394 
5489.000000	64.266014 
5488.000000	64.303517 
5487.000000	64.339971 
5486.000000	64.374017 
5485.000000	64.404916 
5484.000000	64.432859 
5483.000000	64.458107 
5482.000000	64.481019 
5481.000000	64.501619 
5480.000000	64.519381 
5479.000000	64.534401 
5478.000000	64.546322 
5477.000000	64.555287 
5476.000000	64.560794 
5475.000000	64.562654 
5474.000000	64.559364 
5473.000000	64.548707 
5472.000000	64.527487 
5471.000000	64.492464 
5470.000000	64.442157 
5469.000000	64.377689 
5468.000000	64.303588 
5467.000000	64.227151 
5466.000000	64.157366 
5465.000000	64.102721 
5464.000000	64.069294 
5463.000000	64.058804 
5462.000000	64.067792 
5461.000000	64.088988 
5460.000000	64.112329 
5459.000000	64.128684 
5458.000000	64.131855 
5457.000000	64.120984 
5456.000000	64.100027 
5455.000000	64.077210 
5454.000000	64.061331 
5453.000000	64.060568 
5452.000000	64.079117 
5451.000000	64.117407 
5450.000000	64.171791 
5449.000000	64.236211 
5448.000000	64.304542 
5447.000000	64.371228 
5446.000000	64.432477 
5445.000000	64.485740 
5444.000000	64.529299 
5443.000000	64.560914 
5442.000000	64.577436 
5441.000000	64.574861 
5440.000000	64.549255 
5439.000000	64.498829 
5438.000000	64.425015 
5437.000000	64.332866 
5436.000000	64.230847 
5435.000000	64.129567 
5434.000000	64.040541 
5433.000000	63.972949 
5432.000000	63.933849 
5431.000000	63.926720 
5430.000000	63.952469 
5429.000000	64.009308 
5428.000000	64.093708 
5427.000000	64.200139 
5426.000000	64.321660 
5425.000000	64.449810 
5424.000000	64.575791 
5423.000000	64.690065 
5422.000000	64.784979 
5421.000000	64.855527 
5420.000000	64.900183 
5419.000000	64.920973 
5418.000000	64.922571 
5417.000000	64.911198 
5416.000000	64.891004 
5415.000000	64.862680 
5414.000000	64.822244 
5413.000000	64.762163 
5412.000000	64.673709 
5411.000000	64.550065 
5410.000000	64.389538 
5409.000000	64.197731 
5408.000000	63.986849 
5407.000000	63.775563 
5406.000000	63.583874 
5405.000000	63.431739 
5404.000000	63.334083 
5403.000000	63.300156 
5402.000000	63.330674 
5401.000000	63.419890 
5400.000000	63.555669 
5399.000000	63.723301 
5398.000000	63.905787 
5397.000000	64.088869 
5396.000000	64.260721 
5395.000000	64.414405 
5394.000000	64.546036 
5393.000000	64.655542 
5392.000000	64.744853 
5391.000000	64.816474 
5390.000000	64.872241 
5389.000000	64.912509 
5388.000000	64.936447 
5387.000000	64.942145 
5386.000000	64.927792 
5385.000000	64.893269 
5384.000000	64.840984 
5383.000000	64.776301 
5382.000000	64.706707 
5381.000000	64.640569 
5380.000000	64.585185 
5379.000000	64.545321 
5378.000000	64.522361 
5377.000000	64.513444 
5376.000000	64.513206 
5375.000000	64.515590 
5374.000000	64.515709 
5373.000000	64.510130 
5372.000000	64.499139 
5371.000000	64.486026 
5370.000000	64.476466 
5369.000000	64.476275 
5368.000000	64.489579 
5367.000000	64.517402 
5366.000000	64.556360 
5365.000000	64.599633 
5364.000000	64.637351 
5363.000000	64.658975 
5362.000000	64.654779 
5361.000000	64.618396 
5360.000000	64.547467 
5359.000000	64.444446 
5358.000000	64.315700 
5357.000000	64.170575 
5356.000000	64.019632 
5355.000000	63.873577 
5354.000000	63.741827 
5353.000000	63.632178 
5352.000000	63.549757 
5351.000000	63.498091 
5350.000000	63.478446 
5349.000000	63.491415 
5348.000000	63.534855 
5347.000000	63.606381 
5346.000000	63.701343 
5345.000000	63.814997 
5344.000000	63.940048 
5343.000000	64.070010 
5342.000000	64.198446 
5341.000000	64.320707 
5340.000000	64.432978 
5339.000000	64.534211 
5338.000000	64.625430 
5337.000000	64.709091 
5336.000000	64.787960 
5335.000000	64.864039 
5334.000000	64.937496 
5333.000000	65.006875 
5332.000000	65.068960 
5331.000000	65.119266 
5330.000000	65.152621 
5329.000000	65.165567 
5328.000000	65.156054 
5327.000000	65.123867 
5326.000000	65.070104 
5325.000000	64.998984 
5324.000000	64.915490 
5323.000000	64.824318 
5322.000000	64.728999 
5321.000000	64.634132 
5320.000000	64.542603 
5319.000000	64.456176 
5318.000000	64.374566 
5317.000000	64.297461 
5316.000000	64.222311 
5315.000000	64.144587 
5314.000000	64.059424 
5313.000000	63.961887 
5312.000000	63.850998 
5311.000000	63.730382 
5310.000000	63.609004 
5309.000000	63.499069 
5308.000000	63.414311 
5307.000000	63.366866 
5306.000000	63.363862 
5305.000000	63.405990 
5304.000000	63.486814 
5303.000000	63.595461 
5302.000000	63.718557 
5301.000000	63.845062 
5300.000000	63.967847 
5299.000000	64.086484 
5298.000000	64.204859 
5297.000000	64.331054 
5296.000000	64.471840 
5295.000000	64.632892 
5294.000000	64.815020 
5293.000000	65.015840 
5292.000000	65.232253 
5291.000000	65.458273 
5290.000000	65.689063 
5289.000000	65.915727 
5288.000000	66.127634 
5287.000000	66.309738 
5286.000000	66.445255 
5285.000000	66.519403 
5284.000000	66.523575 
5283.000000	66.460227 
5282.000000	66.344571 
5281.000000	66.203522 
5280.000000	66.071152 
5279.000000	65.980553 
5278.000000	65.956234 
5277.000000	66.008710 
5276.000000	66.132616 
5275.000000	66.307401 
5274.000000	66.503715 
5273.000000	66.693902 
5272.000000	66.856670 
5271.000000	66.982102 
5270.000000	67.068958 
5269.000000	67.123079 
5268.000000	67.149305 
5267.000000	67.146921 
5266.000000	67.108082 
5265.000000	67.020487 
5264.000000	66.871809 
5263.000000	66.657900 
5262.000000	66.385149 
5261.000000	66.075634 
5260.000000	65.759825 
5259.000000	65.471744 
5258.000000	65.239334 
5257.000000	65.078711 
5256.000000	64.988112 
5255.000000	64.948773 
5254.000000	64.930605 
5253.000000	64.900112 
5252.000000	64.829134 
5251.000000	64.701461 
5250.000000	64.513492 
5249.000000	64.274597 
5248.000000	64.000678 
5247.000000	63.711953 
5246.000000	63.425445 
5245.000000	63.156151 
5244.000000	62.915587 
5243.000000	62.714767 
5242.000000	62.564992 
5241.000000	62.477564 
5240.000000	62.462329 
5239.000000	62.523698 
5238.000000	62.657237 
5237.000000	62.847185 
5236.000000	63.065218 
5235.000000	63.275861 
5234.000000	63.440537 
5233.000000	63.528752 
5232.000000	63.523840 
5231.000000	63.429093 
5230.000000	63.266444 
5229.000000	63.073110 
5228.000000	62.892770 
5227.000000	62.764668 
5226.000000	62.714672 
5225.000000	62.750768 
5224.000000	62.862896 
5223.000000	63.027739 
5222.000000	63.216733 
5221.000000	63.403987 
5220.000000	63.573408 
5219.000000	63.720321 
5218.000000	63.851213 
5217.000000	63.977980 
5216.000000	64.112472 
5215.000000	64.258456 
5214.000000	64.410448 
5213.000000	64.556574 
5212.000000	64.679431 
5211.000000	64.762210 
5210.000000	64.792585 
5209.000000	64.770889 
5208.000000	64.705777 
5207.000000	64.613175 
5206.000000	64.510655 
5205.000000	64.413905 
5204.000000	64.331531 
5203.000000	64.264750 
5202.000000	64.206647 
5201.000000	64.145874 
5200.000000	64.070224 
5199.000000	63.971328 
5198.000000	63.845181 
5197.000000	63.694071 
5196.000000	63.525366 
5195.000000	63.350939 
5194.000000	63.182950 
5193.000000	63.033962 
5192.000000	62.914109 
5191.000000	62.833142 
5190.000000	62.796068 
5189.000000	62.807846 
5188.000000	62.872004 
5187.000000	62.992691 
5186.000000	63.169097 
5185.000000	63.399028 
5184.000000	63.675928 
5183.000000	63.989758 
5182.000000	64.325499 
5181.000000	64.664483 
5180.000000	64.986586 
5179.000000	65.270471 
5178.000000	65.497994 
5177.000000	65.652704 
5176.000000	65.723466 
5175.000000	65.704226 
5174.000000	65.596842 
5173.000000	65.408587 
5172.000000	65.152740 
5171.000000	64.848899 
5170.000000	64.521265 
5169.000000	64.196252 
5168.000000	63.899040 
5167.000000	63.651776 
5166.000000	63.469386 
5165.000000	63.357353 
5164.000000	63.310503 
5163.000000	63.313984 
5162.000000	63.347029 
5161.000000	63.384819 
5160.000000	63.406705 
5159.000000	63.396620 
5158.000000	63.350486 
5157.000000	63.273096 
5156.000000	63.179874 
5155.000000	63.089776 
5154.000000	63.023185 
5153.000000	62.996339 
5152.000000	63.017511 
5151.000000	63.084721 
5150.000000	63.187432 
5149.000000	63.310074 
5148.000000	63.434338 
5147.000000	63.543319 
5146.000000	63.625741 
5145.000000	63.677668 
5144.000000	63.701868 
5143.000000	63.705992 
5142.000000	63.699412 
5141.000000	63.690447 
5140.000000	63.685488 
5139.000000	63.687801 
5138.000000	63.697218 
5137.000000	63.711476 
5136.000000	63.729429 
5135.000000	63.751101 
5134.000000	63.777041 
5133.000000	63.809108 
5132.000000	63.849163 
5131.000000	63.898944 
5130.000000	63.958716 
5129.000000	64.027023 
5128.000000	64.101076 
5127.000000	64.175701 
5126.000000	64.244818 
5125.000000	64.301085 
5124.000000	64.337706 
5123.000000	64.348483 
5122.000000	64.329242 
5121.000000	64.279389 
5120.000000	64.202499 
5119.000000	64.107155 
5118.000000	64.005684 
5117.000000	63.912487 
5116.000000	63.840794 
5115.000000	63.800501 
5114.000000	63.795733 
5113.000000	63.823413 
5112.000000	63.874316 
5111.000000	63.935327 
5110.000000	63.992977 
5109.000000	64.036273 
5108.000000	64.059424 
5107.000000	64.062166 
5106.000000	64.049625 
5105.000000	64.028954 
5104.000000	64.008545 
5103.000000	63.994908 
5102.000000	63.992142 
5101.000000	64.000988 
5100.000000	64.019799 
5099.000000	64.046359 
5098.000000	64.078116 
5097.000000	64.113640 
5096.000000	64.151692 
5095.000000	64.190983 
5094.000000	64.229249 
5093.000000	64.262962 
5092.000000	64.287996 
5091.000000	64.300131 
5090.000000	64.297342 
5089.000000	64.280509 
5088.000000	64.253544 
5087.000000	64.222431 
5086.000000	64.194846 
5085.000000	64.177751 
5084.000000	64.176130 
5083.000000	64.190912 
5082.000000	64.219450 
5081.000000	64.255309 
5080.000000	64.290213 
5079.000000	64.315605 
5078.000000	64.324307 
5077.000000	64.312672 
5076.000000	64.281058 
5075.000000	64.234375 
5074.000000	64.179801 
5073.000000	64.126253 
5072.000000	64.082241 
5071.000000	64.054489 
5070.000000	64.046502 
5069.000000	64.059233 
5068.000000	64.091205 
5067.000000	64.139914 
5066.000000	64.202046 
5065.000000	64.275527 
5064.000000	64.359211 
5063.000000	64.452290 
5062.000000	64.552950 
5061.000000	64.657497 
5060.000000	64.759564 
5059.000000	64.850091 
5058.000000	64.918899 
5057.000000	64.957189 
5056.000000	64.959597 
5055.000000	64.926671 
5054.000000	64.864301 
5053.000000	64.783644 
5052.000000	64.697694 
5051.000000	64.619874 
5050.000000	64.559507 
5049.000000	64.520812 
5048.000000	64.501404 
5047.000000	64.494419 
5046.000000	64.489722 
5045.000000	64.477539 
5044.000000	64.450597 
5043.000000	64.406371 
5042.000000	64.347052 
5041.000000	64.278221 
5040.000000	64.207625 
5039.000000	64.142560 
5038.000000	64.088535 
5037.000000	64.047813 
5036.000000	64.019250 
5035.000000	63.998913 
5034.000000	63.981318 
5033.000000	63.961052 
5032.000000	63.933062 
5031.000000	63.895010 
5030.000000	63.847756 
5029.000000	63.796114 
5028.000000	63.746809 
5027.000000	63.708257 
5026.000000	63.688206 
5025.000000	63.692402 
5024.000000	63.722872 
5023.000000	63.777685 
5022.000000	63.850855 
5021.000000	63.934183 
5020.000000	64.018535 
5019.000000	64.095950 
5018.000000	64.160561 
5017.000000	64.209866 
5016.000000	64.244842 
5015.000000	64.268541 
5014.000000	64.284610 
5013.000000	64.296245 
5012.000000	64.305233 
5011.000000	64.311385 
5010.000000	64.312624 
5009.000000	64.306521 
5008.000000	64.291167 
5007.000000	64.265227 
5006.000000	64.228510 
5005.000000	64.182496 
5004.000000	64.130115 
5003.000000	64.075350 
5002.000000	64.022588 
5001.000000	63.976311 
5000.000000	63.940215 
4999.000000	63.916468 
4998.000000	63.905715 
4997.000000	63.906884 
4996.000000	63.917589 
4995.000000	63.933873 
4994.000000	63.951802 
4993.000000	63.967704 
4992.000000	63.979506 
4991.000000	63.986659 
4990.000000	63.990497 
4989.000000	63.993048 
4988.000000	63.997125 
4987.000000	64.005661 
4986.000000	64.020490 
4985.000000	64.041852 
4984.000000	64.068961 
4983.000000	64.100289 
4982.000000	64.133715 
4981.000000	64.167022 
4980.000000	64.197587 
4979.000000	64.223051 
4978.000000	64.240956 
4977.000000	64.249610 
4976.000000	64.247894 
4975.000000	64.236736 
4974.000000	64.218902 
4973.000000	64.199829 
4972.000000	64.186692 
4971.000000	64.187288 
4970.000000	64.208936 
4969.000000	64.255714 
4968.000000	64.327383 
4967.000000	64.418029 
4966.000000	64.517378 
4965.000000	64.611458 
4964.000000	64.686036 
4963.000000	64.728569 
4962.000000	64.731264 
4961.000000	64.692211 
4960.000000	64.615988 
4959.000000	64.512300 
4958.000000	64.394021 
4957.000000	64.274859 
4956.000000	64.166927 
4955.000000	64.079475 
4954.000000	64.017772 
4953.000000	63.983249 
4952.000000	63.973855 
4951.000000	63.985204 
4950.000000	64.011549 
4949.000000	64.046144 
4948.000000	64.082908 
4947.000000	64.115643 
4946.000000	64.140295 
4945.000000	64.154410 
4944.000000	64.158320 
4943.000000	64.154291 
4942.000000	64.145660 
4941.000000	64.136314 
4940.000000	64.128708 
4939.000000	64.123821 
4938.000000	64.120006 
4937.000000	64.113783 
4936.000000	64.100813 
4935.000000	64.077472 
4934.000000	64.042258 
4933.000000	63.996791 
4932.000000	63.945746 
4931.000000	63.895869 
4930.000000	63.854980 
4929.000000	63.830447 
4928.000000	63.827300 
4927.000000	63.847398 
4926.000000	63.889384 
4925.000000	63.949084 
4924.000000	64.021205 
4923.000000	64.099645 
4922.000000	64.178037 
4921.000000	64.250278 
4920.000000	64.310812 
4919.000000	64.355134 
4918.000000	64.379858 
4917.000000	64.383387 
4916.000000	64.366173 
4915.000000	64.331340 
4914.000000	64.284682 
4913.000000	64.234280 
4912.000000	64.189648 
4911.000000	64.159727 
4910.000000	64.151906 
4909.000000	64.169478 
4908.000000	64.211654 
4907.000000	64.272117 
4906.000000	64.340496 
4905.000000	64.403438 
4904.000000	64.447617 
4903.000000	64.461994 
4902.000000	64.440393 
4901.000000	64.382863 
4900.000000	64.296293 
4899.000000	64.193367 
4898.000000	64.090275 
4897.000000	64.003801 
4896.000000	63.947534 
4895.000000	63.929605 
4894.000000	63.950443 
4893.000000	64.003086 
4892.000000	64.074921 
4891.000000	64.150595 
4890.000000	64.215826 
4889.000000	64.259552 
4888.000000	64.277291 
4887.000000	64.270710 
4886.000000	64.247417 
4885.000000	64.217376 
4884.000000	64.190769 
4883.000000	64.175391 
4882.000000	64.174509 
4881.000000	64.186835 
4880.000000	64.207196 
4879.000000	64.228844 
4878.000000	64.245104 
4877.000000	64.251685 
4876.000000	64.246892 
4875.000000	64.231967 
4874.000000	64.209532 
4873.000000	64.182829 
4872.000000	64.154601 
4871.000000	64.126801 
4870.000000	64.100551 
4869.000000	64.076614 
4868.000000	64.056062 
4867.000000	64.040255 
4866.000000	64.031767 
4865.000000	64.033126 
4864.000000	64.046025 
4863.000000	64.070105 
4862.000000	64.102578 
4861.000000	64.138054 
4860.000000	64.169383 
4859.000000	64.188838 
4858.000000	64.189791 
4857.000000	64.168286 
4856.000000	64.124107 
4855.000000	64.061212 
4854.000000	63.986873 
4853.000000	63.910388 
4852.000000	63.841056 
4851.000000	63.786602 
4850.000000	63.751864 
4849.000000	63.737940 
4848.000000	63.742303 
4847.000000	63.760113 
4846.000000	63.785600 
4845.000000	63.814043 
4844.000000	63.842630 
4843.000000	63.870906 
4842.000000	63.899827 
4841.000000	63.930797 
4840.000000	63.964152 
4839.000000	63.998079 
4838.000000	64.028787 
4837.000000	64.051413 
4836.000000	64.061617 
4835.000000	64.056992 
4834.000000	64.038515 
4833.000000	64.010715 
4832.000000	63.981103 
4831.000000	63.958668 
4830.000000	63.951587 
4829.000000	63.965177 
4828.000000	64.000701 
4827.000000	64.055061 
4826.000000	64.121699 
4825.000000	64.192199 
4824.000000	64.258551 
4823.000000	64.314675 
4822.000000	64.357352 
4821.000000	64.386177 
4820.000000	64.403009 
4819.000000	64.410638 
4818.000000	64.411640 
4817.000000	64.407134 
4816.000000	64.396929 
4815.000000	64.379048 
4814.000000	64.351177 
4813.000000	64.311027 
4812.000000	64.257478 
4811.000000	64.191484 
4810.000000	64.116358 
4809.000000	64.037847 
4808.000000	63.962674 
4807.000000	63.898420 
4806.000000	63.851761 
4805.000000	63.827896 
4804.000000	63.829016 
4803.000000	63.854408 
4802.000000	63.900637 
4801.000000	63.962054 
4800.000000	64.031243 
4799.000000	64.100718 
4798.000000	64.163565 
4797.000000	64.214468 
4796.000000	64.250040 
4795.000000	64.269018 
4794.000000	64.272046 
4793.000000	64.261031 
4792.000000	64.238452 
4791.000000	64.207458 
4790.000000	64.171123 
4789.000000	64.132499 
4788.000000	64.094042 
4787.000000	64.057683 
4786.000000	64.024496 
4785.000000	63.995480 
4784.000000	63.971304 
4783.000000	63.952445 
4782.000000	63.939380 
4781.000000	63.932514 
4780.000000	63.931989 
4779.000000	63.936781 
4778.000000	63.945174 
4777.000000	63.954615 
4776.000000	63.962459 
4775.000000	63.966035 
4774.000000	63.964033 
4773.000000	63.956403 
4772.000000	63.944935 
4771.000000	63.932824 
4770.000000	63.923621 
4769.000000	63.920092 
4768.000000	63.923215 
4767.000000	63.931822 
4766.000000	63.942575 
4765.000000	63.950943 
4764.000000	63.952946 
4763.000000	63.946533 
4762.000000	63.932156 
4761.000000	63.913369 
4760.000000	63.895392 
4759.000000	63.884377 
4758.000000	63.885140 
4757.000000	63.900542 
4756.000000	63.930964 
4755.000000	63.974189 
4754.000000	64.026784 
4753.000000	64.083981 
4752.000000	64.141368 
4751.000000	64.194464 
4750.000000	64.239549 
4749.000000	64.273214 
4748.000000	64.292263 
4747.000000	64.294147 
4746.000000	64.277505 
4745.000000	64.242982 
4744.000000	64.193463 
4743.000000	64.134407 
4742.000000	64.073419 
4741.000000	64.018440 
4740.000000	63.976192 
4739.000000	63.950586 
4738.000000	63.941812 
4737.000000	63.945913 
4736.000000	63.955926 
4735.000000	63.963675 
4734.000000	63.962030 
4733.000000	63.946223 
4732.000000	63.915300 
4731.000000	63.871860 
4730.000000	63.821482 
4729.000000	63.770580 
4728.000000	63.725137 
4727.000000	63.689255 
4726.000000	63.664841 
4725.000000	63.651418 
4724.000000	63.647222 
4723.000000	63.649964 
4722.000000	63.657999 
4721.000000	63.670587 
4720.000000	63.687777 
4719.000000	63.709425 
4718.000000	63.735461 
4717.000000	63.764786 
4716.000000	63.795852 
4715.000000	63.826417 
4714.000000	63.854670 
4713.000000	63.879632 
4712.000000	63.901877 
4711.000000	63.923406 
4710.000000	63.947057 
4709.000000	63.975930 
4708.000000	64.012503 
4707.000000	64.058113 
4706.000000	64.112305 
4705.000000	64.173054 
4704.000000	64.237475 
4703.000000	64.301943 
4702.000000	64.363718 
4701.000000	64.420294 
4700.000000	64.470076 
4699.000000	64.511346 
4698.000000	64.542818 
4697.000000	64.562678 
4696.000000	64.569473 
4695.000000	64.562034 
4694.000000	64.540314 
4693.000000	64.505743 
4692.000000	64.461708 
4691.000000	64.412927 
4690.000000	64.364838 
4689.000000	64.322400 
4688.000000	64.289236 
4687.000000	64.267182 
4686.000000	64.256167 
4685.000000	64.254760 
4684.000000	64.260745 
4683.000000	64.272356 
4682.000000	64.288258 
4681.000000	64.307880 
4680.000000	64.330172 
4679.000000	64.353203 
4678.000000	64.373302 
4677.000000	64.384865 
4676.000000	64.381217 
4675.000000	64.356517 
4674.000000	64.307188 
4673.000000	64.233350 
4672.000000	64.139509 
4671.000000	64.034628 
4670.000000	63.930463 
4669.000000	63.838911 
4668.000000	63.770222 
4667.000000	63.731193 
4666.000000	63.723826 
4665.000000	63.745164 
4664.000000	63.788485 
4663.000000	63.844633 
4662.000000	63.904380 
4661.000000	63.960099 
4660.000000	64.006662 
4659.000000	64.041686 
4658.000000	64.065599 
4657.000000	64.080858 
4656.000000	64.090681 
4655.000000	64.097857 
4654.000000	64.104413 
4653.000000	64.110612 
4652.000000	64.115190 
4651.000000	64.115238 
4650.000000	64.107418 
4649.000000	64.088439 
4648.000000	64.056563 
4647.000000	64.011955 
4646.000000	63.957142 
4645.000000	63.896274 
4644.000000	63.834357 
4643.000000	63.776493 
4642.000000	63.726592 
4641.000000	63.687562 
4640.000000	63.660478 
4639.000000	63.646006 
4638.000000	63.644146 
4637.000000	63.655495 
4636.000000	63.680791 
4635.000000	63.721132 
4634.000000	63.776850 
4633.000000	63.846993 
4632.000000	63.928318 
4631.000000	64.014983 
4630.000000	64.098930 
4629.000000	64.171195 
4628.000000	64.223146 
4627.000000	64.248585 
4626.000000	64.244771 
4625.000000	64.213109 
4624.000000	64.159035 
4623.000000	64.090943 
4622.000000	64.018535 
4621.000000	63.951110 
4620.000000	63.895678 
4619.000000	63.856625 
4618.000000	63.834881 
4617.000000	63.828682 
4616.000000	63.833951 
4615.000000	63.846135 
4614.000000	63.860559 
4613.000000	63.873195 
4612.000000	63.881254 
4611.000000	63.883113 
4610.000000	63.878583 
4609.000000	63.868188 
4608.000000	63.853621 
4607.000000	63.837146 
4606.000000	63.821697 
4605.000000	63.810515 
4604.000000	63.806629 
4603.000000	63.812351 
4602.000000	63.828778 
4601.000000	63.855504 
4600.000000	63.890314 
4599.000000	63.929438 
4598.000000	63.968157 
4597.000000	64.002060 
4596.000000	64.027357 
4595.000000	64.042115 
4594.000000	64.046311 
4593.000000	64.041996 
4592.000000	64.032888 
4591.000000	64.023351 
4590.000000	64.017748 
4589.000000	64.019250 
4588.000000	64.029908 
4587.000000	64.049673 
4586.000000	64.076423 
4585.000000	64.106631 
4584.000000	64.136242 
4583.000000	64.161610 
4582.000000	64.180374 
4581.000000	64.191603 
4580.000000	64.195871 
4579.000000	64.194798 
4578.000000	64.190554 
4577.000000	64.184975 
4576.000000	64.179182 
4575.000000	64.173936 
4574.000000	64.169836 
4573.000000	64.167523 
4572.000000	64.167618 
4571.000000	64.170789 
4570.000000	64.177274 
4569.000000	64.186501 
4568.000000	64.196920 
4567.000000	64.206385 
4566.000000	64.212417 
4565.000000	64.212751 
4564.000000	64.206552 
4563.000000	64.194941 
4562.000000	64.181065 
4561.000000	64.169430 
4560.000000	64.164710 
4559.000000	64.170408 
4558.000000	64.187455 
4557.000000	64.213967 
4556.000000	64.244842 
4555.000000	64.272952 
4554.000000	64.290404 
4553.000000	64.290666 
4552.000000	64.269566 
4551.000000	64.226436 
4550.000000	64.164090 
4549.000000	64.088296 
4548.000000	64.007115 
4547.000000	63.929343 
4546.000000	63.863325 
4545.000000	63.815283 
4544.000000	63.788390 
4543.000000	63.782382 
4542.000000	63.793873 
4541.000000	63.817000 
4540.000000	63.844537 
4539.000000	63.869738 
4538.000000	63.886809 
4537.000000	63.892507 
4536.000000	63.885641 
4535.000000	63.868069 
4534.000000	63.843560 
4533.000000	63.817596 
4532.000000	63.796138 
4531.000000	63.784646 
4530.000000	63.787126 
4529.000000	63.804841 
4528.000000	63.836503 
4527.000000	63.877606 
4526.000000	63.921523 
4525.000000	63.960361 
4524.000000	63.986825 
4523.000000	63.995480 
4522.000000	63.984060 
4521.000000	63.954544 
4520.000000	63.912868 
4519.000000	63.867783 
4518.000000	63.828921 
4517.000000	63.804316 
4516.000000	63.798904 
4515.000000	63.813853 
4514.000000	63.846516 
4513.000000	63.891339 
4512.000000	63.941717 
4511.000000	63.992023 
4510.000000	64.038443 
4509.000000	64.079427 
4508.000000	64.115262 
4507.000000	64.146804 
4506.000000	64.174652 
4505.000000	64.198374 
4504.000000	64.215946 
4503.000000	64.224648 
4502.000000	64.221310 
4501.000000	64.203858 
4500.000000	64.171433 
4499.000000	64.125490 
4498.000000	64.068675 
4497.000000	64.004802 
4496.000000	63.937640 
4495.000000	63.870811 
4494.000000	63.807630 
4493.000000	63.751339 
4492.000000	63.705348 
4491.000000	63.673424 
4490.000000	63.658928 
4489.000000	63.664746 
4488.000000	63.692283 
4487.000000	63.741111 
4486.000000	63.807535 
4485.000000	63.885617 
4484.000000	63.967394 
4483.000000	64.044594 
4482.000000	64.110112 
4481.000000	64.158916 
4480.000000	64.188694 
4479.000000	64.199757 
4478.000000	64.195036 
4477.000000	64.178657 
4476.000000	64.154982 
4475.000000	64.128017 
4474.000000	64.101171 
4473.000000	64.076948 
4472.000000	64.057540 
4471.000000	64.043736 
4470.000000	64.035582 
4469.000000	64.032387 
4468.000000	64.033699 
4467.000000	64.039754 
4466.000000	64.052295 
4465.000000	64.074516 
4464.000000	64.110922 
4463.000000	64.166402 
4462.000000	64.244365 
4461.000000	64.344906 
4460.000000	64.463353 
4459.000000	64.591383 
4458.000000	64.716172 
4457.000000	64.823317 
4456.000000	64.898157 
4455.000000	64.929437 
4454.000000	64.911246 
4453.000000	64.844942 
4452.000000	64.739179 
4451.000000	64.608335 
4450.000000	64.470481 
4449.000000	64.344334 
4448.000000	64.246129 
4447.000000	64.187169 
4446.000000	64.172482 
4445.000000	64.200997 
4444.000000	64.265799 
4443.000000	64.355874 
4442.000000	64.459490 
4441.000000	64.565896 
4440.000000	64.663028 
4439.000000	64.738202 
4438.000000	64.784193 
4437.000000	64.797186 
4436.000000	64.769792 
4435.000000	64.695024 
4434.000000	64.572167 
4433.000000	64.406228 
4432.000000	64.208054 
4431.000000	63.994956 
4430.000000	63.785076 
4429.000000	63.599157 
4428.000000	63.464999 
4427.000000	63.404488 
4426.000000	63.418865 
4425.000000	63.500475 
4424.000000	63.644266 
4423.000000	63.833308 
4422.000000	64.033555 
4421.000000	64.214396 
4420.000000	64.356207 
4419.000000	64.449977 
4418.000000	64.498662 
4417.000000	64.517879 
4416.000000	64.533400 
4415.000000	64.587450 
4414.000000	64.735627 
4413.000000	65.041160 
4412.000000	65.564656 
4411.000000	66.361927 
4410.000000	67.460536 
4409.000000	68.847727 
4408.000000	70.449829 
4407.000000	72.155547 
4406.000000	73.796343 
4405.000000	75.191259 
4404.000000	76.133465 
4403.000000	76.469516 
4402.000000	76.058959 
4401.000000	74.828386 
4400.000000	72.739386 
4399.000000	69.830632 
4398.000000	66.188716 
4397.000000	61.956477 
4396.000000	57.339501 
4395.000000	52.595758 
4394.000000	48.044395 
4393.000000	44.034099 
4392.000000	40.912365 
4391.000000	38.967514 
4390.000000	38.381266 
4389.000000	39.187097 
4388.000000	41.241836 
4387.000000	44.247388 
4386.000000	47.805023 
4385.000000	51.494741 
4384.000000	54.933142 
4383.000000	57.848620 
4382.000000	60.099554 
4381.000000	61.687636 
4380.000000	62.710499 
4379.000000	63.325548 
4378.000000	63.702869 
4377.000000	63.973307 
4376.000000	64.232635 
4375.000000	64.502000 
4374.000000	64.778041 
4373.000000	65.013670 
4372.000000	65.182471 
4371.000000	65.256929 
4370.000000	65.234494 
4369.000000	65.127015 
4368.000000	64.963984 
4367.000000	64.774727 
4366.000000	64.575147 
4365.000000	64.381504 
4364.000000	64.213562 
4363.000000	64.080715 
4362.000000	63.982558 
4361.000000	63.920259 
4360.000000	63.897657 
4359.000000	63.912963 
4358.000000	63.960981 
4357.000000	64.031219 
4356.000000	64.110922 
4355.000000	64.194011 
4354.000000	64.279246 
4353.000000	64.356637 
4352.000000	64.416766 
4351.000000	64.462852 
4350.000000	64.501881 
4349.000000	64.534878 
4348.000000	64.561486 
4347.000000	64.582467 
4346.000000	64.597105 
4345.000000	64.604067 
4344.000000	64.602303 
4343.000000	64.593005 
4342.000000	64.578366 
4341.000000	64.561605 
4340.000000	64.546275 
4339.000000	64.535999 
4338.000000	64.532256 
4337.000000	64.534068 
4336.000000	64.537835 
4335.000000	64.537882 
4334.000000	64.528298 
4333.000000	64.504194 
4332.000000	64.461946 
4331.000000	64.400219 
4330.000000	64.320421 
4329.000000	64.227080 
4328.000000	64.126467 
4327.000000	64.026331 
4326.000000	63.934636 
4325.000000	63.858842 
4324.000000	63.804960 
4323.000000	63.776874 
4322.000000	63.775229 
4321.000000	63.797974 
4320.000000	63.840699 
4319.000000	63.897085 
4318.000000	63.959288 
4317.000000	64.019203 
4316.000000	64.069461 
4315.000000	64.103674 
4314.000000	64.117193 
4313.000000	64.106750 
4312.000000	64.070510 
4311.000000	64.008617 
4310.000000	63.923597 
4309.000000	63.820934 
4308.000000	63.708996 
4307.000000	63.598752 
4306.000000	63.502621 
4305.000000	63.432216 
4304.000000	63.396286 
4303.000000	63.398742 
4302.000000	63.437914 
4301.000000	63.506984 
4300.000000	63.595533 
4299.000000	63.691306 
4298.000000	63.782858 
4297.000000	63.860464 
4296.000000	63.917851 
4295.000000	63.952231 
4294.000000	63.964200 
4293.000000	63.955879 
4292.000000	63.931035 
4291.000000	63.894176 
4290.000000	63.850498 
4289.000000	63.805651 
4288.000000	63.765406 
4287.000000	63.736081 
4286.000000	63.722753 
4285.000000	63.728976 
4284.000000	63.754963 
4283.000000	63.797354 
4282.000000	63.849449 
4281.000000	63.902187 
4280.000000	63.945770 
4279.000000	63.971471 
4278.000000	63.973140 
4277.000000	63.948726 
4276.000000	63.900780 
4275.000000	63.836216 
4274.000000	63.764643 
4273.000000	63.696885 
4272.000000	63.643288 
4271.000000	63.611459 
4270.000000	63.605618 
4269.000000	63.625574 
4268.000000	63.666844 
4267.000000	63.722467 
4266.000000	63.784527 
4265.000000	63.845896 
4264.000000	63.900947 
4263.000000	63.946843 
4262.000000	63.983178 
4261.000000	64.011335 
4260.000000	64.033365 
4259.000000	64.050412 
4258.000000	64.062094 
4257.000000	64.066314 
4256.000000	64.060020 
4255.000000	64.040470 
4254.000000	64.006757 
4253.000000	63.960838 
4252.000000	63.907814 
4251.000000	63.855671 
4250.000000	63.813233 
4249.000000	63.788509 
4248.000000	63.786149 
4247.000000	63.806343 
4246.000000	63.844251 
4245.000000	63.891077 
4244.000000	63.936042 
4243.000000	63.968586 
4242.000000	63.981366 
4241.000000	63.971662 
4240.000000	63.942265 
4239.000000	63.900375 
4238.000000	63.856029 
4237.000000	63.819217 
4236.000000	63.797879 
4235.000000	63.796401 
4234.000000	63.814210 
4233.000000	63.846349 
4232.000000	63.884663 
4231.000000	63.920164 
4230.000000	63.944530 
4229.000000	63.951945 
4228.000000	63.940072 
4227.000000	63.910484 
4226.000000	63.868141 
4225.000000	63.820052 
4224.000000	63.774061 
4223.000000	63.737082 
4222.000000	63.714694 
4221.000000	63.710093 
4220.000000	63.724160 
4219.000000	63.755035 
4218.000000	63.799357 
4217.000000	63.851833 
4216.000000	63.906478 
4215.000000	63.956570 
4214.000000	63.995456 
4213.000000	64.017200 
4212.000000	64.017868 
4211.000000	63.995361 
4210.000000	63.950133 
4209.000000	63.884758 
4208.000000	63.804101 
4207.000000	63.714146 
4206.000000	63.621830 
4205.000000	63.533496 
4204.000000	63.454174 
4203.000000	63.387823 
4202.000000	63.337397 
4201.000000	63.305044 
4200.000000	63.292336 
4199.000000	63.300085 
4198.000000	63.328146 
4197.000000	63.375139 
4196.000000	63.438153 
4195.000000	63.511824 
4194.000000	63.589000 
4193.000000	63.661313 
4192.000000	63.720417 
4191.000000	63.759398 
4190.000000	63.773679 
4189.000000	63.761997 
4188.000000	63.725876 
4187.000000	63.669657 
4186.000000	63.599228 
4185.000000	63.520908 
4184.000000	63.441205 
4183.000000	63.365697 
4182.000000	63.300037 
4181.000000	63.249659 
4180.000000	63.220071 
4179.000000	63.216543 
4178.000000	63.242697 
4177.000000	63.298940 
4176.000000	63.381648 
4175.000000	63.482689 
4174.000000	63.589954 
4173.000000	63.688945 
4172.000000	63.765358 
4171.000000	63.807964 
4170.000000	63.810515 
4169.000000	63.772821 
4168.000000	63.701081 
4167.000000	63.606309 
4166.000000	63.502311 
4165.000000	63.402557 
4164.000000	63.318324 
4163.000000	63.256430 
4162.000000	63.219165 
4161.000000	63.204383 
4160.000000	63.206791 
4159.000000	63.220191 
4158.000000	63.238883 
4157.000000	63.259482 
4156.000000	63.280248 
4155.000000	63.302183 
4154.000000	63.327264 
4153.000000	63.357758 
4152.000000	63.394713 
4151.000000	63.436746 
4150.000000	63.479995 
4149.000000	63.518571 
4148.000000	63.545942 
4147.000000	63.556480 
4146.000000	63.547062 
4145.000000	63.517928 
4144.000000	63.472890 
4143.000000	63.418674 
4142.000000	63.363933 
4141.000000	63.316726 
4140.000000	63.283491 
4139.000000	63.268375 
4138.000000	63.272476 
4137.000000	63.294601 
4136.000000	63.331055 
4135.000000	63.376593 
4134.000000	63.424992 
4133.000000	63.470363 
4132.000000	63.507556 
4131.000000	63.532352 
4130.000000	63.542342 
4129.000000	63.536882 
4128.000000	63.517308 
4127.000000	63.486361 
4126.000000	63.448071 
4125.000000	63.407063 
4124.000000	63.367867 
4123.000000	63.334488 
4122.000000	63.309359 
4121.000000	63.293457 
4120.000000	63.285613 
4119.000000	63.283395 
4118.000000	63.282942 
4117.000000	63.280272 
4116.000000	63.272142 
4115.000000	63.257002 
4114.000000	63.235020 
4113.000000	63.208532 
4112.000000	63.181233 
4111.000000	63.157701 
4110.000000	63.142251 
4109.000000	63.137745 
4108.000000	63.144588 
4107.000000	63.160896 
4106.000000	63.182854 
4105.000000	63.205933 
4104.000000	63.225960 
4103.000000	63.240456 
4102.000000	63.248753 
4101.000000	63.252329 
4100.000000	63.253855 
4099.000000	63.256311 
4098.000000	63.261699 
4097.000000	63.270807 
4096.000000	63.283038 
4095.000000	63.296484 
4094.000000	63.308811 
4093.000000	63.317155 
4092.000000	63.318991 
4091.000000	63.312339 
4090.000000	63.296341 
4089.000000	63.270735 
4088.000000	63.236570 
4087.000000	63.195991 
4086.000000	63.152456 
4085.000000	63.110256 
4084.000000	63.074111 
4083.000000	63.048696 
4082.000000	63.037729 
4081.000000	63.043332 
4080.000000	63.065385 
4079.000000	63.101315 
4078.000000	63.146471 
4077.000000	63.194870 
4076.000000	63.239932 
4075.000000	63.275790 
4074.000000	63.298058 
4073.000000	63.304567 
4072.000000	63.295316 
4071.000000	63.272118 
4070.000000	63.238334 
4069.000000	63.198041 
4068.000000	63.155674 
4067.000000	63.115644 
4066.000000	63.081860 
4065.000000	63.057589 
4064.000000	63.045477 
4063.000000	63.047218 
4062.000000	63.063383 
4061.000000	63.093352 
4060.000000	63.134527 
4059.000000	63.182997 
4058.000000	63.233447 
4057.000000	63.280153 
4056.000000	63.317680 
4055.000000	63.341927 
4054.000000	63.350510 
4053.000000	63.343381 
4052.000000	63.322877 
4051.000000	63.292717 
4050.000000	63.257217 
4049.000000	63.220238 
4048.000000	63.184833 
4047.000000	63.152599 
4046.000000	63.124036 
4045.000000	63.098931 
4044.000000	63.076996 
4043.000000	63.058447 
4042.000000	63.044738 
4041.000000	63.037824 
4040.000000	63.039684 
4039.000000	63.051247 
4038.000000	63.071680 
4037.000000	63.098144 
4036.000000	63.125991 
4035.000000	63.149714 
4034.000000	63.164258 
4033.000000	63.166117 
4032.000000	63.154602 
4031.000000	63.131833 
4030.000000	63.102436 
4029.000000	63.072419 
4028.000000	63.048005 
4027.000000	63.034462 
4026.000000	63.035011 
4025.000000	63.050675 
4024.000000	63.079833 
4023.000000	63.119077 
4022.000000	63.163375 
4021.000000	63.207578 
4020.000000	63.246488 
4019.000000	63.275623 
4018.000000	63.291931 
4017.000000	63.293814 
4016.000000	63.281512 
4015.000000	63.256907 
4014.000000	63.223338 
4013.000000	63.185214 
4012.000000	63.147139 
4011.000000	63.113141 
4010.000000	63.085746 
4009.000000	63.065981 
4008.000000	63.052964 
4007.000000	63.044619 
4006.000000	63.038206 
4005.000000	63.031649 
4004.000000	63.023924 
4003.000000	63.015747 
4002.000000	63.009119 
4001.000000	63.007330 
4000.000000	63.013648 
3999.000000	63.030433 
3998.000000	63.058233 
3997.000000	63.095378 
3996.000000	63.138175 
3995.000000	63.181471 
3994.000000	63.219761 
3993.000000	63.248133 
3992.000000	63.263440 
3991.000000	63.264536 
3990.000000	63.252520 
3989.000000	63.229966 
3988.000000	63.200259 
3987.000000	63.166809 
3986.000000	63.132405 
3985.000000	63.099026 
3984.000000	63.067865 
3983.000000	63.039994 
3982.000000	63.016724 
3981.000000	62.999486 
3980.000000	62.989902 
3979.000000	62.989425 
3978.000000	62.998938 
3977.000000	63.018059 
3976.000000	63.045024 
3975.000000	63.076376 
3974.000000	63.107633 
3973.000000	63.134026 
3972.000000	63.151526 
3971.000000	63.157200 
3970.000000	63.150191 
3969.000000	63.131856 
3968.000000	63.105607 
3967.000000	63.075804 
3966.000000	63.047409 
3965.000000	63.024806 
3964.000000	63.011169 
3963.000000	63.008046 
3962.000000	63.015532 
3961.000000	63.032341 
3960.000000	63.056612 
3959.000000	63.086318 
3958.000000	63.119888 
3957.000000	63.156342 
3956.000000	63.195228 
3955.000000	63.235974 
3954.000000	63.277339 
3953.000000	63.317036 
3952.000000	63.351798 
3951.000000	63.377737 
3950.000000	63.391184 
3949.000000	63.389205 
3948.000000	63.370990 
3947.000000	63.337492 
3946.000000	63.291549 
3945.000000	63.236975 
3944.000000	63.178229 
3943.000000	63.119721 
3942.000000	63.065338 
3941.000000	63.018298 
3940.000000	62.980985 
3939.000000	62.954950 
3938.000000	62.941193 
3937.000000	62.939810 
3936.000000	62.949943 
3935.000000	62.969636 
3934.000000	62.995529 
3933.000000	63.023376 
3932.000000	63.048267 
3931.000000	63.065767 
3930.000000	63.072538 
3929.000000	63.067078 
3928.000000	63.050007 
3927.000000	63.024044 
3926.000000	62.993645 
3925.000000	62.963724 
3924.000000	62.939095 
3923.000000	62.924218 
3922.000000	62.922239 
3921.000000	62.934851 
3920.000000	62.961483 
3919.000000	62.999367 
3918.000000	63.043928 
3917.000000	63.089251 
3916.000000	63.129544 
3915.000000	63.159966 
3914.000000	63.177728 
3913.000000	63.183045 
3912.000000	63.178324 
3911.000000	63.167524 
3910.000000	63.155007 
3909.000000	63.144922 
3908.000000	63.139891 
3907.000000	63.140606 
3906.000000	63.146138 
3905.000000	63.154458 
3904.000000	63.162875 
3903.000000	63.168954 
3902.000000	63.170409 
3901.000000	63.165378 
3900.000000	63.152384 
3899.000000	63.130640 
3898.000000	63.099455 
3897.000000	63.059353 
3896.000000	63.012456 
3895.000000	62.962913 
3894.000000	62.916660 
3893.000000	62.880396 
3892.000000	62.860155 
3891.000000	62.860131 
3890.000000	62.880969 
3889.000000	62.920212 
3888.000000	62.972235 
3887.000000	63.030266 
3886.000000	63.087058 
3885.000000	63.137435 
3884.000000	63.178801 
3883.000000	63.211369 
3882.000000	63.237333 
3881.000000	63.259458 
3880.000000	63.279771 
3879.000000	63.298439 
3878.000000	63.313651 
3877.000000	63.321471 
3876.000000	63.317131 
3875.000000	63.296604 
3874.000000	63.258099 
3873.000000	63.202309 
3872.000000	63.132882 
3871.000000	63.055467 
3870.000000	62.977027 
3869.000000	62.904405 
3868.000000	62.843322 
3867.000000	62.797760 
3866.000000	62.769532 
3865.000000	62.758231 
3864.000000	62.761735 
3863.000000	62.776637 
3862.000000	62.799072 
3861.000000	62.824749 
3860.000000	62.850046 
3859.000000	62.871408 
3858.000000	62.886524 
3857.000000	62.894010 
3856.000000	62.893915 
3855.000000	62.887096 
3854.000000	62.875866 
3853.000000	62.863516 
3852.000000	62.853670 
3851.000000	62.849521 
3850.000000	62.853288 
3849.000000	62.865924 
3848.000000	62.886548 
3847.000000	62.912583 
3846.000000	62.940478 
3845.000000	62.966251 
3844.000000	62.986469 
3843.000000	62.999057 
3842.000000	63.003635 
3841.000000	63.001823 
3840.000000	62.996792 
3839.000000	62.992262 
3838.000000	62.991476 
3837.000000	62.995862 
3836.000000	63.005828 
3835.000000	63.019609 
3834.000000	63.034296 
3833.000000	63.046216 
3832.000000	63.052606 
3831.000000	63.051652 
3830.000000	63.043618 
3829.000000	63.030076 
3828.000000	63.013553 
3827.000000	62.996745 
3826.000000	62.981724 
3825.000000	62.969088 
3824.000000	62.957954 
3823.000000	62.946009 
3822.000000	62.930202 
3821.000000	62.907671 
3820.000000	62.876653 
3819.000000	62.836885 
3818.000000	62.790322 
3817.000000	62.740182 
3816.000000	62.691307 
3815.000000	62.648868 
3814.000000	62.617850 
3813.000000	62.601876 
3812.000000	62.603020 
3811.000000	62.621545 
3810.000000	62.655854 
3809.000000	62.702512 
3808.000000	62.756657 
3807.000000	62.812590 
3806.000000	62.864613 
3805.000000	62.907218 
3804.000000	62.936425 
3803.000000	62.949967 
3802.000000	62.947797 
3801.000000	62.932014 
3800.000000	62.906551 
3799.000000	62.876200 
3798.000000	62.845802 
3797.000000	62.819814 
3796.000000	62.800955 
3795.000000	62.790131 
3794.000000	62.786674 
3793.000000	62.788844 
3792.000000	62.794184 
3791.000000	62.800264 
3790.000000	62.805080 
3789.000000	62.807703 
3788.000000	62.807774 
3787.000000	62.805509 
3786.000000	62.801194 
3785.000000	62.794995 
3784.000000	62.786674 
3783.000000	62.775444 
3782.000000	62.760734 
3781.000000	62.741804 
3780.000000	62.718558 
3779.000000	62.691760 
3778.000000	62.662696 
3777.000000	62.633943 
3776.000000	62.608671 
3775.000000	62.590479 
3774.000000	62.582325 
3773.000000	62.586641 
3772.000000	62.604570 
3771.000000	62.635803 
3770.000000	62.678194 
3769.000000	62.728118 
3768.000000	62.780857 
3767.000000	62.831354 
3766.000000	62.874889 
3765.000000	62.907886 
3764.000000	62.928128 
3763.000000	62.935209 
3762.000000	62.930345 
3761.000000	62.915897 
3760.000000	62.894725 
3759.000000	62.869763 
3758.000000	62.843418 
3757.000000	62.817597 
3756.000000	62.793469 
3755.000000	62.771868 
3754.000000	62.753009 
3753.000000	62.736964 
3752.000000	62.723374 
3751.000000	62.711787 
3750.000000	62.701511 
3749.000000	62.691473 
3748.000000	62.680768 
3747.000000	62.668395 
3746.000000	62.654066 
3745.000000	62.638092 
3744.000000	62.621688 
3743.000000	62.606525 
3742.000000	62.594580 
3741.000000	62.587666 
3740.000000	62.586903 
3739.000000	62.592339 
3738.000000	62.603139 
3737.000000	62.617588 
3736.000000	62.633490 
3735.000000	62.648510 
3734.000000	62.660884 
3733.000000	62.669825 
3732.000000	62.675094 
3731.000000	62.677192 
3730.000000	62.677145 
3729.000000	62.676072 
3728.000000	62.675166 
3727.000000	62.675142 
3726.000000	62.676525 
3725.000000	62.679195 
3724.000000	62.682795 
3723.000000	62.686324 
3722.000000	62.688183 
3721.000000	62.686467 
3720.000000	62.679290 
3719.000000	62.665414 
3718.000000	62.644672 
3717.000000	62.618565 
3716.000000	62.590050 
3715.000000	62.563252 
3714.000000	62.542581 
3713.000000	62.531781 
3712.000000	62.533068 
3711.000000	62.546372 
3710.000000	62.569141 
3709.000000	62.597107 
3708.000000	62.624883 
3707.000000	62.647223 
3706.000000	62.659764 
3705.000000	62.660193 
3704.000000	62.647962 
3703.000000	62.624669 
3702.000000	62.592887 
3701.000000	62.555766 
3700.000000	62.516069 
3699.000000	62.476158 
3698.000000	62.437605 
3697.000000	62.401509 
3696.000000	62.368822 
3695.000000	62.340760 
3694.000000	62.318801 
3693.000000	62.304353 
3692.000000	62.298560 
3691.000000	62.301731 
3690.000000	62.313103 
3689.000000	62.330675 
3688.000000	62.351679 
3687.000000	62.373089 
3686.000000	62.392592 
3685.000000	62.408947 
3684.000000	62.422227 
3683.000000	62.433576 
3682.000000	62.445020 
3681.000000	62.458229 
3680.000000	62.473964 
3679.000000	62.491345 
3678.000000	62.508249 
3677.000000	62.521290 
3676.000000	62.527179 
3675.000000	62.523078 
3674.000000	62.507915 
3673.000000	62.482142 
3672.000000	62.447810 
3671.000000	62.408018 
3670.000000	62.366366 
3669.000000	62.326288 
3668.000000	62.290501 
3667.000000	62.260794 
3666.000000	62.238216 
3665.000000	62.223005 
3664.000000	62.214899 
3663.000000	62.213206 
3662.000000	62.217068 
3661.000000	62.225675 
3660.000000	62.238192 
3659.000000	62.253665 
3658.000000	62.271070 
3657.000000	62.289476 
3656.000000	62.308049 
3655.000000	62.325692 
3654.000000	62.341308 
3653.000000	62.353706 
3652.000000	62.361979 
3651.000000	62.365365 
3650.000000	62.363815 
3649.000000	62.357902 
3648.000000	62.349104 
3647.000000	62.339520 
3646.000000	62.331461 
3645.000000	62.326860 
3644.000000	62.326812 
3643.000000	62.331295 
3642.000000	62.339305 
3641.000000	62.349390 
3640.000000	62.360143 
3639.000000	62.370681 
3638.000000	62.380671 
3637.000000	62.390255 
3636.000000	62.399649 
3635.000000	62.408852 
3634.000000	62.417054 
3633.000000	62.422347 
3632.000000	62.422323 
3631.000000	62.414598 
3630.000000	62.397408 
3629.000000	62.370467 
3628.000000	62.335395 
3627.000000	62.295627 
3626.000000	62.255954 
3625.000000	62.221407 
3624.000000	62.196373 
3623.000000	62.183451 
3622.000000	62.183070 
3621.000000	62.193322 
3620.000000	62.210488 
3619.000000	62.229871 
3618.000000	62.246680 
3617.000000	62.257146 
3616.000000	62.258934 
3615.000000	62.251853 
3614.000000	62.237524 
3613.000000	62.219214 
3612.000000	62.200570 
3611.000000	62.185001 
3610.000000	62.175011 
3609.000000	62.171864 
3608.000000	62.175345 
3607.000000	62.184286 
3606.000000	62.197208 
3605.000000	62.212514 
3604.000000	62.229132 
3603.000000	62.246298 
3602.000000	62.263560 
3601.000000	62.280416 
3600.000000	62.295937 
3599.000000	62.308788 
3598.000000	62.317419 
3597.000000	62.320518 
3596.000000	62.317180 
3595.000000	62.307715 
3594.000000	62.293171 
3593.000000	62.275862 
3592.000000	62.257957 
3591.000000	62.241482 
3590.000000	62.227225 
3589.000000	62.214541 
3588.000000	62.201571 
3587.000000	62.185955 
3586.000000	62.165665 
3585.000000	62.139558 
3584.000000	62.108421 
3583.000000	62.074875 
3582.000000	62.042975 
3581.000000	62.017178 
3580.000000	62.001371 
3579.000000	61.997723 
3578.000000	62.006354 
3577.000000	62.025094 
3576.000000	62.050056 
3575.000000	62.076711 
3574.000000	62.100911 
3573.000000	62.119674 
3572.000000	62.131714 
3571.000000	62.137389 
3570.000000	62.138152 
3569.000000	62.135529 
3568.000000	62.130928 
3567.000000	62.124419 
3566.000000	62.115192 
3565.000000	62.101244 
3564.000000	62.080597 
3563.000000	62.051343 
3562.000000	62.012958 
3561.000000	61.966228 
3560.000000	61.913490 
3559.000000	61.858367 
3558.000000	61.805081 
3557.000000	61.758041 
3556.000000	61.720609 
3555.000000	61.695170 
3554.000000	61.682629 
3553.000000	61.682844 
3552.000000	61.694502 
3551.000000	61.715769 
3550.000000	61.744427 
3549.000000	61.778044 
3548.000000	61.814188 
3547.000000	61.850309 
3546.000000	61.883711 
3545.000000	61.911797 
3544.000000	61.931967 
3543.000000	61.942076 
3542.000000	61.940431 
3541.000000	61.926722 
3540.000000	61.901593 
3539.000000	61.867117 
3538.000000	61.826276 
3537.000000	61.783027 
3536.000000	61.741518 
3535.000000	61.705708 
3534.000000	61.678910 
3533.000000	61.663293 
3532.000000	61.659622 
3531.000000	61.667490 
3530.000000	61.685109 
3529.000000	61.709356 
3528.000000	61.736607 
3527.000000	61.763024 
3526.000000	61.785149 
3525.000000	61.800408 
3524.000000	61.807394 
3523.000000	61.805987 
3522.000000	61.797404 
3521.000000	61.783599 
3520.000000	61.766982 
3519.000000	61.749553 
3518.000000	61.733198 
3517.000000	61.718821 
3516.000000	61.706542 
3515.000000	61.695361 
3514.000000	61.683821 
3513.000000	61.670327 
3512.000000	61.653280 
3511.000000	61.632037 
3510.000000	61.606574 
3509.000000	61.578583 
3508.000000	61.550545 
3507.000000	61.526346 
3506.000000	61.510229 
3505.000000	61.506032 
3504.000000	61.516571 
3503.000000	61.542296 
3502.000000	61.580753 
3501.000000	61.626911 
3500.000000	61.673879 
3499.000000	61.714434 
3498.000000	61.742377 
3497.000000	61.753940 
3496.000000	61.748266 
3495.000000	61.727285 
3494.000000	61.695003 
3493.000000	61.656117 
3492.000000	61.615133 
3491.000000	61.575603 
3490.000000	61.539602 
3489.000000	61.508440 
3488.000000	61.482596 
3487.000000	61.462426 
3486.000000	61.448097 
3485.000000	61.439800 
3484.000000	61.437606 
3483.000000	61.440467 
3482.000000	61.446905 
3481.000000	61.454176 
3480.000000	61.460137 
3479.000000	61.463046 
3478.000000	61.462807 
3477.000000	61.460828 
3476.000000	61.459708 
3475.000000	61.462593 
3474.000000	61.472010 
3473.000000	61.489033 
3472.000000	61.513113 
3471.000000	61.542177 
3470.000000	61.573147 
3469.000000	61.602973 
3468.000000	61.629247 
3467.000000	61.650633 
3466.000000	61.666965 
3465.000000	61.678934 
3464.000000	61.687564 
3463.000000	61.693978 
3462.000000	61.698937 
3461.000000	61.702704 
3460.000000	61.705374 
3459.000000	61.706709 
3458.000000	61.707162 
3457.000000	61.706995 
3456.000000	61.706614 
3455.000000	61.705732 
3454.000000	61.703562 
3453.000000	61.698555 
3452.000000	61.688852 
3451.000000	61.672616 
3450.000000	61.648845 
3449.000000	61.617898 
3448.000000	61.581754 
3447.000000	61.543655 
3446.000000	61.507916 
3445.000000	61.478757 
3444.000000	61.459565 
3443.000000	61.452007 
3442.000000	61.455798 
3441.000000	61.468648 
3440.000000	61.486959 
3439.000000	61.506319 
3438.000000	61.522579 
3437.000000	61.532855 
3436.000000	61.535954 
3435.000000	61.532163 
3434.000000	61.523270 
3433.000000	61.511921 
3432.000000	61.500954 
3431.000000	61.492800 
3430.000000	61.488580 
3429.000000	61.488604 
3428.000000	61.491751 
3427.000000	61.496090 
3426.000000	61.499285 
3425.000000	61.499261 
3424.000000	61.494565 
3423.000000	61.484861 
3422.000000	61.471152 
3421.000000	61.455512 
3420.000000	61.440801 
3419.000000	61.430072 
3418.000000	61.425614 
3417.000000	61.428308 
3416.000000	61.437559 
3415.000000	61.451125 
3414.000000	61.465573 
3413.000000	61.477065 
3412.000000	61.482286 
3411.000000	61.479258 
3410.000000	61.467647 
3409.000000	61.448693 
3408.000000	61.425089 
3407.000000	61.399817 
3406.000000	61.375594 
3405.000000	61.353969 
3404.000000	61.335086 
3403.000000	61.317563 
3402.000000	61.299443 
3401.000000	61.278486 
3400.000000	61.253285 
3399.000000	61.223506 
3398.000000	61.190271 
3397.000000	61.156010 
3396.000000	61.123800 
3395.000000	61.097049 
3394.000000	61.078548 
3393.000000	61.070227 
3392.000000	61.072564 
3391.000000	61.084532 
3390.000000	61.103916 
3389.000000	61.127519 
3388.000000	61.151957 
3387.000000	61.174273 
3386.000000	61.192607 
3385.000000	61.206197 
3384.000000	61.215543 
3383.000000	61.222290 
3382.000000	61.228227 
3381.000000	61.235189 
3380.000000	61.243963 
3379.000000	61.254072 
3378.000000	61.263537 
3377.000000	61.269783 
3376.000000	61.270046 
3375.000000	61.262178 
3374.000000	61.245560 
3373.000000	61.221432 
3372.000000	61.192846 
3371.000000	61.163902 
3370.000000	61.139202 
3369.000000	61.122798 
3368.000000	61.117339 
3367.000000	61.123728 
3366.000000	61.140799 
3365.000000	61.165881 
3364.000000	61.194801 
3363.000000	61.222863 
3362.000000	61.245203 
3361.000000	61.257767 
3360.000000	61.257743 
3359.000000	61.244320 
3358.000000	61.218500 
3357.000000	61.183309 
3356.000000	61.143469 
3355.000000	61.104798 
3354.000000	61.073112 
3353.000000	61.053085 
3352.000000	61.047482 
3351.000000	61.056494 
3350.000000	61.077499 
3349.000000	61.105871 
3348.000000	61.135983 
3347.000000	61.162400 
3346.000000	61.180973 
3345.000000	61.189794 
3344.000000	61.189413 
3343.000000	61.182379 
3342.000000	61.172342 
3341.000000	61.162877 
3340.000000	61.156487 
3339.000000	61.153984 
3338.000000	61.154532 
3337.000000	61.155772 
3336.000000	61.154866 
3335.000000	61.149096 
3334.000000	61.136889 
3333.000000	61.117935 
3332.000000	61.093640 
3331.000000	61.066079 
3330.000000	61.037826 
3329.000000	61.011505 
3328.000000	60.989117 
3327.000000	60.972046 
3326.000000	60.960435 
3325.000000	60.953569 
3324.000000	60.949730 
3323.000000	60.946965 
3322.000000	60.943245 
3321.000000	60.936641 
3320.000000	60.926055 
3319.000000	60.911226 
3318.000000	60.893154 
3317.000000	60.873770 
3316.000000	60.855603 
3315.000000	60.841393 
3314.000000	60.833239 
3313.000000	60.832118 
3312.000000	60.837554 
3311.000000	60.847449 
3310.000000	60.858392 
3309.000000	60.866451 
3308.000000	60.867834 
3307.000000	60.859775 
3306.000000	60.841250 
3305.000000	60.813260 
3304.000000	60.778427 
3303.000000	60.740804 
3302.000000	60.704898 
3301.000000	60.675168 
3300.000000	60.654902 
3299.000000	60.646009 
3298.000000	60.648870 
3297.000000	60.662412 
3296.000000	60.684609 
3295.000000	60.712981 
3294.000000	60.744667 
3293.000000	60.777139 
3292.000000	60.808134 
3291.000000	60.836076 
3290.000000	60.859751 
3289.000000	60.878467 
3288.000000	60.891938 
3287.000000	60.899877 
3286.000000	60.901927 
3285.000000	60.897612 
3284.000000	60.886716 
3283.000000	60.868978 
3282.000000	60.844540 
3281.000000	60.813879 
3280.000000	60.778021 
3279.000000	60.738182 
3278.000000	60.695552 
3277.000000	60.651159 
3276.000000	60.605907 
3275.000000	60.560655 
3274.000000	60.516715 
3273.000000	60.475492 
3272.000000	60.438990 
3271.000000	60.409474 
3270.000000	60.389256 
3269.000000	60.379838 
3268.000000	60.382008 
3267.000000	60.394978 
3266.000000	60.416889 
3265.000000	60.444474 
3264.000000	60.474133 
3263.000000	60.502552 
3262.000000	60.527372 
3261.000000	60.547351 
3260.000000	60.562944 
3259.000000	60.575699 
3258.000000	60.587692 
3257.000000	60.600733 
3256.000000	60.615754 
3255.000000	60.632491 
3254.000000	60.649418 
3253.000000	60.664081 
3252.000000	60.673427 
3251.000000	60.674619 
3250.000000	60.665678 
3249.000000	60.645914 
3248.000000	60.615777 
3247.000000	60.577058 
3246.000000	60.532689 
3245.000000	60.486388 
3244.000000	60.441970 
3243.000000	60.403108 
3242.000000	60.373115 
3241.000000	60.354113 
3240.000000	60.347056 
3239.000000	60.351276 
3238.000000	60.364580 
3237.000000	60.383629 
3236.000000	60.404419 
3235.000000	60.422825 
3234.000000	60.435271 
3233.000000	60.439348 
3232.000000	60.434031 
3231.000000	60.419797 
3230.000000	60.398292 
3229.000000	60.371756 
3228.000000	60.342621 
3227.000000	60.313129 
3226.000000	60.284972 
3225.000000	60.259270 
3224.000000	60.236740 
3223.000000	60.217952 
3222.000000	60.203409 
3221.000000	60.193586 
3220.000000	60.188817 
3219.000000	60.189247 
3218.000000	60.194396 
3217.000000	60.203194 
3216.000000	60.213875 
3215.000000	60.224318 
3214.000000	60.232234 
3213.000000	60.235548 
3212.000000	60.232949 
3211.000000	60.223984 
3210.000000	60.209488 
3209.000000	60.191297 
3208.000000	60.172152 
3207.000000	60.155010 
3206.000000	60.142898 
3205.000000	60.138225 
3204.000000	60.142350 
3203.000000	60.155224 
3202.000000	60.175466 
3201.000000	60.200500 
3200.000000	60.227131 
3199.000000	60.252141 
3198.000000	60.273146 
3197.000000	60.289216 
3196.000000	60.300946 
3195.000000	60.310363 
3194.000000	60.320353 
3193.000000	60.333466 
3192.000000	60.351586 
3191.000000	60.374760 
3190.000000	60.401225 
3189.000000	60.427498 
3188.000000	60.449600 
3187.000000	60.463428 
3186.000000	60.466051 
3185.000000	60.456037 
3184.000000	60.434174 
3183.000000	60.402917 
3182.000000	60.365819 
3181.000000	60.326743 
3180.000000	60.289120 
3179.000000	60.255455 
3178.000000	60.227084 
3177.000000	60.204386 
3176.000000	60.187005 
3175.000000	60.174298 
3174.000000	60.165691 
3173.000000	60.160398 
3172.000000	60.157775 
3171.000000	60.157060 
3170.000000	60.157537 
3169.000000	60.158038 
3168.000000	60.157489 
3167.000000	60.155129 
3166.000000	60.150837 
3165.000000	60.145044 
3164.000000	60.138726 
3163.000000	60.133409 
3162.000000	60.130715 
3161.000000	60.131645 
3160.000000	60.136532 
3159.000000	60.144591 
3158.000000	60.154104 
3157.000000	60.162901 
3156.000000	60.168528 
3155.000000	60.168933 
3154.000000	60.162878 
3153.000000	60.150289 
3152.000000	60.132074 
3151.000000	60.109925 
3150.000000	60.085916 
3149.000000	60.062289 
3148.000000	60.040950 
3147.000000	60.023093 
3146.000000	60.009336 
3145.000000	59.999465 
3144.000000	59.992694 
3143.000000	59.987807 
3142.000000	59.983110 
3141.000000	59.976840 
3140.000000	59.967303 
3139.000000	59.953284 
3138.000000	59.934020 
3137.000000	59.909915 
3136.000000	59.882259 
3135.000000	59.853601 
3134.000000	59.827017 
3133.000000	59.806108 
3132.000000	59.793972 
3131.000000	59.792971 
3130.000000	59.803891 
3129.000000	59.825921 
3128.000000	59.856748 
3127.000000	59.892916 
3126.000000	59.930324 
3125.000000	59.964656 
3124.000000	59.992027 
3123.000000	60.009288 
3122.000000	60.014486 
3121.000000	60.006928 
3120.000000	59.987211 
3119.000000	59.957146 
3118.000000	59.919428 
3117.000000	59.877252 
3116.000000	59.833955 
3115.000000	59.792542 
3114.000000	59.755587 
3113.000000	59.724950 
3112.000000	59.701728 
3111.000000	59.686279 
3110.000000	59.678339 
3109.000000	59.677052 
3108.000000	59.681344 
3107.000000	59.689760 
3106.000000	59.700655 
3105.000000	59.712433 
3104.000000	59.723591 
3103.000000	59.732770 
3102.000000	59.739136 
3101.000000	59.742259 
3100.000000	59.742307 
3099.000000	59.740018 
3098.000000	59.736394 
3097.000000	59.732532 
3096.000000	59.729146 
3095.000000	59.726572 
3094.000000	59.724617 
3093.000000	59.722781 
3092.000000	59.720182 
3091.000000	59.715890 
3090.000000	59.709167 
3089.000000	59.699606 
3088.000000	59.687447 
3087.000000	59.673523 
3086.000000	59.659171 
3085.000000	59.646034 
3084.000000	59.635853 
3083.000000	59.629869 
3082.000000	59.628653 
3081.000000	59.631943 
3080.000000	59.638500 
3079.000000	59.646677 
3078.000000	59.654426 
3077.000000	59.660339 
3076.000000	59.663605 
3075.000000	59.664654 
3074.000000	59.664916 
3073.000000	59.666466 
3072.000000	59.671354 
3071.000000	59.680724 
3070.000000	59.694385 
3069.000000	59.710645 
3068.000000	59.726595 
3067.000000	59.738969 
3066.000000	59.744930 
3065.000000	59.742927 
3064.000000	59.733200 
3063.000000	59.717512 
3062.000000	59.698677 
3061.000000	59.679460 
3060.000000	59.662032 
3059.000000	59.647297 
3058.000000	59.634923 
3057.000000	59.623575 
3056.000000	59.611558 
3055.000000	59.597826 
3054.000000	59.581947 
3053.000000	59.564781 
3052.000000	59.547829 
3051.000000	59.532642 
3050.000000	59.520363 
3049.000000	59.511017 
3048.000000	59.503960 
3047.000000	59.497857 
3046.000000	59.491682 
3045.000000	59.484910 
3044.000000	59.478282 
3043.000000	59.473824 
3042.000000	59.474134 
3041.000000	59.481573 
3040.000000	59.497523 
3039.000000	59.521651 
3038.000000	59.551572 
3037.000000	59.582972 
3036.000000	59.610676 
3035.000000	59.629654 
3034.000000	59.636044 
3033.000000	59.628009 
3032.000000	59.606266 
3031.000000	59.573698 
3030.000000	59.534907 
3029.000000	59.495043 
3028.000000	59.458827 
3027.000000	59.429669 
3026.000000	59.409332 
3025.000000	59.397649 
3024.000000	59.392881 
3023.000000	59.392070 
3022.000000	59.392189 
3021.000000	59.390521 
3020.000000	59.385108 
3019.000000	59.375357 
3018.000000	59.361553 
3017.000000	59.344863 
3016.000000	59.326815 
3015.000000	59.308838 
3014.000000	59.291958 
3013.000000	59.276413 
3012.000000	59.261894 
3011.000000	59.247541 
3010.000000	59.232306 
3009.000000	59.215259 
3008.000000	59.195947 
3007.000000	59.174489 
3006.000000	59.151721 
3005.000000	59.128856 
3004.000000	59.107422 
3003.000000	59.088873 
3002.000000	59.074521 
3001.000000	59.065175 
3000.000000	59.061479 
2999.000000	59.063482 
2998.000000	59.070658 
2997.000000	59.082078 
2996.000000	59.096336 
2995.000000	59.111595 
2994.000000	59.126162 
2993.000000	59.138298 
2992.000000	59.146738 
2991.000000	59.150695 
2990.000000	59.150147 
2989.000000	59.145808 
2988.000000	59.138655 
2987.000000	59.129929 
2986.000000	59.120512 
2985.000000	59.110927 
2984.000000	59.101271 
2983.000000	59.091496 
2982.000000	59.081554 
2981.000000	59.071803 
2980.000000	59.063076 
2979.000000	59.056520 
2978.000000	59.053182 
2977.000000	59.053468 
2976.000000	59.056949 
2975.000000	59.062075 
2974.000000	59.066510 
2973.000000	59.067797 
2972.000000	59.063982 
2971.000000	59.054112 
2970.000000	59.038972 
2969.000000	59.020400 
2968.000000	59.001255 
2967.000000	58.984184 
2966.000000	58.970832 
2965.000000	58.961415 
2964.000000	58.954429 
2963.000000	58.947277 
2962.000000	58.937311 
2961.000000	58.922529 
2960.000000	58.902430 
2959.000000	58.878111 
2958.000000	58.852148 
2957.000000	58.827543 
2956.000000	58.806991 
2955.000000	58.791971 
2954.000000	58.782362 
2953.000000	58.776617 
2952.000000	58.772158 
2951.000000	58.766460 
2950.000000	58.757638 
2949.000000	58.745002 
2948.000000	58.729004 
2947.000000	58.710813 
2946.000000	58.692026 
2945.000000	58.673858 
2944.000000	58.657240 
2943.000000	58.642625 
2942.000000	58.630251 
2941.000000	58.620595 
2940.000000	58.613920 
2939.000000	58.610296 
2938.000000	58.609223 
2937.000000	58.609604 
2936.000000	58.609771 
2935.000000	58.607792 
2934.000000	58.601856 
2933.000000	58.590793 
2932.000000	58.574175 
2931.000000	58.552432 
2930.000000	58.526754 
2929.000000	58.498716 
2928.000000	58.470225 
2927.000000	58.443021 
2926.000000	58.418464 
2925.000000	58.397555 
2924.000000	58.380627 
2923.000000	58.367681 
2922.000000	58.358550 
2921.000000	58.353233 
2920.000000	58.351731 
2919.000000	58.354783 
2918.000000	58.362865 
2917.000000	58.376669 
2916.000000	58.396244 
2915.000000	58.421063 
2914.000000	58.449625 
2913.000000	58.479571 
2912.000000	58.508014 
2911.000000	58.531785 
2910.000000	58.548331 
2909.000000	58.555936 
2908.000000	58.554267 
2907.000000	58.544349 
2906.000000	58.528375 
2905.000000	58.509111 
2904.000000	58.489203 
2903.000000	58.470797 
2902.000000	58.454942 
2901.000000	58.441448 
2900.000000	58.429384 
2899.000000	58.417415 
2898.000000	58.404541 
2897.000000	58.390378 
2896.000000	58.375620 
2895.000000	58.361840 
2894.000000	58.351278 
2893.000000	58.345961 
2892.000000	58.347296 
2891.000000	58.355331 
2890.000000	58.368706 
2889.000000	58.384847 
2888.000000	58.400297 
2887.000000	58.411669 
2886.000000	58.416008 
2885.000000	58.411765 
2884.000000	58.398818 
2883.000000	58.378458 
2882.000000	58.353328 
2881.000000	58.326601 
2880.000000	58.301544 
2879.000000	58.280730 
2878.000000	58.265829 
2877.000000	58.257365 
2876.000000	58.254790 
2875.000000	58.256626 
2874.000000	58.261036 
2873.000000	58.265948 
2872.000000	58.269500 
2871.000000	58.270144 
2870.000000	58.266687 
2869.000000	58.258342 
2868.000000	58.244729 
2867.000000	58.225989 
2866.000000	58.202743 
2865.000000	58.176302 
2864.000000	58.148527 
2863.000000	58.121538 
2862.000000	58.097743 
2861.000000	58.079361 
2860.000000	58.067989 
2859.000000	58.064532 
2858.000000	58.068895 
2857.000000	58.080172 
2856.000000	58.096551 
2855.000000	58.115959 
2854.000000	58.136224 
2853.000000	58.155298 
2852.000000	58.171343 
2851.000000	58.182668 
2850.000000	58.187866 
2849.000000	58.185601 
2848.000000	58.175110 
2847.000000	58.156371 
2846.000000	58.130216 
2845.000000	58.098769 
2844.000000	58.065152 
2843.000000	58.032989 
2842.000000	58.005976 
2841.000000	57.986831 
2840.000000	57.977151 
2839.000000	57.976889 
2838.000000	57.984495 
2837.000000	57.997226 
2836.000000	58.012104 
2835.000000	58.026218 
2834.000000	58.037686 
2833.000000	58.045434 
2832.000000	58.049631 
2831.000000	58.050894 
2830.000000	58.050179 
2829.000000	58.048200 
2828.000000	58.045554 
2827.000000	58.042359 
2826.000000	58.038663 
2825.000000	58.034515 
2824.000000	58.030128 
2823.000000	58.026123 
2822.000000	58.023142 
2821.000000	58.021759 
2820.000000	58.022499 
2819.000000	58.025622 
2818.000000	58.031082 
2817.000000	58.038473 
2816.000000	58.046889 
2815.000000	58.055233 
2814.000000	58.062243 
2813.000000	58.066630 
2812.000000	58.067250 
2811.000000	58.063340 
2810.000000	58.054518 
2809.000000	58.041191 
2808.000000	58.024263 
2807.000000	58.005261 
2806.000000	57.986092 
2805.000000	57.968616 
2804.000000	57.954549 
2803.000000	57.945084 
2802.000000	57.940387 
2801.000000	57.939791 
2800.000000	57.942104 
2799.000000	57.945585 
2798.000000	57.948207 
2797.000000	57.948255 
2796.000000	57.944655 
2795.000000	57.936930 
2794.000000	57.925295 
2793.000000	57.910943 
2792.000000	57.895708 
2791.000000	57.881712 
2790.000000	57.870960 
2789.000000	57.864952 
2788.000000	57.864451 
2787.000000	57.869219 
2786.000000	57.878065 
2785.000000	57.889199 
2784.000000	57.900476 
2783.000000	57.909893 
2782.000000	57.915735 
2781.000000	57.916951 
2780.000000	57.912993 
2779.000000	57.904052 
2778.000000	57.890510 
2777.000000	57.873010 
2776.000000	57.852053 
2775.000000	57.828187 
2774.000000	57.801842 
2773.000000	57.773423 
2772.000000	57.743287 
2771.000000	57.711982 
2770.000000	57.680153 
2769.000000	57.648658 
2768.000000	57.618427 
2767.000000	57.590341 
2766.000000	57.565140 
2765.000000	57.543516 
2764.000000	57.525897 
2763.000000	57.512450 
2762.000000	57.502961 
2761.000000	57.497191 
2760.000000	57.494473 
2759.000000	57.494354 
2758.000000	57.496142 
2757.000000	57.499790 
2756.000000	57.505154 
2755.000000	57.512378 
2754.000000	57.521843 
2753.000000	57.533884 
2752.000000	57.548427 
2751.000000	57.564878 
2750.000000	57.581901 
2749.000000	57.597517 
2748.000000	57.609391 
2747.000000	57.615113 
2746.000000	57.612609 
2745.000000	57.600855 
2744.000000	57.580161 
2743.000000	57.552313 
2742.000000	57.520151 
2741.000000	57.487273 
2740.000000	57.457375 
2739.000000	57.433724 
2738.000000	57.418227 
2737.000000	57.411527 
2736.000000	57.412576 
2735.000000	57.419228 
2734.000000	57.428383 
2733.000000	57.436871 
2732.000000	57.441830 
2731.000000	57.441210 
2730.000000	57.434248 
2729.000000	57.421183 
2728.000000	57.403564 
2727.000000	57.383632 
2726.000000	57.364225 
2725.000000	57.347941 
2724.000000	57.337093 
2723.000000	57.333350 
2722.000000	57.337331 
2721.000000	57.348608 
2720.000000	57.365703 
2719.000000	57.386612 
2718.000000	57.408809 
2717.000000	57.429671 
2716.000000	57.447004 
2715.000000	57.459092 
2714.000000	57.465076 
2713.000000	57.464575 
2712.000000	57.457661 
2711.000000	57.444882 
2710.000000	57.426905 
2709.000000	57.404613 
2708.000000	57.379078 
2707.000000	57.351636 
2706.000000	57.324028 
2705.000000	57.298088 
2704.000000	57.275867 
2703.000000	57.258796 
2702.000000	57.247662 
2701.000000	57.241892 
2700.000000	57.239794 
2699.000000	57.238793 
2698.000000	57.235693 
2697.000000	57.227611 
2696.000000	57.212495 
2695.000000	57.189846 
2694.000000	57.160854 
2693.000000	57.128334 
2692.000000	57.095718 
2691.000000	57.066583 
2690.000000	57.043790 
2689.000000	57.028841 
2688.000000	57.021784 
2687.000000	57.021141 
2686.000000	57.024455 
2685.000000	57.029080 
2684.000000	57.032585 
2683.000000	57.033181 
2682.000000	57.029867 
2681.000000	57.022356 
2680.000000	57.011175 
2679.000000	56.997013 
2678.000000	56.980752 
2677.000000	56.963253 
2676.000000	56.945610 
2675.000000	56.928968 
2674.000000	56.914710 
2673.000000	56.904196 
2672.000000	56.898880 
2671.000000	56.899690 
2670.000000	56.907105 
2669.000000	56.920719 
2668.000000	56.939482 
2667.000000	56.961703 
2666.000000	56.985330 
2665.000000	57.008242 
2664.000000	57.028603 
2663.000000	57.044887 
2662.000000	57.056021 
2661.000000	57.061338 
2660.000000	57.060527 
2659.000000	57.053518 
2658.000000	57.040357 
2657.000000	57.021188 
2656.000000	56.996703 
2655.000000	56.968021 
2654.000000	56.936860 
2653.000000	56.905221 
2652.000000	56.875467 
2651.000000	56.849503 
2650.000000	56.828594 
2649.000000	56.812906 
2648.000000	56.801700 
2647.000000	56.793427 
2646.000000	56.786060 
2645.000000	56.777882 
2644.000000	56.767868 
2643.000000	56.755781 
2642.000000	56.742143 
2641.000000	56.728053 
2640.000000	56.714463 
2639.000000	56.702065 
2638.000000	56.690788 
2637.000000	56.679868 
2636.000000	56.668090 
2635.000000	56.654334 
2634.000000	56.638097 
2633.000000	56.619739 
2632.000000	56.600356 
2631.000000	56.581711 
2630.000000	56.565880 
2629.000000	56.554365 
2628.000000	56.548142 
2627.000000	56.547141 
2626.000000	56.550788 
2625.000000	56.557917 
2624.000000	56.567215 
2623.000000	56.577563 
2622.000000	56.588220 
2621.000000	56.598639 
2620.000000	56.608510 
2619.000000	56.617546 
2618.000000	56.625270 
2617.000000	56.631088 
2616.000000	56.634211 
2615.000000	56.633782 
2614.000000	56.628942 
2613.000000	56.619310 
2612.000000	56.604743 
2611.000000	56.585621 
2610.000000	56.562614 
2609.000000	56.536936 
2608.000000	56.509971 
2607.000000	56.483387 
2606.000000	56.458830 
2605.000000	56.437897 
2604.000000	56.421709 
2603.000000	56.410551 
2602.000000	56.403946 
2601.000000	56.400561 
2600.000000	56.398367 
2599.000000	56.395149 
2598.000000	56.388807 
2597.000000	56.378054 
2596.000000	56.362366 
2595.000000	56.342601 
2594.000000	56.320500 
2593.000000	56.298565 
2592.000000	56.279683 
2591.000000	56.266331 
2590.000000	56.260275 
2589.000000	56.261992 
2588.000000	56.270790 
2587.000000	56.284761 
2586.000000	56.301116 
2585.000000	56.316828 
2584.000000	56.329059 
2583.000000	56.335783 
2582.000000	56.336116 
2581.000000	56.330370 
2580.000000	56.319880 
2579.000000	56.306838 
2578.000000	56.293749 
2577.000000	56.282687 
2576.000000	56.275033 
2575.000000	56.271266 
2574.000000	56.270885 
2573.000000	56.272602 
2572.000000	56.274700 
2571.000000	56.275510 
2570.000000	56.273889 
2569.000000	56.269264 
2568.000000	56.261897 
2567.000000	56.252479 
2566.000000	56.241774 
2565.000000	56.230783 
2564.000000	56.219887 
2563.000000	56.209206 
2562.000000	56.198167 
2561.000000	56.186127 
2560.000000	56.172323 
2559.000000	56.156349 
2558.000000	56.138205 
2557.000000	56.118750 
2556.000000	56.099176 
2555.000000	56.080937 
2554.000000	56.065368 
2553.000000	56.053686 
2552.000000	56.046366 
2551.000000	56.043338 
2550.000000	56.044077 
2549.000000	56.047725 
2548.000000	56.053519 
2547.000000	56.060671 
2546.000000	56.068563 
2545.000000	56.076622 
2544.000000	56.084251 
2543.000000	56.090736 
2542.000000	56.095004 
2541.000000	56.095743 
2540.000000	56.091761 
2539.000000	56.082057 
2538.000000	56.066203 
2537.000000	56.044435 
2536.000000	56.017923 
2535.000000	55.988264 
2534.000000	55.957198 
2533.000000	55.926489 
2532.000000	55.897426 
2531.000000	55.870962 
2530.000000	55.847549 
2529.000000	55.827307 
2528.000000	55.810260 
2527.000000	55.796480 
2526.000000	55.786228 
2525.000000	55.779671 
2524.000000	55.776882 
2523.000000	55.777597 
2522.000000	55.781269 
2521.000000	55.787110 
2520.000000	55.794072 
2519.000000	55.801200 
2518.000000	55.807924 
2517.000000	55.813956 
2516.000000	55.819320 
2515.000000	55.824327 
2514.000000	55.829167 
2513.000000	55.833673 
2512.000000	55.837321 
2511.000000	55.839347 
2510.000000	55.838751 
2509.000000	55.834913 
2508.000000	55.827474 
2507.000000	55.816793 
2506.000000	55.803728 
2505.000000	55.789589 
2504.000000	55.775356 
2503.000000	55.761480 
2502.000000	55.747675 
2501.000000	55.733084 
2500.000000	55.716419 
2499.000000	55.696487 
2498.000000	55.672812 
2497.000000	55.645823 
2496.000000	55.616974 
2495.000000	55.588507 
2494.000000	55.562806 
2493.000000	55.542039 
2492.000000	55.527400 
2491.000000	55.519056 
2490.000000	55.515861 
2489.000000	55.515956 
2488.000000	55.517148 
2487.000000	55.517482 
2486.000000	55.515623 
2485.000000	55.511188 
2484.000000	55.504631 
2483.000000	55.497241 
2482.000000	55.490183 
2481.000000	55.484771 
2480.000000	55.481982 
2479.000000	55.482101 
2478.000000	55.485081 
2477.000000	55.490136 
2476.000000	55.496215 
2475.000000	55.501914 
2474.000000	55.505967 
2473.000000	55.507159 
2472.000000	55.504465 
2471.000000	55.497336 
2470.000000	55.485606 
2469.000000	55.469560 
2468.000000	55.449652 
2467.000000	55.426812 
2466.000000	55.402088 
2465.000000	55.376553 
2464.000000	55.351209 
2463.000000	55.327033 
2462.000000	55.304741 
2461.000000	55.284953 
2460.000000	55.267786 
2459.000000	55.253052 
2458.000000	55.240392 
2457.000000	55.229043 
2456.000000	55.218362 
2455.000000	55.207347 
2454.000000	55.195736 
2453.000000	55.183720 
2452.000000	55.172061 
2451.000000	55.161905 
2450.000000	55.154347 
2449.000000	55.150341 
2448.000000	55.149960 
2447.000000	55.152392 
2446.000000	55.155920 
2445.000000	55.158472 
2444.000000	55.158042 
2443.000000	55.153203 
2442.000000	55.143594 
2441.000000	55.130076 
2440.000000	55.114507 
2439.000000	55.099344 
2438.000000	55.087065 
2437.000000	55.079507 
2436.000000	55.077695 
2435.000000	55.081462 
2434.000000	55.089616 
2433.000000	55.100250 
2432.000000	55.111408 
2431.000000	55.121231 
2430.000000	55.128335 
2429.000000	55.131530 
2428.000000	55.130195 
2427.000000	55.123853 
2426.000000	55.112051 
2425.000000	55.094575 
2424.000000	55.071401 
2423.000000	55.042934 
2422.000000	55.010390 
2421.000000	54.975557 
2420.000000	54.941082 
2419.000000	54.909682 
2418.000000	54.883956 
2417.000000	54.865694 
2416.000000	54.855513 
2415.000000	54.852819 
2414.000000	54.855942 
2413.000000	54.862213 
2412.000000	54.868865 
2411.000000	54.873657 
2410.000000	54.875326 
2409.000000	54.873466 
2408.000000	54.868721 
2407.000000	54.862380 
2406.000000	54.855751 
2405.000000	54.849934 
2404.000000	54.845333 
2403.000000	54.841661 
2402.000000	54.838013 
2401.000000	54.833412 
2400.000000	54.826903 
2399.000000	54.818081 
2398.000000	54.807066 
2397.000000	54.794692 
2396.000000	54.782009 
2395.000000	54.770278 
2394.000000	54.760503 
2393.000000	54.753279 
2392.000000	54.748558 
2391.000000	54.745674 
2390.000000	54.743480 
2389.000000	54.740738 
2388.000000	54.735994 
2387.000000	54.727792 
2386.000000	54.715108 
2385.000000	54.697251 
2384.000000	54.674100 
2383.000000	54.646110 
2382.000000	54.614543 
2381.000000	54.581022 
2380.000000	54.547786 
2379.000000	54.517102 
2378.000000	54.491233 
2377.000000	54.471826 
2376.000000	54.460024 
2375.000000	54.456114 
2374.000000	54.459285 
2373.000000	54.468083 
2372.000000	54.480481 
2371.000000	54.494309 
2370.000000	54.507231 
2369.000000	54.517507 
2368.000000	54.523801 
2367.000000	54.525732 
2366.000000	54.523444 
2365.000000	54.517626 
2364.000000	54.509258 
2363.000000	54.499387 
2362.000000	54.488849 
2361.000000	54.478216 
2360.000000	54.467558 
2359.000000	54.456758 
2358.000000	54.445528 
2357.000000	54.433679 
2356.000000	54.421186 
2355.000000	54.408454 
2354.000000	54.396104 
2353.000000	54.384946 
2352.000000	54.375576 
2351.000000	54.368233 
2350.000000	54.362559 
2349.000000	54.357457 
2348.000000	54.351353 
2347.000000	54.342555 
2346.000000	54.329705 
2345.000000	54.311990 
2344.000000	54.289746 
2343.000000	54.264116 
2342.000000	54.237246 
2341.000000	54.211616 
2340.000000	54.189443 
2339.000000	54.172325 
2338.000000	54.160857 
2337.000000	54.154825 
2336.000000	54.153180 
2335.000000	54.154467 
2334.000000	54.157018 
2333.000000	54.159617 
2332.000000	54.161334 
2331.000000	54.161620 
2330.000000	54.160213 
2329.000000	54.156827 
2328.000000	54.151105 
2327.000000	54.142642 
2326.000000	54.131078 
2325.000000	54.116225 
2324.000000	54.098486 
2323.000000	54.078865 
2322.000000	54.058885 
2321.000000	54.040479 
2320.000000	54.025506 
2319.000000	54.015660 
2318.000000	54.011893 
2317.000000	54.014277 
2316.000000	54.021883 
2315.000000	54.032754 
2314.000000	54.044318 
2313.000000	54.053783 
2312.000000	54.058599 
2311.000000	54.057002 
2310.000000	54.048418 
2309.000000	54.033541 
2308.000000	54.014182 
2307.000000	53.992795 
2306.000000	53.971958 
2305.000000	53.953766 
2304.000000	53.939437 
2303.000000	53.929090 
2302.000000	53.921675 
2301.000000	53.915643 
2300.000000	53.909182 
2299.000000	53.900790 
2298.000000	53.889584 
2297.000000	53.875637 
2296.000000	53.859829 
2295.000000	53.843283 
2294.000000	53.827357 
2293.000000	53.812956 
2292.000000	53.800535 
2291.000000	53.790092 
2290.000000	53.781199 
2289.000000	53.773307 
2288.000000	53.765845 
2287.000000	53.758597 
2286.000000	53.751444 
2285.000000	53.744339 
2284.000000	53.737354 
2283.000000	53.730654 
2282.000000	53.724288 
2281.000000	53.717970 
2280.000000	53.711533 
2279.000000	53.704833 
2278.000000	53.697848 
2277.000000	53.690767 
2276.000000	53.683996 
2275.000000	53.678131 
2274.000000	53.673815 
2273.000000	53.671526 
2272.000000	53.671646 
2271.000000	53.674054 
2270.000000	53.678274 
2269.000000	53.683447 
2268.000000	53.688454 
2267.000000	53.691911 
2266.000000	53.692626 
2265.000000	53.689455 
2264.000000	53.681540 
2263.000000	53.668236 
2262.000000	53.649520 
2261.000000	53.625607 
2260.000000	53.597140 
2259.000000	53.565096 
2258.000000	53.530788 
2257.000000	53.495860 
2256.000000	53.462028 
2255.000000	53.431010 
2254.000000	53.404307 
2253.000000	53.382849 
2252.000000	53.366923 
2251.000000	53.355979 
2250.000000	53.348779 
2249.000000	53.343462 
2248.000000	53.338122 
2247.000000	53.330802 
2246.000000	53.320169 
2245.000000	53.305649 
2244.000000	53.287506 
2243.000000	53.266692 
2242.000000	53.244900 
2241.000000	53.224062 
2240.000000	53.206157 
2239.000000	53.192758 
2238.000000	53.184819 
2237.000000	53.182458 
2236.000000	53.185129 
2235.000000	53.191566 
2234.000000	53.200221 
2233.000000	53.209400 
2232.000000	53.217601 
2231.000000	53.223609 
2230.000000	53.226590 
2229.000000	53.226184 
2228.000000	53.222346 
2227.000000	53.215289 
2226.000000	53.205442 
2225.000000	53.193402 
2224.000000	53.180122 
2223.000000	53.166818 
2222.000000	53.154563 
2221.000000	53.144311 
2220.000000	53.137040 
2219.000000	53.133010 
2218.000000	53.131842 
2217.000000	53.132486 
2216.000000	53.133273 
2215.000000	53.132486 
2214.000000	53.128767 
2213.000000	53.121304 
2212.000000	53.110241 
2211.000000	53.096222 
2210.000000	53.080677 
2209.000000	53.064799 
2208.000000	53.049683 
2207.000000	53.035688 
2206.000000	53.022527 
2205.000000	53.009223 
2204.000000	52.994513 
2203.000000	52.977156 
2202.000000	52.956342 
2201.000000	52.931714 
2200.000000	52.903771 
2199.000000	52.873682 
2198.000000	52.843332 
2197.000000	52.814960 
2196.000000	52.790880 
2195.000000	52.773165 
2194.000000	52.763319 
2193.000000	52.761864 
2192.000000	52.768158 
2191.000000	52.780055 
2190.000000	52.794218 
2189.000000	52.806735 
2188.000000	52.813720 
2187.000000	52.812194 
2186.000000	52.800869 
2185.000000	52.780437 
2184.000000	52.753400 
2183.000000	52.723503 
2182.000000	52.694821 
2181.000000	52.670836 
2180.000000	52.653312 
2179.000000	52.642369 
2178.000000	52.636337 
2177.000000	52.632546 
2176.000000	52.628087 
2175.000000	52.620744 
2174.000000	52.609586 
2173.000000	52.595210 
2172.000000	52.579379 
2171.000000	52.564430 
2170.000000	52.552533 
2169.000000	52.545380 
2168.000000	52.543520 
2167.000000	52.546644 
2166.000000	52.553963 
2165.000000	52.564144 
2164.000000	52.576065 
2163.000000	52.588558 
2162.000000	52.600646 
2161.000000	52.611398 
2160.000000	52.619767 
2159.000000	52.624773 
2158.000000	52.625298 
2157.000000	52.620577 
2156.000000	52.610468 
2155.000000	52.595448 
2154.000000	52.576923 
2153.000000	52.556586 
2152.000000	52.536320 
2151.000000	52.517771 
2150.000000	52.502036 
2149.000000	52.489495 
2148.000000	52.479887 
2147.000000	52.472591 
2146.000000	52.466964 
2145.000000	52.462553 
2144.000000	52.459001 
2143.000000	52.456307 
2142.000000	52.454352 
2141.000000	52.452945 
2140.000000	52.451539 
2139.000000	52.449202 
2138.000000	52.444839 
2137.000000	52.437615 
2136.000000	52.426862 
2135.000000	52.412533 
2134.000000	52.394986 
2133.000000	52.375006 
2132.000000	52.353596 
2131.000000	52.331614 
2130.000000	52.309918 
2129.000000	52.289080 
2128.000000	52.269625 
2127.000000	52.251982 
2126.000000	52.236604 
2125.000000	52.223920 
2124.000000	52.214193 
2123.000000	52.207469 
2122.000000	52.203536 
2121.000000	52.201819 
2120.000000	52.201485 
2119.000000	52.201652 
2118.000000	52.201461 
2117.000000	52.200198 
2116.000000	52.197480 
2115.000000	52.193093 
2114.000000	52.186608 
2113.000000	52.177596 
2112.000000	52.165389 
2111.000000	52.149367 
2110.000000	52.129125 
2109.000000	52.104663 
2108.000000	52.076816 
2107.000000	52.047038 
2106.000000	52.017283 
2105.000000	51.989555 
2104.000000	51.965498 
2103.000000	51.946043 
2102.000000	51.931095 
2101.000000	51.919651 
2100.000000	51.909995 
2099.000000	51.900291 
2098.000000	51.889014 
2097.000000	51.875257 
2096.000000	51.858925 
2095.000000	51.840710 
2094.000000	51.821875 
2093.000000	51.804041 
2092.000000	51.788640 
2091.000000	51.776838 
2090.000000	51.769518 
2089.000000	51.767182 
2088.000000	51.769971 
2087.000000	51.777791 
2086.000000	51.790237 
2085.000000	51.806569 
2084.000000	51.825571 
2083.000000	51.845836 
2082.000000	51.865553 
2081.000000	51.882934 
2080.000000	51.896309 
2079.000000	51.904654 
2078.000000	51.907229 
2077.000000	51.904225 
2076.000000	51.895999 
2075.000000	51.883006 
2074.000000	51.865315 
2073.000000	51.843070 
2072.000000	51.816153 
2071.000000	51.784515 
2070.000000	51.748657 
2069.000000	51.709794 
2068.000000	51.670002 
2067.000000	51.631999 
2066.000000	51.598620 
2065.000000	51.572322 
2064.000000	51.554703 
2063.000000	51.546120 
2062.000000	51.545524 
2061.000000	51.550626 
2060.000000	51.558589 
2059.000000	51.566457 
2058.000000	51.571702 
2057.000000	51.572608 
2056.000000	51.568555 
2055.000000	51.559948 
2054.000000	51.547718 
2053.000000	51.533293 
2052.000000	51.518416 
2051.000000	51.504731 
2050.000000	51.493597 
2049.000000	51.485848 
2048.000000	51.481890 
2047.000000	51.481270 
2046.000000	51.483130 
2045.000000	51.485896 
2044.000000	51.487898 
2043.000000	51.487493 
2042.000000	51.483368 
2041.000000	51.474714 
2040.000000	51.461124 
2039.000000	51.442790 
2038.000000	51.420378 
2037.000000	51.394653 
2036.000000	51.366376 
2035.000000	51.336193 
2034.000000	51.304793 
2033.000000	51.272845 
2032.000000	51.241111 
2031.000000	51.210594 
2030.000000	51.182508 
2029.000000	51.158189 
2028.000000	51.138973 
2027.000000	51.125741 
2026.000000	51.118898 
2025.000000	51.117968 
2024.000000	51.121973 
2023.000000	51.129269 
2022.000000	51.138043 
2021.000000	51.146411 
2020.000000	51.153063 
2019.000000	51.156997 
2018.000000	51.157999 
2017.000000	51.156377 
2016.000000	51.152682 
2015.000000	51.147651 
2014.000000	51.141786 
2013.000000	51.135325 
2012.000000	51.128172 
2011.000000	51.119971 
2010.000000	51.110100 
2009.000000	51.098084 
2008.000000	51.083636 
2007.000000	51.066899 
2006.000000	51.048231 
2005.000000	51.028513 
2004.000000	51.008963 
2003.000000	50.990867 
2002.000000	50.975608 
2001.000000	50.964426 
2000.000000	50.958204 
1999.000000	50.957155 
1998.000000	50.960850 
1997.000000	50.967955 
1996.000000	50.976562 
1995.000000	50.984311 
1994.000000	50.988745 
1993.000000	50.987792 
1992.000000	50.980091 
1991.000000	50.965285 
1990.000000	50.943994 
1989.000000	50.917601 
1988.000000	50.888037 
1987.000000	50.857400 
1986.000000	50.827646 
1985.000000	50.800251 
1984.000000	50.776028 
1983.000000	50.755143 
1982.000000	50.737357 
1981.000000	50.722026 
1980.000000	50.708317 
1979.000000	50.695323 
1978.000000	50.682353 
1977.000000	50.668787 
1976.000000	50.654387 
1975.000000	50.639152 
1974.000000	50.623703 
1973.000000	50.608921 
1972.000000	50.595879 
1971.000000	50.585675 
1970.000000	50.579452 
1969.000000	50.577807 
1968.000000	50.580835 
1967.000000	50.587844 
1966.000000	50.597405 
1965.000000	50.607633 
1964.000000	50.616192 
1963.000000	50.620746 
1962.000000	50.619363 
1961.000000	50.610828 
1960.000000	50.594973 
1959.000000	50.572633 
1958.000000	50.545716 
1957.000000	50.516963 
1956.000000	50.489044 
1955.000000	50.464344 
1954.000000	50.444388 
1953.000000	50.429749 
1952.000000	50.419759 
1951.000000	50.412726 
1950.000000	50.406575 
1949.000000	50.399136 
1948.000000	50.388717 
1947.000000	50.374722 
1946.000000	50.357294 
1945.000000	50.337767 
1944.000000	50.318074 
1943.000000	50.300478 
1942.000000	50.286841 
1941.000000	50.278377 
1940.000000	50.275516 
1939.000000	50.277686 
1938.000000	50.283432 
1937.000000	50.290894 
1936.000000	50.298023 
1935.000000	50.303173 
1934.000000	50.305223 
1933.000000	50.304031 
1932.000000	50.300097 
1931.000000	50.294566 
1930.000000	50.288724 
1929.000000	50.283694 
1928.000000	50.279998 
1927.000000	50.277543 
1926.000000	50.275397 
1925.000000	50.272130 
1924.000000	50.266146 
1923.000000	50.256323 
1922.000000	50.241994 
1921.000000	50.223159 
1920.000000	50.200319 
1919.000000	50.174593 
1918.000000	50.147223 
1917.000000	50.119256 
1916.000000	50.091576 
1915.000000	50.064706 
1914.000000	50.039029 
1913.000000	50.014781 
1912.000000	49.992370 
1911.000000	49.972391 
1910.000000	49.955606 
1909.000000	49.942874 
1908.000000	49.934840 
1907.000000	49.931597 
1906.000000	49.932670 
1905.000000	49.936652 
1904.000000	49.941587 
1903.000000	49.945163 
1902.000000	49.945044 
1901.000000	49.939608 
1900.000000	49.928045 
1899.000000	49.910759 
1898.000000	49.889373 
1897.000000	49.866366 
1896.000000	49.844694 
1895.000000	49.827003 
1894.000000	49.815106 
1893.000000	49.809575 
1892.000000	49.809646 
1891.000000	49.813365 
1890.000000	49.818229 
1889.000000	49.821543 
1888.000000	49.821138 
1887.000000	49.815726 
1886.000000	49.805140 
1885.000000	49.790143 
1884.000000	49.772143 
1883.000000	49.752831 
1882.000000	49.733901 
1881.000000	49.716663 
1880.000000	49.701976 
1879.000000	49.690055 
1878.000000	49.680805 
1877.000000	49.673628 
1876.000000	49.667906 
1875.000000	49.662756 
1874.000000	49.657607 
1873.000000	49.651861 
1872.000000	49.645280 
1871.000000	49.637913 
1870.000000	49.630284 
1869.000000	49.623060 
1868.000000	49.617171 
1867.000000	49.613332 
1866.000000	49.611854 
1865.000000	49.612569 
1864.000000	49.614381 
1863.000000	49.615693 
1862.000000	49.614405 
1861.000000	49.608373 
1860.000000	49.595928 
1859.000000	49.576234 
1858.000000	49.549484 
1857.000000	49.517035 
1856.000000	49.481344 
1855.000000	49.445247 
1854.000000	49.411702 
1853.000000	49.383115 
1852.000000	49.360799 
1851.000000	49.345111 
1850.000000	49.335122 
1849.000000	49.329257 
1848.000000	49.325704 
1847.000000	49.322938 
1846.000000	49.320030 
1845.000000	49.316716 
1844.000000	49.313354 
1843.000000	49.310517 
1842.000000	49.308586 
1841.000000	49.307703 
1840.000000	49.307370 
1839.000000	49.306678 
1838.000000	49.304652 
1837.000000	49.300336 
1836.000000	49.293541 
1835.000000	49.284625 
1834.000000	49.274539 
1833.000000	49.264693 
1832.000000	49.256348 
1831.000000	49.250435 
1830.000000	49.247050 
1829.000000	49.245572 
1828.000000	49.244737 
1827.000000	49.242877 
1826.000000	49.238586 
1825.000000	49.230766 
1824.000000	49.219059 
1823.000000	49.203848 
1822.000000	49.186372 
1821.000000	49.168157 
1820.000000	49.151039 
1819.000000	49.136519 
1818.000000	49.125742 
1817.000000	49.119400 
1816.000000	49.117541 
1815.000000	49.119520 
1814.000000	49.124240 
1813.000000	49.130344 
1812.000000	49.136376 
1811.000000	49.140739 
1810.000000	49.142050 
1809.000000	49.139308 
1808.000000	49.131894 
1807.000000	49.119734 
1806.000000	49.103236 
1805.000000	49.083232 
1804.000000	49.060773 
1803.000000	49.037194 
1802.000000	49.013686 
1801.000000	48.991131 
1800.000000	48.970293 
1799.000000	48.951506 
1798.000000	48.934960 
1797.000000	48.920679 
1796.000000	48.908615 
1795.000000	48.898577 
1794.000000	48.890280 
1793.000000	48.883247 
1792.000000	48.876643 
1791.000000	48.869442 
1790.000000	48.860335 
1789.000000	48.848080 
1788.000000	48.831534 
1787.000000	48.810338 
1786.000000	48.784518 
1785.000000	48.755097 
1784.000000	48.723649 
1783.000000	48.692345 
1782.000000	48.663401 
1781.000000	48.639154 
1780.000000	48.621082 
1779.000000	48.610043 
1778.000000	48.606061 
1777.000000	48.608374 
1776.000000	48.615574 
1775.000000	48.625779 
1774.000000	48.636937 
1773.000000	48.647356 
1772.000000	48.655486 
1771.000000	48.660421 
1770.000000	48.661589 
1769.000000	48.658967 
1768.000000	48.652911 
1767.000000	48.643994 
1766.000000	48.632979 
1765.000000	48.620510 
1764.000000	48.607301 
1763.000000	48.594045 
1762.000000	48.581314 
1761.000000	48.569464 
1760.000000	48.558473 
1759.000000	48.548078 
1758.000000	48.537302 
1757.000000	48.525142 
1756.000000	48.510003 
1755.000000	48.490524 
1754.000000	48.465824 
1753.000000	48.435640 
1752.000000	48.400545 
1751.000000	48.362016 
1750.000000	48.322272 
1749.000000	48.283934 
1748.000000	48.249578 
1747.000000	48.221206 
1746.000000	48.200201 
1745.000000	48.186898 
1744.000000	48.180770 
1743.000000	48.180460 
1742.000000	48.184108 
1741.000000	48.189592 
1740.000000	48.194813 
1739.000000	48.198103 
1738.000000	48.198056 
1737.000000	48.193717 
1736.000000	48.184752 
1735.000000	48.171114 
1734.000000	48.153424 
1733.000000	48.132419 
1732.000000	48.109102 
1731.000000	48.084402 
1730.000000	48.059296 
1729.000000	48.034596 
1728.000000	48.010897 
1727.000000	47.988557 
1726.000000	47.967743 
1725.000000	47.948670 
1724.000000	47.931432 
1723.000000	47.916412 
1722.000000	47.904062 
1721.000000	47.894954 
1720.000000	47.889757 
1719.000000	47.888922 
1718.000000	47.892546 
1717.000000	47.900247 
1716.000000	47.910785 
1715.000000	47.922444 
1714.000000	47.933149 
1713.000000	47.940850 
1712.000000	47.943902 
1711.000000	47.941541 
1710.000000	47.934174 
1709.000000	47.923374 
1708.000000	47.911524 
1707.000000	47.901535 
1706.000000	47.895598 
1705.000000	47.895002 
1704.000000	47.899436 
1703.000000	47.907233 
1702.000000	47.915315 
1701.000000	47.920346 
1700.000000	47.919178 
1699.000000	47.909879 
1698.000000	47.892165 
1697.000000	47.867465 
1696.000000	47.838425 
1695.000000	47.808361 
1694.000000	47.780418 
1693.000000	47.756862 
1692.000000	47.738575 
1691.000000	47.725224 
1690.000000	47.715449 
1689.000000	47.707557 
1688.000000	47.699999 
1687.000000	47.691822 
1686.000000	47.682833 
1685.000000	47.673416 
1684.000000	47.664022 
1683.000000	47.655057 
1682.000000	47.646665 
1681.000000	47.638702 
1680.000000	47.630739 
1679.000000	47.622251 
1678.000000	47.613024 
1677.000000	47.603058 
1676.000000	47.592902 
1675.000000	47.583103 
1674.000000	47.574353 
1673.000000	47.567057 
1672.000000	47.561264 
1671.000000	47.556614 
1670.000000	47.552323 
1669.000000	47.547531 
1668.000000	47.541427 
1667.000000	47.533583 
1666.000000	47.523999 
1665.000000	47.513318 
1664.000000	47.502374 
1663.000000	47.492289 
1662.000000	47.483992 
1661.000000	47.478008 
1660.000000	47.474169 
1659.000000	47.471547 
1658.000000	47.468590 
1657.000000	47.463393 
1656.000000	47.454166 
1655.000000	47.439670 
1654.000000	47.419762 
1653.000000	47.395348 
1652.000000	47.368407 
1651.000000	47.341394 
1650.000000	47.316956 
1649.000000	47.297167 
1648.000000	47.283291 
1647.000000	47.275495 
1646.000000	47.273159 
1645.000000	47.275042 
1644.000000	47.279453 
1643.000000	47.284889 
1642.000000	47.289896 
1641.000000	47.293281 
1640.000000	47.294044 
1639.000000	47.291278 
1638.000000	47.283983 
1637.000000	47.271299 
1636.000000	47.252535 
1635.000000	47.227549 
1634.000000	47.196793 
1633.000000	47.161793 
1632.000000	47.124743 
1631.000000	47.088289 
1630.000000	47.055220 
1629.000000	47.027873 
1628.000000	47.007679 
1627.000000	46.995186 
1626.000000	46.989631 
1625.000000	46.989417 
1624.000000	46.992492 
1623.000000	46.996736 
1622.000000	47.000312 
1621.000000	47.002100 
1620.000000	47.001624 
1619.000000	46.998977 
1618.000000	46.994590 
1617.000000	46.988964 
1616.000000	46.982336 
1615.000000	46.974611 
1614.000000	46.965599 
1613.000000	46.954965 
1612.000000	46.942472 
1611.000000	46.928405 
1610.000000	46.913480 
1609.000000	46.898913 
1608.000000	46.885824 
1607.000000	46.875238 
1606.000000	46.867728 
1605.000000	46.863150 
1604.000000	46.860694 
1603.000000	46.859145 
1602.000000	46.856856 
1601.000000	46.852183 
1600.000000	46.843719 
1599.000000	46.830677 
1598.000000	46.812963 
1597.000000	46.791100 
1596.000000	46.766185 
1595.000000	46.739673 
1594.000000	46.712994 
1593.000000	46.687293 
1592.000000	46.663331 
1591.000000	46.641397 
1590.000000	46.621656 
1589.000000	46.604180 
1588.000000	46.589279 
1587.000000	46.577548 
1586.000000	46.569871 
1585.000000	46.567225 
1584.000000	46.570253 
1583.000000	46.578693 
1582.000000	46.591329 
1581.000000	46.605849 
1580.000000	46.618962 
1579.000000	46.627187 
1578.000000	46.627712 
1577.000000	46.618914 
1576.000000	46.600866 
1575.000000	46.575236 
1574.000000	46.544909 
1573.000000	46.513319 
1572.000000	46.483492 
1571.000000	46.457791 
1570.000000	46.437335 
1569.000000	46.422457 
1568.000000	46.412730 
1567.000000	46.407532 
1566.000000	46.406316 
1565.000000	46.408772 
1564.000000	46.414732 
1563.000000	46.423888 
1562.000000	46.435427 
1561.000000	46.447920 
1560.000000	46.459197 
1559.000000	46.466827 
1558.000000	46.468377 
1557.000000	46.461772 
1556.000000	46.446108 
1555.000000	46.421480 
1554.000000	46.388959 
1553.000000	46.350407 
1552.000000	46.308255 
1551.000000	46.265220 
1550.000000	46.223998 
1549.000000	46.187114 
1548.000000	46.156525 
1547.000000	46.133542 
1546.000000	46.118569 
1545.000000	46.111083 
1544.000000	46.109604 
1543.000000	46.111798 
1542.000000	46.115016 
1541.000000	46.116566 
1540.000000	46.114420 
1539.000000	46.106982 
1538.000000	46.093702 
1537.000000	46.074962 
1536.000000	46.051979 
1535.000000	46.026492 
1534.000000	46.000504 
1533.000000	45.975780 
1532.000000	45.953726 
1531.000000	45.935511 
1530.000000	45.921874 
1529.000000	45.912957 
1528.000000	45.908379 
1527.000000	45.907354 
1526.000000	45.908522 
1525.000000	45.910120 
1524.000000	45.910191 
1523.000000	45.906925 
1522.000000	45.898962 
1521.000000	45.885896 
1520.000000	45.868253 
1519.000000	45.847678 
1518.000000	45.826649 
1517.000000	45.808005 
1516.000000	45.794582 
1515.000000	45.788407 
1514.000000	45.790314 
1513.000000	45.799756 
1512.000000	45.814847 
1511.000000	45.832657 
1510.000000	45.849728 
1509.000000	45.862722 
1508.000000	45.869183 
1507.000000	45.867776 
1506.000000	45.858407 
1505.000000	45.842146 
1504.000000	45.820808 
1503.000000	45.796513 
1502.000000	45.771455 
1501.000000	45.747375 
1500.000000	45.725703 
1499.000000	45.707249 
1498.000000	45.692443 
1497.000000	45.681071 
1496.000000	45.672535 
1495.000000	45.665788 
1494.000000	45.659494 
1493.000000	45.652270 
1492.000000	45.642876 
1491.000000	45.630502 
1490.000000	45.614886 
1489.000000	45.596456 
1488.000000	45.575976 
1487.000000	45.554709 
1486.000000	45.533823 
1485.000000	45.514392 
1484.000000	45.497107 
1483.000000	45.482110 
1482.000000	45.469069 
1481.000000	45.457458 
1480.000000	45.446681 
1479.000000	45.435953 
1478.000000	45.424699 
1477.000000	45.412588 
1476.000000	45.399379 
1475.000000	45.385026 
1474.000000	45.369505 
1473.000000	45.352888 
1472.000000	45.335412 
1471.000000	45.317673 
1470.000000	45.300245 
1469.000000	45.283842 
1468.000000	45.269155 
1467.000000	45.256996 
1466.000000	45.247817 
1465.000000	45.241689 
1464.000000	45.238375 
1463.000000	45.237088 
1462.000000	45.236897 
1461.000000	45.236444 
1460.000000	45.234298 
1459.000000	45.228695 
1458.000000	45.217895 
1457.000000	45.200276 
1456.000000	45.174598 
1455.000000	45.140600 
1454.000000	45.098853 
1453.000000	45.051455 
1452.000000	45.001721 
1451.000000	44.953823 
1450.000000	44.911909 
1449.000000	44.879579 
1448.000000	44.859242 
1447.000000	44.851779 
1446.000000	44.856476 
1445.000000	44.871377 
1444.000000	44.893860 
1443.000000	44.921016 
1442.000000	44.950222 
1441.000000	44.979238 
1440.000000	45.006179 
1439.000000	45.029473 
1438.000000	45.047307 
1437.000000	45.057821 
1436.000000	45.058941 
1435.000000	45.048785 
1434.000000	45.026159 
1433.000000	44.991397 
1432.000000	44.946336 
1431.000000	44.894671 
1430.000000	44.841456 
1429.000000	44.792342 
1428.000000	44.752717 
1427.000000	44.726634 
1426.000000	44.716191 
1425.000000	44.720911 
1424.000000	44.738316 
1423.000000	44.764184 
1422.000000	44.793653 
1421.000000	44.822096 
1420.000000	44.845938 
1419.000000	44.862747 
1418.000000	44.871592 
1417.000000	44.872450 
1416.000000	44.865846 
1415.000000	44.852185 
1414.000000	44.831919 
1413.000000	44.805359 
1412.000000	44.773077 
1411.000000	44.736385 
1410.000000	44.697451 
1409.000000	44.659209 
1408.000000	44.625282 
1407.000000	44.599032 
1406.000000	44.582867 
1405.000000	44.577646 
1404.000000	44.582271 
1403.000000	44.593977 
1402.000000	44.608664 
1401.000000	44.622087 
1400.000000	44.630551 
1399.000000	44.631814 
1398.000000	44.625425 
1397.000000	44.612574 
1396.000000	44.595098 
1395.000000	44.575262 
1394.000000	44.554829 
1393.000000	44.534897 
1392.000000	44.515752 
1391.000000	44.497203 
1390.000000	44.478893 
1389.000000	44.460988 
1388.000000	44.444108 
1387.000000	44.429230 
1386.000000	44.417309 
1385.000000	44.409275 
1384.000000	44.405341 
1383.000000	44.404864 
1382.000000	44.406294 
1381.000000	44.407296 
1380.000000	44.405388 
1379.000000	44.398355 
1378.000000	44.384932 
1377.000000	44.364714 
1376.000000	44.338846 
1375.000000	44.309329 
1374.000000	44.279074 
1373.000000	44.251036 
1372.000000	44.227957 
1371.000000	44.211792 
1370.000000	44.203424 
1369.000000	44.202709 
1368.000000	44.208431 
1367.000000	44.218754 
1366.000000	44.231438 
1365.000000	44.244146 
1364.000000	44.254779 
1363.000000	44.261550 
1362.000000	44.263029 
1361.000000	44.257998 
1360.000000	44.245815 
1359.000000	44.226312 
1358.000000	44.200110 
1357.000000	44.168567 
1356.000000	44.133877 
1355.000000	44.098711 
1354.000000	44.066047 
1353.000000	44.038438 
1352.000000	44.017696 
1351.000000	44.004607 
1350.000000	43.998789 
1349.000000	43.999028 
1348.000000	44.003319 
1347.000000	44.009470 
1346.000000	44.015717 
1345.000000	44.020843 
1344.000000	44.024157 
1343.000000	44.025707 
1342.000000	44.025659 
1341.000000	44.024276 
1340.000000	44.021677 
1339.000000	44.017887 
1338.000000	44.012737 
1337.000000	44.006133 
1336.000000	43.998241 
1335.000000	43.989491 
1334.000000	43.980360 
1333.000000	43.971252 
1332.000000	43.962335 
1331.000000	43.953514 
1330.000000	43.944263 
1329.000000	43.933725 
1328.000000	43.920803 
1327.000000	43.904209 
1326.000000	43.882870 
1325.000000	43.856048 
1324.000000	43.823790 
1323.000000	43.786597 
1322.000000	43.745994 
1321.000000	43.704319 
1320.000000	43.664216 
1319.000000	43.628382 
1318.000000	43.599200 
1317.000000	43.578267 
1316.000000	43.566155 
1315.000000	43.562459 
1314.000000	43.565821 
1313.000000	43.573975 
1312.000000	43.584299 
1311.000000	43.594193 
1310.000000	43.601489 
1309.000000	43.604445 
1308.000000	43.602037 
1307.000000	43.593907 
1306.000000	43.580198 
1305.000000	43.561482 
1304.000000	43.538737 
1303.000000	43.513011 
1302.000000	43.485689 
1301.000000	43.458056 
1300.000000	43.431282 
1299.000000	43.406367 
1298.000000	43.384170 
1297.000000	43.365478 
1296.000000	43.350720 
1295.000000	43.340277 
1294.000000	43.334364 
1293.000000	43.332719 
1292.000000	43.334603 
1291.000000	43.338823 
1290.000000	43.343806 
1289.000000	43.347835 
1288.000000	43.349170 
1287.000000	43.346810 
1286.000000	43.340277 
1285.000000	43.330025 
1284.000000	43.317270 
1283.000000	43.303418 
1282.000000	43.289947 
1281.000000	43.278098 
1280.000000	43.268537 
1279.000000	43.261170 
1278.000000	43.255329 
1277.000000	43.250131 
1276.000000	43.244695 
1275.000000	43.238520 
1274.000000	43.231487 
1273.000000	43.223905 
1272.000000	43.216395 
1271.000000	43.209600 
1270.000000	43.203973 
1269.000000	43.199276 
1268.000000	43.195128 
1267.000000	43.190622 
1266.000000	43.185043 
1265.000000	43.177866 
1264.000000	43.168997 
1263.000000	43.158745 
1262.000000	43.147850 
1261.000000	43.137192 
1260.000000	43.127226 
1259.000000	43.117904 
1258.000000	43.108558 
1257.000000	43.098115 
1256.000000	43.085193 
1255.000000	43.068528 
1254.000000	43.047451 
1253.000000	43.022036 
1252.000000	42.993330 
1251.000000	42.963147 
1250.000000	42.933678 
1249.000000	42.907381 
1248.000000	42.886209 
1247.000000	42.871499 
1246.000000	42.863774 
1245.000000	42.862749 
1244.000000	42.867398 
1243.000000	42.876052 
1242.000000	42.887091 
1241.000000	42.898535 
1240.000000	42.908596 
1239.000000	42.915487 
1238.000000	42.917394 
1237.000000	42.912793 
1236.000000	42.900419 
1235.000000	42.879414 
1234.000000	42.849659 
1233.000000	42.811799 
1232.000000	42.767429 
1231.000000	42.719030 
1230.000000	42.669510 
1229.000000	42.622041 
1228.000000	42.579555 
1227.000000	42.544388 
1226.000000	42.517995 
1225.000000	42.500734 
1224.000000	42.492055 
1223.000000	42.490720 
1222.000000	42.495107 
1221.000000	42.503142 
1220.000000	42.512941 
1219.000000	42.522406 
1218.000000	42.529940 
1217.000000	42.533731 
1216.000000	42.532706 
1215.000000	42.526102 
1214.000000	42.514133 
1213.000000	42.497539 
1212.000000	42.477869 
1211.000000	42.457294 
1210.000000	42.438054 
1209.000000	42.422103 
1208.000000	42.410755 
1207.000000	42.404365 
1206.000000	42.402505 
1205.000000	42.403912 
1204.000000	42.406988 
1203.000000	42.409968 
1202.000000	42.411518 
1201.000000	42.410898 
1200.000000	42.407798 
1199.000000	42.402291 
1198.000000	42.394781 
1197.000000	42.385578 
1196.000000	42.375016 
1195.000000	42.363023 
1194.000000	42.349553 
1193.000000	42.334365 
1192.000000	42.317056 
1191.000000	42.297244 
1190.000000	42.274475 
1189.000000	42.248392 
1188.000000	42.219066 
1187.000000	42.187142 
1186.000000	42.153573 
1185.000000	42.119932 
1184.000000	42.088031 
1183.000000	42.059922 
1182.000000	42.037463 
1181.000000	42.021918 
1180.000000	42.013692 
1179.000000	42.012405 
1178.000000	42.016768 
1177.000000	42.024946 
1176.000000	42.034792 
1175.000000	42.044186 
1174.000000	42.051196 
1173.000000	42.054557 
1172.000000	42.053699 
1171.000000	42.048525 
1170.000000	42.039489 
1169.000000	42.027282 
1168.000000	42.012643 
1167.000000	41.996550 
1166.000000	41.979646 
1165.000000	41.962480 
1164.000000	41.945028 
1163.000000	41.927313 
1162.000000	41.909217 
1161.000000	41.890478 
1160.000000	41.871142 
1159.000000	41.851520 
1158.000000	41.832566 
1157.000000	41.815662 
1156.000000	41.802525 
1155.000000	41.794848 
1154.000000	41.793584 
1153.000000	41.798424 
1152.000000	41.807651 
1151.000000	41.818237 
1150.000000	41.826415 
1149.000000	41.828393 
1148.000000	41.821432 
1147.000000	41.804313 
1146.000000	41.778087 
1145.000000	41.745638 
1144.000000	41.711211 
1143.000000	41.679310 
1142.000000	41.654109 
1141.000000	41.638541 
1140.000000	41.633510 
1139.000000	41.637897 
1138.000000	41.649174 
1137.000000	41.663789 
1136.000000	41.677927 
1135.000000	41.688275 
1134.000000	41.692543 
1133.000000	41.689705 
1132.000000	41.679883 
1131.000000	41.664242 
1130.000000	41.644573 
1129.000000	41.622757 
1128.000000	41.600823 
1127.000000	41.580057 
1126.000000	41.561269 
1125.000000	41.544628 
1124.000000	41.529941 
1123.000000	41.516804 
1122.000000	41.504788 
1121.000000	41.493511 
1120.000000	41.482639 
1119.000000	41.471815 
1118.000000	41.460466 
1117.000000	41.447567 
1116.000000	41.431641 
1115.000000	41.411209 
1114.000000	41.384863 
1113.000000	41.351819 
1112.000000	41.312289 
1111.000000	41.267704 
1110.000000	41.220736 
1109.000000	41.174840 
1108.000000	41.133856 
1107.000000	41.101193 
1106.000000	41.079330 
1105.000000	41.069078 
1104.000000	41.069746 
1103.000000	41.079044 
1102.000000	41.093754 
1101.000000	41.110205 
1100.000000	41.125059 
1099.000000	41.135811 
1098.000000	41.141104 
1097.000000	41.140556 
1096.000000	41.134691 
1095.000000	41.124272 
1094.000000	41.110110 
1093.000000	41.092705 
1092.000000	41.072225 
1091.000000	41.048622 
1090.000000	41.022014 
1089.000000	40.992689 
1088.000000	40.961384 
1087.000000	40.929222 
1086.000000	40.897512 
1085.000000	40.867614 
1084.000000	40.840697 
1083.000000	40.817427 
1082.000000	40.798091 
1081.000000	40.782809 
1080.000000	40.771222 
1079.000000	40.763068 
1078.000000	40.758037 
1077.000000	40.755963 
1076.000000	40.756607 
1075.000000	40.759420 
1074.000000	40.763664 
1073.000000	40.768265 
1072.000000	40.771698 
1071.000000	40.772414 
1070.000000	40.769076 
1069.000000	40.760779 
1068.000000	40.747284 
1067.000000	40.728974 
1066.000000	40.706849 
1065.000000	40.682172 
1064.000000	40.656304 
1063.000000	40.630221 
1062.000000	40.604710 
1061.000000	40.580129 
1060.000000	40.556859 
1059.000000	40.535354 
1058.000000	40.516376 
1057.000000	40.501022 
1056.000000	40.490508 
1055.000000	40.485906 
1054.000000	40.487551 
1053.000000	40.494441 
1052.000000	40.504503 
1051.000000	40.514540 
1050.000000	40.521121 
1049.000000	40.521359 
1048.000000	40.513730 
1047.000000	40.498614 
1046.000000	40.478324 
1045.000000	40.456438 
1044.000000	40.437245 
1043.000000	40.424346 
1042.000000	40.420007 
1041.000000	40.424585 
1040.000000	40.436506 
1039.000000	40.452527 
1038.000000	40.468382 
1037.000000	40.479612 
1036.000000	40.482640 
1035.000000	40.475201 
1034.000000	40.456914 
1033.000000	40.429329 
1032.000000	40.395498 
1031.000000	40.359497 
1030.000000	40.325593 
1029.000000	40.297341 
1028.000000	40.277433 
1027.000000	40.266847 
1026.000000	40.265178 
1025.000000	40.270662 
1024.000000	40.280604 
1023.000000	40.292024 
1022.000000	40.302038 
1021.000000	40.308356 
1020.000000	40.309453 
1019.000000	40.304756 
1018.000000	40.294575 
1017.000000	40.279984 
1016.000000	40.262269 
1015.000000	40.243029 
1014.000000	40.223908 
1013.000000	40.206360 
1012.000000	40.191221 
1011.000000	40.178966 
1010.000000	40.169477 
1009.000000	40.161991 
1008.000000	40.155220 
1007.000000	40.147471 
1006.000000	40.137124 
1005.000000	40.122723 
1004.000000	40.103745 
1003.000000	40.080618 
1002.000000	40.054750 
1001.000000	40.028548 
1000.000000	40.004777 
999.000000	 39.985918 
998.000000	 39.973592 
997.000000	 39.968347 
996.000000	 39.969348 
995.000000	 39.974808 
994.000000	 39.982175 
993.000000	 39.988780 
992.000000	 39.991807 
991.000000	 39.988970 
990.000000	 39.978122 
989.000000	 39.957618 
988.000000	 39.926266 
987.000000	 39.883613 
986.000000	 39.830136 
985.000000	 39.767456 
984.000000	 39.698624 
983.000000	 39.628076 
982.000000	 39.561247 
981.000000	 39.503669 
980.000000	 39.460039 
979.000000	 39.433455 
978.000000	 39.424586 
977.000000	 39.431619 
976.000000	 39.450430 
975.000000	 39.475750 
974.000000	 39.501619 
973.000000	 39.523124 
972.000000	 39.536809 
971.000000	 39.541411 
970.000000	 39.537286 
969.000000	 39.526534 
968.000000	 39.512085 
967.000000	 39.496850 
966.000000	 39.483284 
965.000000	 39.472436 
964.000000	 39.464139 
963.000000	 39.456820 
962.000000	 39.448356 
961.000000	 39.435958 
960.000000	 39.417052 
959.000000	 39.389777 
958.000000	 39.353775 
957.000000	 39.309954 
956.000000	 39.260601 
955.000000	 39.209342 
954.000000	 39.160680 
953.000000	 39.119219 
952.000000	 39.088964 
951.000000	 39.072751 
950.000000	 39.071369 
949.000000	 39.083170 
948.000000	 39.104175 
947.000000	 39.128804 
946.000000	 39.150762 
945.000000	 39.164066 
944.000000	 39.164280 
943.000000	 39.148950 
942.000000	 39.118432 
941.000000	 39.075255 
940.000000	 39.023995 
939.000000	 38.969874 
938.000000	 38.918423 
937.000000	 38.874578 
936.000000	 38.842320 
935.000000	 38.824343 
934.000000	 38.821864 
933.000000	 38.834834 
932.000000	 38.861632 
931.000000	 38.899421 
930.000000	 38.944149 
929.000000	 38.991045 
928.000000	 39.034748 
927.000000	 39.070153 
926.000000	 39.093470 
925.000000	 39.103055 
924.000000	 39.099502 
923.000000	 39.085626 
922.000000	 39.065957 
921.000000	 39.045619 
920.000000	 39.029264 
919.000000	 39.019751 
918.000000	 39.017987 
917.000000	 39.022088 
916.000000	 39.028596 
915.000000	 39.032840 
914.000000	 39.030480 
913.000000	 39.018321 
912.000000	 38.994908 
911.000000	 38.961505 
910.000000	 38.921475 
909.000000	 38.879537 
908.000000	 38.840746 
907.000000	 38.808870 
906.000000	 38.785195 
905.000000	 38.768434 
904.000000	 38.755130 
903.000000	 38.739681 
902.000000	 38.715839 
901.000000	 38.678574 
900.000000	 38.625216 
899.000000	 38.556027 
898.000000	 38.474535 
897.000000	 38.386225 
896.000000	 38.297796 
895.000000	 38.216471 
894.000000	 38.148164 
893.000000	 38.095855 
892.000000	 38.059520 
891.000000	 38.037276 
890.000000	 38.025069 
889.000000	 38.017582 
888.000000	 38.009381 
887.000000	 37.995243 
886.000000	 37.971878 
885.000000	 37.937164 
884.000000	 37.892222 
883.000000	 37.840199 
882.000000	 37.787365 
881.000000	 37.741279 
880.000000	 37.710618 
879.000000	 37.703371 
878.000000	 37.725949 
877.000000	 37.781620 
876.000000	 37.869811 
875.000000	 37.984800 
874.000000	 38.117313 
873.000000	 38.253927 
872.000000	 38.378596 
871.000000	 38.473343 
870.000000	 38.522291 
869.000000	 38.512992 
868.000000	 38.437938 
867.000000	 38.296818 
866.000000	 38.097882 
865.000000	 37.857222 
864.000000	 37.596988 
863.000000	 37.342071 
862.000000	 37.117481 
861.000000	 36.942768 
860.000000	 36.829566 
859.000000	 36.779427 
858.000000	 36.783909 
857.000000	 36.827945 
856.000000	 36.892986 
855.000000	 36.962056 
854.000000	 37.021708 
853.000000	 37.065434 
852.000000	 37.092781 
851.000000	 37.108564 
850.000000	 37.119722 
849.000000	 37.133884 
848.000000	 37.157130 
847.000000	 37.193369 
846.000000	 37.243819 
845.000000	 37.308716 
844.000000	 37.386894 
843.000000	 37.476825 
842.000000	 37.575650 
841.000000	 37.679672 
840.000000	 37.783241 
839.000000	 37.878799 
838.000000	 37.957549 
837.000000	 38.011527 
836.000000	 38.034439 
835.000000	 38.024926 
834.000000	 37.985014 
833.000000	 37.920236 
832.000000	 37.838220 
831.000000	 37.748599 
830.000000	 37.659883 
829.000000	 37.578582 
828.000000	 37.508535 
827.000000	 37.451887 
826.000000	 37.408423 
825.000000	 37.377023 
824.000000	 37.355208 
823.000000	 37.339878 
822.000000	 37.328219 
821.000000	 37.317657 
820.000000	 37.305378 
819.000000	 37.288451 
818.000000	 37.264537 
817.000000	 37.232232 
816.000000	 37.190937 
815.000000	 37.141656 
814.000000	 37.086939 
813.000000	 37.031364 
812.000000	 36.979556 
811.000000	 36.937165 
810.000000	 36.909699 
809.000000	 36.901974 
808.000000	 36.916518 
807.000000	 36.953306 
806.000000	 37.009310 
805.000000	 37.078523 
804.000000	 37.152624 
803.000000	 37.222075 
802.000000	 37.277984 
801.000000	 37.313175 
800.000000	 37.323689 
799.000000	 37.308430 
798.000000	 37.269306 
797.000000	 37.210679 
796.000000	 37.138557 
795.000000	 37.059783 
794.000000	 36.980986 
793.000000	 36.908173 
792.000000	 36.846089 
791.000000	 36.797809 
790.000000	 36.764073 
789.000000	 36.743450 
788.000000	 36.732745 
787.000000	 36.727142 
786.000000	 36.721825 
785.000000	 36.711978 
784.000000	 36.695027 
783.000000	 36.670327 
782.000000	 36.640262 
781.000000	 36.608815 
780.000000	 36.581206 
779.000000	 36.561965 
778.000000	 36.554217 
777.000000	 36.558222 
776.000000	 36.571836 
775.000000	 36.590790 
774.000000	 36.609864 
773.000000	 36.624026 
772.000000	 36.629724 
771.000000	 36.625576 
770.000000	 36.612010 
769.000000	 36.590981 
768.000000	 36.565208 
767.000000	 36.537218 
766.000000	 36.508941 
765.000000	 36.481189 
764.000000	 36.453795 
763.000000	 36.425614 
762.000000	 36.395764 
761.000000	 36.363410 
760.000000	 36.327934 
759.000000	 36.289215 
758.000000	 36.247324 
757.000000	 36.202931 
756.000000	 36.157035 
755.000000	 36.111235 
754.000000	 36.067390 
753.000000	 36.027407 
752.000000	 35.993123 
751.000000	 35.965871 
750.000000	 35.946059 
749.000000	 35.932946 
748.000000	 35.924959 
747.000000	 35.919833 
746.000000	 35.914754 
745.000000	 35.907268 
744.000000	 35.895442 
743.000000	 35.878348 
742.000000	 35.855984 
741.000000	 35.829281 
740.000000	 35.799789 
739.000000	 35.769152 
738.000000	 35.738706 
737.000000	 35.709309 
736.000000	 35.680913 
735.000000	 35.652947 
734.000000	 35.624074 
733.000000	 35.592865 
732.000000	 35.558080 
731.000000	 35.519027 
730.000000	 35.476398 
729.000000	 35.431838 
728.000000	 35.388183 
727.000000	 35.348916 
726.000000	 35.317087 
725.000000	 35.294342 
724.000000	 35.280370 
723.000000	 35.272884 
722.000000	 35.268092 
721.000000	 35.261392 
720.000000	 35.249090 
719.000000	 35.229110 
718.000000	 35.202145 
717.000000	 35.171222 
716.000000	 35.141015 
715.000000	 35.116291 
714.000000	 35.100483 
713.000000	 35.094165 
712.000000	 35.094499 
711.000000	 35.095858 
710.000000	 35.091209 
709.000000	 35.074234 
708.000000	 35.041117 
707.000000	 34.991765 
706.000000	 34.929871 
705.000000	 34.862613 
704.000000	 34.798336 
703.000000	 34.745073 
702.000000	 34.708476 
701.000000	 34.690928 
700.000000	 34.691071 
699.000000	 34.704399 
698.000000	 34.724688 
697.000000	 34.745454 
696.000000	 34.761619 
695.000000	 34.770393 
694.000000	 34.771227 
693.000000	 34.765744 
692.000000	 34.756493 
691.000000	 34.745836 
690.000000	 34.734940 
689.000000	 34.723448 
688.000000	 34.709382 
687.000000	 34.690046 
686.000000	 34.662866 
685.000000	 34.626412 
684.000000	 34.580945 
683.000000	 34.528470 
682.000000	 34.472298 
681.000000	 34.416246 
680.000000	 34.363436 
679.000000	 34.316229 
678.000000	 34.275221 
677.000000	 34.239339 
676.000000	 34.206604 
675.000000	 34.174418 
674.000000	 34.141135 
673.000000	 34.105777 
672.000000	 34.069585 
671.000000	 34.035229 
670.000000	 34.006571 
669.000000	 33.987236 
668.000000	 33.979892 
667.000000	 33.985280 
666.000000	 34.001541 
665.000000	 34.024238 
664.000000	 34.047508 
663.000000	 34.065341 
662.000000	 34.072780 
661.000000	 34.066772 
660.000000	 34.046745 
659.000000	 34.014439 
658.000000	 33.973360 
657.000000	 33.927536 
656.000000	 33.880448 
655.000000	 33.834052 
654.000000	 33.789277 
653.000000	 33.745741 
652.000000	 33.702564 
651.000000	 33.658719 
650.000000	 33.614540 
649.000000	 33.570384 
648.000000	 33.525991 
647.000000	 33.480429 
646.000000	 33.432149 
645.000000	 33.379387 
644.000000	 33.320307 
643.000000	 33.253955 
642.000000	 33.181095 
641.000000	 33.103680 
640.000000	 33.024716 
639.000000	 32.947492 
638.000000	 32.874393 
637.000000	 32.807517 
636.000000	 32.748246 
635.000000	 32.697582 
634.000000	 32.656121 
633.000000	 32.624912 
632.000000	 32.605361 
631.000000	 32.598066 
630.000000	 32.602953 
629.000000	 32.618403 
628.000000	 32.642221 
627.000000	 32.670831 
626.000000	 32.701516 
625.000000	 32.732701 
624.000000	 32.765340 
623.000000	 32.802510 
622.000000	 32.848405 
621.000000	 32.906699 
620.000000	 32.978391 
619.000000	 33.060836 
618.000000	 33.146762 
617.000000	 33.225703 
616.000000	 33.285427 
615.000000	 33.315730 
614.000000	 33.309268 
613.000000	 33.264207 
612.000000	 33.183860 
611.000000	 33.076596 
610.000000	 32.953023 
609.000000	 32.824301 
608.000000	 32.699513 
607.000000	 32.584428 
606.000000	 32.481646 
605.000000	 32.391238 
604.000000	 32.312273 
603.000000	 32.243967 
602.000000	 32.186412 
601.000000	 32.140779 
600.000000	 32.108330 
599.000000	 32.089591 
598.000000	 32.083082 
597.000000	 32.085084 
596.000000	 32.089281 
595.000000	 32.088422 
594.000000	 32.075119 
593.000000	 32.044410 
592.000000	 31.994104 
591.000000	 31.926822 
590.000000	 31.849670 
589.000000	 31.772184 
588.000000	 31.704282 
587.000000	 31.652832 
586.000000	 31.620407 
585.000000	 31.602954 
584.000000	 31.591200 
583.000000	 31.572508 
582.000000	 31.534695 
581.000000	 31.469011 
580.000000	 31.373286 
579.000000	 31.252765 
578.000000	 31.119322 
577.000000	 30.989241 
576.000000	 30.879497 
575.000000	 30.803847 
574.000000	 30.770325 
573.000000	 30.779647 
572.000000	 30.825734 
571.000000	 30.897760 
570.000000	 30.982327 
569.000000	 31.066823 
568.000000	 31.140756 
567.000000	 31.196665 
566.000000	 31.230473 
565.000000	 31.240129 
564.000000	 31.225943 
563.000000	 31.189727 
562.000000	 31.134319 
561.000000	 31.063961 
560.000000	 30.983495 
559.000000	 30.898976 
558.000000	 30.816197 
557.000000	 30.740833 
556.000000	 30.676722 
555.000000	 30.625724 
554.000000	 30.587148 
553.000000	 30.558276 
552.000000	 30.534410 
551.000000	 30.510234 
550.000000	 30.480766 
549.000000	 30.442619 
548.000000	 30.394220 
547.000000	 30.336689 
546.000000	 30.273056 
545.000000	 30.208444 
544.000000	 30.148601 
543.000000	 30.098891 
542.000000	 30.063104 
541.000000	 30.042123 
540.000000	 30.034446 
539.000000	 30.035018 
538.000000	 30.036330 
537.000000	 30.029368 
536.000000	 30.006098 
535.000000	 29.960823 
534.000000	 29.890942 
533.000000	 29.798340 
532.000000	 29.688668 
531.000000	 29.570794 
530.000000	 29.455208 
529.000000	 29.351472 
528.000000	 29.266333 
527.000000	 29.203653 
526.000000	 29.163980 
525.000000	 29.146003 
524.000000	 29.147315 
523.000000	 29.165029 
522.000000	 29.195570 
521.000000	 29.234790 
520.000000	 29.277276 
519.000000	 29.315018 
518.000000	 29.338455 
517.000000	 29.338335 
516.000000	 29.307222 
515.000000	 29.241991 
514.000000	 29.144167 
513.000000	 29.019761 
512.000000	 28.878545 
511.000000	 28.732609 
510.000000	 28.594493 
509.000000	 28.474211 
508.000000	 28.379631 
507.000000	 28.315138 
506.000000	 28.283047 
505.000000	 28.284168 
504.000000	 28.317356 
503.000000	 28.379654 
502.000000	 28.464865 
501.000000	 28.563380 
500.000000	 28.661608 
499.000000	 28.743171 
498.000000	 28.790211 
497.000000	 28.786373 
496.000000	 28.720974 
495.000000	 28.591203 
494.000000	 28.403019 
493.000000	 28.170633 
492.000000	 27.913832 
491.000000	 27.655982 
490.000000	 27.420544 
489.000000	 27.228569 
488.000000	 27.094626 
487.000000	 27.026772 
486.000000	 27.026653 
485.000000	 27.088999 
484.000000	 27.202463 
483.000000	 27.350497 
482.000000	 27.512860 
481.000000	 27.667546 
480.000000	 27.792215 
479.000000	 27.867913 
478.000000	 27.880477 
477.000000	 27.825188 
476.000000	 27.706646 
475.000000	 27.540969 
474.000000	 27.352881 
473.000000	 27.172470 
472.000000	 27.029085 
471.000000	 26.945996 
470.000000	 26.934838 
469.000000	 26.993012 
468.000000	 27.103257 
467.000000	 27.237391 
466.000000	 27.361416 
465.000000	 27.442789 
464.000000	 27.456855 
463.000000	 27.390122 
462.000000	 27.243494 
461.000000	 27.031326 
460.000000	 26.778006 
459.000000	 26.511263 
458.000000	 26.258015 
457.000000	 26.040434 
456.000000	 25.871825 
455.000000	 25.757503 
454.000000	 25.693249 
453.000000	 25.668668 
452.000000	 25.669097 
451.000000	 25.679111 
450.000000	 25.685000 
449.000000	 25.676202 
448.000000	 25.646662 
447.000000	 25.593972 
446.000000	 25.521612 
445.000000	 25.437307 
444.000000	 25.349473 
443.000000	 25.265789 
442.000000	 25.191569 
441.000000	 25.129961 
440.000000	 25.083470 
439.000000	 25.054764 
438.000000	 25.043869 
437.000000	 25.050687 
436.000000	 25.079107 
435.000000	 25.132775 
434.000000	 25.212144 
433.000000	 25.311779 
432.000000	 25.421142 
431.000000	 25.522661 
430.000000	 25.596904 
429.000000	 25.623559 
428.000000	 25.580096 
427.000000	 25.456881 
426.000000	 25.262951 
425.000000	 25.025320 
424.000000	 24.778270 
423.000000	 24.571561 
422.000000	 24.460840 
421.000000	 24.495267 
420.000000	 24.704146 
419.000000	 25.092291 
418.000000	 25.634241 
417.000000	 26.270771 
416.000000	 26.913976 
415.000000	 27.460646 
414.000000	 27.806782 
413.000000	 27.864766 
412.000000	 27.579045 
411.000000	 26.936697 
410.000000	 25.974106 
409.000000	 24.768829 
408.000000	 23.436760 
407.000000	 22.107458 
406.000000	 20.921659 
405.000000	 19.995880 
404.000000	 19.434952 
403.000000	 19.313955 
402.000000	 19.684553 
401.000000	 20.556402 
400.000000	 21.908473 
399.000000	 23.660397 
398.000000	 25.715422 
397.000000	 27.977681 
396.000000	 30.323672 
395.000000	 32.588458 
394.000000	 34.620928 
393.000000	 36.304950 
392.000000	 37.545418 
391.000000	 38.281702 
390.000000	 38.512659 
389.000000	 38.286924 
388.000000	 37.752795 
387.000000	 37.100100 
386.000000	 36.462426 
385.000000	 35.903549 
384.000000	 35.371708 
383.000000	 34.785008 
382.000000	 34.093046 
381.000000	 33.334612 
380.000000	 32.760071 
379.000000	 32.676529 
378.000000	 33.295488 
377.000000	 34.687852 
376.000000	 36.733937 
375.000000	 39.116263 
374.000000	 41.453194 
373.000000	 43.234205 
372.000000	 44.183421 
371.000000	 43.797636 
370.000000	 41.402745 

