PE IR       SPECTRUM    SPECTRUM    ASCII       PEDS        1.60        
  -1
C-1B6E~1.ASC
17/05/02
13:54:07.00
17/05/02
13:54:07.00
tln
$C-4040-8_t0036$<tbV0>[-12.5,12.0,8.0,0.0,22,1,0]
370.000000
64









2002,4.07    
MIRTGS : RIGHTBACK : INTERNAL 2
MIR : ON : INTERNAL 2
OPTKBR

0.200000
8
8.000000
FILLER
RATIO
SPECTRUM
UNLOCKED 256

DOUBLE
64
COMBINED
1
0
0


1.000000
RATIO


1
0
TRUE
51149
0
LEFT NOT FITTED RIGHT NOT FITTED 0
NONE
NONE
15600
12.000000
4.427000
51148
TRUE
1 0 8 72 0 0 0 0 

15798.010000






#HDR
-1
-1
#GR
CM-1
%T
0.00002384185791015625
0.0
7800.000000
-1.000000
7431
8
79.185199
47.868919
#DATA
7800.000000	68.406033 
7799.000000	70.375990 
7798.000000	72.372460 
7797.000000	74.272775 
7796.000000	75.955200 
7795.000000	77.314758 
7794.000000	78.291344 
7793.000000	78.879880 
7792.000000	79.105710 
7791.000000	79.008865 
7790.000000	78.640532 
7789.000000	78.040385 
7788.000000	77.230167 
7787.000000	76.207542 
7786.000000	74.967408 
7785.000000	73.508834 
7784.000000	71.861648 
7783.000000	70.092082 
7782.000000	68.287658 
7781.000000	66.571187 
7780.000000	65.075969 
7779.000000	63.943743 
7778.000000	63.282275 
7777.000000	63.166856 
7776.000000	63.613343 
7775.000000	64.578533 
7774.000000	65.955328 
7773.000000	67.585992 
7772.000000	69.277215 
7771.000000	70.828843 
7770.000000	72.053265 
7769.000000	72.821712 
7768.000000	73.079729 
7767.000000	72.858595 
7766.000000	72.260975 
7765.000000	71.442627 
7764.000000	70.574784 
7763.000000	69.805407 
7762.000000	69.228839 
7761.000000	68.882894 
7760.000000	68.745684 
7759.000000	68.756914 
7758.000000	68.839621 
7757.000000	68.917012 
7756.000000	68.945503 
7755.000000	68.912076 
7754.000000	68.855905 
7753.000000	68.840861 
7752.000000	68.953919 
7751.000000	69.276046 
7750.000000	69.859576 
7749.000000	70.700883 
7748.000000	71.744656 
7747.000000	72.890400 
7746.000000	74.019312 
7745.000000	75.022935 
7744.000000	75.825405 
7743.000000	76.398253 
7742.000000	76.760578 
7741.000000	76.970052 
7740.000000	77.086853 
7739.000000	77.150869 
7738.000000	77.171468 
7737.000000	77.124857 
7736.000000	76.962471 
7735.000000	76.630616 
7734.000000	76.096963 
7733.000000	75.366067 
7732.000000	74.493503 
7731.000000	73.574209 
7730.000000	72.713661 
7729.000000	72.011709 
7728.000000	71.533894 
7727.000000	71.308064 
7726.000000	71.322703 
7725.000000	71.534514 
7724.000000	71.886873 
7723.000000	72.313475 
7722.000000	72.754478 
7721.000000	73.151087 
7720.000000	73.446393 
7719.000000	73.586940 
7718.000000	73.525810 
7717.000000	73.226213 
7716.000000	72.670722 
7715.000000	71.862339 
7714.000000	70.830535 
7713.000000	69.630241 
7712.000000	68.340682 
7711.000000	67.052674 
7710.000000	65.860795 
7709.000000	64.854383 
7708.000000	64.110040 
7707.000000	63.681411 
7706.000000	63.596916 
7705.000000	63.850021 
7704.000000	64.404797 
7703.000000	65.200543 
7702.000000	66.157984 
7701.000000	67.176437 
7700.000000	68.152689 
7699.000000	68.986082 
7698.000000	69.598674 
7697.000000	69.938588 
7696.000000	69.994020 
7695.000000	69.792413 
7694.000000	69.397282 
7693.000000	68.893313 
7692.000000	68.378520 
7691.000000	67.946791 
7690.000000	67.681908 
7689.000000	67.644023 
7688.000000	67.879128 
7687.000000	68.414258 
7686.000000	69.263148 
7685.000000	70.420074 
7684.000000	71.847558 
7683.000000	73.465156 
7682.000000	75.150775 
7681.000000	76.741647 
7680.000000	78.042912 
7679.000000	78.856611 
7678.000000	79.025006 
7677.000000	78.462839 
7676.000000	77.189755 
7675.000000	75.326442 
7674.000000	73.095726 
7673.000000	70.760917 
7672.000000	68.588423 
7671.000000	66.779875 
7670.000000	65.446400 
7669.000000	64.590048 
7668.000000	64.129137 
7667.000000	63.925290 
7666.000000	63.826322 
7665.000000	63.714194 
7664.000000	63.525223 
7663.000000	63.266587 
7662.000000	62.983822 
7661.000000	62.766647 
7660.000000	62.704300 
7659.000000	62.870788 
7658.000000	63.294339 
7657.000000	63.958930 
7656.000000	64.801788 
7655.000000	65.727329 
7654.000000	66.623163 
7653.000000	67.380142 
7652.000000	67.911124 
7651.000000	68.158936 
7650.000000	68.109178 
7649.000000	67.789101 
7648.000000	67.264103 
7647.000000	66.630673 
7646.000000	65.992927 
7645.000000	65.447807 
7644.000000	65.060710 
7643.000000	64.873623 
7642.000000	64.878726 
7641.000000	65.027236 
7640.000000	65.236544 
7639.000000	65.421390 
7638.000000	65.497517 
7637.000000	65.397787 
7636.000000	65.087604 
7635.000000	64.567327 
7634.000000	63.876962 
7633.000000	63.085365 
7632.000000	62.278842 
7631.000000	61.543297 
7630.000000	60.952138 
7629.000000	60.555458 
7628.000000	60.373663 
7627.000000	60.401177 
7626.000000	60.610127 
7625.000000	60.965585 
7624.000000	61.427068 
7623.000000	61.965894 
7622.000000	62.564492 
7621.000000	63.221645 
7620.000000	63.935422 
7619.000000	64.703536 
7618.000000	65.514588 
7617.000000	66.341376 
7616.000000	67.147111 
7615.000000	67.878103 
7614.000000	68.476843 
7613.000000	68.885564 
7612.000000	69.069671 
7611.000000	69.011926 
7610.000000	68.722867 
7609.000000	68.235278 
7608.000000	67.606353 
7607.000000	66.900038 
7606.000000	66.179847 
7605.000000	65.504002 
7604.000000	64.922428 
7603.000000	64.475035 
7602.000000	64.191007 
7601.000000	64.091467 
7600.000000	64.185166 
7599.000000	64.462447 
7598.000000	64.893031 
7597.000000	65.417385 
7596.000000	65.959596 
7595.000000	66.438293 
7594.000000	66.786360 
7593.000000	66.955041 
7592.000000	66.933703 
7591.000000	66.753697 
7590.000000	66.480278 
7589.000000	66.193199 
7588.000000	65.971660 
7587.000000	65.876841 
7586.000000	65.938973 
7585.000000	66.153049 
7584.000000	66.486310 
7583.000000	66.889405 
7582.000000	67.316126 
7581.000000	67.735552 
7580.000000	68.141818 
7579.000000	68.550252 
7578.000000	68.988084 
7577.000000	69.477844 
7576.000000	70.016288 
7575.000000	70.563244 
7574.000000	71.045708 
7573.000000	71.367239 
7572.000000	71.432757 
7571.000000	71.167182 
7570.000000	70.543742 
7569.000000	69.586610 
7568.000000	68.367719 
7567.000000	66.995072 
7566.000000	65.587472 
7565.000000	64.264035 
7564.000000	63.125014 
7563.000000	62.248539 
7562.000000	61.682677 
7561.000000	61.450743 
7560.000000	61.547541 
7559.000000	61.950111 
7558.000000	62.608790 
7557.000000	63.467144 
7556.000000	64.457726 
7555.000000	65.512442 
7554.000000	66.556620 
7553.000000	67.522644 
7552.000000	68.351078 
7551.000000	68.991112 
7550.000000	69.401979 
7549.000000	69.564247 
7548.000000	69.481539 
7547.000000	69.178581 
7546.000000	68.697524 
7545.000000	68.096232 
7544.000000	67.439198 
7543.000000	66.792440 
7542.000000	66.215276 
7541.000000	65.752959 
7540.000000	65.436697 
7539.000000	65.284657 
7538.000000	65.304350 
7537.000000	65.488600 
7536.000000	65.820789 
7535.000000	66.282558 
7534.000000	66.841030 
7533.000000	67.443728 
7532.000000	68.020915 
7531.000000	68.495702 
7530.000000	68.787264 
7529.000000	68.828678 
7528.000000	68.572211 
7527.000000	68.005394 
7526.000000	67.144894 
7525.000000	66.039967 
7524.000000	64.757919 
7523.000000	63.377261 
7522.000000	61.981558 
7521.000000	60.654211 
7520.000000	59.467697 
7519.000000	58.483242 
7518.000000	57.746005 
7517.000000	57.290053 
7516.000000	57.124495 
7515.000000	57.248783 
7514.000000	57.642412 
7513.000000	58.283519 
7512.000000	59.134006 
7511.000000	60.156965 
7510.000000	61.306738 
7509.000000	62.533569 
7508.000000	63.781762 
7507.000000	64.983630 
7506.000000	66.060018 
7505.000000	66.927075 
7504.000000	67.507386 
7503.000000	67.748951 
7502.000000	67.644786 
7501.000000	67.233729 
7500.000000	66.605496 
7499.000000	65.871429 
7498.000000	65.147042 
7497.000000	64.526057 
7496.000000	64.067339 
7495.000000	63.786935 
7494.000000	63.662433 
7493.000000	63.651919 
7492.000000	63.707065 
7491.000000	63.775110 
7490.000000	63.813161 
7489.000000	63.787889 
7488.000000	63.687372 
7487.000000	63.511180 
7486.000000	63.280296 
7485.000000	63.031864 
7484.000000	62.812781 
7483.000000	62.672328 
7482.000000	62.643909 
7481.000000	62.743210 
7480.000000	62.950992 
7479.000000	63.216328 
7478.000000	63.465213 
7477.000000	63.611626 
7476.000000	63.591814 
7475.000000	63.381433 
7474.000000	63.008952 
7473.000000	62.548398 
7472.000000	62.106943 
7471.000000	61.797499 
7470.000000	61.705780 
7469.000000	61.865997 
7468.000000	62.255430 
7467.000000	62.800168 
7466.000000	63.396072 
7465.000000	63.936090 
7464.000000	64.334106 
7463.000000	64.547014 
7462.000000	64.577364 
7461.000000	64.474701 
7460.000000	64.309167 
7459.000000	64.164137 
7458.000000	64.110231 
7457.000000	64.200425 
7456.000000	64.465355 
7455.000000	64.908647 
7454.000000	65.519690 
7453.000000	66.263318 
7452.000000	67.091894 
7451.000000	67.939305 
7450.000000	68.729519 
7449.000000	69.384026 
7448.000000	69.835567 
7447.000000	70.035743 
7446.000000	69.967865 
7445.000000	69.640827 
7444.000000	69.090533 
7443.000000	68.366670 
7442.000000	67.527818 
7441.000000	66.627073 
7440.000000	65.711522 
7439.000000	64.823126 
7438.000000	64.005041 
7437.000000	63.307428 
7436.000000	62.787747 
7435.000000	62.501692 
7434.000000	62.493014 
7433.000000	62.782311 
7432.000000	63.353204 
7431.000000	64.137840 
7430.000000	65.029001 
7429.000000	65.893363 
7428.000000	66.598677 
7427.000000	67.036485 
7426.000000	67.145395 
7425.000000	66.921496 
7424.000000	66.416692 
7423.000000	65.722894 
7422.000000	64.952826 
7421.000000	64.214658 
7420.000000	63.596391 
7419.000000	63.153934 
7418.000000	62.911987 
7417.000000	62.870502 
7416.000000	63.011884 
7415.000000	63.310265 
7414.000000	63.729667 
7413.000000	64.226150 
7412.000000	64.741039 
7411.000000	65.205359 
7410.000000	65.541934 
7409.000000	65.680551 
7408.000000	65.573501 
7407.000000	65.208959 
7406.000000	64.618992 
7405.000000	63.874435 
7404.000000	63.076758 
7403.000000	62.332057 
7402.000000	61.731934 
7401.000000	61.332058 
7400.000000	61.140394 
7399.000000	61.126351 
7398.000000	61.231398 
7397.000000	61.395955 
7396.000000	61.570739 
7395.000000	61.741781 
7394.000000	61.928319 
7393.000000	62.174797 
7392.000000	62.528514 
7391.000000	63.014411 
7390.000000	63.614201 
7389.000000	64.267992 
7388.000000	64.883708 
7387.000000	65.354824 
7386.000000	65.586161 
7385.000000	65.526032 
7384.000000	65.177369 
7383.000000	64.594340 
7382.000000	63.866496 
7381.000000	63.095116 
7380.000000	62.368369 
7379.000000	61.746287 
7378.000000	61.250233 
7377.000000	60.870265 
7376.000000	60.573840 
7375.000000	60.326647 
7374.000000	60.103273 
7373.000000	59.894466 
7372.000000	59.710812 
7371.000000	59.566998 
7370.000000	59.485745 
7369.000000	59.475040 
7368.000000	59.541296 
7367.000000	59.677362 
7366.000000	59.880304 
7365.000000	60.147762 
7364.000000	60.491371 
7363.000000	60.931849 
7362.000000	61.492967 
7361.000000	62.188768 
7360.000000	63.014245 
7359.000000	63.936686 
7358.000000	64.896893 
7357.000000	65.813994 
7356.000000	66.601824 
7355.000000	67.180871 
7354.000000	67.497897 
7353.000000	67.530727 
7352.000000	67.294859 
7351.000000	66.834378 
7350.000000	66.219067 
7349.000000	65.525364 
7348.000000	64.825391 
7347.000000	64.176154 
7346.000000	63.624978 
7345.000000	63.198614 
7344.000000	62.909793 
7343.000000	62.755489 
7342.000000	62.723612 
7341.000000	62.792944 
7340.000000	62.933421 
7339.000000	63.113594 
7338.000000	63.297986 
7337.000000	63.462734 
7336.000000	63.594770 
7335.000000	63.698148 
7334.000000	63.788199 
7333.000000	63.890361 
7332.000000	64.029622 
7331.000000	64.218068 
7330.000000	64.447522 
7329.000000	64.691591 
7328.000000	64.909315 
7327.000000	65.051698 
7326.000000	65.077209 
7325.000000	64.967107 
7324.000000	64.732623 
7323.000000	64.413690 
7322.000000	64.072823 
7321.000000	63.778758 
7320.000000	63.593387 
7319.000000	63.558244 
7318.000000	63.685822 
7317.000000	63.956570 
7316.000000	64.326167 
7315.000000	64.742159 
7314.000000	65.148496 
7313.000000	65.495729 
7312.000000	65.749955 
7311.000000	65.895199 
7310.000000	65.934395 
7309.000000	65.884041 
7308.000000	65.768361 
7307.000000	65.611243 
7306.000000	65.429759 
7305.000000	65.230941 
7304.000000	65.008449 
7303.000000	64.748239 
7302.000000	64.437866 
7301.000000	64.076137 
7300.000000	63.674283 
7299.000000	63.262820 
7298.000000	62.886357 
7297.000000	62.600302 
7296.000000	62.452769 
7295.000000	62.481403 
7294.000000	62.700343 
7293.000000	63.100671 
7292.000000	63.647365 
7291.000000	64.288783 
7290.000000	64.961957 
7289.000000	65.607047 
7288.000000	66.176843 
7287.000000	66.640543 
7286.000000	66.983246 
7285.000000	67.205166 
7284.000000	67.318129 
7283.000000	67.335915 
7282.000000	67.271089 
7281.000000	67.129039 
7280.000000	66.910171 
7279.000000	66.609716 
7278.000000	66.223883 
7277.000000	65.752434 
7276.000000	65.204024 
7275.000000	64.598798 
7274.000000	63.968682 
7273.000000	63.353276 
7272.000000	62.795615 
7271.000000	62.332510 
7270.000000	61.992478 
7269.000000	61.784291 
7268.000000	61.706280 
7267.000000	61.743187 
7266.000000	61.880087 
7265.000000	62.096047 
7264.000000	62.380814 
7263.000000	62.726211 
7262.000000	63.135147 
7261.000000	63.609433 
7260.000000	64.150857 
7259.000000	64.752769 
7258.000000	65.395522 
7257.000000	66.047286 
7256.000000	66.658115 
7255.000000	67.168402 
7254.000000	67.515587 
7253.000000	67.648792 
7252.000000	67.537522 
7251.000000	67.181324 
7250.000000	66.616344 
7249.000000	65.909409 
7248.000000	65.149235 
7247.000000	64.425539 
7246.000000	63.816690 
7245.000000	63.367843 
7244.000000	63.084220 
7243.000000	62.931180 
7242.000000	62.846088 
7241.000000	62.760710 
7240.000000	62.613487 
7239.000000	62.379550 
7238.000000	62.067294 
7237.000000	61.731958 
7236.000000	61.449360 
7235.000000	61.309957 
7234.000000	61.382174 
7233.000000	61.707997 
7232.000000	62.286853 
7231.000000	63.078880 
7230.000000	64.010095 
7229.000000	64.992451 
7228.000000	65.941977 
7227.000000	66.787290 
7226.000000	67.477941 
7225.000000	67.983579 
7224.000000	68.291091 
7223.000000	68.397092 
7222.000000	68.304920 
7221.000000	68.027234 
7220.000000	67.585730 
7219.000000	67.023324 
7218.000000	66.397261 
7217.000000	65.774440 
7216.000000	65.221381 
7215.000000	64.800310 
7214.000000	64.554357 
7213.000000	64.499664 
7212.000000	64.623236 
7211.000000	64.887142 
7210.000000	65.235280 
7209.000000	65.605020 
7208.000000	65.936970 
7207.000000	66.179728 
7206.000000	66.302084 
7205.000000	66.294622 
7204.000000	66.166901 
7203.000000	65.939593 
7202.000000	65.641140 
7201.000000	65.301537 
7200.000000	64.946770 
7199.000000	64.597535 
7198.000000	64.269852 
7197.000000	63.978934 
7196.000000	63.739323 
7195.000000	63.569140 
7194.000000	63.490653 
7193.000000	63.528871 
7192.000000	63.705015 
7191.000000	64.030051 
7190.000000	64.496827 
7189.000000	65.075206 
7188.000000	65.715646 
7187.000000	66.349601 
7186.000000	66.902112 
7185.000000	67.298150 
7184.000000	67.484140 
7183.000000	67.425227 
7182.000000	67.114758 
7181.000000	66.569495 
7180.000000	65.830969 
7179.000000	64.955306 
7178.000000	64.007210 
7177.000000	63.055348 
7176.000000	62.167549 
7175.000000	61.407971 
7174.000000	60.832405 
7173.000000	60.486435 
7172.000000	60.400223 
7171.000000	60.584735 
7170.000000	61.028409 
7169.000000	61.692523 
7168.000000	62.515377 
7167.000000	63.418793 
7166.000000	64.320039 
7165.000000	65.138506 
7164.000000	65.810084 
7163.000000	66.295528 
7162.000000	66.583466 
7161.000000	66.689991 
7160.000000	66.648960 
7159.000000	66.505718 
7158.000000	66.303491 
7157.000000	66.081142 
7156.000000	65.865135 
7155.000000	65.674328 
7154.000000	65.520620 
7153.000000	65.414738 
7152.000000	65.370750 
7151.000000	65.408039 
7150.000000	65.547299 
7149.000000	65.805006 
7148.000000	66.183161 
7147.000000	66.662645 
7146.000000	67.201232 
7145.000000	67.737412 
7144.000000	68.194627 
7143.000000	68.494439 
7142.000000	68.573045 
7141.000000	68.394851 
7140.000000	67.958116 
7139.000000	67.299175 
7138.000000	66.485738 
7137.000000	65.608286 
7136.000000	64.768886 
7135.000000	64.062857 
7134.000000	63.563966 
7133.000000	63.312029 
7132.000000	63.314318 
7131.000000	63.541054 
7130.000000	63.932108 
7129.000000	64.409756 
7128.000000	64.891266 
7127.000000	65.304493 
7126.000000	65.592503 
7125.000000	65.726947 
7124.000000	65.704417 
7123.000000	65.546560 
7122.000000	65.289378 
7121.000000	64.976930 
7120.000000	64.651679 
7119.000000	64.349341 
7118.000000	64.095544 
7117.000000	63.906431 
7116.000000	63.790011 
7115.000000	63.748073 
7114.000000	63.777232 
7113.000000	63.868021 
7112.000000	64.005804 
7111.000000	64.168691 
7110.000000	64.331984 
7109.000000	64.468693 
7108.000000	64.556789 
7107.000000	64.585566 
7106.000000	64.555215 
7105.000000	64.474129 
7104.000000	64.355444 
7103.000000	64.219379 
7102.000000	64.079523 
7101.000000	63.939690 
7100.000000	63.792729 
7099.000000	63.625383 
7098.000000	63.423180 
7097.000000	63.178944 
7096.000000	62.896442 
7095.000000	62.591528 
7094.000000	62.292170 
7093.000000	62.032985 
7092.000000	61.845946 
7091.000000	61.752009 
7090.000000	61.758160 
7089.000000	61.856174 
7088.000000	62.025737 
7087.000000	62.241005 
7086.000000	62.475752 
7085.000000	62.711310 
7084.000000	62.936925 
7083.000000	63.153934 
7082.000000	63.369560 
7081.000000	63.597393 
7080.000000	63.848352 
7079.000000	64.130711 
7078.000000	64.448928 
7077.000000	64.799404 
7076.000000	65.174818 
7075.000000	65.557432 
7074.000000	65.926074 
7073.000000	66.251182 
7072.000000	66.503596 
7071.000000	66.654300 
7070.000000	66.682362 
7069.000000	66.578483 
7068.000000	66.351604 
7067.000000	66.023778 
7066.000000	65.628385 
7065.000000	65.204906 
7064.000000	64.794182 
7063.000000	64.430284 
7062.000000	64.136600 
7061.000000	63.925457 
7060.000000	63.798332 
7059.000000	63.746905 
7058.000000	63.756728 
7057.000000	63.809180 
7056.000000	63.885903 
7055.000000	63.971042 
7054.000000	64.052319 
7053.000000	64.117050 
7052.000000	64.154601 
7051.000000	64.155554 
7050.000000	64.113473 
7049.000000	64.023876 
7048.000000	63.888096 
7047.000000	63.713765 
7046.000000	63.516354 
7045.000000	63.315653 
7044.000000	63.137245 
7043.000000	63.008999 
7042.000000	62.955355 
7041.000000	62.991023 
7040.000000	63.120055 
7039.000000	63.333868 
7038.000000	63.613986 
7037.000000	63.934826 
7036.000000	64.268779 
7035.000000	64.589452 
7034.000000	64.878320 
7033.000000	65.123939 
7032.000000	65.317440 
7031.000000	65.450572 
7030.000000	65.516614 
7029.000000	65.510296 
7028.000000	65.427303 
7027.000000	65.269827 
7026.000000	65.052413 
7025.000000	64.800763 
7024.000000	64.554691 
7023.000000	64.355039 
7022.000000	64.240264 
7021.000000	64.228892 
7020.000000	64.317226 
7019.000000	64.473414 
7018.000000	64.641952 
7017.000000	64.761304 
7016.000000	64.779090 
7015.000000	64.669728 
7014.000000	64.441156 
7013.000000	64.136600 
7012.000000	63.822603 
7011.000000	63.574004 
7010.000000	63.453555 
7009.000000	63.501095 
7008.000000	63.724184 
7007.000000	64.099073 
7006.000000	64.577960 
7005.000000	65.102434 
7004.000000	65.616726 
7003.000000	66.078209 
7002.000000	66.462802 
7001.000000	66.765022 
7000.000000	66.990900 
6999.000000	67.152881 
6998.000000	67.256808 
6997.000000	67.301225 
6996.000000	67.270684 
6995.000000	67.147946 
6994.000000	66.913414 
6993.000000	66.559886 
6992.000000	66.094756 
6991.000000	65.547013 
6990.000000	64.962625 
6989.000000	64.399552 
6988.000000	63.914656 
6987.000000	63.553094 
6986.000000	63.337445 
6985.000000	63.264012 
6984.000000	63.303160 
6983.000000	63.407754 
6982.000000	63.526725 
6981.000000	63.619184 
6980.000000	63.664126 
6979.000000	63.666367 
6978.000000	63.653278 
6977.000000	63.666486 
6976.000000	63.747549 
6975.000000	63.924360 
6974.000000	64.203047 
6973.000000	64.561820 
6972.000000	64.956331 
6971.000000	65.326523 
6970.000000	65.616035 
6969.000000	65.779042 
6968.000000	65.792989 
6967.000000	65.658378 
6966.000000	65.398216 
6965.000000	65.050053 
6964.000000	64.656448 
6963.000000	64.258146 
6962.000000	63.887763 
6961.000000	63.569092 
6960.000000	63.319563 
6959.000000	63.148427 
6958.000000	63.059377 
6957.000000	63.051652 
6956.000000	63.121604 
6955.000000	63.257765 
6954.000000	63.441491 
6953.000000	63.649201 
6952.000000	63.856196 
6951.000000	64.040160 
6950.000000	64.185380 
6949.000000	64.286351 
6948.000000	64.346194 
6947.000000	64.376211 
6946.000000	64.388108 
6945.000000	64.390134 
6944.000000	64.381122 
6943.000000	64.353752 
6942.000000	64.293479 
6941.000000	64.185380 
6940.000000	64.018750 
6939.000000	63.794350 
6938.000000	63.525104 
6937.000000	63.234710 
6936.000000	62.955141 
6935.000000	62.718701 
6934.000000	62.554121 
6933.000000	62.479424 
6932.000000	62.501025 
6931.000000	62.611937 
6930.000000	62.798380 
6929.000000	63.042807 
6928.000000	63.331007 
6927.000000	63.653063 
6926.000000	64.002871 
6925.000000	64.373636 
6924.000000	64.754867 
6923.000000	65.127158 
6922.000000	65.461325 
6921.000000	65.719771 
6920.000000	65.866255 
6919.000000	65.870714 
6918.000000	65.720820 
6917.000000	65.423250 
6916.000000	65.007305 
6915.000000	64.518284 
6914.000000	64.012145 
6913.000000	63.544344 
6912.000000	63.160753 
6911.000000	62.891745 
6910.000000	62.750458 
6909.000000	62.732148 
6908.000000	62.818217 
6907.000000	62.980866 
6906.000000	63.190126 
6905.000000	63.413548 
6904.000000	63.618636 
6903.000000	63.775658 
6902.000000	63.859081 
6901.000000	63.851022 
6900.000000	63.742685 
6899.000000	63.537383 
6898.000000	63.249874 
6897.000000	62.905359 
6896.000000	62.535429 
6895.000000	62.173151 
6894.000000	61.848044 
6893.000000	61.582946 
6892.000000	61.391782 
6891.000000	61.277675 
6890.000000	61.236476 
6889.000000	61.258149 
6888.000000	61.331820 
6887.000000	61.444211 
6886.000000	61.586284 
6885.000000	61.746478 
6884.000000	61.920189 
6883.000000	62.103509 
6882.000000	62.299513 
6881.000000	62.512993 
6880.000000	62.751054 
6879.000000	63.020706 
6878.000000	63.320088 
6877.000000	63.636732 
6876.000000	63.945770 
6875.000000	64.214348 
6874.000000	64.410734 
6873.000000	64.513087 
6872.000000	64.517521 
6871.000000	64.440369 
6870.000000	64.316177 
6869.000000	64.188194 
6868.000000	64.099097 
6867.000000	64.078474 
6866.000000	64.133024 
6865.000000	64.247584 
6864.000000	64.391565 
6863.000000	64.529848 
6862.000000	64.634299 
6861.000000	64.692878 
6860.000000	64.715194 
6859.000000	64.725947 
6858.000000	64.754629 
6857.000000	64.825248 
6856.000000	64.944553 
6855.000000	65.101623 
6854.000000	65.271043 
6853.000000	65.419316 
6852.000000	65.517020 
6851.000000	65.543413 
6850.000000	65.493893 
6849.000000	65.375685 
6848.000000	65.205526 
6847.000000	65.005350 
6846.000000	64.798021 
6845.000000	64.603519 
6844.000000	64.438104 
6843.000000	64.317107 
6842.000000	64.254927 
6841.000000	64.264941 
6840.000000	64.356780 
6839.000000	64.532995 
6838.000000	64.786362 
6837.000000	65.094947 
6836.000000	65.427470 
6835.000000	65.747117 
6834.000000	66.019678 
6833.000000	66.219043 
6832.000000	66.333174 
6831.000000	66.366624 
6830.000000	66.336631 
6829.000000	66.268515 
6828.000000	66.187357 
6827.000000	66.112947 
6826.000000	66.054892 
6825.000000	66.014504 
6824.000000	65.983104 
6823.000000	65.948104 
6822.000000	65.896415 
6821.000000	65.820240 
6820.000000	65.721249 
6819.000000	65.611338 
6818.000000	65.508270 
6817.000000	65.431118 
6816.000000	65.396332 
6815.000000	65.411520 
6814.000000	65.474486 
6813.000000	65.569901 
6812.000000	65.673136 
6811.000000	65.752172 
6810.000000	65.775132 
6809.000000	65.715980 
6808.000000	65.558958 
6807.000000	65.305566 
6806.000000	64.970254 
6805.000000	64.586758 
6804.000000	64.201092 
6803.000000	63.867282 
6802.000000	63.635039 
6801.000000	63.543343 
6800.000000	63.614892 
6799.000000	63.845944 
6798.000000	64.207625 
6797.000000	64.644551 
6796.000000	65.085077 
6795.000000	65.451741 
6794.000000	65.676355 
6793.000000	65.713381 
6792.000000	65.548968 
6791.000000	65.205168 
6790.000000	64.734911 
6789.000000	64.209890 
6788.000000	63.705492 
6787.000000	63.287973 
6786.000000	63.000822 
6785.000000	62.862420 
6784.000000	62.862014 
6783.000000	62.970972 
6782.000000	63.145160 
6781.000000	63.336873 
6780.000000	63.501143 
6779.000000	63.599658 
6778.000000	63.608694 
6777.000000	63.516497 
6776.000000	63.328599 
6775.000000	63.060998 
6774.000000	62.741637 
6773.000000	62.403774 
6772.000000	62.083196 
6771.000000	61.813759 
6770.000000	61.620569 
6769.000000	61.516785 
6768.000000	61.502790 
6767.000000	61.567521 
6766.000000	61.692380 
6765.000000	61.855912 
6764.000000	62.036991 
6763.000000	62.218594 
6762.000000	62.389683 
6761.000000	62.544727 
6760.000000	62.680792 
6759.000000	62.795495 
6758.000000	62.884235 
6757.000000	62.940096 
6756.000000	62.959241 
6755.000000	62.938737 
6754.000000	62.879419 
6753.000000	62.784481 
6752.000000	62.664222 
6751.000000	62.529468 
6750.000000	62.389707 
6749.000000	62.252283 
6748.000000	62.120294 
6747.000000	61.997222 
6746.000000	61.887693 
6745.000000	61.800551 
6744.000000	61.748218 
6743.000000	61.743974 
6742.000000	61.798071 
6741.000000	61.912727 
6740.000000	62.079381 
6739.000000	62.277102 
6738.000000	62.475967 
6737.000000	62.643313 
6736.000000	62.751698 
6735.000000	62.785458 
6734.000000	62.745380 
6733.000000	62.648344 
6732.000000	62.524199 
6731.000000	62.407159 
6730.000000	62.329530 
6729.000000	62.312984 
6728.000000	62.366724 
6727.000000	62.489151 
6726.000000	62.667942 
6725.000000	62.887501 
6724.000000	63.127994 
6723.000000	63.369798 
6722.000000	63.593125 
6721.000000	63.779520 
6720.000000	63.912820 
6719.000000	63.979649 
6718.000000	63.973021 
6717.000000	63.894224 
6716.000000	63.753128 
6715.000000	63.567829 
6714.000000	63.361835 
6713.000000	63.160920 
6712.000000	62.989091 
6711.000000	62.865781 
6710.000000	62.802553 
6709.000000	62.802577 
6708.000000	62.863183 
6707.000000	62.976431 
6706.000000	63.130879 
6705.000000	63.312101 
6704.000000	63.502788 
6703.000000	63.684725 
6702.000000	63.837218 
6701.000000	63.943481 
6700.000000	63.990664 
6699.000000	63.976383 
6698.000000	63.910198 
6697.000000	63.812184 
6696.000000	63.709497 
6695.000000	63.629388 
6694.000000	63.594794 
6693.000000	63.616371 
6692.000000	63.692402 
6691.000000	63.805437 
6690.000000	63.928270 
6689.000000	64.028191 
6688.000000	64.076113 
6687.000000	64.051628 
6686.000000	63.948225 
6685.000000	63.773703 
6684.000000	63.548326 
6683.000000	63.300514 
6682.000000	63.061189 
6681.000000	62.857842 
6680.000000	62.710452 
6679.000000	62.629270 
6678.000000	62.615513 
6677.000000	62.662625 
6676.000000	62.760734 
6675.000000	62.896823 
6674.000000	63.060522 
6673.000000	63.244175 
6672.000000	63.444089 
6671.000000	63.656544 
6670.000000	63.876938 
6669.000000	64.096927 
6668.000000	64.303588 
6667.000000	64.480614 
6666.000000	64.610290 
6665.000000	64.677309 
6664.000000	64.673471 
6663.000000	64.602088 
6662.000000	64.477252 
6661.000000	64.322257 
6660.000000	64.165973 
6659.000000	64.037346 
6658.000000	63.957691 
6657.000000	63.936161 
6656.000000	63.968157 
6655.000000	64.036607 
6654.000000	64.116191 
6653.000000	64.179730 
6652.000000	64.204907 
6651.000000	64.179921 
6650.000000	64.103937 
6649.000000	63.988399 
6648.000000	63.851475 
6647.000000	63.716006 
6646.000000	63.603043 
6645.000000	63.529419 
6644.000000	63.503599 
6643.000000	63.526940 
6642.000000	63.595104 
6641.000000	63.699865 
6640.000000	63.830184 
6639.000000	63.976430 
6638.000000	64.130640 
6637.000000	64.288067 
6636.000000	64.444518 
6635.000000	64.598488 
6634.000000	64.748883 
6633.000000	64.895701 
6632.000000	65.038919 
6631.000000	65.177655 
6630.000000	65.309262 
6629.000000	65.430974 
6628.000000	65.539050 
6627.000000	65.629363 
6626.000000	65.696907 
6625.000000	65.737771 
6624.000000	65.748405 
6623.000000	65.727591 
6622.000000	65.675783 
6621.000000	65.595412 
6620.000000	65.491008 
6619.000000	65.371227 
6618.000000	65.246248 
6617.000000	65.127778 
6616.000000	65.026044 
6615.000000	64.948558 
6614.000000	64.898967 
6613.000000	64.875435 
6612.000000	64.873814 
6611.000000	64.887905 
6610.000000	64.913630 
6609.000000	64.948630 
6608.000000	64.995646 
6607.000000	65.060496 
6606.000000	65.151047 
6605.000000	65.273141 
6604.000000	65.428280 
6603.000000	65.610337 
6602.000000	65.805006 
6601.000000	65.990138 
6600.000000	66.140151 
6599.000000	66.229414 
6598.000000	66.237068 
6597.000000	66.150617 
6596.000000	65.970444 
6595.000000	65.709066 
6594.000000	65.389132 
6593.000000	65.039706 
6592.000000	64.693236 
6591.000000	64.378762 
6590.000000	64.119529 
6589.000000	63.927936 
6588.000000	63.804364 
6587.000000	63.739991 
6586.000000	63.718962 
6585.000000	63.725852 
6584.000000	63.747167 
6583.000000	63.778281 
6582.000000	63.821029 
6581.000000	63.885140 
6580.000000	63.982129 
6579.000000	64.121270 
6578.000000	64.303374 
6577.000000	64.519786 
6576.000000	64.751291 
6575.000000	64.970970 
6574.000000	65.147876 
6573.000000	65.253591 
6572.000000	65.266466 
6571.000000	65.175700 
6570.000000	64.983081 
6569.000000	64.702296 
6568.000000	64.357876 
6567.000000	63.980627 
6566.000000	63.605856 
6565.000000	63.267922 
6564.000000	62.998414 
6563.000000	62.823677 
6562.000000	62.760829 
6561.000000	62.814259 
6560.000000	62.975287 
6559.000000	63.222980 
6558.000000	63.525676 
6557.000000	63.843488 
6556.000000	64.135956 
6555.000000	64.366126 
6554.000000	64.508628 
6553.000000	64.552140 
6552.000000	64.500856 
6551.000000	64.371705 
6550.000000	64.190173 
6549.000000	63.983917 
6548.000000	63.777732 
6547.000000	63.589048 
6546.000000	63.426923 
6545.000000	63.292932 
6544.000000	63.184261 
6543.000000	63.097667 
6542.000000	63.030934 
6541.000000	62.986588 
6540.000000	62.969636 
6539.000000	62.988805 
6538.000000	63.049983 
6537.000000	63.157248 
6536.000000	63.309764 
6535.000000	63.500380 
6534.000000	63.714885 
6533.000000	63.933515 
6532.000000	64.134860 
6531.000000	64.297294 
6530.000000	64.403343 
6529.000000	64.441156 
6528.000000	64.406228 
6527.000000	64.303708 
6526.000000	64.148378 
6525.000000	63.961625 
6524.000000	63.768172 
6523.000000	63.592195 
6522.000000	63.453865 
6521.000000	63.366317 
6520.000000	63.335037 
6519.000000	63.357210 
6518.000000	63.424968 
6517.000000	63.528037 
6516.000000	63.658165 
6515.000000	63.808679 
6514.000000	63.977432 
6513.000000	64.163923 
6512.000000	64.368510 
6511.000000	64.590096 
6510.000000	64.822125 
6509.000000	65.053987 
6508.000000	65.267038 
6507.000000	65.440869 
6506.000000	65.551161 
6505.000000	65.577554 
6504.000000	65.504646 
6503.000000	65.328407 
6502.000000	65.056729 
6501.000000	64.710116 
6500.000000	64.320778 
6499.000000	63.928532 
6498.000000	63.576912 
6497.000000	63.306450 
6496.000000	63.149189 
6495.000000	63.123083 
6494.000000	63.229393 
6493.000000	63.451814 
6492.000000	63.757586 
6491.000000	64.103436 
6490.000000	64.440655 
6489.000000	64.725518 
6488.000000	64.925599 
6487.000000	65.025615 
6486.000000	65.027475 
6485.000000	64.947485 
6484.000000	64.812517 
6483.000000	64.649486 
6482.000000	64.481425 
6481.000000	64.320039 
6480.000000	64.168000 
6479.000000	64.019203 
6478.000000	63.865327 
6477.000000	63.701510 
6476.000000	63.531327 
6475.000000	63.369202 
6474.000000	63.237071 
6473.000000	63.161563 
6472.000000	63.165450 
6471.000000	63.262414 
6470.000000	63.451194 
6469.000000	63.714122 
6468.000000	64.018774 
6467.000000	64.325308 
6466.000000	64.593720 
6465.000000	64.790105 
6464.000000	64.892816 
6463.000000	64.894795 
6462.000000	64.803504 
6461.000000	64.638590 
6460.000000	64.426565 
6459.000000	64.194726 
6458.000000	63.966894 
6457.000000	63.763332 
6456.000000	63.596749 
6455.000000	63.475108 
6454.000000	63.400173 
6453.000000	63.369774 
6452.000000	63.378596 
6451.000000	63.418865 
6450.000000	63.482403 
6449.000000	63.559341 
6448.000000	63.641738 
6447.000000	63.722491 
6446.000000	63.797497 
6445.000000	63.864326 
6444.000000	63.924002 
6443.000000	63.979411 
6442.000000	64.033842 
6441.000000	64.088344 
6440.000000	64.141964 
6439.000000	64.189720 
6438.000000	64.221405 
6437.000000	64.223003 
6436.000000	64.179205 
6435.000000	64.078068 
6434.000000	63.915610 
6433.000000	63.699293 
6432.000000	63.447213 
6431.000000	63.187360 
6430.000000	62.953186 
6429.000000	62.776541 
6428.000000	62.682008 
6427.000000	62.680053 
6426.000000	62.763905 
6425.000000	62.911796 
6424.000000	63.091230 
6423.000000	63.267707 
6422.000000	63.410449 
6421.000000	63.502073 
6420.000000	63.539481 
6419.000000	63.535881 
6418.000000	63.514375 
6417.000000	63.503623 
6416.000000	63.528943 
6415.000000	63.609051 
6414.000000	63.751149 
6413.000000	63.951396 
6412.000000	64.194822 
6411.000000	64.458656 
6410.000000	64.715123 
6409.000000	64.936184 
6408.000000	65.097689 
6407.000000	65.182757 
6406.000000	65.184736 
6405.000000	65.107536 
6404.000000	64.965844 
6403.000000	64.782047 
6402.000000	64.583206 
6401.000000	64.397954 
6400.000000	64.251184 
6399.000000	64.161872 
6398.000000	64.139652 
6397.000000	64.185523 
6396.000000	64.291501 
6395.000000	64.443206 
6394.000000	64.622569 
6393.000000	64.810061 
6392.000000	64.988994 
6391.000000	65.146732 
6390.000000	65.275788 
6389.000000	65.372538 
6388.000000	65.438985 
6387.000000	65.480518 
6386.000000	65.504431 
6385.000000	65.516996 
6384.000000	65.521955 
6383.000000	65.519118 
6382.000000	65.505838 
6381.000000	65.477848 
6380.000000	65.432310 
6379.000000	65.368461 
6378.000000	65.290307 
6377.000000	65.204548 
6376.000000	65.119910 
6375.000000	65.043997 
6374.000000	64.981126 
6373.000000	64.931678 
6372.000000	64.891529 
6371.000000	64.854669 
6370.000000	64.815044 
6369.000000	64.769291 
6368.000000	64.718794 
6367.000000	64.668130 
6366.000000	64.623522 
6365.000000	64.589571 
6364.000000	64.567756 
6363.000000	64.553499 
6362.000000	64.536571 
6361.000000	64.507508 
6360.000000	64.461231 
6359.000000	64.399409 
6358.000000	64.331936 
6357.000000	64.275479 
6356.000000	64.250159 
6355.000000	64.273142 
6354.000000	64.355134 
6353.000000	64.496731 
6352.000000	64.688372 
6351.000000	64.913368 
6350.000000	65.150022 
6349.000000	65.376901 
6348.000000	65.574383 
6347.000000	65.729498 
6346.000000	65.833449 
6345.000000	65.882182 
6344.000000	65.873694 
6343.000000	65.809464 
6342.000000	65.690994 
6341.000000	65.522408 
6340.000000	65.308141 
6339.000000	65.056967 
6338.000000	64.777946 
6337.000000	64.482665 
6336.000000	64.182114 
6335.000000	63.887453 
6334.000000	63.609623 
6333.000000	63.360118 
6332.000000	63.150691 
6331.000000	62.993335 
6330.000000	62.898612 
6329.000000	62.874579 
6328.000000	62.923502 
6327.000000	63.041400 
6326.000000	63.215088 
6325.000000	63.425588 
6324.000000	63.648629 
6323.000000	63.860893 
6322.000000	64.042520 
6321.000000	64.181470 
6320.000000	64.274930 
6319.000000	64.327621 
6318.000000	64.349746 
6317.000000	64.351606 
6316.000000	64.341926 
6315.000000	64.322996 
6314.000000	64.292430 
6313.000000	64.243102 
6312.000000	64.168787 
6311.000000	64.064764 
6310.000000	63.931751 
6309.000000	63.776397 
6308.000000	63.611745 
6307.000000	63.454794 
6306.000000	63.324141 
6305.000000	63.236880 
6304.000000	63.206076 
6303.000000	63.239431 
6302.000000	63.338446 
6301.000000	63.497853 
6300.000000	63.706803 
6299.000000	63.949847 
6298.000000	64.209651 
6297.000000	64.466238 
6296.000000	64.702272 
6295.000000	64.903569 
6294.000000	65.063452 
6293.000000	65.181708 
6292.000000	65.265655 
6291.000000	65.328574 
6290.000000	65.385127 
6289.000000	65.449428 
6288.000000	65.528988 
6287.000000	65.625476 
6286.000000	65.730547 
6285.000000	65.830636 
6284.000000	65.906381 
6283.000000	65.938782 
6282.000000	65.912795 
6281.000000	65.822076 
6280.000000	65.668773 
6279.000000	65.463185 
6278.000000	65.221214 
6277.000000	64.960408 
6276.000000	64.695262 
6275.000000	64.435076 
6274.000000	64.183115 
6273.000000	63.939738 
6272.000000	63.704657 
6271.000000	63.482308 
6270.000000	63.281655 
6269.000000	63.118290 
6268.000000	63.011860 
6267.000000	62.980604 
6266.000000	63.033032 
6265.000000	63.165068 
6264.000000	63.357186 
6263.000000	63.577961 
6262.000000	63.786125 
6261.000000	63.944530 
6260.000000	64.027309 
6259.000000	64.027571 
6258.000000	63.957834 
6257.000000	63.846945 
6256.000000	63.731646 
6255.000000	63.646745 
6254.000000	63.615918 
6253.000000	63.646268 
6252.000000	63.727426 
6251.000000	63.837218 
6250.000000	63.948535 
6249.000000	64.036726 
6248.000000	64.085888 
6247.000000	64.092731 
6246.000000	64.065217 
6245.000000	64.015960 
6244.000000	63.958525 
6243.000000	63.902664 
6242.000000	63.851976 
6241.000000	63.804483 
6240.000000	63.753604 
6239.000000	63.695621 
6238.000000	63.627505 
6237.000000	63.549566 
6236.000000	63.464045 
6235.000000	63.374257 
6234.000000	63.284039 
6233.000000	63.195466 
6232.000000	63.111042 
6231.000000	63.032770 
6230.000000	62.964630 
6229.000000	62.912321 
6228.000000	62.882924 
6227.000000	62.883043 
6226.000000	62.917518 
6225.000000	62.987565 
6224.000000	63.089489 
6223.000000	63.214993 
6222.000000	63.352584 
6221.000000	63.489413 
6220.000000	63.613510 
6219.000000	63.715243 
6218.000000	63.788580 
6217.000000	63.831853 
6216.000000	63.845205 
6215.000000	63.832616 
6214.000000	63.801407 
6213.000000	63.761448 
6212.000000	63.724660 
6211.000000	63.702464 
6210.000000	63.704633 
6209.000000	63.736796 
6208.000000	63.799262 
6207.000000	63.887858 
6206.000000	63.994789 
6205.000000	64.110946 
6204.000000	64.227747 
6203.000000	64.338374 
6202.000000	64.438128 
6201.000000	64.524483 
6200.000000	64.596366 
6199.000000	64.652299 
6198.000000	64.689612 
6197.000000	64.704942 
6196.000000	64.694547 
6195.000000	64.655208 
6194.000000	64.584660 
6193.000000	64.485049 
6192.000000	64.361143 
6191.000000	64.220881 
6190.000000	64.072561 
6189.000000	63.923788 
6188.000000	63.779497 
6187.000000	63.642382 
6186.000000	63.512206 
6185.000000	63.386511 
6184.000000	63.262701 
6183.000000	63.139009 
6182.000000	63.017010 
6181.000000	62.900447 
6180.000000	62.796902 
6179.000000	62.714338 
6178.000000	62.661194 
6177.000000	62.642931 
6176.000000	62.661290 
6175.000000	62.712311 
6174.000000	62.788558 
6173.000000	62.879896 
6172.000000	62.977576 
6171.000000	63.076186 
6170.000000	63.175249 
6169.000000	63.278436 
6168.000000	63.392686 
6167.000000	63.523960 
6166.000000	63.674330 
6165.000000	63.838481 
6164.000000	64.003300 
6163.000000	64.148950 
6162.000000	64.254641 
6161.000000	64.302635 
6160.000000	64.283061 
6159.000000	64.197731 
6158.000000	64.061808 
6157.000000	63.900637 
6156.000000	63.743925 
6155.000000	63.621139 
6154.000000	63.555169 
6153.000000	63.559341 
6152.000000	63.635039 
6151.000000	63.774204 
6150.000000	63.962173 
6149.000000	64.181733 
6148.000000	64.416790 
6147.000000	64.653038 
6146.000000	64.878344 
6145.000000	65.081572 
6144.000000	65.251874 
6143.000000	65.377616 
6142.000000	65.447735 
6141.000000	65.455794 
6140.000000	65.402173 
6139.000000	65.296459 
6138.000000	65.156388 
6137.000000	65.007638 
6136.000000	64.877319 
6135.000000	64.788818 
6134.000000	64.756369 
6133.000000	64.783430 
6132.000000	64.861679 
6131.000000	64.973330 
6130.000000	65.096545 
6129.000000	65.211486 
6128.000000	65.303635 
6127.000000	65.367007 
6126.000000	65.402054 
6125.000000	65.412855 
6124.000000	65.404057 
6123.000000	65.377998 
6122.000000	65.333867 
6121.000000	65.268325 
6120.000000	65.177631 
6119.000000	65.060710 
6118.000000	64.920043 
6117.000000	64.762878 
6116.000000	64.598870 
6115.000000	64.438581 
6114.000000	64.291739 
6113.000000	64.164996 
6112.000000	64.060616 
6111.000000	63.976335 
6110.000000	63.905930 
6109.000000	63.841652 
6108.000000	63.775038 
6107.000000	63.700914 
6106.000000	63.616752 
6105.000000	63.526606 
6104.000000	63.437294 
6103.000000	63.360643 
6102.000000	63.309288 
6101.000000	63.295149 
6100.000000	63.325834 
6099.000000	63.402152 
6098.000000	63.516998 
6097.000000	63.655662 
6096.000000	63.797974 
6095.000000	63.923215 
6094.000000	64.014220 
6093.000000	64.061903 
6092.000000	64.066863 
6091.000000	64.038324 
6090.000000	63.991236 
6089.000000	63.943290 
6088.000000	63.910675 
6087.000000	63.904356 
6086.000000	63.927841 
6085.000000	63.979339 
6084.000000	64.051318 
6083.000000	64.133310 
6082.000000	64.213085 
6081.000000	64.280152 
6080.000000	64.326190 
6079.000000	64.345693 
6078.000000	64.336967 
6077.000000	64.301156 
6076.000000	64.242839 
6075.000000	64.169621 
6074.000000	64.091014 
6073.000000	64.017987 
6072.000000	63.960313 
6071.000000	63.925075 
6070.000000	63.915777 
6069.000000	63.931393 
6068.000000	63.968205 
6067.000000	64.020490 
6066.000000	64.083123 
6065.000000	64.152479 
6064.000000	64.228415 
6063.000000	64.313340 
6062.000000	64.410233 
6061.000000	64.519953 
6060.000000	64.640212 
6059.000000	64.763784 
6058.000000	64.879560 
6057.000000	64.973521 
6056.000000	65.031933 
6055.000000	65.043711 
6054.000000	65.005207 
6053.000000	64.919376 
6052.000000	64.795947 
6051.000000	64.649057 
6050.000000	64.495229 
6049.000000	64.350414 
6048.000000	64.227390 
6047.000000	64.134883 
6046.000000	64.077258 
6045.000000	64.054751 
6044.000000	64.064836 
6043.000000	64.102649 
6042.000000	64.161944 
6041.000000	64.235258 
6040.000000	64.313769 
6039.000000	64.387965 
6038.000000	64.447999 
6037.000000	64.484858 
6036.000000	64.491724 
6035.000000	64.465355 
6034.000000	64.407300 
6033.000000	64.324617 
6032.000000	64.229798 
6031.000000	64.137840 
6030.000000	64.065194 
6029.000000	64.027667 
6028.000000	64.037775 
6027.000000	64.101839 
6026.000000	64.219117 
6025.000000	64.382815 
6024.000000	64.579796 
6023.000000	64.792180 
6022.000000	64.999938 
6021.000000	65.183854 
6020.000000	65.328240 
6019.000000	65.422582 
6018.000000	65.463328 
6017.000000	65.453076 
6016.000000	65.401220 
6015.000000	65.322375 
6014.000000	65.233516 
6013.000000	65.151572 
6012.000000	65.090870 
6011.000000	65.061640 
6010.000000	65.067267 
6009.000000	65.104317 
6008.000000	65.163135 
6007.000000	65.229630 
6006.000000	65.288114 
6005.000000	65.323877 
6004.000000	65.326023 
6003.000000	65.288639 
6002.000000	65.211391 
6001.000000	65.098881 
6000.000000	64.959454 
5999.000000	64.803123 
5998.000000	64.640235 
5997.000000	64.479732 
5996.000000	64.328360 
5995.000000	64.190936 
5994.000000	64.071679 
5993.000000	63.974547 
5992.000000	63.901734 
5991.000000	63.856434 
5990.000000	63.842105 
5989.000000	63.862228 
5988.000000	63.917040 
5987.000000	64.005398 
5986.000000	64.122962 
5985.000000	64.262437 
5984.000000	64.413213 
5983.000000	64.562392 
5982.000000	64.696168 
5981.000000	64.802503 
5980.000000	64.873051 
5979.000000	64.904522 
5978.000000	64.899039 
5977.000000	64.865279 
5976.000000	64.815092 
5975.000000	64.761638 
5974.000000	64.714288 
5973.000000	64.679121 
5972.000000	64.654135 
5971.000000	64.631295 
5970.000000	64.597320 
5969.000000	64.539146 
5968.000000	64.446568 
5967.000000	64.315319 
5966.000000	64.149236 
5965.000000	63.960528 
5964.000000	63.767004 
5963.000000	63.587021 
5962.000000	63.436913 
5961.000000	63.327193 
5960.000000	63.261485 
5959.000000	63.236474 
5958.000000	63.244581 
5957.000000	63.276243 
5956.000000	63.323402 
5955.000000	63.381195 
5954.000000	63.447523 
5953.000000	63.522553 
5952.000000	63.607192 
5951.000000	63.702130 
5950.000000	63.804912 
5949.000000	63.910961 
5948.000000	64.015460 
5947.000000	64.114093 
5946.000000	64.204645 
5945.000000	64.286589 
5944.000000	64.360952 
5943.000000	64.429211 
5942.000000	64.492940 
5941.000000	64.552807 
5940.000000	64.607954 
5939.000000	64.657330 
5938.000000	64.701032 
5937.000000	64.740037 
5936.000000	64.776635 
5935.000000	64.813590 
5934.000000	64.854073 
5933.000000	64.899420 
5932.000000	64.948749 
5931.000000	64.998888 
5930.000000	65.045166 
5929.000000	65.082097 
5928.000000	65.104246 
5927.000000	65.107655 
5926.000000	65.089750 
5925.000000	65.048933 
5924.000000	64.984369 
5923.000000	64.895510 
5922.000000	64.783310 
5921.000000	64.650726 
5920.000000	64.504551 
5919.000000	64.355254 
5918.000000	64.216899 
5917.000000	64.105367 
5916.000000	64.035558 
5915.000000	64.017248 
5914.000000	64.053511 
5913.000000	64.139175 
5912.000000	64.261531 
5911.000000	64.401626 
5910.000000	64.538550 
5909.000000	64.653325 
5908.000000	64.731836 
5907.000000	64.766883 
5906.000000	64.758586 
5905.000000	64.713191 
5904.000000	64.640688 
5903.000000	64.552116 
5902.000000	64.457869 
5901.000000	64.366436 
5900.000000	64.284372 
5899.000000	64.216804 
5898.000000	64.168286 
5897.000000	64.143180 
5896.000000	64.145159 
5895.000000	64.176511 
5894.000000	64.236402 
5893.000000	64.320850 
5892.000000	64.421606 
5891.000000	64.528703 
5890.000000	64.631032 
5889.000000	64.719343 
5888.000000	64.788031 
5887.000000	64.835166 
5886.000000	64.861941 
5885.000000	64.871716 
5884.000000	64.869165 
5883.000000	64.858245 
5882.000000	64.841532 
5881.000000	64.820003 
5880.000000	64.794063 
5879.000000	64.764404 
5878.000000	64.733242 
5877.000000	64.703226 
5876.000000	64.677453 
5875.000000	64.657807 
5874.000000	64.644503 
5873.000000	64.635848 
5872.000000	64.628911 
5871.000000	64.620423 
5870.000000	64.607882 
5869.000000	64.591336 
5868.000000	64.572310 
5867.000000	64.552450 
5866.000000	64.533066 
5865.000000	64.512491 
5864.000000	64.488601 
5863.000000	64.459419 
5862.000000	64.425730 
5861.000000	64.391350 
5860.000000	64.363384 
5859.000000	64.351439 
5858.000000	64.363789 
5857.000000	64.405655 
5856.000000	64.475178 
5855.000000	64.562559 
5854.000000	64.651942 
5853.000000	64.724349 
5852.000000	64.763641 
5851.000000	64.760565 
5850.000000	64.716434 
5849.000000	64.643073 
5848.000000	64.561176 
5847.000000	64.494824 
5846.000000	64.465332 
5845.000000	64.485383 
5844.000000	64.557099 
5843.000000	64.670109 
5842.000000	64.805197 
5841.000000	64.936971 
5840.000000	65.039277 
5839.000000	65.090656 
5838.000000	65.077209 
5837.000000	64.997577 
5836.000000	64.861202 
5835.000000	64.690041 
5834.000000	64.511871 
5833.000000	64.358234 
5832.000000	64.258265 
5831.000000	64.233088 
5830.000000	64.293551 
5829.000000	64.435362 
5828.000000	64.641308 
5827.000000	64.882111 
5826.000000	65.123057 
5825.000000	65.328264 
5824.000000	65.467095 
5823.000000	65.519213 
5822.000000	65.477585 
5821.000000	65.348267 
5820.000000	65.148401 
5819.000000	64.902591 
5818.000000	64.638161 
5817.000000	64.381670 
5816.000000	64.154624 
5815.000000	63.973069 
5814.000000	63.845014 
5813.000000	63.771080 
5812.000000	63.744974 
5811.000000	63.754796 
5810.000000	63.786554 
5809.000000	63.825035 
5808.000000	63.858771 
5807.000000	63.877654 
5806.000000	63.878822 
5805.000000	63.863372 
5804.000000	63.839244 
5803.000000	63.816428 
5802.000000	63.807392 
5801.000000	63.823199 
5800.000000	63.871741 
5799.000000	63.955998 
5798.000000	64.072751 
5797.000000	64.212846 
5796.000000	64.362668 
5795.000000	64.506816 
5794.000000	64.629936 
5793.000000	64.719748 
5792.000000	64.769005 
5791.000000	64.776802 
5790.000000	64.748764 
5789.000000	64.695644 
5788.000000	64.631867 
5787.000000	64.571690 
5786.000000	64.526844 
5785.000000	64.503574 
5784.000000	64.503622 
5783.000000	64.522790 
5782.000000	64.553403 
5781.000000	64.585185 
5780.000000	64.609241 
5779.000000	64.618229 
5778.000000	64.606976 
5777.000000	64.573788 
5776.000000	64.518857 
5775.000000	64.446520 
5774.000000	64.363265 
5773.000000	64.279747 
5772.000000	64.207720 
5771.000000	64.161944 
5770.000000	64.157080 
5769.000000	64.205336 
5768.000000	64.313054 
5767.000000	64.478039 
5766.000000	64.688158 
5765.000000	64.921283 
5764.000000	65.148377 
5763.000000	65.338397 
5762.000000	65.464162 
5761.000000	65.507459 
5760.000000	65.463113 
5759.000000	65.339779 
5758.000000	65.159106 
5757.000000	64.950656 
5756.000000	64.747262 
5755.000000	64.579701 
5754.000000	64.470505 
5753.000000	64.432954 
5752.000000	64.466667 
5751.000000	64.561367 
5750.000000	64.696860 
5749.000000	64.848637 
5748.000000	64.991283 
5747.000000	65.102314 
5746.000000	65.166544 
5745.000000	65.176486 
5744.000000	65.134310 
5743.000000	65.049529 
5742.000000	64.938139 
5741.000000	64.818644 
5740.000000	64.709663 
5739.000000	64.626431 
5738.000000	64.579081 
5737.000000	64.570999 
5736.000000	64.599275 
5735.000000	64.655280 
5734.000000	64.726471 
5733.000000	64.798259 
5732.000000	64.856004 
5731.000000	64.887189 
5730.000000	64.882016 
5729.000000	64.836096 
5728.000000	64.750123 
5727.000000	64.631271 
5726.000000	64.491868 
5725.000000	64.348411 
5724.000000	64.218425 
5723.000000	64.118528 
5722.000000	64.061927 
5721.000000	64.055871 
5720.000000	64.101123 
5719.000000	64.190673 
5718.000000	64.310836 
5717.000000	64.443659 
5716.000000	64.569997 
5715.000000	64.672112 
5714.000000	64.736580 
5713.000000	64.757442 
5712.000000	64.736843 
5711.000000	64.684867 
5710.000000	64.617252 
5709.000000	64.552211 
5708.000000	64.506244 
5707.000000	64.492130 
5706.000000	64.515757 
5705.000000	64.575982 
5704.000000	64.664721 
5703.000000	64.769935 
5702.000000	64.877223 
5701.000000	64.973902 
5700.000000	65.049600 
5699.000000	65.097880 
5698.000000	65.115857 
5697.000000	65.103816 
5696.000000	65.064167 
5695.000000	65.000653 
5694.000000	64.917516 
5693.000000	64.819550 
5692.000000	64.712262 
5691.000000	64.602780 
5690.000000	64.498782 
5689.000000	64.408421 
5688.000000	64.338636 
5687.000000	64.294123 
5686.000000	64.276075 
5685.000000	64.282250 
5684.000000	64.306759 
5683.000000	64.341521 
5682.000000	64.378094 
5681.000000	64.409542 
5680.000000	64.431762 
5679.000000	64.443445 
5678.000000	64.445400 
5677.000000	64.439153 
5676.000000	64.426088 
5675.000000	64.406299 
5674.000000	64.378285 
5673.000000	64.339637 
5672.000000	64.288902 
5671.000000	64.226126 
5670.000000	64.154648 
5669.000000	64.080047 
5668.000000	64.009904 
5667.000000	63.951039 
5666.000000	63.907527 
5665.000000	63.879728 
5664.000000	63.863754 
5663.000000	63.853120 
5662.000000	63.840222 
5661.000000	63.819956 
5660.000000	63.791418 
5659.000000	63.759040 
5658.000000	63.731765 
5657.000000	63.720774 
5656.000000	63.736510 
5655.000000	63.786125 
5654.000000	63.871169 
5653.000000	63.986396 
5652.000000	64.120745 
5651.000000	64.260029 
5650.000000	64.389896 
5649.000000	64.498305 
5648.000000	64.578270 
5647.000000	64.628052 
5646.000000	64.651989 
5645.000000	64.658164 
5644.000000	64.657258 
5643.000000	64.659452 
5642.000000	64.672732 
5641.000000	64.702868 
5640.000000	64.751100 
5639.000000	64.815306 
5638.000000	64.889717 
5637.000000	64.967489 
5636.000000	65.040397 
5635.000000	65.100622 
5634.000000	65.141367 
5633.000000	65.158176 
5632.000000	65.147924 
5631.000000	65.109086 
5630.000000	65.041637 
5629.000000	64.947128 
5628.000000	64.828014 
5627.000000	64.688348 
5626.000000	64.533782 
5625.000000	64.372396 
5624.000000	64.214444 
5623.000000	64.072394 
5622.000000	63.958287 
5621.000000	63.883376 
5620.000000	63.856029 
5619.000000	63.880205 
5618.000000	63.952255 
5617.000000	64.063096 
5616.000000	64.198589 
5615.000000	64.342761 
5614.000000	64.478731 
5613.000000	64.593315 
5612.000000	64.677262 
5611.000000	64.728212 
5610.000000	64.749336 
5609.000000	64.748930 
5608.000000	64.737582 
5607.000000	64.726281 
5606.000000	64.724159 
5605.000000	64.737272 
5604.000000	64.767909 
5603.000000	64.814829 
5602.000000	64.873504 
5601.000000	64.937806 
5600.000000	65.000367 
5599.000000	65.054011 
5598.000000	65.092039 
5597.000000	65.108442 
5596.000000	65.098404 
5595.000000	65.059113 
5594.000000	64.990234 
5593.000000	64.893054 
5592.000000	64.772605 
5591.000000	64.637231 
5590.000000	64.499330 
5589.000000	64.373660 
5588.000000	64.276337 
5587.000000	64.221763 
5586.000000	64.220428 
5585.000000	64.276456 
5584.000000	64.385700 
5583.000000	64.535284 
5582.000000	64.705920 
5581.000000	64.875316 
5580.000000	65.021157 
5579.000000	65.124559 
5578.000000	65.173864 
5577.000000	65.165829 
5576.000000	65.105390 
5575.000000	65.003967 
5574.000000	64.876484 
5573.000000	64.738440 
5572.000000	64.604210 
5571.000000	64.485120 
5570.000000	64.389705 
5569.000000	64.322900 
5568.000000	64.287590 
5567.000000	64.283800 
5566.000000	64.308857 
5565.000000	64.357781 
5564.000000	64.422225 
5563.000000	64.492845 
5562.000000	64.559364 
5561.000000	64.613175 
5560.000000	64.648294 
5559.000000	64.662075 
5558.000000	64.654803 
5557.000000	64.629030 
5556.000000	64.589095 
5555.000000	64.538884 
5554.000000	64.481115 
5553.000000	64.417529 
5552.000000	64.349389 
5551.000000	64.279508 
5550.000000	64.212799 
5549.000000	64.156413 
5548.000000	64.118695 
5547.000000	64.106965 
5546.000000	64.125847 
5545.000000	64.175224 
5544.000000	64.250040 
5543.000000	64.340257 
5542.000000	64.433050 
5541.000000	64.516139 
5540.000000	64.579463 
5539.000000	64.616250 
5538.000000	64.624524 
5537.000000	64.605808 
5536.000000	64.565730 
5535.000000	64.512062 
5534.000000	64.454102 
5533.000000	64.401459 
5532.000000	64.362335 
5531.000000	64.343929 
5530.000000	64.349412 
5529.000000	64.378786 
5528.000000	64.426851 
5527.000000	64.484691 
5526.000000	64.540553 
5525.000000	64.582467 
5524.000000	64.602136 
5523.000000	64.597463 
5522.000000	64.574456 
5521.000000	64.546179 
5520.000000	64.529991 
5519.000000	64.542770 
5518.000000	64.596939 
5517.000000	64.695692 
5516.000000	64.832043 
5515.000000	64.988470 
5514.000000	65.141987 
5513.000000	65.267443 
5512.000000	65.344047 
5511.000000	65.359282 
5510.000000	65.311026 
5509.000000	65.208315 
5508.000000	65.069127 
5507.000000	64.916276 
5506.000000	64.772772 
5505.000000	64.656853 
5504.000000	64.580011 
5503.000000	64.544200 
5502.000000	64.544129 
5501.000000	64.568138 
5500.000000	64.602494 
5499.000000	64.633440 
5498.000000	64.650058 
5497.000000	64.646601 
5496.000000	64.623117 
5495.000000	64.584422 
5494.000000	64.538574 
5493.000000	64.495015 
5492.000000	64.462065 
5491.000000	64.445877 
5490.000000	64.448499 
5489.000000	64.467763 
5488.000000	64.497494 
5487.000000	64.529967 
5486.000000	64.556908 
5485.000000	64.570856 
5484.000000	64.567375 
5483.000000	64.545154 
5482.000000	64.507341 
5481.000000	64.461374 
5480.000000	64.415836 
5479.000000	64.379215 
5478.000000	64.355611 
5477.000000	64.343833 
5476.000000	64.336299 
5475.000000	64.321660 
5474.000000	64.287042 
5473.000000	64.221930 
5472.000000	64.122366 
5471.000000	63.992929 
5470.000000	63.846564 
5469.000000	63.702511 
5468.000000	63.581728 
5467.000000	63.503146 
5466.000000	63.479924 
5465.000000	63.517689 
5464.000000	63.614034 
5463.000000	63.760042 
5462.000000	63.942313 
5461.000000	64.145135 
5460.000000	64.353489 
5459.000000	64.552927 
5458.000000	64.729547 
5457.000000	64.870786 
5456.000000	64.965152 
5455.000000	65.004849 
5454.000000	64.986991 
5453.000000	64.915204 
5452.000000	64.801573 
5451.000000	64.663386 
5450.000000	64.522123 
5449.000000	64.397668 
5448.000000	64.306116 
5447.000000	64.254951 
5446.000000	64.242744 
5445.000000	64.259815 
5444.000000	64.291691 
5443.000000	64.322519 
5442.000000	64.339661 
5441.000000	64.336633 
5440.000000	64.314866 
5439.000000	64.283037 
5438.000000	64.254927 
5437.000000	64.245009 
5436.000000	64.264893 
5435.000000	64.320254 
5434.000000	64.409065 
5433.000000	64.522743 
5432.000000	64.647412 
5431.000000	64.767813 
5430.000000	64.869999 
5429.000000	64.943909 
5428.000000	64.984726 
5427.000000	64.993667 
5426.000000	64.976501 
5425.000000	64.941120 
5424.000000	64.895939 
5423.000000	64.848279 
5422.000000	64.803409 
5421.000000	64.764714 
5420.000000	64.734363 
5419.000000	64.714622 
5418.000000	64.707589 
5417.000000	64.715456 
5416.000000	64.738512 
5415.000000	64.774489 
5414.000000	64.817786 
5413.000000	64.860296 
5412.000000	64.892840 
5411.000000	64.907622 
5410.000000	64.900279 
5409.000000	64.871621 
5408.000000	64.827656 
5407.000000	64.778709 
5406.000000	64.736437 
5405.000000	64.711475 
5404.000000	64.710903 
5403.000000	64.736866 
5402.000000	64.786410 
5401.000000	64.852142 
5400.000000	64.925026 
5399.000000	64.994978 
5398.000000	65.053272 
5397.000000	65.092587 
5396.000000	65.108299 
5395.000000	65.097475 
5394.000000	65.058827 
5393.000000	64.992856 
5392.000000	64.901590 
5391.000000	64.790630 
5390.000000	64.669084 
5389.000000	64.549446 
5388.000000	64.445686 
5387.000000	64.371705 
5386.000000	64.338302 
5385.000000	64.349985 
5384.000000	64.403533 
5383.000000	64.488077 
5382.000000	64.587306 
5381.000000	64.682412 
5380.000000	64.756870 
5379.000000	64.798951 
5378.000000	64.804959 
5377.000000	64.779591 
5376.000000	64.733600 
5375.000000	64.680242 
5374.000000	64.631223 
5373.000000	64.593052 
5372.000000	64.566755 
5371.000000	64.547967 
5370.000000	64.531087 
5369.000000	64.512658 
5368.000000	64.493656 
5367.000000	64.480257 
5366.000000	64.482378 
5365.000000	64.510393 
5364.000000	64.571285 
5363.000000	64.665222 
5362.000000	64.785838 
5361.000000	64.921021 
5360.000000	65.057206 
5359.000000	65.181899 
5358.000000	65.287852 
5357.000000	65.372657 
5356.000000	65.438103 
5355.000000	65.486645 
5354.000000	65.518784 
5353.000000	65.530991 
5352.000000	65.515899 
5351.000000	65.465140 
5350.000000	65.373969 
5349.000000	65.243744 
5348.000000	65.086150 
5347.000000	64.919137 
5346.000000	64.765357 
5345.000000	64.644503 
5344.000000	64.568614 
5343.000000	64.538431 
5342.000000	64.542555 
5341.000000	64.562201 
5340.000000	64.575743 
5339.000000	64.567112 
5338.000000	64.530134 
5337.000000	64.470076 
5336.000000	64.401507 
5335.000000	64.340972 
5334.000000	64.300632 
5333.000000	64.282321 
5332.000000	64.276123 
5331.000000	64.263439 
5330.000000	64.222884 
5329.000000	64.137625 
5328.000000	64.001727 
5327.000000	63.824033 
5326.000000	63.627219 
5325.000000	63.440608 
5324.000000	63.294816 
5323.000000	63.213658 
5322.000000	63.209056 
5321.000000	63.276672 
5320.000000	63.398861 
5319.000000	63.550376 
5318.000000	63.703012 
5317.000000	63.832116 
5316.000000	63.920640 
5315.000000	63.960146 
5314.000000	63.953042 
5313.000000	63.907384 
5312.000000	63.839626 
5311.000000	63.769650 
5310.000000	63.718295 
5309.000000	63.703346 
5308.000000	63.732647 
5307.000000	63.801908 
5306.000000	63.896417 
5305.000000	63.994407 
5304.000000	64.070367 
5303.000000	64.101314 
5302.000000	64.076137 
5301.000000	63.995409 
5300.000000	63.869857 
5299.000000	63.714432 
5298.000000	63.544845 
5297.000000	63.370680 
5296.000000	63.192582 
5295.000000	63.003969 
5294.000000	62.795948 
5293.000000	62.562108 
5292.000000	62.306189 
5291.000000	62.039804 
5290.000000	61.784148 
5289.000000	61.559081 
5288.000000	61.376142 
5287.000000	61.235451 
5286.000000	61.121082 
5285.000000	61.015009 
5284.000000	60.901594 
5283.000000	60.782909 
5282.000000	60.679888 
5281.000000	60.635709 
5280.000000	60.704350 
5279.000000	60.935211 
5278.000000	61.356043 
5277.000000	61.961483 
5276.000000	62.708806 
5275.000000	63.523101 
5274.000000	64.311671 
5273.000000	64.986371 
5272.000000	65.479493 
5271.000000	65.760731 
5270.000000	65.836048 
5269.000000	65.742254 
5268.000000	65.533256 
5267.000000	65.266561 
5266.000000	64.989471 
5265.000000	64.733505 
5264.000000	64.512991 
5263.000000	64.337086 
5262.000000	64.207911 
5261.000000	64.131617 
5260.000000	64.114022 
5259.000000	64.163088 
5258.000000	64.278936 
5257.000000	64.450001 
5256.000000	64.650297 
5255.000000	64.841508 
5254.000000	64.981055 
5253.000000	65.031051 
5252.000000	64.968705 
5251.000000	64.791965 
5250.000000	64.520168 
5249.000000	64.189839 
5248.000000	63.844323 
5247.000000	63.525629 
5246.000000	63.266730 
5245.000000	63.087201 
5244.000000	62.990856 
5243.000000	62.969851 
5242.000000	63.012242 
5241.000000	63.104820 
5240.000000	63.234043 
5239.000000	63.390040 
5238.000000	63.564181 
5237.000000	63.749527 
5236.000000	63.935661 
5235.000000	64.111208 
5234.000000	64.261937 
5233.000000	64.375114 
5232.000000	64.442968 
5231.000000	64.462208 
5230.000000	64.435362 
5229.000000	64.370298 
5228.000000	64.279174 
5227.000000	64.177250 
5226.000000	64.080667 
5225.000000	64.004373 
5224.000000	63.959741 
5223.000000	63.952612 
5222.000000	63.982439 
5221.000000	64.041566 
5220.000000	64.118003 
5219.000000	64.198184 
5218.000000	64.270639 
5217.000000	64.328694 
5216.000000	64.371371 
5215.000000	64.401006 
5214.000000	64.422821 
5213.000000	64.443087 
5212.000000	64.466476 
5211.000000	64.494442 
5210.000000	64.525151 
5209.000000	64.554762 
5208.000000	64.578843 
5207.000000	64.595198 
5206.000000	64.603257 
5205.000000	64.605069 
5204.000000	64.602947 
5203.000000	64.599037 
5202.000000	64.593076 
5201.000000	64.581990 
5200.000000	64.562010 
5199.000000	64.529824 
5198.000000	64.484238 
5197.000000	64.426565 
5196.000000	64.359116 
5195.000000	64.284992 
5194.000000	64.206337 
5193.000000	64.125370 
5192.000000	64.044475 
5191.000000	63.967895 
5190.000000	63.902163 
5189.000000	63.855886 
5188.000000	63.837885 
5187.000000	63.855528 
5186.000000	63.910865 
5185.000000	64.001011 
5184.000000	64.117026 
5183.000000	64.245963 
5182.000000	64.372658 
5181.000000	64.483356 
5180.000000	64.568233 
5179.000000	64.622592 
5178.000000	64.647293 
5177.000000	64.646911 
5176.000000	64.628028 
5175.000000	64.596986 
5174.000000	64.558386 
5173.000000	64.515423 
5172.000000	64.470148 
5171.000000	64.425039 
5170.000000	64.383554 
5169.000000	64.349246 
5168.000000	64.325594 
5167.000000	64.314246 
5166.000000	64.315128 
5165.000000	64.326000 
5164.000000	64.343643 
5163.000000	64.364743 
5162.000000	64.386916 
5161.000000	64.408850 
5160.000000	64.430522 
5159.000000	64.452672 
5158.000000	64.476037 
5157.000000	64.500451 
5156.000000	64.524078 
5155.000000	64.543700 
5154.000000	64.554738 
5153.000000	64.552521 
5152.000000	64.533400 
5151.000000	64.495801 
5150.000000	64.442014 
5149.000000	64.378190 
5148.000000	64.313268 
5147.000000	64.257192 
5146.000000	64.218926 
5145.000000	64.204597 
5144.000000	64.215874 
5143.000000	64.249753 
5142.000000	64.299130 
5141.000000	64.354705 
5140.000000	64.406967 
5139.000000	64.448547 
5138.000000	64.475321 
5137.000000	64.487218 
5136.000000	64.487576 
5135.000000	64.481854 
5134.000000	64.475440 
5133.000000	64.472675 
5132.000000	64.475560 
5131.000000	64.483809 
5130.000000	64.496278 
5129.000000	64.510774 
5128.000000	64.526081 
5127.000000	64.540815 
5126.000000	64.553737 
5125.000000	64.563560 
5124.000000	64.568591 
5123.000000	64.567685 
5122.000000	64.560031 
5121.000000	64.546346 
5120.000000	64.528822 
5119.000000	64.510273 
5118.000000	64.493417 
5117.000000	64.479923 
5116.000000	64.470386 
5115.000000	64.464116 
5114.000000	64.459776 
5113.000000	64.456295 
5112.000000	64.453268 
5111.000000	64.451289 
5110.000000	64.451527 
5109.000000	64.455008 
5108.000000	64.462018 
5107.000000	64.471459 
5106.000000	64.481115 
5105.000000	64.487600 
5104.000000	64.488387 
5103.000000	64.482426 
5102.000000	64.471697 
5101.000000	64.460754 
5100.000000	64.456057 
5099.000000	64.463996 
5098.000000	64.489245 
5097.000000	64.533185 
5096.000000	64.593482 
5095.000000	64.664649 
5094.000000	64.739131 
5093.000000	64.809012 
5092.000000	64.867043 
5091.000000	64.907789 
5090.000000	64.928364 
5089.000000	64.928603 
5088.000000	64.911413 
5087.000000	64.882016 
5086.000000	64.847421 
5085.000000	64.814710 
5084.000000	64.790272 
5083.000000	64.778423 
5082.000000	64.780664 
5081.000000	64.795708 
5080.000000	64.820480 
5079.000000	64.850521 
5078.000000	64.881229 
5077.000000	64.908742 
5076.000000	64.930200 
5075.000000	64.944481 
5074.000000	64.951443 
5073.000000	64.952468 
5072.000000	64.949393 
5071.000000	64.944505 
5070.000000	64.940071 
5069.000000	64.938020 
5068.000000	64.939832 
5067.000000	64.946126 
5066.000000	64.956760 
5065.000000	64.970088 
5064.000000	64.983129 
5063.000000	64.991664 
5062.000000	64.990901 
5061.000000	64.977002 
5060.000000	64.947819 
5059.000000	64.903283 
5058.000000	64.845275 
5057.000000	64.777445 
5056.000000	64.704442 
5055.000000	64.630675 
5054.000000	64.560461 
5053.000000	64.497351 
5052.000000	64.444613 
5051.000000	64.404940 
5050.000000	64.380836 
5049.000000	64.373350 
5048.000000	64.382648 
5047.000000	64.406800 
5046.000000	64.443254 
5045.000000	64.488410 
5044.000000	64.539098 
5043.000000	64.592123 
5042.000000	64.645481 
5041.000000	64.697980 
5040.000000	64.748859 
5039.000000	64.797258 
5038.000000	64.841318 
5037.000000	64.877915 
5036.000000	64.902567 
5035.000000	64.910340 
5034.000000	64.896678 
5033.000000	64.858865 
5032.000000	64.796996 
5031.000000	64.714860 
5030.000000	64.619636 
5029.000000	64.521479 
5028.000000	64.431786 
5027.000000	64.361691 
5026.000000	64.320302 
5025.000000	64.312887 
5024.000000	64.340615 
5023.000000	64.399719 
5022.000000	64.481902 
5021.000000	64.575886 
5020.000000	64.668893 
5019.000000	64.748930 
5018.000000	64.806294 
5017.000000	64.835643 
5016.000000	64.836144 
5015.000000	64.811968 
5014.000000	64.770936 
5013.000000	64.722681 
5012.000000	64.676570 
5011.000000	64.639329 
5010.000000	64.614009 
5009.000000	64.599490 
5008.000000	64.591431 
5007.000000	64.583778 
5006.000000	64.570879 
5005.000000	64.549517 
5004.000000	64.519691 
5003.000000	64.484596 
5002.000000	64.449930 
5001.000000	64.421772 
5000.000000	64.405274 
4999.000000	64.402294 
4998.000000	64.411973 
4997.000000	64.430570 
4996.000000	64.453220 
4995.000000	64.475369 
4994.000000	64.494132 
4993.000000	64.509081 
4992.000000	64.521670 
4991.000000	64.533972 
4990.000000	64.547824 
4989.000000	64.563155 
4988.000000	64.578938 
4987.000000	64.593625 
4986.000000	64.605927 
4985.000000	64.615535 
4984.000000	64.623570 
4983.000000	64.632463 
4982.000000	64.644742 
4981.000000	64.662289 
4980.000000	64.685559 
4979.000000	64.713358 
4978.000000	64.743089 
4977.000000	64.771604 
4976.000000	64.796233 
4975.000000	64.815330 
4974.000000	64.829015 
4973.000000	64.838433 
4972.000000	64.844965 
4971.000000	64.849948 
4970.000000	64.853525 
4969.000000	64.855289 
4968.000000	64.854311 
4967.000000	64.849901 
4966.000000	64.842486 
4965.000000	64.833164 
4964.000000	64.824008 
4963.000000	64.816737 
4962.000000	64.812183 
4961.000000	64.809656 
4960.000000	64.806962 
4959.000000	64.800906 
4958.000000	64.788269 
4957.000000	64.766263 
4956.000000	64.733481 
4955.000000	64.690232 
4954.000000	64.638853 
4953.000000	64.582848 
4952.000000	64.526438 
4951.000000	64.473533 
4950.000000	64.427638 
4949.000000	64.391422 
4948.000000	64.366936 
4947.000000	64.355039 
4946.000000	64.355778 
4945.000000	64.368534 
4944.000000	64.391708 
4943.000000	64.422130 
4942.000000	64.455318 
4941.000000	64.485883 
4940.000000	64.508461 
4939.000000	64.518213 
4938.000000	64.512753 
4937.000000	64.492273 
4936.000000	64.460825 
4935.000000	64.425158 
4934.000000	64.393997 
4933.000000	64.376211 
4932.000000	64.379143 
4931.000000	64.406991 
4930.000000	64.460277 
4929.000000	64.535903 
4928.000000	64.627432 
4927.000000	64.726281 
4926.000000	64.823031 
4925.000000	64.908432 
4924.000000	64.974641 
4923.000000	65.015721 
4922.000000	65.027832 
4921.000000	65.009450 
4920.000000	64.962410 
4919.000000	64.890933 
4918.000000	64.801359 
4917.000000	64.701509 
4916.000000	64.600610 
4915.000000	64.507627 
4914.000000	64.430618 
4913.000000	64.375376 
4912.000000	64.344763 
4911.000000	64.338588 
4910.000000	64.353823 
4909.000000	64.385080 
4908.000000	64.425230 
4907.000000	64.466381 
4906.000000	64.500951 
4905.000000	64.522099 
4904.000000	64.524459 
4903.000000	64.504718 
4902.000000	64.462113 
4901.000000	64.398717 
4900.000000	64.319658 
4899.000000	64.232897 
4898.000000	64.148592 
4897.000000	64.077496 
4896.000000	64.029765 
4895.000000	64.014267 
4894.000000	64.036297 
4893.000000	64.096474 
4892.000000	64.189791 
4891.000000	64.306020 
4890.000000	64.431190 
4889.000000	64.549589 
4888.000000	64.646720 
4887.000000	64.711260 
4886.000000	64.737558 
4885.000000	64.726305 
4884.000000	64.683651 
4883.000000	64.618992 
4882.000000	64.543199 
4881.000000	64.466619 
4880.000000	64.397692 
4879.000000	64.342188 
4878.000000	64.303398 
4877.000000	64.282727 
4876.000000	64.279985 
4875.000000	64.293932 
4874.000000	64.321637 
4873.000000	64.358735 
4872.000000	64.398336 
4871.000000	64.432597 
4870.000000	64.453291 
4869.000000	64.454746 
4868.000000	64.434289 
4867.000000	64.394545 
4866.000000	64.343690 
4865.000000	64.293742 
4864.000000	64.257717 
4863.000000	64.246320 
4862.000000	64.265275 
4861.000000	64.313507 
4860.000000	64.383792 
4859.000000	64.463829 
4858.000000	64.539480 
4857.000000	64.597702 
4856.000000	64.630007 
4855.000000	64.632964 
4854.000000	64.608645 
4853.000000	64.562892 
4852.000000	64.503288 
4851.000000	64.437580 
4850.000000	64.371871 
4849.000000	64.310765 
4848.000000	64.257526 
4847.000000	64.215445 
4846.000000	64.188742 
4845.000000	64.182758 
4844.000000	64.203476 
4843.000000	64.255380 
4842.000000	64.340209 
4841.000000	64.455270 
4840.000000	64.593124 
4839.000000	64.741754 
4838.000000	64.886403 
4837.000000	65.012502 
4836.000000	65.107917 
4835.000000	65.165495 
4834.000000	65.183401 
4833.000000	65.165328 
4832.000000	65.118956 
4831.000000	65.054607 
4830.000000	64.982771 
4829.000000	64.913201 
4828.000000	64.852833 
4827.000000	64.806437 
4826.000000	64.775538 
4825.000000	64.759731 
4824.000000	64.756035 
4823.000000	64.760351 
4822.000000	64.767384 
4821.000000	64.771866 
4820.000000	64.769124 
4819.000000	64.755916 
4818.000000	64.730811 
4817.000000	64.694452 
4816.000000	64.649820 
4815.000000	64.601230 
4814.000000	64.553546 
4813.000000	64.510965 
4812.000000	64.476251 
4811.000000	64.450240 
4810.000000	64.432072 
4809.000000	64.419531 
4808.000000	64.409899 
4807.000000	64.400649 
4806.000000	64.390039 
4805.000000	64.377570 
4804.000000	64.363121 
4803.000000	64.347672 
4802.000000	64.332556 
4801.000000	64.319372 
4800.000000	64.309382 
4799.000000	64.303588 
4798.000000	64.302253 
4797.000000	64.305400 
4796.000000	64.312744 
4795.000000	64.323687 
4794.000000	64.337253 
4793.000000	64.352536 
4792.000000	64.368796 
4791.000000	64.385437 
4790.000000	64.402222 
4789.000000	64.419126 
4788.000000	64.436697 
4787.000000	64.455604 
4786.000000	64.476823 
4785.000000	64.501142 
4784.000000	64.529109 
4783.000000	64.561104 
4782.000000	64.597010 
4781.000000	64.636540 
4780.000000	64.678621 
4779.000000	64.721941 
4778.000000	64.764261 
4777.000000	64.803242 
4776.000000	64.836025 
4775.000000	64.859533 
4774.000000	64.871215 
4773.000000	64.869737 
4772.000000	64.855289 
4771.000000	64.829754 
4770.000000	64.796853 
4769.000000	64.761805 
4768.000000	64.730334 
4767.000000	64.707565 
4766.000000	64.696979 
4765.000000	64.699268 
4764.000000	64.712500 
4763.000000	64.732241 
4762.000000	64.752268 
4761.000000	64.765954 
4760.000000	64.767861 
4759.000000	64.754843 
4758.000000	64.726424 
4757.000000	64.685177 
4756.000000	64.635491 
4755.000000	64.583325 
4754.000000	64.534330 
4753.000000	64.493751 
4752.000000	64.465308 
4751.000000	64.451718 
4750.000000	64.454030 
4749.000000	64.472579 
4748.000000	64.507150 
4747.000000	64.556431 
4746.000000	64.617872 
4745.000000	64.687466 
4744.000000	64.759969 
4743.000000	64.828491 
4742.000000	64.885425 
4741.000000	64.923262 
4740.000000	64.935946 
4739.000000	64.920067 
4738.000000	64.875602 
4737.000000	64.806342 
4736.000000	64.719367 
4735.000000	64.624190 
4734.000000	64.531183 
4733.000000	64.449858 
4732.000000	64.387702 
4731.000000	64.349269 
4730.000000	64.336204 
4729.000000	64.347338 
4728.000000	64.379549 
4727.000000	64.428281 
4726.000000	64.487957 
4725.000000	64.552450 
4724.000000	64.615273 
4723.000000	64.669823 
4722.000000	64.710116 
4721.000000	64.731097 
4720.000000	64.729857 
4719.000000	64.706015 
4718.000000	64.662337 
4717.000000	64.604401 
4716.000000	64.539647 
4715.000000	64.476251 
4714.000000	64.420938 
4713.000000	64.377808 
4712.000000	64.347648 
4711.000000	64.328169 
4710.000000	64.315104 
4709.000000	64.304113 
4708.000000	64.291691 
4707.000000	64.276909 
4706.000000	64.260983 
4705.000000	64.247369 
4704.000000	64.240050 
4703.000000	64.242815 
4702.000000	64.257335 
4701.000000	64.283037 
4700.000000	64.317417 
4699.000000	64.356184 
4698.000000	64.393806 
4697.000000	64.424657 
4696.000000	64.444446 
4695.000000	64.450502 
4694.000000	64.441943 
4693.000000	64.420151 
4692.000000	64.388108 
4691.000000	64.350748 
4690.000000	64.314031 
4689.000000	64.284396 
4688.000000	64.267444 
4687.000000	64.266943 
4686.000000	64.284014 
4685.000000	64.316606 
4684.000000	64.359784 
4683.000000	64.406681 
4682.000000	64.449954 
4681.000000	64.483261 
4680.000000	64.502835 
4679.000000	64.507865 
4678.000000	64.501118 
4677.000000	64.487338 
4676.000000	64.473128 
4675.000000	64.465188 
4674.000000	64.469623 
4673.000000	64.490222 
4672.000000	64.528822 
4671.000000	64.585113 
4670.000000	64.656758 
4669.000000	64.740061 
4668.000000	64.829707 
4667.000000	64.919495 
4666.000000	65.002441 
4665.000000	65.071868 
4664.000000	65.121650 
4663.000000	65.147304 
4662.000000	65.146660 
4661.000000	65.120410 
4660.000000	65.071773 
4659.000000	65.006160 
4658.000000	64.930248 
4657.000000	64.851069 
4656.000000	64.775133 
4655.000000	64.707398 
4654.000000	64.651274 
4653.000000	64.607930 
4652.000000	64.576792 
4651.000000	64.555454 
4650.000000	64.540338 
4649.000000	64.527630 
4648.000000	64.513111 
4647.000000	64.494276 
4646.000000	64.469313 
4645.000000	64.439558 
4644.000000	64.408326 
4643.000000	64.381432 
4642.000000	64.365434 
4641.000000	64.366674 
4640.000000	64.389538 
4639.000000	64.434885 
4638.000000	64.498972 
4637.000000	64.574122 
4636.000000	64.650249 
4635.000000	64.716410 
4634.000000	64.762830 
4633.000000	64.782714 
4632.000000	64.773631 
4631.000000	64.737915 
4630.000000	64.682221 
4629.000000	64.616036 
4628.000000	64.549970 
4627.000000	64.494490 
4626.000000	64.458036 
4625.000000	64.446067 
4624.000000	64.460134 
4623.000000	64.498972 
4622.000000	64.558148 
4621.000000	64.631319 
4620.000000	64.710855 
4619.000000	64.789032 
4618.000000	64.858460 
4617.000000	64.912772 
4616.000000	64.946746 
4615.000000	64.957141 
4614.000000	64.942312 
4613.000000	64.902472 
4612.000000	64.839982 
4611.000000	64.759755 
4610.000000	64.669203 
4609.000000	64.577698 
4608.000000	64.495944 
4607.000000	64.434552 
4606.000000	64.402627 
4605.000000	64.406132 
4604.000000	64.446187 
4603.000000	64.518523 
4602.000000	64.614343 
4601.000000	64.721655 
4600.000000	64.826822 
4599.000000	64.917206 
4598.000000	64.983391 
4597.000000	65.020775 
4596.000000	65.029597 
4595.000000	65.014553 
4594.000000	64.983391 
4593.000000	64.944887 
4592.000000	64.907455 
4591.000000	64.877390 
4590.000000	64.859032 
4589.000000	64.853811 
4588.000000	64.861583 
4587.000000	64.880585 
4586.000000	64.908790 
4585.000000	64.943671 
4584.000000	64.982676 
4583.000000	65.022850 
4582.000000	65.060758 
4581.000000	65.092825 
4580.000000	65.115404 
4579.000000	65.125441 
4578.000000	65.120768 
4577.000000	65.100765 
4576.000000	65.066289 
4575.000000	65.019035 
4574.000000	64.961194 
4573.000000	64.895081 
4572.000000	64.822864 
4571.000000	64.746975 
4570.000000	64.670038 
4569.000000	64.594841 
4568.000000	64.524722 
4567.000000	64.463710 
4566.000000	64.415788 
4565.000000	64.383339 
4564.000000	64.367699 
4563.000000	64.368057 
4562.000000	64.382553 
4561.000000	64.407634 
4560.000000	64.439797 
4559.000000	64.475703 
4558.000000	64.512777 
4557.000000	64.549469 
4556.000000	64.584350 
4555.000000	64.615583 
4554.000000	64.640498 
4553.000000	64.655756 
4552.000000	64.657998 
4551.000000	64.644932 
4550.000000	64.616703 
4549.000000	64.576315 
4548.000000	64.529323 
4547.000000	64.482522 
4546.000000	64.443135 
4545.000000	64.416480 
4544.000000	64.404511 
4543.000000	64.405107 
4542.000000	64.413070 
4541.000000	64.421319 
4540.000000	64.422297 
4539.000000	64.410614 
4538.000000	64.384198 
4537.000000	64.345645 
4536.000000	64.300918 
4535.000000	64.258527 
4534.000000	64.226961 
4533.000000	64.212965 
4532.000000	64.219498 
4531.000000	64.245295 
4530.000000	64.285254 
4529.000000	64.332199 
4528.000000	64.378714 
4527.000000	64.419102 
4526.000000	64.450597 
4525.000000	64.473891 
4524.000000	64.492535 
4523.000000	64.511418 
4522.000000	64.535045 
4521.000000	64.566969 
4520.000000	64.608383 
4519.000000	64.658379 
4518.000000	64.713859 
4517.000000	64.770603 
4516.000000	64.823722 
4515.000000	64.868903 
4514.000000	64.902639 
4513.000000	64.922928 
4512.000000	64.928936 
4511.000000	64.921283 
4510.000000	64.901185 
4509.000000	64.870476 
4508.000000	64.831709 
4507.000000	64.787960 
4506.000000	64.743447 
4505.000000	64.703369 
4504.000000	64.673280 
4503.000000	64.659070 
4502.000000	64.664292 
4501.000000	64.689588 
4500.000000	64.731431 
4499.000000	64.782452 
4498.000000	64.832878 
4497.000000	64.872694 
4496.000000	64.893579 
4495.000000	64.890742 
4494.000000	64.864063 
4493.000000	64.817929 
4492.000000	64.759922 
4491.000000	64.698791 
4490.000000	64.642906 
4489.000000	64.597916 
4488.000000	64.566135 
4487.000000	64.546298 
4486.000000	64.534616 
4485.000000	64.526605 
4484.000000	64.517712 
4483.000000	64.505958 
4482.000000	64.492392 
4481.000000	64.481377 
4480.000000	64.478516 
4479.000000	64.489412 
4478.000000	64.517617 
4477.000000	64.563012 
4476.000000	64.621567 
4475.000000	64.685153 
4474.000000	64.743351 
4473.000000	64.785647 
4472.000000	64.804005 
4471.000000	64.795088 
4470.000000	64.761090 
4469.000000	64.709877 
4468.000000	64.652776 
4467.000000	64.602017 
4466.000000	64.567494 
4465.000000	64.554834 
4464.000000	64.563989 
4463.000000	64.590358 
4462.000000	64.625191 
4461.000000	64.659094 
4460.000000	64.682459 
4459.000000	64.686703 
4458.000000	64.666390 
4457.000000	64.618563 
4456.000000	64.545369 
4455.000000	64.453530 
4454.000000	64.354181 
4453.000000	64.261507 
4452.000000	64.188790 
4451.000000	64.146041 
4450.000000	64.136910 
4449.000000	64.157605 
4448.000000	64.199256 
4447.000000	64.250230 
4446.000000	64.299416 
4445.000000	64.338874 
4444.000000	64.365386 
4443.000000	64.380669 
4442.000000	64.389610 
4441.000000	64.398574 
4440.000000	64.414095 
4439.000000	64.440965 
4438.000000	64.482188 
4437.000000	64.537453 
4436.000000	64.602971 
4435.000000	64.671659 
4434.000000	64.735054 
4433.000000	64.784336 
4432.000000	64.812636 
4431.000000	64.815902 
4430.000000	64.793515 
4429.000000	64.748716 
4428.000000	64.689016 
4427.000000	64.622974 
4426.000000	64.560294 
4425.000000	64.507079 
4424.000000	64.462733 
4423.000000	64.424061 
4422.000000	64.392876 
4421.000000	64.364910 
4420.000000	64.327645 
4419.000000	64.272427 
4418.000000	64.197206 
4417.000000	64.109039 
4416.000000	64.025616 
4415.000000	63.955760 
4414.000000	63.897991 
4413.000000	63.860392 
4412.000000	63.855767 
4411.000000	63.895916 
4410.000000	63.985967 
4409.000000	64.118742 
4408.000000	64.275312 
4407.000000	64.420509 
4406.000000	64.517021 
4405.000000	64.544463 
4404.000000	64.494323 
4403.000000	64.386439 
4402.000000	64.247250 
4401.000000	64.062905 
4400.000000	63.841319 
4399.000000	63.561296 
4398.000000	63.290691 
4397.000000	63.190460 
4396.000000	63.497471 
4395.000000	64.508700 
4394.000000	66.392493 
4393.000000	69.121861 
4392.000000	72.380614 
4391.000000	75.597548 
4390.000000	78.081321 
4389.000000	79.185199 
4388.000000	78.497433 
4387.000000	75.955700 
4386.000000	71.830391 
4385.000000	66.681814 
4384.000000	61.195278 
4383.000000	56.068086 
4382.000000	51.900649 
4381.000000	49.097371 
4380.000000	47.868919 
4379.000000	48.183751 
4378.000000	49.806308 
4377.000000	52.356600 
4376.000000	55.345273 
4375.000000	58.325147 
4374.000000	60.931515 
4373.000000	62.973427 
4372.000000	64.406347 
4371.000000	65.325164 
4370.000000	65.871047 
4369.000000	66.194796 
4368.000000	66.386270 
4367.000000	66.485214 
4366.000000	66.495513 
4365.000000	66.406536 
4364.000000	66.237330 
4363.000000	66.015720 
4362.000000	65.790700 
4361.000000	65.601038 
4360.000000	65.469622 
4359.000000	65.402436 
4358.000000	65.388631 
4357.000000	65.409445 
4356.000000	65.444231 
4355.000000	65.473675 
4354.000000	65.485835 
4353.000000	65.483260 
4352.000000	65.478014 
4351.000000	65.472340 
4350.000000	65.467691 
4349.000000	65.472865 
4348.000000	65.492892 
4347.000000	65.525817 
4346.000000	65.563201 
4345.000000	65.588688 
4344.000000	65.586733 
4343.000000	65.555262 
4342.000000	65.494561 
4341.000000	65.403056 
4340.000000	65.284466 
4339.000000	65.148186 
4338.000000	65.004396 
4337.000000	64.862108 
4336.000000	64.729619 
4335.000000	64.613842 
4334.000000	64.519906 
4333.000000	64.451384 
4332.000000	64.409971 
4331.000000	64.396047 
4330.000000	64.408421 
4329.000000	64.444661 
4328.000000	64.499306 
4327.000000	64.565730 
4326.000000	64.635348 
4325.000000	64.700222 
4324.000000	64.754271 
4323.000000	64.794349 
4322.000000	64.820194 
4321.000000	64.833855 
4320.000000	64.838624 
4319.000000	64.837622 
4318.000000	64.833045 
4317.000000	64.825701 
4316.000000	64.815497 
4315.000000	64.802026 
4314.000000	64.786171 
4313.000000	64.769387 
4312.000000	64.753961 
4311.000000	64.742588 
4310.000000	64.737892 
4309.000000	64.742231 
4308.000000	64.756917 
4307.000000	64.782714 
4306.000000	64.819169 
4305.000000	64.863681 
4304.000000	64.911174 
4303.000000	64.954948 
4302.000000	64.986991 
4301.000000	64.999461 
4300.000000	64.986014 
4299.000000	64.943742 
4298.000000	64.874076 
4297.000000	64.782857 
4296.000000	64.679956 
4295.000000	64.577150 
4294.000000	64.486861 
4293.000000	64.419960 
4292.000000	64.383864 
4291.000000	64.381194 
4290.000000	64.409852 
4289.000000	64.463925 
4288.000000	64.534831 
4287.000000	64.612984 
4286.000000	64.689517 
4285.000000	64.757251 
4284.000000	64.811563 
4283.000000	64.850091 
4282.000000	64.872789 
4281.000000	64.880895 
4280.000000	64.876627 
4279.000000	64.862394 
4278.000000	64.840674 
4277.000000	64.813852 
4276.000000	64.784431 
4275.000000	64.754986 
4274.000000	64.728355 
4273.000000	64.707040 
4272.000000	64.693164 
4271.000000	64.687633 
4270.000000	64.690327 
4269.000000	64.699578 
4268.000000	64.712357 
4267.000000	64.724922 
4266.000000	64.733052 
4265.000000	64.733481 
4264.000000	64.724588 
4263.000000	64.706969 
4262.000000	64.683079 
4261.000000	64.657092 
4260.000000	64.633870 
4259.000000	64.617443 
4258.000000	64.609932 
4257.000000	64.610600 
4256.000000	64.616298 
4255.000000	64.622330 
4254.000000	64.624071 
4253.000000	64.618134 
4252.000000	64.603376 
4251.000000	64.581489 
4250.000000	64.556550 
4249.000000	64.533758 
4248.000000	64.517903 
4247.000000	64.512062 
4246.000000	64.516973 
4245.000000	64.530777 
4244.000000	64.549779 
4243.000000	64.569568 
4242.000000	64.585900 
4241.000000	64.596176 
4240.000000	64.599847 
4239.000000	64.598131 
4238.000000	64.593362 
4237.000000	64.588189 
4236.000000	64.584636 
4235.000000	64.583563 
4234.000000	64.584589 
4233.000000	64.586377 
4232.000000	64.587330 
4231.000000	64.586281 
4230.000000	64.582872 
4229.000000	64.577698 
4228.000000	64.571809 
4227.000000	64.566230 
4226.000000	64.561748 
4225.000000	64.558506 
4224.000000	64.555907 
4223.000000	64.552998 
4222.000000	64.549088 
4221.000000	64.544248 
4220.000000	64.539504 
4219.000000	64.536547 
4218.000000	64.537525 
4217.000000	64.544272 
4216.000000	64.557147 
4215.000000	64.575123 
4214.000000	64.595866 
4213.000000	64.616155 
4212.000000	64.632701 
4211.000000	64.642786 
4210.000000	64.645099 
4209.000000	64.639425 
4208.000000	64.626908 
4207.000000	64.609026 
4206.000000	64.587187 
4205.000000	64.562630 
4204.000000	64.536333 
4203.000000	64.509677 
4202.000000	64.484524 
4201.000000	64.463996 
4200.000000	64.452052 
4199.000000	64.452981 
4198.000000	64.470410 
4197.000000	64.505648 
4196.000000	64.557266 
4195.000000	64.620494 
4194.000000	64.688277 
4193.000000	64.752483 
4192.000000	64.806079 
4191.000000	64.844703 
4190.000000	64.867711 
4189.000000	64.878058 
4188.000000	64.881062 
4187.000000	64.883136 
4186.000000	64.889264 
4185.000000	64.902210 
4184.000000	64.920616 
4183.000000	64.940643 
4182.000000	64.955806 
4181.000000	64.959955 
4180.000000	64.948129 
4179.000000	64.918613 
4178.000000	64.873456 
4177.000000	64.818215 
4176.000000	64.760899 
4175.000000	64.709997 
4174.000000	64.672923 
4173.000000	64.654254 
4172.000000	64.655113 
4171.000000	64.673089 
4170.000000	64.702963 
4169.000000	64.738273 
4168.000000	64.772295 
4167.000000	64.799952 
4166.000000	64.818572 
4165.000000	64.828586 
4164.000000	64.832210 
4163.000000	64.833140 
4162.000000	64.835524 
4161.000000	64.842367 
4160.000000	64.854764 
4159.000000	64.871478 
4158.000000	64.889693 
4157.000000	64.905023 
4156.000000	64.913630 
4155.000000	64.912319 
4154.000000	64.899945 
4153.000000	64.877510 
4152.000000	64.848089 
4151.000000	64.816331 
4150.000000	64.787173 
4149.000000	64.764833 
4148.000000	64.751863 
4147.000000	64.748525 
4146.000000	64.752721 
4145.000000	64.760804 
4144.000000	64.768362 
4143.000000	64.771056 
4142.000000	64.765739 
4141.000000	64.751219 
4140.000000	64.728569 
4139.000000	64.700388 
4138.000000	64.670586 
4137.000000	64.642715 
4136.000000	64.620161 
4135.000000	64.605307 
4134.000000	64.599823 
4133.000000	64.604234 
4132.000000	64.618301 
4131.000000	64.641141 
4130.000000	64.671397 
4129.000000	64.707231 
4128.000000	64.746236 
4127.000000	64.785528 
4126.000000	64.821457 
4125.000000	64.850187 
4124.000000	64.867711 
4123.000000	64.870667 
4122.000000	64.857268 
4121.000000	64.827942 
4120.000000	64.786314 
4119.000000	64.738869 
4118.000000	64.694523 
4117.000000	64.662718 
4116.000000	64.651513 
4115.000000	64.665341 
4114.000000	64.703679 
4113.000000	64.760708 
4112.000000	64.826178 
4111.000000	64.887690 
4110.000000	64.933228 
4109.000000	64.954066 
4108.000000	64.946746 
4107.000000	64.913916 
4106.000000	64.863419 
4105.000000	64.806413 
4104.000000	64.754343 
4103.000000	64.716386 
4102.000000	64.697718 
4101.000000	64.698600 
4100.000000	64.715147 
4099.000000	64.740538 
4098.000000	64.767599 
4097.000000	64.790105 
4096.000000	64.804363 
4095.000000	64.809203 
4094.000000	64.805555 
4093.000000	64.795613 
4092.000000	64.781475 
4091.000000	64.764809 
4090.000000	64.746260 
4089.000000	64.725732 
4088.000000	64.702820 
4087.000000	64.677834 
4086.000000	64.651870 
4085.000000	64.626646 
4084.000000	64.604449 
4083.000000	64.587354 
4082.000000	64.577221 
4081.000000	64.575052 
4080.000000	64.581346 
4079.000000	64.595627 
4078.000000	64.616870 
4077.000000	64.643764 
4076.000000	64.674711 
4075.000000	64.707493 
4074.000000	64.739775 
4073.000000	64.769124 
4072.000000	64.793491 
4071.000000	64.811301 
4070.000000	64.821982 
4069.000000	64.825987 
4068.000000	64.824867 
4067.000000	64.820957 
4066.000000	64.817070 
4065.000000	64.815735 
4064.000000	64.818716 
4063.000000	64.826750 
4062.000000	64.839577 
4061.000000	64.856505 
4060.000000	64.876580 
4059.000000	64.899158 
4058.000000	64.923954 
4057.000000	64.951133 
4056.000000	64.981079 
4055.000000	65.013623 
4054.000000	65.048122 
4053.000000	65.082454 
4052.000000	65.113973 
4051.000000	65.138578 
4050.000000	65.151882 
4049.000000	65.149736 
4048.000000	65.129590 
4047.000000	65.090966 
4046.000000	65.036296 
4045.000000	64.970517 
4044.000000	64.900732 
4043.000000	64.834499 
4042.000000	64.778590 
4041.000000	64.737486 
4040.000000	64.712619 
4039.000000	64.702510 
4038.000000	64.703488 
4037.000000	64.710378 
4036.000000	64.718198 
4035.000000	64.722967 
4034.000000	64.722537 
4033.000000	64.716219 
4032.000000	64.704942 
4031.000000	64.690160 
4030.000000	64.673638 
4029.000000	64.656567 
4028.000000	64.639782 
4027.000000	64.624142 
4026.000000	64.610481 
4025.000000	64.600110 
4024.000000	64.594602 
4023.000000	64.595413 
4022.000000	64.603853 
4021.000000	64.620232 
4020.000000	64.644026 
4019.000000	64.673638 
4018.000000	64.706802 
4017.000000	64.740896 
4016.000000	64.773082 
4015.000000	64.800572 
4014.000000	64.821124 
4013.000000	64.833259 
4012.000000	64.836311 
4011.000000	64.830327 
4010.000000	64.816737 
4009.000000	64.798164 
4008.000000	64.777874 
4007.000000	64.759325 
4006.000000	64.745736 
4005.000000	64.739179 
4004.000000	64.740276 
4003.000000	64.747881 
4002.000000	64.759159 
4001.000000	64.770412 
4000.000000	64.778089 
3999.000000	64.779829 
3998.000000	64.774894 
3997.000000	64.764761 
3996.000000	64.752554 
3995.000000	64.742398 
3994.000000	64.738249 
3993.000000	64.743113 
3992.000000	64.758110 
3991.000000	64.782452 
3990.000000	64.813542 
3989.000000	64.847731 
3988.000000	64.881348 
3987.000000	64.911174 
3986.000000	64.935183 
3985.000000	64.952778 
3984.000000	64.964699 
3983.000000	64.972400 
3982.000000	64.977288 
3981.000000	64.980363 
3980.000000	64.981818 
3979.000000	64.981031 
3978.000000	64.976835 
3977.000000	64.967894 
3976.000000	64.953088 
3975.000000	64.932298 
3974.000000	64.906406 
3973.000000	64.877152 
3972.000000	64.847278 
3971.000000	64.819717 
3970.000000	64.797592 
3969.000000	64.783263 
3968.000000	64.778256 
3967.000000	64.782881 
3966.000000	64.796137 
3965.000000	64.816308 
3964.000000	64.840865 
3963.000000	64.866709 
3962.000000	64.890813 
3961.000000	64.910507 
3960.000000	64.923763 
3959.000000	64.929270 
3958.000000	64.926815 
3957.000000	64.917087 
3956.000000	64.901566 
3955.000000	64.882349 
3954.000000	64.861869 
3953.000000	64.842557 
3952.000000	64.826416 
3951.000000	64.814901 
3950.000000	64.808940 
3949.000000	64.808988 
3948.000000	64.814782 
3947.000000	64.825940 
3946.000000	64.841890 
3945.000000	64.862060 
3944.000000	64.885568 
3943.000000	64.911198 
3942.000000	64.937353 
3941.000000	64.961647 
3940.000000	64.981365 
3939.000000	64.993548 
3938.000000	64.995527 
3937.000000	64.985609 
3936.000000	64.963603 
3935.000000	64.931416 
3934.000000	64.892840 
3933.000000	64.853143 
3932.000000	64.818143 
3931.000000	64.793086 
3930.000000	64.781498 
3929.000000	64.784288 
3928.000000	64.799523 
3927.000000	64.822840 
3926.000000	64.848184 
3925.000000	64.869403 
3924.000000	64.881181 
3923.000000	64.879846 
3922.000000	64.864206 
3921.000000	64.835214 
3920.000000	64.795875 
3919.000000	64.750146 
3918.000000	64.702343 
3917.000000	64.656281 
3916.000000	64.614629 
3915.000000	64.579057 
3914.000000	64.550042 
3913.000000	64.527368 
3912.000000	64.510488 
3911.000000	64.498949 
3910.000000	64.492774 
3909.000000	64.491820 
3908.000000	64.496302 
3907.000000	64.506030 
3906.000000	64.520573 
3905.000000	64.538621 
3904.000000	64.558792 
3903.000000	64.579510 
3902.000000	64.599585 
3901.000000	64.618396 
3900.000000	64.636039 
3899.000000	64.653110 
3898.000000	64.670562 
3897.000000	64.689087 
3896.000000	64.708900 
3895.000000	64.729166 
3894.000000	64.748263 
3893.000000	64.763808 
3892.000000	64.773392 
3891.000000	64.775276 
3890.000000	64.768815 
3889.000000	64.754843 
3888.000000	64.735341 
3887.000000	64.713358 
3886.000000	64.692616 
3885.000000	64.676380 
3884.000000	64.666819 
3883.000000	64.664745 
3882.000000	64.669609 
3881.000000	64.679765 
3880.000000	64.692640 
3879.000000	64.705777 
3878.000000	64.717102 
3877.000000	64.725446 
3876.000000	64.730572 
3875.000000	64.732813 
3874.000000	64.732837 
3873.000000	64.731240 
3872.000000	64.728045 
3871.000000	64.722752 
3870.000000	64.714241 
3869.000000	64.701294 
3868.000000	64.683246 
3867.000000	64.660143 
3866.000000	64.633369 
3865.000000	64.605712 
3864.000000	64.581227 
3863.000000	64.563870 
3862.000000	64.557433 
3861.000000	64.564085 
3860.000000	64.584326 
3859.000000	64.616346 
3858.000000	64.656758 
3857.000000	64.701008 
3856.000000	64.744615 
3855.000000	64.783978 
3854.000000	64.816832 
3853.000000	64.842224 
3852.000000	64.860534 
3851.000000	64.872837 
3850.000000	64.880347 
3849.000000	64.883732 
3848.000000	64.883327 
3847.000000	64.878916 
3846.000000	64.870476 
3845.000000	64.858198 
3844.000000	64.843010 
3843.000000	64.826202 
3842.000000	64.809107 
3841.000000	64.792728 
3840.000000	64.777207 
3839.000000	64.762234 
3838.000000	64.746832 
3837.000000	64.730334 
3836.000000	64.712548 
3835.000000	64.694619 
3834.000000	64.678573 
3833.000000	64.667725 
3832.000000	64.665079 
3831.000000	64.673495 
3830.000000	64.694380 
3829.000000	64.727616 
3828.000000	64.771008 
3827.000000	64.821052 
3826.000000	64.873576 
3825.000000	64.924168 
3824.000000	64.969134 
3823.000000	65.005660 
3822.000000	65.032100 
3821.000000	65.048027 
3820.000000	65.053796 
3819.000000	65.050554 
3818.000000	65.039968 
3817.000000	65.024280 
3816.000000	65.006041 
3815.000000	64.987993 
3814.000000	64.972543 
3813.000000	64.961814 
3812.000000	64.956760 
3811.000000	64.957499 
3810.000000	64.962697 
3809.000000	64.970088 
3808.000000	64.976739 
3807.000000	64.979553 
3806.000000	64.975857 
3805.000000	64.964175 
3804.000000	64.944601 
3803.000000	64.918446 
3802.000000	64.888691 
3801.000000	64.858770 
3800.000000	64.832735 
3799.000000	64.814162 
3798.000000	64.805793 
3797.000000	64.808821 
3796.000000	64.823055 
3795.000000	64.847040 
3794.000000	64.878010 
3793.000000	64.912247 
3792.000000	64.945793 
3791.000000	64.974880 
3790.000000	64.996218 
3789.000000	65.007519 
3788.000000	65.007448 
3787.000000	64.995765 
3786.000000	64.973402 
3785.000000	64.942455 
3784.000000	64.905571 
3783.000000	64.866137 
3782.000000	64.827871 
3781.000000	64.794564 
3780.000000	64.769721 
3779.000000	64.756059 
3778.000000	64.755201 
3777.000000	64.766931 
3776.000000	64.789175 
3775.000000	64.817929 
3774.000000	64.847850 
3773.000000	64.873099 
3772.000000	64.888358 
3771.000000	64.890170 
3770.000000	64.877367 
3769.000000	64.851880 
3768.000000	64.817929 
3767.000000	64.781713 
3766.000000	64.749836 
3765.000000	64.728116 
3764.000000	64.720177 
3763.000000	64.727091 
3762.000000	64.747047 
3761.000000	64.776229 
3760.000000	64.809656 
3759.000000	64.842152 
3758.000000	64.869403 
3757.000000	64.888477 
3756.000000	64.898252 
3755.000000	64.899063 
3754.000000	64.892363 
3753.000000	64.880323 
3752.000000	64.865183 
3751.000000	64.849305 
3750.000000	64.834380 
3749.000000	64.821386 
3748.000000	64.810633 
3747.000000	64.801955 
3746.000000	64.795160 
3745.000000	64.790058 
3744.000000	64.786863 
3743.000000	64.786148 
3742.000000	64.789056 
3741.000000	64.796686 
3740.000000	64.809823 
3739.000000	64.828372 
3738.000000	64.851331 
3737.000000	64.876270 
3736.000000	64.900040 
3735.000000	64.918947 
3734.000000	64.929556 
3733.000000	64.929533 
3732.000000	64.918231 
3731.000000	64.897131 
3730.000000	64.869713 
3729.000000	64.840722 
3728.000000	64.815425 
3727.000000	64.798545 
3726.000000	64.793157 
3725.000000	64.800238 
3724.000000	64.818406 
3723.000000	64.844322 
3722.000000	64.873337 
3721.000000	64.900875 
3720.000000	64.923024 
3719.000000	64.937758 
3718.000000	64.944863 
3717.000000	64.945888 
3716.000000	64.943432 
3715.000000	64.940285 
3714.000000	64.938545 
3713.000000	64.938998 
3712.000000	64.941024 
3711.000000	64.942789 
3710.000000	64.941930 
3709.000000	64.936137 
3708.000000	64.923763 
3707.000000	64.904308 
3706.000000	64.878702 
3705.000000	64.848780 
3704.000000	64.817261 
3703.000000	64.787149 
3702.000000	64.761590 
3701.000000	64.743089 
3700.000000	64.733529 
3699.000000	64.733791 
3698.000000	64.743709 
3697.000000	64.761877 
3696.000000	64.785981 
3695.000000	64.812493 
3694.000000	64.837765 
3693.000000	64.858269 
3692.000000	64.871430 
3691.000000	64.876008 
3690.000000	64.872217 
3689.000000	64.861702 
3688.000000	64.846682 
3687.000000	64.829230 
3686.000000	64.810633 
3685.000000	64.791107 
3684.000000	64.769887 
3683.000000	64.745688 
3682.000000	64.717793 
3681.000000	64.686679 
3680.000000	64.654302 
3679.000000	64.623880 
3678.000000	64.599204 
3677.000000	64.583849 
3676.000000	64.579629 
3675.000000	64.586615 
3674.000000	64.602208 
3673.000000	64.622545 
3672.000000	64.643239 
3671.000000	64.660882 
3670.000000	64.673733 
3669.000000	64.682292 
3668.000000	64.688801 
3667.000000	64.696383 
3666.000000	64.707851 
3665.000000	64.724969 
3664.000000	64.747595 
3663.000000	64.774084 
3662.000000	64.801478 
3661.000000	64.826774 
3660.000000	64.847826 
3659.000000	64.863848 
3658.000000	64.875721 
3657.000000	64.885377 
3656.000000	64.895153 
3655.000000	64.907121 
3654.000000	64.922022 
3653.000000	64.939284 
3652.000000	64.956569 
3651.000000	64.971065 
3650.000000	64.979696 
3649.000000	64.979887 
3648.000000	64.970254 
3647.000000	64.950990 
3646.000000	64.923858 
3645.000000	64.892053 
3644.000000	64.859461 
3643.000000	64.830160 
3642.000000	64.807415 
3641.000000	64.793181 
3640.000000	64.787697 
3639.000000	64.789462 
3638.000000	64.795827 
3637.000000	64.803528 
3636.000000	64.809536 
3635.000000	64.811682 
3634.000000	64.809346 
3633.000000	64.803314 
3632.000000	64.795494 
3631.000000	64.788103 
3630.000000	64.783096 
3629.000000	64.781546 
3628.000000	64.783310 
3627.000000	64.787268 
3626.000000	64.792132 
3625.000000	64.796972 
3624.000000	64.801692 
3623.000000	64.806938 
3622.000000	64.813709 
3621.000000	64.822983 
3620.000000	64.834761 
3619.000000	64.848351 
3618.000000	64.862155 
3617.000000	64.874482 
3616.000000	64.883852 
3615.000000	64.889669 
3614.000000	64.892601 
3613.000000	64.894199 
3612.000000	64.896702 
3611.000000	64.902019 
3610.000000	64.911079 
3609.000000	64.923381 
3608.000000	64.937090 
3607.000000	64.949488 
3606.000000	64.957761 
3605.000000	64.959716 
3604.000000	64.954543 
3603.000000	64.942741 
3602.000000	64.926171 
3601.000000	64.907360 
3600.000000	64.889049 
3599.000000	64.873623 
3598.000000	64.862537 
3597.000000	64.856386 
3596.000000	64.854717 
3595.000000	64.856100 
3594.000000	64.858675 
3593.000000	64.860200 
3592.000000	64.858770 
3591.000000	64.852976 
3590.000000	64.842629 
3589.000000	64.828300 
3588.000000	64.811611 
3587.000000	64.794802 
3586.000000	64.780116 
3585.000000	64.769530 
3584.000000	64.763879 
3583.000000	64.762854 
3582.000000	64.764881 
3581.000000	64.767646 
3580.000000	64.768648 
3579.000000	64.766049 
3578.000000	64.759039 
3577.000000	64.748096 
3576.000000	64.734721 
3575.000000	64.720821 
3574.000000	64.708065 
3573.000000	64.697480 
3572.000000	64.689135 
3571.000000	64.682388 
3570.000000	64.676189 
3569.000000	64.669728 
3568.000000	64.662504 
3567.000000	64.655113 
3566.000000	64.648747 
3565.000000	64.645338 
3564.000000	64.646577 
3563.000000	64.653944 
3562.000000	64.667987 
3561.000000	64.688372 
3560.000000	64.713907 
3559.000000	64.742588 
3558.000000	64.772152 
3557.000000	64.800047 
3556.000000	64.823818 
3555.000000	64.841413 
3554.000000	64.851498 
3553.000000	64.853549 
3552.000000	64.848184 
3551.000000	64.837169 
3550.000000	64.822936 
3549.000000	64.807987 
3548.000000	64.794230 
3547.000000	64.782667 
3546.000000	64.773273 
3545.000000	64.764857 
3544.000000	64.755821 
3543.000000	64.744806 
3542.000000	64.731359 
3541.000000	64.716148 
3540.000000	64.701342 
3539.000000	64.689660 
3538.000000	64.684033 
3537.000000	64.686155 
3536.000000	64.696288 
3535.000000	64.712691 
3534.000000	64.732432 
3533.000000	64.751815 
3532.000000	64.767551 
3531.000000	64.777445 
3530.000000	64.780855 
3529.000000	64.778399 
3528.000000	64.771842 
3527.000000	64.763140 
3526.000000	64.754390 
3525.000000	64.747500 
3524.000000	64.744067 
3523.000000	64.745163 
3522.000000	64.751386 
3521.000000	64.762735 
3520.000000	64.778614 
3519.000000	64.797759 
3518.000000	64.818072 
3517.000000	64.837288 
3516.000000	64.852976 
3515.000000	64.863395 
3514.000000	64.867949 
3513.000000	64.867305 
3512.000000	64.863395 
3511.000000	64.858937 
3510.000000	64.857053 
3509.000000	64.860153 
3508.000000	64.869499 
3507.000000	64.884567 
3506.000000	64.903473 
3505.000000	64.923310 
3504.000000	64.940953 
3503.000000	64.953589 
3502.000000	64.959287 
3501.000000	64.957404 
3500.000000	64.948606 
3499.000000	64.934730 
3498.000000	64.918351 
3497.000000	64.902544 
3496.000000	64.890217 
3495.000000	64.883899 
3494.000000	64.885401 
3493.000000	64.895391 
3492.000000	64.913249 
3491.000000	64.937114 
3490.000000	64.963674 
3489.000000	64.988565 
3488.000000	65.006899 
3487.000000	65.013837 
3486.000000	65.005850 
3485.000000	64.981102 
3484.000000	64.940190 
3483.000000	64.886474 
3482.000000	64.825820 
3481.000000	64.765524 
3480.000000	64.713406 
3479.000000	64.676260 
3478.000000	64.659070 
3477.000000	64.663791 
3476.000000	64.689350 
3475.000000	64.731931 
3474.000000	64.785647 
3473.000000	64.843559 
3472.000000	64.898777 
3471.000000	64.945483 
3470.000000	64.979434 
3469.000000	64.998102 
3468.000000	65.000963 
3467.000000	64.989089 
3466.000000	64.965009 
3465.000000	64.931869 
3464.000000	64.893531 
3463.000000	64.853644 
3462.000000	64.815855 
3461.000000	64.782786 
3460.000000	64.756083 
3459.000000	64.736151 
3458.000000	64.722275 
3457.000000	64.713072 
3456.000000	64.706826 
3455.000000	64.701890 
3454.000000	64.697337 
3453.000000	64.693236 
3452.000000	64.690041 
3451.000000	64.688992 
3450.000000	64.691257 
3449.000000	64.697575 
3448.000000	64.707899 
3447.000000	64.721226 
3446.000000	64.735746 
3445.000000	64.749145 
3444.000000	64.758944 
3443.000000	64.762759 
3442.000000	64.758872 
3441.000000	64.746356 
3440.000000	64.725470 
3439.000000	64.697408 
3438.000000	64.664435 
3437.000000	64.629769 
3436.000000	64.597439 
3435.000000	64.571976 
3434.000000	64.557862 
3433.000000	64.558625 
3432.000000	64.576458 
3431.000000	64.611721 
3430.000000	64.662456 
3429.000000	64.724302 
3428.000000	64.791202 
3427.000000	64.856100 
3426.000000	64.912056 
3425.000000	64.953327 
3424.000000	64.976143 
3423.000000	64.979314 
3422.000000	64.964175 
3421.000000	64.934396 
3420.000000	64.894986 
3419.000000	64.851450 
3418.000000	64.808821 
3417.000000	64.771223 
3416.000000	64.741492 
3415.000000	64.720869 
3414.000000	64.709210 
3413.000000	64.705538 
3412.000000	64.708113 
3411.000000	64.715433 
3410.000000	64.725995 
3409.000000	64.739084 
3408.000000	64.754343 
3407.000000	64.772009 
3406.000000	64.792203 
3405.000000	64.814877 
3404.000000	64.839649 
3403.000000	64.865303 
3402.000000	64.890265 
3401.000000	64.912080 
3400.000000	64.928412 
3399.000000	64.936518 
3398.000000	64.934277 
3397.000000	64.919686 
3396.000000	64.891791 
3395.000000	64.850592 
3394.000000	64.797496 
3393.000000	64.735317 
3392.000000	64.668178 
3391.000000	64.601373 
3390.000000	64.540863 
3389.000000	64.492654 
3388.000000	64.461874 
3387.000000	64.451670 
3386.000000	64.462780 
3385.000000	64.493203 
3384.000000	64.538693 
3383.000000	64.593338 
3382.000000	64.650797 
3381.000000	64.705109 
3380.000000	64.751958 
3379.000000	64.788722 
3378.000000	64.814925 
3377.000000	64.831519 
3376.000000	64.840507 
3375.000000	64.844536 
3374.000000	64.845871 
3373.000000	64.846539 
3372.000000	64.847326 
3371.000000	64.848613 
3370.000000	64.849662 
3369.000000	64.849638 
3368.000000	64.847469 
3367.000000	64.842438 
3366.000000	64.834475 
3365.000000	64.824151 
3364.000000	64.812803 
3363.000000	64.802122 
3362.000000	64.794015 
3361.000000	64.790391 
3360.000000	64.792490 
3359.000000	64.800667 
3358.000000	64.814567 
3357.000000	64.833045 
3356.000000	64.854383 
3355.000000	64.876532 
3354.000000	64.897561 
3353.000000	64.915537 
3352.000000	64.929056 
3351.000000	64.936852 
3350.000000	64.937782 
3349.000000	64.931249 
3348.000000	64.917254 
3347.000000	64.896440 
3346.000000	64.870405 
3345.000000	64.841270 
3344.000000	64.811611 
3343.000000	64.784049 
3342.000000	64.760923 
3341.000000	64.744234 
3340.000000	64.735221 
3339.000000	64.734268 
3338.000000	64.740920 
3337.000000	64.753913 
3336.000000	64.771389 
3335.000000	64.791011 
3334.000000	64.810371 
3333.000000	64.827489 
3332.000000	64.841032 
3331.000000	64.850378 
3330.000000	64.855647 
3329.000000	64.857196 
3328.000000	64.855766 
3327.000000	64.851737 
3326.000000	64.845776 
3325.000000	64.838528 
3324.000000	64.831233 
3323.000000	64.825630 
3322.000000	64.823865 
3321.000000	64.828443 
3320.000000	64.841198 
3319.000000	64.863181 
3318.000000	64.893460 
3317.000000	64.929032 
3316.000000	64.965176 
3315.000000	64.996099 
3314.000000	65.016365 
3313.000000	65.021944 
3312.000000	65.011334 
3311.000000	64.985775 
3310.000000	64.949011 
3309.000000	64.906072 
3308.000000	64.862155 
3307.000000	64.821577 
3306.000000	64.787030 
3305.000000	64.759469 
3304.000000	64.738368 
3303.000000	64.722609 
3302.000000	64.711093 
3301.000000	64.703416 
3300.000000	64.699602 
3299.000000	64.700412 
3298.000000	64.706516 
3297.000000	64.718770 
3296.000000	64.736819 
3295.000000	64.759778 
3294.000000	64.786005 
3293.000000	64.813518 
3292.000000	64.840459 
3291.000000	64.865279 
3290.000000	64.886784 
3289.000000	64.904093 
3288.000000	64.916515 
3287.000000	64.923310 
3286.000000	64.923834 
3285.000000	64.917659 
3284.000000	64.904832 
3283.000000	64.886307 
3282.000000	64.863801 
3281.000000	64.840078 
3280.000000	64.818310 
3279.000000	64.801478 
3278.000000	64.791631 
3277.000000	64.789557 
3276.000000	64.794325 
3275.000000	64.803266 
3274.000000	64.812707 
3273.000000	64.818787 
3272.000000	64.818549 
3271.000000	64.810633 
3270.000000	64.795947 
3269.000000	64.776897 
3268.000000	64.757490 
3267.000000	64.741969 
3266.000000	64.734029 
3265.000000	64.735674 
3264.000000	64.747047 
3263.000000	64.766407 
3262.000000	64.790606 
3261.000000	64.815783 
3260.000000	64.838314 
3259.000000	64.855527 
3258.000000	64.866185 
3257.000000	64.870309 
3256.000000	64.869260 
3255.000000	64.865088 
3254.000000	64.860129 
3253.000000	64.856410 
3252.000000	64.855504 
3251.000000	64.857864 
3250.000000	64.863395 
3249.000000	64.871072 
3248.000000	64.879298 
3247.000000	64.886116 
3246.000000	64.889645 
3245.000000	64.888191 
3244.000000	64.880752 
3243.000000	64.867115 
3242.000000	64.847946 
3241.000000	64.824676 
3240.000000	64.799642 
3239.000000	64.775228 
3238.000000	64.753794 
3237.000000	64.737129 
3236.000000	64.726257 
3235.000000	64.721250 
3234.000000	64.721298 
3233.000000	64.725160 
3232.000000	64.731168 
3231.000000	64.737892 
3230.000000	64.744043 
3229.000000	64.749002 
3228.000000	64.752745 
3227.000000	64.755558 
3226.000000	64.757990 
3225.000000	64.760613 
3224.000000	64.763879 
3223.000000	64.767980 
3222.000000	64.772796 
3221.000000	64.778041 
3220.000000	64.783048 
3219.000000	64.787006 
3218.000000	64.789104 
3217.000000	64.788484 
3216.000000	64.784574 
3215.000000	64.777064 
3214.000000	64.766168 
3213.000000	64.752674 
3212.000000	64.737844 
3211.000000	64.723587 
3210.000000	64.711880 
3209.000000	64.704513 
3208.000000	64.702725 
3207.000000	64.706945 
3206.000000	64.716672 
3205.000000	64.730429 
3204.000000	64.746189 
3203.000000	64.761734 
3202.000000	64.775133 
3201.000000	64.785194 
3200.000000	64.791464 
3199.000000	64.794278 
3198.000000	64.794611 
3197.000000	64.793586 
3196.000000	64.792299 
3195.000000	64.791512 
3194.000000	64.791345 
3193.000000	64.791607 
3192.000000	64.792084 
3191.000000	64.792537 
3190.000000	64.793181 
3189.000000	64.794540 
3188.000000	64.797425 
3187.000000	64.802551 
3186.000000	64.810395 
3185.000000	64.820837 
3184.000000	64.832997 
3183.000000	64.845561 
3182.000000	64.856743 
3181.000000	64.864873 
3180.000000	64.868640 
3179.000000	64.867377 
3178.000000	64.861273 
3177.000000	64.851093 
3176.000000	64.838099 
3175.000000	64.823627 
3174.000000	64.809107 
3173.000000	64.795613 
3172.000000	64.784073 
3171.000000	64.775514 
3170.000000	64.770936 
3169.000000	64.771485 
3168.000000	64.778065 
3167.000000	64.791131 
3166.000000	64.810347 
3165.000000	64.834332 
3164.000000	64.860486 
3163.000000	64.885592 
3162.000000	64.906191 
3161.000000	64.919352 
3160.000000	64.923524 
3159.000000	64.918828 
3158.000000	64.907097 
3157.000000	64.891505 
3156.000000	64.875626 
3155.000000	64.862895 
3154.000000	64.855360 
3153.000000	64.853644 
3152.000000	64.856624 
3151.000000	64.861893 
3150.000000	64.866399 
3149.000000	64.867424 
3148.000000	64.863085 
3147.000000	64.852857 
3146.000000	64.837360 
3145.000000	64.818191 
3144.000000	64.797472 
3143.000000	64.777278 
3142.000000	64.759254 
3141.000000	64.744448 
3140.000000	64.733362 
3139.000000	64.726114 
3138.000000	64.722394 
3137.000000	64.721846 
3136.000000	64.724063 
3135.000000	64.728450 
3134.000000	64.734196 
3133.000000	64.740300 
3132.000000	64.745616 
3131.000000	64.749312 
3130.000000	64.750790 
3129.000000	64.750218 
3128.000000	64.748263 
3127.000000	64.746141 
3126.000000	64.745330 
3125.000000	64.746904 
3124.000000	64.751315 
3123.000000	64.758086 
3122.000000	64.765834 
3121.000000	64.772820 
3120.000000	64.777278 
3119.000000	64.778089 
3118.000000	64.774990 
3117.000000	64.768600 
3116.000000	64.760446 
3115.000000	64.752125 
3114.000000	64.745259 
3113.000000	64.740610 
3112.000000	64.738154 
3111.000000	64.737224 
3110.000000	64.736843 
3109.000000	64.736151 
3108.000000	64.735174 
3107.000000	64.734721 
3106.000000	64.736437 
3105.000000	64.742374 
3104.000000	64.754366 
3103.000000	64.773297 
3102.000000	64.798593 
3101.000000	64.828491 
3100.000000	64.859676 
3099.000000	64.888238 
3098.000000	64.909982 
3097.000000	64.921760 
3096.000000	64.921760 
3095.000000	64.910078 
3094.000000	64.888739 
3093.000000	64.861321 
3092.000000	64.832353 
3091.000000	64.806532 
3090.000000	64.787745 
3089.000000	64.778351 
3088.000000	64.778804 
3087.000000	64.787721 
3086.000000	64.802026 
3085.000000	64.817929 
3084.000000	64.831614 
3083.000000	64.840149 
3082.000000	64.841938 
3081.000000	64.836859 
3080.000000	64.826226 
3079.000000	64.811992 
3078.000000	64.796185 
3077.000000	64.780211 
3076.000000	64.764475 
3075.000000	64.748549 
3074.000000	64.731574 
3073.000000	64.712738 
3072.000000	64.691925 
3071.000000	64.670038 
3070.000000	64.649009 
3069.000000	64.631223 
3068.000000	64.618992 
3067.000000	64.613962 
3066.000000	64.616632 
3065.000000	64.626121 
3064.000000	64.640307 
3063.000000	64.656519 
3062.000000	64.672136 
3061.000000	64.685440 
3060.000000	64.695811 
3059.000000	64.703893 
3058.000000	64.711070 
3057.000000	64.719152 
3056.000000	64.729404 
3055.000000	64.742350 
3054.000000	64.757156 
3053.000000	64.772200 
3052.000000	64.785218 
3051.000000	64.794015 
3050.000000	64.797234 
3049.000000	64.794826 
3048.000000	64.787888 
3047.000000	64.778566 
3046.000000	64.769220 
3045.000000	64.762258 
3044.000000	64.758849 
3043.000000	64.758825 
3042.000000	64.760708 
3041.000000	64.762282 
3040.000000	64.761209 
3039.000000	64.755868 
3038.000000	64.745950 
3037.000000	64.732623 
3036.000000	64.718174 
3035.000000	64.705324 
3034.000000	64.696455 
3033.000000	64.693069 
3032.000000	64.695262 
3031.000000	64.701843 
3030.000000	64.710712 
3029.000000	64.719581 
3028.000000	64.726519 
3027.000000	64.730620 
3026.000000	64.731860 
3025.000000	64.731383 
3024.000000	64.730715 
3023.000000	64.731454 
3022.000000	64.734554 
3021.000000	64.740109 
3020.000000	64.747238 
3019.000000	64.754438 
3018.000000	64.759945 
3017.000000	64.762210 
3016.000000	64.760351 
3015.000000	64.754319 
3014.000000	64.745020 
3013.000000	64.734077 
3012.000000	64.723515 
3011.000000	64.715409 
3010.000000	64.711451 
3009.000000	64.712715 
3008.000000	64.719724 
3007.000000	64.732170 
3006.000000	64.749240 
3005.000000	64.769840 
3004.000000	64.792633 
3003.000000	64.816427 
3002.000000	64.839863 
3001.000000	64.861488 
3000.000000	64.879918 
2999.000000	64.893770 
2998.000000	64.901804 
2997.000000	64.903259 
2996.000000	64.898037 
2995.000000	64.886808 
2994.000000	64.870953 
2993.000000	64.852476 
2992.000000	64.833474 
2991.000000	64.816093 
2990.000000	64.801788 
2989.000000	64.791321 
2988.000000	64.784455 
2987.000000	64.780163 
2986.000000	64.776754 
2985.000000	64.772391 
2984.000000	64.765334 
2983.000000	64.754438 
2982.000000	64.739251 
2981.000000	64.720344 
2980.000000	64.699053 
2979.000000	64.677500 
2978.000000	64.658141 
2977.000000	64.643430 
2976.000000	64.635324 
2975.000000	64.634871 
2974.000000	64.641785 
2973.000000	64.654469 
2972.000000	64.670157 
2971.000000	64.685487 
2970.000000	64.697098 
2969.000000	64.702510 
2968.000000	64.700508 
2967.000000	64.691519 
2966.000000	64.677667 
2965.000000	64.662075 
2964.000000	64.648222 
2963.000000	64.639043 
2962.000000	64.636468 
2961.000000	64.640760 
2960.000000	64.650774 
2959.000000	64.664435 
2958.000000	64.679265 
2957.000000	64.693212 
2956.000000	64.704871 
2955.000000	64.713859 
2954.000000	64.720726 
2953.000000	64.726400 
2952.000000	64.732003 
2951.000000	64.738440 
2950.000000	64.746451 
2949.000000	64.756655 
2948.000000	64.769291 
2947.000000	64.784622 
2946.000000	64.802622 
2945.000000	64.823222 
2944.000000	64.845752 
2943.000000	64.868998 
2942.000000	64.890909 
2941.000000	64.909029 
2940.000000	64.920473 
2939.000000	64.922785 
2938.000000	64.914011 
2937.000000	64.893674 
2936.000000	64.862489 
2935.000000	64.822530 
2934.000000	64.776802 
2933.000000	64.728760 
2932.000000	64.681768 
2931.000000	64.638543 
2930.000000	64.600992 
2929.000000	64.570021 
2928.000000	64.545726 
2927.000000	64.527797 
2926.000000	64.515471 
2925.000000	64.508008 
2924.000000	64.504694 
2923.000000	64.505290 
2922.000000	64.509224 
2921.000000	64.516115 
2920.000000	64.525485 
2919.000000	64.536929 
2918.000000	64.549827 
2917.000000	64.563465 
2916.000000	64.577269 
2915.000000	64.590740 
2914.000000	64.603400 
2913.000000	64.615106 
2912.000000	64.625668 
2911.000000	64.635276 
2910.000000	64.644098 
2909.000000	64.652395 
2908.000000	64.660334 
2907.000000	64.667940 
2906.000000	64.675211 
2905.000000	64.681911 
2904.000000	64.687442 
2903.000000	64.691233 
2902.000000	64.692974 
2901.000000	64.692234 
2900.000000	64.688611 
2899.000000	64.682030 
2898.000000	64.672517 
2897.000000	64.660024 
2896.000000	64.644455 
2895.000000	64.625692 
2894.000000	64.603948 
2893.000000	64.579534 
2892.000000	64.553499 
2891.000000	64.527344 
2890.000000	64.503169 
2889.000000	64.483308 
2888.000000	64.470052 
2887.000000	64.465022 
2886.000000	64.469051 
2885.000000	64.481616 
2884.000000	64.501309 
2883.000000	64.525604 
2882.000000	64.551997 
2881.000000	64.578175 
2880.000000	64.602684 
2879.000000	64.624953 
2878.000000	64.645099 
2877.000000	64.663815 
2876.000000	64.681768 
2875.000000	64.699244 
2874.000000	64.716124 
2873.000000	64.731574 
2872.000000	64.744687 
2871.000000	64.754438 
2870.000000	64.760208 
2869.000000	64.761781 
2868.000000	64.759588 
2867.000000	64.754414 
2866.000000	64.747285 
2865.000000	64.739108 
2864.000000	64.730787 
2863.000000	64.722895 
2862.000000	64.715957 
2861.000000	64.710116 
2860.000000	64.705705 
2859.000000	64.702820 
2858.000000	64.701199 
2857.000000	64.700365 
2856.000000	64.699721 
2855.000000	64.698600 
2854.000000	64.696645 
2853.000000	64.693832 
2852.000000	64.690661 
2851.000000	64.688086 
2850.000000	64.687180 
2849.000000	64.688730 
2848.000000	64.692950 
2847.000000	64.699363 
2846.000000	64.707040 
2845.000000	64.714550 
2844.000000	64.720559 
2843.000000	64.724183 
2842.000000	64.725255 
2841.000000	64.724636 
2840.000000	64.723825 
2839.000000	64.724588 
2838.000000	64.728808 
2837.000000	64.737558 
2836.000000	64.751362 
2835.000000	64.769768 
2834.000000	64.791703 
2833.000000	64.815902 
2832.000000	64.840960 
2831.000000	64.865875 
2830.000000	64.889836 
2829.000000	64.912414 
2828.000000	64.933204 
2827.000000	64.951801 
2826.000000	64.967441 
2825.000000	64.979124 
2824.000000	64.985680 
2823.000000	64.985942 
2822.000000	64.979195 
2821.000000	64.965462 
2820.000000	64.945816 
2819.000000	64.922165 
2818.000000	64.897418 
2817.000000	64.874672 
2816.000000	64.856839 
2815.000000	64.845967 
2814.000000	64.842963 
2813.000000	64.847397 
2812.000000	64.857673 
2811.000000	64.871168 
2810.000000	64.885067 
2809.000000	64.896678 
2808.000000	64.903998 
2807.000000	64.906072 
2806.000000	64.902806 
2805.000000	64.895033 
2804.000000	64.884257 
2803.000000	64.872431 
2802.000000	64.861321 
2801.000000	64.852380 
2800.000000	64.846730 
2799.000000	64.844799 
2798.000000	64.846348 
2797.000000	64.850568 
2796.000000	64.856314 
2795.000000	64.862203 
2794.000000	64.866828 
2793.000000	64.869141 
2792.000000	64.868855 
2791.000000	64.866280 
2790.000000	64.862465 
2789.000000	64.858865 
2788.000000	64.857029 
2787.000000	64.858269 
2786.000000	64.863300 
2785.000000	64.872002 
2784.000000	64.883303 
2783.000000	64.895701 
2782.000000	64.907455 
2781.000000	64.917135 
2780.000000	64.923620 
2779.000000	64.926648 
2778.000000	64.926576 
2777.000000	64.924335 
2776.000000	64.920854 
2775.000000	64.916968 
2774.000000	64.913058 
2773.000000	64.909029 
2772.000000	64.904379 
2771.000000	64.898467 
2770.000000	64.890599 
2769.000000	64.880275 
2768.000000	64.867544 
2767.000000	64.852929 
2766.000000	64.837551 
2765.000000	64.822936 
2764.000000	64.810752 
2763.000000	64.802598 
2762.000000	64.799475 
2761.000000	64.801907 
2760.000000	64.809441 
2759.000000	64.821004 
2758.000000	64.834856 
2757.000000	64.849233 
2756.000000	64.862418 
2755.000000	64.873361 
2754.000000	64.881515 
2753.000000	64.887142 
2752.000000	64.890837 
2751.000000	64.893364 
2750.000000	64.895176 
2749.000000	64.896368 
2748.000000	64.896512 
2747.000000	64.895009 
2746.000000	64.891219 
2745.000000	64.885139 
2744.000000	64.877605 
2743.000000	64.870047 
2742.000000	64.864253 
2741.000000	64.862060 
2740.000000	64.864850 
2739.000000	64.873099 
2738.000000	64.886212 
2737.000000	64.902710 
2736.000000	64.920544 
2735.000000	64.937472 
2734.000000	64.951610 
2733.000000	64.961671 
2732.000000	64.967298 
2731.000000	64.968991 
2730.000000	64.967703 
2729.000000	64.964675 
2728.000000	64.961099 
2727.000000	64.957594 
2726.000000	64.954423 
2725.000000	64.951467 
2724.000000	64.948368 
2723.000000	64.944934 
2722.000000	64.941048 
2721.000000	64.936995 
2720.000000	64.933395 
2719.000000	64.930868 
2718.000000	64.929914 
2717.000000	64.930772 
2716.000000	64.933300 
2715.000000	64.937067 
2714.000000	64.941453 
2713.000000	64.945602 
2712.000000	64.948868 
2711.000000	64.950895 
2710.000000	64.951562 
2709.000000	64.951086 
2708.000000	64.949846 
2707.000000	64.948368 
2706.000000	64.947152 
2705.000000	64.946436 
2704.000000	64.946317 
2703.000000	64.946508 
2702.000000	64.946436 
2701.000000	64.945554 
2700.000000	64.943289 
2699.000000	64.939498 
2698.000000	64.934301 
2697.000000	64.928579 
2696.000000	64.923644 
2695.000000	64.921140 
2694.000000	64.922690 
2693.000000	64.929127 
2692.000000	64.940357 
2691.000000	64.954853 
2690.000000	64.970064 
2689.000000	64.982533 
2688.000000	64.988732 
2687.000000	64.985704 
2686.000000	64.971876 
2685.000000	64.947676 
2684.000000	64.915466 
2683.000000	64.879274 
2682.000000	64.843988 
2681.000000	64.814352 
2680.000000	64.794254 
2679.000000	64.785695 
2678.000000	64.788722 
2677.000000	64.801573 
2676.000000	64.820957 
2675.000000	64.842939 
2674.000000	64.863753 
2673.000000	64.880180 
2672.000000	64.890146 
2671.000000	64.892792 
2670.000000	64.888596 
2669.000000	64.878988 
2668.000000	64.866328 
2667.000000	64.853167 
2666.000000	64.842009 
2665.000000	64.834642 
2664.000000	64.831924 
2663.000000	64.833950 
2662.000000	64.839553 
2661.000000	64.846730 
2660.000000	64.853072 
2659.000000	64.856410 
2658.000000	64.855027 
2657.000000	64.848160 
2656.000000	64.836120 
2655.000000	64.820170 
2654.000000	64.801907 
2653.000000	64.783120 
2652.000000	64.765262 
2651.000000	64.749264 
2650.000000	64.735484 
2649.000000	64.723968 
2648.000000	64.714694 
2647.000000	64.707708 
2646.000000	64.703440 
2645.000000	64.702486 
2644.000000	64.705276 
2643.000000	64.712285 
2642.000000	64.723563 
2641.000000	64.739084 
2640.000000	64.758157 
2639.000000	64.780259 
2638.000000	64.804816 
2637.000000	64.831590 
2636.000000	64.860439 
2635.000000	64.890956 
2634.000000	64.922475 
2633.000000	64.953565 
2632.000000	64.982318 
2631.000000	65.006399 
2630.000000	65.023374 
2629.000000	65.031623 
2628.000000	65.030312 
2627.000000	65.020012 
2626.000000	65.002274 
2625.000000	64.979672 
2624.000000	64.955258 
2623.000000	64.931797 
2622.000000	64.911389 
2621.000000	64.895367 
2620.000000	64.883756 
2619.000000	64.875793 
2618.000000	64.870023 
2617.000000	64.864802 
2616.000000	64.859032 
2615.000000	64.852094 
2614.000000	64.844274 
2613.000000	64.836454 
2612.000000	64.830112 
2611.000000	64.826655 
2610.000000	64.827251 
2609.000000	64.832329 
2608.000000	64.841699 
2607.000000	64.854454 
2606.000000	64.869165 
2605.000000	64.884209 
2604.000000	64.898228 
2603.000000	64.910459 
2602.000000	64.920568 
2601.000000	64.928841 
2600.000000	64.935946 
2599.000000	64.942622 
2598.000000	64.949345 
2597.000000	64.956092 
2596.000000	64.962577 
2595.000000	64.967966 
2594.000000	64.971542 
2593.000000	64.972758 
2592.000000	64.971280 
2591.000000	64.967393 
2590.000000	64.961886 
2589.000000	64.955997 
2588.000000	64.950942 
2587.000000	64.947795 
2586.000000	64.947223 
2585.000000	64.949083 
2584.000000	64.952683 
2583.000000	64.956808 
2582.000000	64.960050 
2581.000000	64.961171 
2580.000000	64.959359 
2579.000000	64.954495 
2578.000000	64.947128 
2577.000000	64.938235 
2576.000000	64.929080 
2575.000000	64.920639 
2574.000000	64.913511 
2573.000000	64.907813 
2572.000000	64.903378 
2571.000000	64.899706 
2570.000000	64.896559 
2569.000000	64.893841 
2568.000000	64.891815 
2567.000000	64.891195 
2566.000000	64.892601 
2565.000000	64.896535 
2564.000000	64.903187 
2563.000000	64.912104 
2562.000000	64.922595 
2561.000000	64.933609 
2560.000000	64.944171 
2559.000000	64.953613 
2558.000000	64.961361 
2557.000000	64.967298 
2556.000000	64.971137 
2555.000000	64.972615 
2554.000000	64.971303 
2553.000000	64.966630 
2552.000000	64.958071 
2551.000000	64.945554 
2550.000000	64.929652 
2549.000000	64.911913 
2548.000000	64.894509 
2547.000000	64.880228 
2546.000000	64.871811 
2545.000000	64.871430 
2544.000000	64.880132 
2543.000000	64.897513 
2542.000000	64.921736 
2541.000000	64.950132 
2540.000000	64.979290 
2539.000000	65.006184 
2538.000000	65.028619 
2537.000000	65.045547 
2536.000000	65.057063 
2535.000000	65.064239 
2534.000000	65.068507 
2533.000000	65.071129 
2532.000000	65.072846 
2531.000000	65.073752 
2530.000000	65.073347 
2529.000000	65.070819 
2528.000000	65.065503 
2527.000000	65.057086 
2526.000000	65.045833 
2525.000000	65.032315 
2524.000000	65.017509 
2523.000000	65.002179 
2522.000000	64.986896 
2521.000000	64.971661 
2520.000000	64.956259 
2519.000000	64.940214 
2518.000000	64.923262 
2517.000000	64.905452 
2516.000000	64.887523 
2515.000000	64.870595 
2514.000000	64.856410 
2513.000000	64.846467 
2512.000000	64.842319 
2511.000000	64.844775 
2510.000000	64.854121 
2509.000000	64.869642 
2508.000000	64.889979 
2507.000000	64.913082 
2506.000000	64.936542 
2505.000000	64.957928 
2504.000000	64.975142 
2503.000000	64.986681 
2502.000000	64.991903 
2501.000000	64.991092 
2500.000000	64.985346 
2499.000000	64.976263 
2498.000000	64.965867 
2497.000000	64.956116 
2496.000000	64.948487 
2495.000000	64.943718 
2494.000000	64.942026 
2493.000000	64.942789 
2492.000000	64.944815 
2491.000000	64.946508 
2490.000000	64.946413 
2489.000000	64.943432 
2488.000000	64.936780 
2487.000000	64.926695 
2486.000000	64.913940 
2485.000000	64.900183 
2484.000000	64.887619 
2483.000000	64.878559 
2482.000000	64.875006 
2481.000000	64.878225 
2480.000000	64.888429 
2479.000000	64.904546 
2478.000000	64.924430 
2477.000000	64.945149 
2476.000000	64.963674 
2475.000000	64.977431 
2474.000000	64.984750 
2473.000000	64.985394 
2472.000000	64.980411 
2471.000000	64.971876 
2470.000000	64.962410 
2469.000000	64.954400 
2468.000000	64.949631 
2467.000000	64.949035 
2466.000000	64.952564 
2465.000000	64.959406 
2464.000000	64.968228 
2463.000000	64.977812 
2462.000000	64.987206 
2461.000000	64.995574 
2460.000000	65.002465 
2459.000000	65.007352 
2458.000000	65.009760 
2457.000000	65.009117 
2456.000000	65.004873 
2455.000000	64.996623 
2454.000000	64.984416 
2453.000000	64.968729 
2452.000000	64.950585 
2451.000000	64.931678 
2450.000000	64.913845 
2449.000000	64.898753 
2448.000000	64.887690 
2447.000000	64.881277 
2446.000000	64.879631 
2445.000000	64.881944 
2444.000000	64.887118 
2443.000000	64.893794 
2442.000000	64.900708 
2441.000000	64.907026 
2440.000000	64.912176 
2439.000000	64.916014 
2438.000000	64.918899 
2437.000000	64.921379 
2436.000000	64.924025 
2435.000000	64.927172 
2434.000000	64.930987 
2433.000000	64.935207 
2432.000000	64.939260 
2431.000000	64.942312 
2430.000000	64.943838 
2429.000000	64.943599 
2428.000000	64.941716 
2427.000000	64.938998 
2426.000000	64.936709 
2425.000000	64.936518 
2424.000000	64.940071 
2423.000000	64.948558 
2422.000000	64.962625 
2421.000000	64.981961 
2420.000000	65.005373 
2419.000000	65.030765 
2418.000000	65.055513 
2417.000000	65.076804 
2416.000000	65.092134 
2415.000000	65.099763 
2414.000000	65.098810 
2413.000000	65.089511 
2412.000000	65.073108 
2411.000000	65.051627 
2410.000000	65.027499 
2409.000000	65.003252 
2408.000000	64.980888 
2407.000000	64.961862 
2406.000000	64.946699 
2405.000000	64.935183 
2404.000000	64.926552 
2403.000000	64.919638 
2402.000000	64.913535 
2401.000000	64.907455 
2400.000000	64.901423 
2399.000000	64.895844 
2398.000000	64.891600 
2397.000000	64.889550 
2396.000000	64.890313 
2395.000000	64.894127 
2394.000000	64.900636 
2393.000000	64.908885 
2392.000000	64.917540 
2391.000000	64.925312 
2390.000000	64.931082 
2389.000000	64.934349 
2388.000000	64.935088 
2387.000000	64.933848 
2386.000000	64.931416 
2385.000000	64.928698 
2384.000000	64.926457 
2383.000000	64.925074 
2382.000000	64.924716 
2381.000000	64.925241 
2380.000000	64.926433 
2379.000000	64.928030 
2378.000000	64.930200 
2377.000000	64.933300 
2376.000000	64.937877 
2375.000000	64.944410 
2374.000000	64.953136 
2373.000000	64.963698 
2372.000000	64.974951 
2371.000000	64.984917 
2370.000000	64.991354 
2369.000000	64.991831 
2368.000000	64.984488 
2367.000000	64.968657 
2366.000000	64.945125 
2365.000000	64.916205 
2364.000000	64.885497 
2363.000000	64.857101 
2362.000000	64.834976 
2361.000000	64.821910 
2360.000000	64.819121 
2359.000000	64.825749 
2358.000000	64.839410 
2357.000000	64.856791 
2356.000000	64.874529 
2355.000000	64.889931 
2354.000000	64.901494 
2353.000000	64.908957 
2352.000000	64.913105 
2351.000000	64.915108 
2350.000000	64.916443 
2349.000000	64.917874 
2348.000000	64.919638 
2347.000000	64.921617 
2346.000000	64.923381 
2345.000000	64.924764 
2344.000000	64.926004 
2343.000000	64.927983 
2342.000000	64.931845 
2341.000000	64.938569 
2340.000000	64.948749 
2339.000000	64.962100 
2338.000000	64.977431 
2337.000000	64.992761 
2336.000000	65.005636 
2335.000000	65.013837 
2334.000000	65.015506 
2333.000000	65.009713 
2332.000000	64.996695 
2331.000000	64.977979 
2330.000000	64.956021 
2329.000000	64.933824 
2328.000000	64.914655 
2327.000000	64.901208 
2326.000000	64.895415 
2325.000000	64.897871 
2324.000000	64.907908 
2323.000000	64.923524 
2322.000000	64.942193 
2321.000000	64.961075 
2320.000000	64.977741 
2319.000000	64.990520 
2318.000000	64.998722 
2317.000000	65.002679 
2316.000000	65.003371 
2315.000000	65.002226 
2314.000000	65.000486 
2313.000000	64.999055 
2312.000000	64.998340 
2311.000000	64.998269 
2310.000000	64.998674 
2309.000000	64.999318 
2308.000000	65.000247 
2307.000000	65.001702 
2306.000000	65.003895 
2305.000000	65.006923 
2304.000000	65.010380 
2303.000000	65.013551 
2302.000000	65.015316 
2301.000000	65.014481 
2300.000000	65.010190 
2299.000000	65.002107 
2298.000000	64.990782 
2297.000000	64.977550 
2296.000000	64.964461 
2295.000000	64.953851 
2294.000000	64.947938 
2293.000000	64.948225 
2292.000000	64.955401 
2291.000000	64.968991 
2290.000000	64.987516 
2289.000000	65.008711 
2288.000000	65.029811 
2287.000000	65.047955 
2286.000000	65.060639 
2285.000000	65.066123 
2284.000000	65.063381 
2283.000000	65.052652 
2282.000000	65.035128 
2281.000000	65.012907 
2280.000000	64.988708 
2279.000000	64.965534 
2278.000000	64.946103 
2277.000000	64.932465 
2276.000000	64.925765 
2275.000000	64.925980 
2274.000000	64.931917 
2273.000000	64.941525 
2272.000000	64.952397 
2271.000000	64.962029 
2270.000000	64.968323 
2269.000000	64.970231 
2268.000000	64.967441 
2267.000000	64.960765 
2266.000000	64.951562 
2265.000000	64.941740 
2264.000000	64.933228 
2263.000000	64.927601 
2262.000000	64.926004 
2261.000000	64.928913 
2260.000000	64.936304 
2259.000000	64.947485 
2258.000000	64.961409 
2257.000000	64.976644 
2256.000000	64.991807 
2255.000000	65.005397 
2254.000000	65.015864 
2253.000000	65.021967 
2252.000000	65.022754 
2251.000000	65.017867 
2250.000000	65.007662 
2249.000000	64.993119 
2248.000000	64.975905 
2247.000000	64.958429 
2246.000000	64.943099 
2245.000000	64.932131 
2244.000000	64.926910 
2243.000000	64.927864 
2242.000000	64.934206 
2241.000000	64.944028 
2240.000000	64.954638 
2239.000000	64.963221 
2238.000000	64.967131 
2237.000000	64.964556 
2236.000000	64.954900 
2235.000000	64.938807 
2234.000000	64.918017 
2233.000000	64.894723 
2232.000000	64.871382 
2231.000000	64.850115 
2230.000000	64.832234 
2229.000000	64.818072 
2228.000000	64.807319 
2227.000000	64.799070 
2226.000000	64.792513 
2225.000000	64.787149 
2224.000000	64.782905 
2223.000000	64.780116 
2222.000000	64.779448 
2221.000000	64.781761 
2220.000000	64.787316 
2219.000000	64.795851 
2218.000000	64.806270 
2217.000000	64.817190 
2216.000000	64.826965 
2215.000000	64.834499 
2214.000000	64.839386 
2213.000000	64.842152 
2212.000000	64.844179 
2211.000000	64.847159 
2210.000000	64.852643 
2209.000000	64.861583 
2208.000000	64.873957 
2207.000000	64.888978 
2206.000000	64.905285 
2205.000000	64.921402 
2204.000000	64.936351 
2203.000000	64.949512 
2202.000000	64.960885 
2201.000000	64.970636 
2200.000000	64.979004 
2199.000000	64.985680 
2198.000000	64.989900 
2197.000000	64.990687 
2196.000000	64.987063 
2195.000000	64.978861 
2194.000000	64.966940 
2193.000000	64.953207 
2192.000000	64.940357 
2191.000000	64.931416 
2190.000000	64.928841 
2189.000000	64.933753 
2188.000000	64.945697 
2187.000000	64.962720 
2186.000000	64.981746 
2185.000000	64.999365 
2184.000000	65.012645 
2183.000000	65.019726 
2182.000000	65.020227 
2181.000000	65.015053 
2180.000000	65.006208 
2179.000000	64.996123 
2178.000000	64.987111 
2177.000000	64.980864 
2176.000000	64.978146 
2175.000000	64.978861 
2174.000000	64.982175 
2173.000000	64.986848 
2172.000000	64.991426 
2171.000000	64.994478 
2170.000000	64.994716 
2169.000000	64.991092 
2168.000000	64.982867 
2167.000000	64.969754 
2166.000000	64.951968 
2165.000000	64.930295 
2164.000000	64.906382 
2163.000000	64.882349 
2162.000000	64.860582 
2161.000000	64.843440 
2160.000000	64.832806 
2159.000000	64.829659 
2158.000000	64.833855 
2157.000000	64.844131 
2156.000000	64.858365 
2155.000000	64.874148 
2154.000000	64.889049 
2153.000000	64.901232 
2152.000000	64.909744 
2151.000000	64.914536 
2150.000000	64.916205 
2149.000000	64.915800 
2148.000000	64.914464 
2147.000000	64.913249 
2146.000000	64.912819 
2145.000000	64.913558 
2144.000000	64.915585 
2143.000000	64.918994 
2142.000000	64.923763 
2141.000000	64.929771 
2140.000000	64.936590 
2139.000000	64.943504 
2138.000000	64.949631 
2137.000000	64.953780 
2136.000000	64.954829 
2135.000000	64.952182 
2134.000000	64.945888 
2133.000000	64.936590 
2132.000000	64.925694 
2131.000000	64.915132 
2130.000000	64.906811 
2129.000000	64.902162 
2128.000000	64.901947 
2127.000000	64.905929 
2126.000000	64.912939 
2125.000000	64.921140 
2124.000000	64.928388 
2123.000000	64.932775 
2122.000000	64.932870 
2121.000000	64.928102 
2120.000000	64.918637 
2119.000000	64.905261 
2118.000000	64.889264 
2117.000000	64.872121 
2116.000000	64.855170 
2115.000000	64.839601 
2114.000000	64.826178 
2113.000000	64.815616 
2112.000000	64.808392 
2111.000000	64.804983 
2110.000000	64.805865 
2109.000000	64.811658 
2108.000000	64.822554 
2107.000000	64.838576 
2106.000000	64.859151 
2105.000000	64.883160 
2104.000000	64.908790 
2103.000000	64.933943 
2102.000000	64.956355 
2101.000000	64.974141 
2100.000000	64.986157 
2099.000000	64.992094 
2098.000000	64.992594 
2097.000000	64.989066 
2096.000000	64.983248 
2095.000000	64.976835 
2094.000000	64.971017 
2093.000000	64.966201 
2092.000000	64.962172 
2091.000000	64.958190 
2090.000000	64.953446 
2089.000000	64.947390 
2088.000000	64.940047 
2087.000000	64.931893 
2086.000000	64.923834 
2085.000000	64.916729 
2084.000000	64.911317 
2083.000000	64.907884 
2082.000000	64.906239 
2081.000000	64.905738 
2080.000000	64.905643 
2079.000000	64.905500 
2078.000000	64.905333 
2077.000000	64.905667 
2076.000000	64.907240 
2075.000000	64.910912 
2074.000000	64.917016 
2073.000000	64.925479 
2072.000000	64.935517 
2071.000000	64.945936 
2070.000000	64.955401 
2069.000000	64.962673 
2068.000000	64.967083 
2067.000000	64.968490 
2066.000000	64.967346 
2065.000000	64.964580 
2064.000000	64.961361 
2063.000000	64.958524 
2062.000000	64.956927 
2061.000000	64.956855 
2060.000000	64.958167 
2059.000000	64.960241 
2058.000000	64.962148 
2057.000000	64.962863 
2056.000000	64.961194 
2055.000000	64.956426 
2054.000000	64.948105 
2053.000000	64.936637 
2052.000000	64.923167 
2051.000000	64.909696 
2050.000000	64.898657 
2049.000000	64.892411 
2048.000000	64.892768 
2047.000000	64.900517 
2046.000000	64.915060 
2045.000000	64.934539 
2044.000000	64.956068 
2043.000000	64.976549 
2042.000000	64.993166 
2041.000000	65.004205 
2040.000000	65.009236 
2039.000000	65.009117 
2038.000000	65.005731 
2037.000000	65.001296 
2036.000000	64.997792 
2035.000000	64.996600 
2034.000000	64.998078 
2033.000000	65.001869 
2032.000000	65.006875 
2031.000000	65.011978 
2030.000000	65.016078 
2029.000000	65.018224 
2028.000000	65.017724 
2027.000000	65.013957 
2026.000000	65.006709 
2025.000000	64.995861 
2024.000000	64.981794 
2023.000000	64.965415 
2022.000000	64.948248 
2021.000000	64.932203 
2020.000000	64.919400 
2019.000000	64.911723 
2018.000000	64.910459 
2017.000000	64.915728 
2016.000000	64.926481 
2015.000000	64.940714 
2014.000000	64.955830 
2013.000000	64.969229 
2012.000000	64.978909 
2011.000000	64.983797 
2010.000000	64.983987 
2009.000000	64.980411 
2008.000000	64.974546 
2007.000000	64.967870 
2006.000000	64.961409 
2005.000000	64.955544 
2004.000000	64.950132 
2003.000000	64.944672 
2002.000000	64.938807 
2001.000000	64.932537 
2000.000000	64.926362 
1999.000000	64.921545 
1998.000000	64.919757 
1997.000000	64.922618 
1996.000000	64.931225 
1995.000000	64.945673 
1994.000000	64.964818 
1993.000000	64.986395 
1992.000000	65.007519 
1991.000000	65.024971 
1990.000000	65.035986 
1989.000000	65.038943 
1988.000000	65.033650 
1987.000000	65.021324 
1986.000000	65.004348 
1985.000000	64.985680 
1984.000000	64.968514 
1983.000000	64.955520 
1982.000000	64.948439 
1981.000000	64.947891 
1980.000000	64.953255 
1979.000000	64.963126 
1978.000000	64.975523 
1977.000000	64.988255 
1976.000000	64.999294 
1975.000000	65.006995 
1974.000000	65.010237 
1973.000000	65.008473 
1972.000000	65.001964 
1971.000000	64.991331 
1970.000000	64.977574 
1969.000000	64.962244 
1968.000000	64.946866 
1967.000000	64.932942 
1966.000000	64.921712 
1965.000000	64.914131 
1964.000000	64.910793 
1963.000000	64.911866 
1962.000000	64.917206 
1961.000000	64.926338 
1960.000000	64.938569 
1959.000000	64.953160 
1958.000000	64.969182 
1957.000000	64.985537 
1956.000000	65.001034 
1955.000000	65.014576 
1954.000000	65.025091 
1953.000000	65.031719 
1952.000000	65.033864 
1951.000000	65.031528 
1950.000000	65.025115 
1949.000000	65.015721 
1948.000000	65.004897 
1947.000000	64.994287 
1946.000000	64.985585 
1945.000000	64.980196 
1944.000000	64.979052 
1943.000000	64.982604 
1942.000000	64.990735 
1941.000000	65.002822 
1940.000000	65.017986 
1939.000000	65.035438 
1938.000000	65.054416 
1937.000000	65.074086 
1936.000000	65.093636 
1935.000000	65.112018 
1934.000000	65.127921 
1933.000000	65.139818 
1932.000000	65.145945 
1931.000000	65.144729 
1930.000000	65.135073 
1929.000000	65.116786 
1928.000000	65.090727 
1927.000000	65.058875 
1926.000000	65.024137 
1925.000000	64.989924 
1924.000000	64.959478 
1923.000000	64.935231 
1922.000000	64.918494 
1921.000000	64.909219 
1920.000000	64.906239 
1919.000000	64.907407 
1918.000000	64.910364 
1917.000000	64.913082 
1916.000000	64.914345 
1915.000000	64.913797 
1914.000000	64.912343 
1913.000000	64.911341 
1912.000000	64.912605 
1911.000000	64.917397 
1910.000000	64.926314 
1909.000000	64.938855 
1908.000000	64.953756 
1907.000000	64.968967 
1906.000000	64.982485 
1905.000000	64.992785 
1904.000000	64.999151 
1903.000000	65.001821 
1902.000000	65.001893 
1901.000000	65.000772 
1900.000000	64.999914 
1899.000000	65.000271 
1898.000000	65.002107 
1897.000000	65.004825 
1896.000000	65.007567 
1895.000000	65.009236 
1894.000000	65.009021 
1893.000000	65.006566 
1892.000000	65.002226 
1891.000000	64.996767 
1890.000000	64.990901 
1889.000000	64.985203 
1888.000000	64.979815 
1887.000000	64.974474 
1886.000000	64.968943 
1885.000000	64.962959 
1884.000000	64.956593 
1883.000000	64.950251 
1882.000000	64.944720 
1881.000000	64.940857 
1880.000000	64.939236 
1879.000000	64.940118 
1878.000000	64.943289 
1877.000000	64.948129 
1876.000000	64.953804 
1875.000000	64.959502 
1874.000000	64.964604 
1873.000000	64.968752 
1872.000000	64.971804 
1871.000000	64.973664 
1870.000000	64.974212 
1869.000000	64.973378 
1868.000000	64.971017 
1867.000000	64.967322 
1866.000000	64.962697 
1865.000000	64.957952 
1864.000000	64.954042 
1863.000000	64.952039 
1862.000000	64.952683 
1861.000000	64.955973 
1860.000000	64.961266 
1859.000000	64.967203 
1858.000000	64.972209 
1857.000000	64.974665 
1856.000000	64.973711 
1855.000000	64.969182 
1854.000000	64.961910 
1853.000000	64.953351 
1852.000000	64.945197 
1851.000000	64.938879 
1850.000000	64.935302 
1849.000000	64.934539 
1848.000000	64.936208 
1847.000000	64.939713 
1846.000000	64.944624 
1845.000000	64.950752 
1844.000000	64.958429 
1843.000000	64.968013 
1842.000000	64.979529 
1841.000000	64.992380 
1840.000000	65.005111 
1839.000000	65.015506 
1838.000000	65.021061 
1837.000000	65.019655 
1836.000000	65.010023 
1835.000000	64.992332 
1834.000000	64.968371 
1833.000000	64.941263 
1832.000000	64.914584 
1831.000000	64.891934 
1830.000000	64.875960 
1829.000000	64.867830 
1828.000000	64.867162 
1827.000000	64.872288 
1826.000000	64.880633 
1825.000000	64.889550 
1824.000000	64.896821 
1823.000000	64.901161 
1822.000000	64.902138 
1821.000000	64.900016 
1820.000000	64.895558 
1819.000000	64.889478 
1818.000000	64.882493 
1817.000000	64.875006 
1816.000000	64.867520 
1815.000000	64.860534 
1814.000000	64.854931 
1813.000000	64.851927 
1812.000000	64.852929 
1811.000000	64.859127 
1810.000000	64.871239 
1809.000000	64.889335 
1808.000000	64.912366 
1807.000000	64.938545 
1806.000000	64.965105 
1805.000000	64.988875 
1804.000000	65.006804 
1803.000000	65.016508 
1802.000000	65.016627 
1801.000000	65.007352 
1800.000000	64.990162 
1799.000000	64.967751 
1798.000000	64.943218 
1797.000000	64.919400 
1796.000000	64.898443 
1795.000000	64.881515 
1794.000000	64.868974 
1793.000000	64.860653 
1792.000000	64.856195 
1791.000000	64.855337 
1790.000000	64.857864 
1789.000000	64.863801 
1788.000000	64.872837 
1787.000000	64.884352 
1786.000000	64.897131 
1785.000000	64.909720 
1784.000000	64.920496 
1783.000000	64.928030 
1782.000000	64.931488 
1781.000000	64.930891 
1780.000000	64.927148 
1779.000000	64.921689 
1778.000000	64.916276 
1777.000000	64.912438 
1776.000000	64.911127 
1775.000000	64.912414 
1774.000000	64.915633 
1773.000000	64.919424 
1772.000000	64.922285 
1771.000000	64.922928 
1770.000000	64.920592 
1769.000000	64.915227 
1768.000000	64.907526 
1767.000000	64.898633 
1766.000000	64.889788 
1765.000000	64.882111 
1764.000000	64.876222 
1763.000000	64.872169 
1762.000000	64.869403 
1761.000000	64.866924 
1760.000000	64.863610 
1759.000000	64.858555 
1758.000000	64.851140 
1757.000000	64.841175 
1756.000000	64.828968 
1755.000000	64.815211 
1754.000000	64.800739 
1753.000000	64.786362 
1752.000000	64.772796 
1751.000000	64.760470 
1750.000000	64.749765 
1749.000000	64.740800 
1748.000000	64.733576 
1747.000000	64.727997 
1746.000000	64.724087 
1745.000000	64.721798 
1744.000000	64.720892 
1743.000000	64.720964 
1742.000000	64.721441 
1741.000000	64.721488 
1740.000000	64.720201 
1739.000000	64.716625 
1738.000000	64.710044 
1737.000000	64.700222 
1736.000000	64.687347 
1735.000000	64.672231 
1734.000000	64.656162 
1733.000000	64.640808 
1732.000000	64.627671 
1731.000000	64.617967 
1730.000000	64.612507 
1729.000000	64.611530 
1728.000000	64.614772 
1727.000000	64.621639 
1726.000000	64.631390 
1725.000000	64.643406 
1724.000000	64.656949 
1723.000000	64.671397 
1722.000000	64.686250 
1721.000000	64.701032 
1720.000000	64.715266 
1719.000000	64.728641 
1718.000000	64.740943 
1717.000000	64.752197 
1716.000000	64.762663 
1715.000000	64.772868 
1714.000000	64.783215 
1713.000000	64.794015 
1712.000000	64.805245 
1711.000000	64.816474 
1710.000000	64.826869 
1709.000000	64.835500 
1708.000000	64.841628 
1707.000000	64.845013 
1706.000000	64.846038 
1705.000000	64.845633 
1704.000000	64.845156 
1703.000000	64.846086 
1702.000000	64.849543 
1701.000000	64.856147 
1700.000000	64.865541 
1699.000000	64.876747 
1698.000000	64.888143 
1697.000000	64.898037 
1696.000000	64.904689 
1695.000000	64.907026 
1694.000000	64.904451 
1693.000000	64.897060 
1692.000000	64.885497 
1691.000000	64.870595 
1690.000000	64.853382 
1689.000000	64.834928 
1688.000000	64.816212 
1687.000000	64.798164 
1686.000000	64.781713 
1685.000000	64.767861 
1684.000000	64.757418 
1683.000000	64.751076 
1682.000000	64.749264 
1681.000000	64.752101 
1680.000000	64.759135 
1679.000000	64.769387 
1678.000000	64.781570 
1677.000000	64.794230 
1676.000000	64.805889 
1675.000000	64.815306 
1674.000000	64.821529 
1673.000000	64.824151 
1672.000000	64.823198 
1671.000000	64.819049 
1670.000000	64.812445 
1669.000000	64.804339 
1668.000000	64.795827 
1667.000000	64.787936 
1666.000000	64.781785 
1665.000000	64.778184 
1664.000000	64.777779 
1663.000000	64.780688 
1662.000000	64.786601 
1661.000000	64.794731 
1660.000000	64.804053 
1659.000000	64.813208 
1658.000000	64.821028 
1657.000000	64.826631 
1656.000000	64.829635 
1655.000000	64.830040 
1654.000000	64.828324 
1653.000000	64.825201 
1652.000000	64.821529 
1651.000000	64.818072 
1650.000000	64.815211 
1649.000000	64.813256 
1648.000000	64.812088 
1647.000000	64.811491 
1646.000000	64.810919 
1645.000000	64.809751 
1644.000000	64.807367 
1643.000000	64.803147 
1642.000000	64.796638 
1641.000000	64.787650 
1640.000000	64.776539 
1639.000000	64.763975 
1638.000000	64.751267 
1637.000000	64.739871 
1636.000000	64.731407 
1635.000000	64.727187 
1634.000000	64.728069 
1633.000000	64.734029 
1632.000000	64.744234 
1631.000000	64.757275 
1630.000000	64.771366 
1629.000000	64.784669 
1628.000000	64.795780 
1627.000000	64.803934 
1626.000000	64.809060 
1625.000000	64.811706 
1624.000000	64.812779 
1623.000000	64.813518 
1622.000000	64.815044 
1621.000000	64.818048 
1620.000000	64.822912 
1619.000000	64.829444 
1618.000000	64.837241 
1617.000000	64.845633 
1616.000000	64.854216 
1615.000000	64.862322 
1614.000000	64.869499 
1613.000000	64.875102 
1612.000000	64.878416 
1611.000000	64.878606 
1610.000000	64.874815 
1609.000000	64.866399 
1608.000000	64.853262 
1607.000000	64.835882 
1606.000000	64.815568 
1605.000000	64.794111 
1604.000000	64.773559 
1603.000000	64.755773 
1602.000000	64.742231 
1601.000000	64.733719 
1600.000000	64.730358 
1599.000000	64.731502 
1598.000000	64.736294 
1597.000000	64.743852 
1596.000000	64.753508 
1595.000000	64.764761 
1594.000000	64.777016 
1593.000000	64.789533 
1592.000000	64.801120 
1591.000000	64.810109 
1590.000000	64.814662 
1589.000000	64.813280 
1588.000000	64.805102 
1587.000000	64.790630 
1586.000000	64.771366 
1585.000000	64.749526 
1584.000000	64.727759 
1583.000000	64.708495 
1582.000000	64.693498 
1581.000000	64.683699 
1580.000000	64.678955 
1579.000000	64.678359 
1578.000000	64.680194 
1577.000000	64.682507 
1576.000000	64.683413 
1575.000000	64.681363 
1574.000000	64.675474 
1573.000000	64.665627 
1572.000000	64.652442 
1571.000000	64.636898 
1570.000000	64.619851 
1569.000000	64.602160 
1568.000000	64.584302 
1567.000000	64.567041 
1566.000000	64.551067 
1565.000000	64.537858 
1564.000000	64.529204 
1563.000000	64.527297 
1562.000000	64.534187 
1561.000000	64.551043 
1560.000000	64.577794 
1559.000000	64.612746 
1558.000000	64.652538 
1557.000000	64.692783 
1556.000000	64.728784 
1555.000000	64.756298 
1554.000000	64.772391 
1553.000000	64.775848 
1552.000000	64.767551 
1551.000000	64.749860 
1550.000000	64.726018 
1549.000000	64.699459 
1548.000000	64.673256 
1547.000000	64.649844 
1546.000000	64.630603 
1545.000000	64.616370 
1544.000000	64.607334 
1543.000000	64.603400 
1542.000000	64.604187 
1541.000000	64.609265 
1540.000000	64.618134 
1539.000000	64.630007 
1538.000000	64.643836 
1537.000000	64.658522 
1536.000000	64.672946 
1535.000000	64.685988 
1534.000000	64.697098 
1533.000000	64.705991 
1532.000000	64.712953 
1531.000000	64.718747 
1530.000000	64.724349 
1529.000000	64.730596 
1528.000000	64.738106 
1527.000000	64.747023 
1526.000000	64.756774 
1525.000000	64.766311 
1524.000000	64.774131 
1523.000000	64.778900 
1522.000000	64.779543 
1521.000000	64.775657 
1520.000000	64.767646 
1519.000000	64.756727 
1518.000000	64.744925 
1517.000000	64.734506 
1516.000000	64.727497 
1515.000000	64.725112 
1514.000000	64.727711 
1513.000000	64.734554 
1512.000000	64.744043 
1511.000000	64.754152 
1510.000000	64.762783 
1509.000000	64.768409 
1508.000000	64.770221 
1507.000000	64.768385 
1506.000000	64.763784 
1505.000000	64.757776 
1504.000000	64.751839 
1503.000000	64.747071 
1502.000000	64.743900 
1501.000000	64.741778 
1500.000000	64.739608 
1499.000000	64.735984 
1498.000000	64.729619 
1497.000000	64.720177 
1496.000000	64.708447 
1495.000000	64.696621 
1494.000000	64.687561 
1493.000000	64.684319 
1492.000000	64.689207 
1491.000000	64.703130 
1490.000000	64.725184 
1489.000000	64.752817 
1488.000000	64.782404 
1487.000000	64.809989 
1486.000000	64.831995 
1485.000000	64.845895 
1484.000000	64.850568 
1483.000000	64.846229 
1482.000000	64.834308 
1481.000000	64.817094 
1480.000000	64.797139 
1479.000000	64.776754 
1478.000000	64.757490 
1477.000000	64.740157 
1476.000000	64.724659 
1475.000000	64.710426 
1474.000000	64.696693 
1473.000000	64.682888 
1472.000000	64.668965 
1471.000000	64.655685 
1470.000000	64.644336 
1469.000000	64.636683 
1468.000000	64.634561 
1467.000000	64.639496 
1466.000000	64.652299 
1465.000000	64.672780 
1464.000000	64.699816 
1463.000000	64.731168 
1462.000000	64.763879 
1461.000000	64.794325 
1460.000000	64.819002 
1459.000000	64.834618 
1458.000000	64.838790 
1457.000000	64.830255 
1456.000000	64.808964 
1455.000000	64.776444 
1454.000000	64.735579 
1453.000000	64.690232 
1452.000000	64.644813 
1451.000000	64.603447 
1450.000000	64.569664 
1449.000000	64.545607 
1448.000000	64.532041 
1447.000000	64.528298 
1446.000000	64.532828 
1445.000000	64.543437 
1444.000000	64.558053 
1443.000000	64.575028 
1442.000000	64.593744 
1441.000000	64.614057 
1440.000000	64.636349 
1439.000000	64.660978 
1438.000000	64.687919 
1437.000000	64.716458 
1436.000000	64.745211 
1435.000000	64.772105 
1434.000000	64.794754 
1433.000000	64.811134 
1432.000000	64.819693 
1431.000000	64.820218 
1430.000000	64.813399 
1429.000000	64.800977 
1428.000000	64.785170 
1427.000000	64.768505 
1426.000000	64.753150 
1425.000000	64.740800 
1424.000000	64.732074 
1423.000000	64.726901 
1422.000000	64.724230 
1421.000000	64.722657 
1420.000000	64.720439 
1419.000000	64.715814 
1418.000000	64.707350 
1417.000000	64.694404 
1416.000000	64.677453 
1415.000000	64.658069 
1414.000000	64.638710 
1413.000000	64.622449 
1412.000000	64.612340 
1411.000000	64.610815 
1410.000000	64.619064 
1409.000000	64.636445 
1408.000000	64.660596 
1407.000000	64.687919 
1406.000000	64.714002 
1405.000000	64.734816 
1404.000000	64.747476 
1403.000000	64.750790 
1402.000000	64.745283 
1401.000000	64.733028 
1400.000000	64.716792 
1399.000000	64.699316 
1398.000000	64.682579 
1397.000000	64.667677 
1396.000000	64.654779 
1395.000000	64.643335 
1394.000000	64.632654 
1393.000000	64.622020 
1392.000000	64.611029 
1391.000000	64.599466 
1390.000000	64.587402 
1389.000000	64.575195 
1388.000000	64.563417 
1387.000000	64.552807 
1386.000000	64.544129 
1385.000000	64.538264 
1384.000000	64.536166 
1383.000000	64.538574 
1382.000000	64.545965 
1381.000000	64.558362 
1380.000000	64.575314 
1379.000000	64.595890 
1378.000000	64.618825 
1377.000000	64.642691 
1376.000000	64.666008 
1375.000000	64.687442 
1374.000000	64.705872 
1373.000000	64.720582 
1372.000000	64.731073 
1371.000000	64.737010 
1370.000000	64.738178 
1369.000000	64.734506 
1368.000000	64.726090 
1367.000000	64.713454 
1366.000000	64.697146 
1365.000000	64.677953 
1364.000000	64.656782 
1363.000000	64.634799 
1362.000000	64.613008 
1361.000000	64.592313 
1360.000000	64.573597 
1359.000000	64.557528 
1358.000000	64.544463 
1357.000000	64.534759 
1356.000000	64.528441 
1355.000000	64.525508 
1354.000000	64.525818 
1353.000000	64.529323 
1352.000000	64.535570 
1351.000000	64.543986 
1350.000000	64.553737 
1349.000000	64.563655 
1348.000000	64.572262 
1347.000000	64.578175 
1346.000000	64.580392 
1345.000000	64.578509 
1344.000000	64.572691 
1343.000000	64.564156 
1342.000000	64.554738 
1341.000000	64.546704 
1340.000000	64.542150 
1339.000000	64.542627 
1338.000000	64.548778 
1337.000000	64.560127 
1336.000000	64.575219 
1335.000000	64.592123 
1334.000000	64.608645 
1333.000000	64.623022 
1332.000000	64.634227 
1331.000000	64.641880 
1330.000000	64.646196 
1329.000000	64.647936 
1328.000000	64.647984 
1327.000000	64.647293 
1326.000000	64.646458 
1325.000000	64.645981 
1324.000000	64.646029 
1323.000000	64.646553 
1322.000000	64.647197 
1321.000000	64.647603 
1320.000000	64.647126 
1319.000000	64.645218 
1318.000000	64.641475 
1317.000000	64.635729 
1316.000000	64.628410 
1315.000000	64.620375 
1314.000000	64.613008 
1313.000000	64.607763 
1312.000000	64.605951 
1311.000000	64.608383 
1310.000000	64.614963 
1309.000000	64.624714 
1308.000000	64.635944 
1307.000000	64.646744 
1306.000000	64.655232 
1305.000000	64.660191 
1304.000000	64.661240 
1303.000000	64.658880 
1302.000000	64.654254 
1301.000000	64.648652 
1300.000000	64.643287 
1299.000000	64.638829 
1298.000000	64.635467 
1297.000000	64.632892 
1296.000000	64.630579 
1295.000000	64.627909 
1294.000000	64.624667 
1293.000000	64.620900 
1292.000000	64.616727 
1291.000000	64.612340 
1290.000000	64.607715 
1289.000000	64.602565 
1288.000000	64.596533 
1287.000000	64.589095 
1286.000000	64.580011 
1285.000000	64.569497 
1284.000000	64.558124 
1283.000000	64.546728 
1282.000000	64.536309 
1281.000000	64.527606 
1280.000000	64.521026 
1279.000000	64.516448 
1278.000000	64.513492 
1277.000000	64.511609 
1276.000000	64.510440 
1275.000000	64.510035 
1274.000000	64.510750 
1273.000000	64.513206 
1272.000000	64.517927 
1271.000000	64.525103 
1270.000000	64.534497 
1269.000000	64.545392 
1268.000000	64.556813 
1267.000000	64.567756 
1266.000000	64.577531 
1265.000000	64.585852 
1264.000000	64.592838 
1263.000000	64.598965 
1262.000000	64.604687 
1261.000000	64.610171 
1260.000000	64.615154 
1259.000000	64.618968 
1258.000000	64.620685 
1257.000000	64.619445 
1256.000000	64.614725 
1255.000000	64.606666 
1254.000000	64.595961 
1253.000000	64.583802 
1252.000000	64.571571 
1251.000000	64.560651 
1250.000000	64.552211 
1249.000000	64.547014 
1248.000000	64.545416 
1247.000000	64.547395 
1246.000000	64.552688 
1245.000000	64.560818 
1244.000000	64.571118 
1243.000000	64.582896 
1242.000000	64.595222 
1241.000000	64.607262 
1240.000000	64.617919 
1239.000000	64.626216 
1238.000000	64.631342 
1237.000000	64.632821 
1236.000000	64.630579 
1235.000000	64.625048 
1234.000000	64.617085 
1233.000000	64.607810 
1232.000000	64.598464 
1231.000000	64.589929 
1230.000000	64.582681 
1229.000000	64.576530 
1228.000000	64.570903 
1227.000000	64.564633 
1226.000000	64.556503 
1225.000000	64.545369 
1224.000000	64.530730 
1223.000000	64.512848 
1222.000000	64.492774 
1221.000000	64.472198 
1220.000000	64.452981 
1219.000000	64.436864 
1218.000000	64.425015 
1217.000000	64.417600 
1216.000000	64.414048 
1215.000000	64.413213 
1214.000000	64.413809 
1213.000000	64.414620 
1212.000000	64.415264 
1211.000000	64.416050 
1210.000000	64.418053 
1209.000000	64.422488 
1208.000000	64.430809 
1207.000000	64.443826 
1206.000000	64.461779 
1205.000000	64.483880 
1204.000000	64.508700 
1203.000000	64.534235 
1202.000000	64.558386 
1201.000000	64.579105 
1200.000000	64.594411 
1199.000000	64.602565 
1198.000000	64.602160 
1197.000000	64.592504 
1196.000000	64.573669 
1195.000000	64.546656 
1194.000000	64.513683 
1193.000000	64.477705 
1192.000000	64.442515 
1191.000000	64.411830 
1190.000000	64.388966 
1189.000000	64.375972 
1188.000000	64.373302 
1187.000000	64.379858 
1186.000000	64.393115 
1185.000000	64.409661 
1184.000000	64.425945 
1183.000000	64.438843 
1182.000000	64.446115 
1181.000000	64.446926 
1180.000000	64.441609 
1179.000000	64.431643 
1178.000000	64.419031 
1177.000000	64.406156 
1176.000000	64.395356 
1175.000000	64.388585 
1174.000000	64.386963 
1173.000000	64.390683 
1172.000000	64.398717 
1171.000000	64.409065 
1170.000000	64.418840 
1169.000000	64.424920 
1168.000000	64.424633 
1167.000000	64.416265 
1166.000000	64.399671 
1165.000000	64.376449 
1164.000000	64.349818 
1163.000000	64.323997 
1162.000000	64.303207 
1161.000000	64.290976 
1160.000000	64.288926 
1159.000000	64.296698 
1158.000000	64.312052 
1157.000000	64.331221 
1156.000000	64.349937 
1155.000000	64.364528 
1154.000000	64.372563 
1153.000000	64.373302 
1152.000000	64.367675 
1151.000000	64.357686 
1150.000000	64.346051 
1149.000000	64.335227 
1148.000000	64.326882 
1147.000000	64.321756 
1146.000000	64.319515 
1145.000000	64.318943 
1144.000000	64.318585 
1143.000000	64.317107 
1142.000000	64.313530 
1141.000000	64.307689 
1140.000000	64.299774 
1139.000000	64.290475 
1138.000000	64.280843 
1137.000000	64.271974 
1136.000000	64.264822 
1135.000000	64.260172 
1134.000000	64.258360 
1133.000000	64.259386 
1132.000000	64.263176 
1131.000000	64.269542 
1130.000000	64.278054 
1129.000000	64.288544 
1128.000000	64.300847 
1127.000000	64.315104 
1126.000000	64.331603 
1125.000000	64.350533 
1124.000000	64.371776 
1123.000000	64.394927 
1122.000000	64.419126 
1121.000000	64.442896 
1120.000000	64.464354 
1119.000000	64.481282 
1118.000000	64.491248 
1117.000000	64.492154 
1116.000000	64.482450 
1115.000000	64.461350 
1114.000000	64.429211 
1113.000000	64.387655 
1112.000000	64.339661 
1111.000000	64.289212 
1110.000000	64.241385 
1109.000000	64.201521 
1108.000000	64.174771 
1107.000000	64.165019 
1106.000000	64.174342 
1105.000000	64.202570 
1104.000000	64.246845 
1103.000000	64.302206 
1102.000000	64.361929 
1101.000000	64.418625 
1100.000000	64.465546 
1099.000000	64.497542 
1098.000000	64.512109 
1097.000000	64.509344 
1096.000000	64.492154 
1095.000000	64.465284 
1094.000000	64.434146 
1093.000000	64.403748 
1092.000000	64.377236 
1091.000000	64.355587 
1090.000000	64.337635 
1089.000000	64.320778 
1088.000000	64.302206 
1087.000000	64.280033 
1086.000000	64.254212 
1085.000000	64.226961 
1084.000000	64.202022 
1083.000000	64.184093 
1082.000000	64.176988 
1081.000000	64.182996 
1080.000000	64.201569 
1079.000000	64.229464 
1078.000000	64.261412 
1077.000000	64.291572 
1076.000000	64.314699 
1075.000000	64.327740 
1074.000000	64.330148 
1073.000000	64.323902 
1072.000000	64.312887 
1071.000000	64.301681 
1070.000000	64.294052 
1069.000000	64.292240 
1068.000000	64.296555 
1067.000000	64.305639 
1066.000000	64.317035 
1065.000000	64.327931 
1064.000000	64.336061 
1063.000000	64.340233 
1062.000000	64.340662 
1061.000000	64.338326 
1060.000000	64.334845 
1059.000000	64.331936 
1058.000000	64.330935 
1057.000000	64.332747 
1056.000000	64.337468 
1055.000000	64.344930 
1054.000000	64.354228 
1053.000000	64.364051 
1052.000000	64.372563 
1051.000000	64.377808 
1050.000000	64.378094 
1049.000000	64.371895 
1048.000000	64.358830 
1047.000000	64.339470 
1046.000000	64.315748 
1045.000000	64.290666 
1044.000000	64.267659 
1043.000000	64.250016 
1042.000000	64.240503 
1041.000000	64.240670 
1040.000000	64.250636 
1039.000000	64.268875 
1038.000000	64.292836 
1037.000000	64.319133 
1036.000000	64.344191 
1035.000000	64.364933 
1034.000000	64.379048 
1033.000000	64.385581 
1032.000000	64.384436 
1031.000000	64.376735 
1030.000000	64.364290 
1029.000000	64.349484 
1028.000000	64.334821 
1027.000000	64.322781 
1026.000000	64.315414 
1025.000000	64.314293 
1024.000000	64.320158 
1023.000000	64.332962 
1022.000000	64.351701 
1021.000000	64.374589 
1020.000000	64.399194 
1019.000000	64.422512 
1018.000000	64.441442 
1017.000000	64.453172 
1016.000000	64.455890 
1015.000000	64.448738 
1014.000000	64.431953 
1013.000000	64.407110 
1012.000000	64.376902 
1011.000000	64.344286 
1010.000000	64.311957 
1009.000000	64.282226 
1008.000000	64.256620 
1007.000000	64.235830 
1006.000000	64.219832 
1005.000000	64.208030 
1004.000000	64.199423 
1003.000000	64.193296 
1002.000000	64.189100 
1001.000000	64.186048 
1000.000000	64.183616 
999.000000	 64.180946 
998.000000	 64.177560 
997.000000	 64.172649 
996.000000	 64.166307 
995.000000	 64.159321 
994.000000	 64.153409 
993.000000	 64.150619 
992.000000	 64.153385 
991.000000	 64.163875 
990.000000	 64.183402 
989.000000	 64.212012 
988.000000	 64.248657 
987.000000	 64.291334 
986.000000	 64.337897 
985.000000	 64.386248 
984.000000	 64.434576 
983.000000	 64.480733 
982.000000	 64.522838 
981.000000	 64.558577 
980.000000	 64.585304 
979.000000	 64.600205 
978.000000	 64.601182 
977.000000	 64.587092 
976.000000	 64.559006 
975.000000	 64.519548 
974.000000	 64.473843 
973.000000	 64.427328 
972.000000	 64.385128 
971.000000	 64.349818 
970.000000	 64.321994 
969.000000	 64.298605 
968.000000	 64.274096 
967.000000	 64.242005 
966.000000	 64.196920 
965.000000	 64.137220 
964.000000	 64.065670 
963.000000	 63.990330 
962.000000	 63.922429 
961.000000	 63.874721 
960.000000	 63.857913 
959.000000	 63.878202 
958.000000	 63.935136 
957.000000	 64.021754 
956.000000	 64.125585 
955.000000	 64.230871 
954.000000	 64.321660 
953.000000	 64.384984 
952.000000	 64.413404 
951.000000	 64.404845 
950.000000	 64.363861 
949.000000	 64.300251 
948.000000	 64.227557 
947.000000	 64.160132 
946.000000	 64.110732 
945.000000	 64.089131 
944.000000	 64.099907 
943.000000	 64.143085 
942.000000	 64.213395 
941.000000	 64.301538 
940.000000	 64.395976 
939.000000	 64.485311 
938.000000	 64.560103 
937.000000	 64.613604 
936.000000	 64.643573 
935.000000	 64.651966 
934.000000	 64.643931 
933.000000	 64.625835 
932.000000	 64.603972 
931.000000	 64.582800 
930.000000	 64.563965 
929.000000	 64.545750 
928.000000	 64.524340 
927.000000	 64.494419 
926.000000	 64.450764 
925.000000	 64.389538 
924.000000	 64.309263 
923.000000	 64.211916 
922.000000	 64.102935 
921.000000	 63.990855 
920.000000	 63.884878 
919.000000	 63.794660 
918.000000	 63.727974 
917.000000	 63.690805 
916.000000	 63.685059 
915.000000	 63.710641 
914.000000	 63.764882 
913.000000	 63.844347 
912.000000	 63.944005 
911.000000	 64.058828 
910.000000	 64.183330 
909.000000	 64.311218 
908.000000	 64.434862 
907.000000	 64.545679 
906.000000	 64.635109 
905.000000	 64.695405 
904.000000	 64.721298 
903.000000	 64.711737 
902.000000	 64.670729 
901.000000	 64.607405 
900.000000	 64.533829 
899.000000	 64.462876 
898.000000	 64.404702 
897.000000	 64.365863 
896.000000	 64.347171 
895.000000	 64.344596 
894.000000	 64.350056 
893.000000	 64.354825 
892.000000	 64.350867 
891.000000	 64.332699 
890.000000	 64.298439 
889.000000	 64.249420 
888.000000	 64.189958 
887.000000	 64.125180 
886.000000	 64.060902 
885.000000	 64.001846 
884.000000	 63.951230 
883.000000	 63.910889 
882.000000	 63.880848 
881.000000	 63.859701 
880.000000	 63.844847 
879.000000	 63.833332 
878.000000	 63.821625 
877.000000	 63.806557 
876.000000	 63.786625 
875.000000	 63.762593 
874.000000	 63.737463 
873.000000	 63.715839 
872.000000	 63.702940 
871.000000	 63.703227 
870.000000	 63.718867 
869.000000	 63.749027 
868.000000	 63.789629 
867.000000	 63.834309 
866.000000	 63.876056 
865.000000	 63.908433 
864.000000	 63.926935 
863.000000	 63.930082 
862.000000	 63.919353 
861.000000	 63.898873 
860.000000	 63.874006 
859.000000	 63.850283 
858.000000	 63.832402 
857.000000	 63.822960 
856.000000	 63.822388 
855.000000	 63.829302 
854.000000	 63.841652 
853.000000	 63.856768 
852.000000	 63.872241 
851.000000	 63.886547 
850.000000	 63.899064 
849.000000	 63.910007 
848.000000	 63.920092 
847.000000	 63.930201 
846.000000	 63.940620 
845.000000	 63.951063 
844.000000	 63.960266 
843.000000	 63.966393 
842.000000	 63.967323 
841.000000	 63.961410 
840.000000	 63.947868 
839.000000	 63.926982 
838.000000	 63.900256 
837.000000	 63.870286 
836.000000	 63.840270 
835.000000	 63.813257 
834.000000	 63.792276 
833.000000	 63.779807 
832.000000	 63.777446 
831.000000	 63.785743 
830.000000	 63.804173 
829.000000	 63.831162 
828.000000	 63.864135 
827.000000	 63.899612 
826.000000	 63.933825 
825.000000	 63.962984 
824.000000	 63.983988 
823.000000	 63.994812 
822.000000	 63.995027 
821.000000	 63.985657 
820.000000	 63.969016 
819.000000	 63.947725 
818.000000	 63.924074 
817.000000	 63.899254 
816.000000	 63.873243 
815.000000	 63.844871 
814.000000	 63.812947 
813.000000	 63.776969 
812.000000	 63.737750 
811.000000	 63.697767 
810.000000	 63.660979 
809.000000	 63.631844 
808.000000	 63.614273 
807.000000	 63.610196 
806.000000	 63.619017 
805.000000	 63.637471 
804.000000	 63.660120 
803.000000	 63.680744 
802.000000	 63.693714 
801.000000	 63.695263 
800.000000	 63.684296 
799.000000	 63.662886 
798.000000	 63.635444 
797.000000	 63.607764 
796.000000	 63.585495 
795.000000	 63.573050 
794.000000	 63.572478 
793.000000	 63.583445 
792.000000	 63.602924 
791.000000	 63.626003 
790.000000	 63.646936 
789.000000	 63.660073 
788.000000	 63.661146 
787.000000	 63.647723 
786.000000	 63.620138 
785.000000	 63.580965 
784.000000	 63.535189 
783.000000	 63.489055 
782.000000	 63.448810 
781.000000	 63.420104 
780.000000	 63.406109 
779.000000	 63.407373 
778.000000	 63.421034 
777.000000	 63.441848 
776.000000	 63.463115 
775.000000	 63.478088 
774.000000	 63.481688 
773.000000	 63.471245 
772.000000	 63.447618 
771.000000	 63.414764 
770.000000	 63.378787 
769.000000	 63.346529 
768.000000	 63.324213 
767.000000	 63.315963 
766.000000	 63.323283 
765.000000	 63.344478 
764.000000	 63.375592 
763.000000	 63.410997 
762.000000	 63.444733 
761.000000	 63.471436 
760.000000	 63.487219 
759.000000	 63.490033 
758.000000	 63.479781 
757.000000	 63.457870 
756.000000	 63.426876 
755.000000	 63.389992 
754.000000	 63.350796 
753.000000	 63.312005 
752.000000	 63.275694 
751.000000	 63.242578 
750.000000	 63.212800 
749.000000	 63.185310 
748.000000	 63.158893 
747.000000	 63.132381 
746.000000	 63.105154 
745.000000	 63.077640 
744.000000	 63.051152 
743.000000	 63.027477 
742.000000	 63.008356 
741.000000	 62.994766 
740.000000	 62.986707 
739.000000	 62.982702 
738.000000	 62.980031 
737.000000	 62.975502 
736.000000	 62.966394 
735.000000	 62.951064 
734.000000	 62.929797 
733.000000	 62.904834 
732.000000	 62.880182 
731.000000	 62.860155 
730.000000	 62.848830 
729.000000	 62.848472 
728.000000	 62.859416 
727.000000	 62.879681 
726.000000	 62.905621 
725.000000	 62.932753 
724.000000	 62.956881 
723.000000	 62.975096 
722.000000	 62.985825 
721.000000	 62.988877 
720.000000	 62.985062 
719.000000	 62.975525 
718.000000	 62.961077 
717.000000	 62.942051 
716.000000	 62.918329 
715.000000	 62.889838 
714.000000	 62.856888 
713.000000	 62.820410 
712.000000	 62.782263 
711.000000	 62.744951 
710.000000	 62.710857 
709.000000	 62.682175 
708.000000	 62.659907 
707.000000	 62.644553 
706.000000	 62.635660 
705.000000	 62.632727 
704.000000	 62.635111 
703.000000	 62.642478 
702.000000	 62.654733 
701.000000	 62.671613 
700.000000	 62.692260 
699.000000	 62.714791 
698.000000	 62.736201 
697.000000	 62.752699 
696.000000	 62.760305 
695.000000	 62.755990 
694.000000	 62.738347 
693.000000	 62.708067 
692.000000	 62.667798 
691.000000	 62.621665 
690.000000	 62.574577 
689.000000	 62.531018 
688.000000	 62.494301 
687.000000	 62.466502 
686.000000	 62.447977 
685.000000	 62.438225 
684.000000	 62.436079 
683.000000	 62.440013 
682.000000	 62.448406 
681.000000	 62.459421 
680.000000	 62.471151 
679.000000	 62.481307 
678.000000	 62.487721 
677.000000	 62.488555 
676.000000	 62.482810 
675.000000	 62.470793 
674.000000	 62.453889 
673.000000	 62.434840 
672.000000	 62.416315 
671.000000	 62.400412 
670.000000	 62.387466 
669.000000	 62.376379 
668.000000	 62.364435 
667.000000	 62.348151 
666.000000	 62.324571 
665.000000	 62.292337 
664.000000	 62.252736 
663.000000	 62.209510 
662.000000	 62.168169 
661.000000	 62.134385 
660.000000	 62.112951 
659.000000	 62.106299 
658.000000	 62.113666 
657.000000	 62.131547 
656.000000	 62.154388 
655.000000	 62.176179 
654.000000	 62.191843 
653.000000	 62.198424 
652.000000	 62.195348 
651.000000	 62.184572 
650.000000	 62.169218 
649.000000	 62.153697 
648.000000	 62.141847 
647.000000	 62.137079 
646.000000	 62.141776 
645.000000	 62.157249 
644.000000	 62.183785 
643.000000	 62.220525 
642.000000	 62.265968 
641.000000	 62.317109 
640.000000	 62.369847 
639.000000	 62.418627 
638.000000	 62.457275 
637.000000	 62.479352 
636.000000	 62.479209 
635.000000	 62.453222 
634.000000	 62.400889 
633.000000	 62.325143 
632.000000	 62.232470 
631.000000	 62.132000 
630.000000	 62.034177 
629.000000	 61.948919 
628.000000	 61.883997 
627.000000	 61.843848 
626.000000	 61.829280 
625.000000	 61.837792 
624.000000	 61.864948 
623.000000	 61.904573 
622.000000	 61.951327 
621.000000	 62.000679 
620.000000	 62.050461 
619.000000	 62.098908 
618.000000	 62.145614 
617.000000	 62.190246 
616.000000	 62.232112 
615.000000	 62.269663 
614.000000	 62.300539 
613.000000	 62.322187 
612.000000	 62.332034 
611.000000	 62.328696 
610.000000	 62.312173 
609.000000	 62.284255 
608.000000	 62.247991 
607.000000	 62.207198 
606.000000	 62.166118 
605.000000	 62.128448 
604.000000	 62.096834 
603.000000	 62.072229 
602.000000	 62.054157 
601.000000	 62.040781 
600.000000	 62.029695 
599.000000	 62.018132 
598.000000	 62.003803 
597.000000	 61.984825 
596.000000	 61.960554 
595.000000	 61.931133 
594.000000	 61.896514 
593.000000	 61.857175 
592.000000	 61.813282 
591.000000	 61.765670 
590.000000	 61.716151 
589.000000	 61.667585 
588.000000	 61.623764 
587.000000	 61.588215 
586.000000	 61.563539 
585.000000	 61.550283 
584.000000	 61.546397 
583.000000	 61.547589 
582.000000	 61.548447 
581.000000	 61.543035 
580.000000	 61.526322 
579.000000	 61.494612 
578.000000	 61.446690 
577.000000	 61.383628 
576.000000	 61.309146 
575.000000	 61.229419 
574.000000	 61.152338 
573.000000	 61.086869 
572.000000	 61.041140 
571.000000	 61.020660 
570.000000	 61.027073 
569.000000	 61.057567 
568.000000	 61.105680 
567.000000	 61.162233 
566.000000	 61.217784 
565.000000	 61.263918 
564.000000	 61.295700 
563.000000	 61.312103 
562.000000	 61.315774 
561.000000	 61.311435 
560.000000	 61.304187 
559.000000	 61.297702 
558.000000	 61.292934 
557.000000	 61.288237 
556.000000	 61.279749 
555.000000	 61.263179 
554.000000	 61.235475 
553.000000	 61.196136 
552.000000	 61.147594 
551.000000	 61.095094 
550.000000	 61.045050 
549.000000	 61.003899 
548.000000	 60.976433 
547.000000	 60.965204 
546.000000	 60.970449 
545.000000	 60.990023 
544.000000	 61.020302 
543.000000	 61.056160 
542.000000	 61.092448 
541.000000	 61.123442 
540.000000	 61.143541 
539.000000	 61.147308 
538.000000	 61.129760 
537.000000	 61.087584 
536.000000	 61.020398 
535.000000	 60.931110 
534.000000	 60.826277 
533.000000	 60.715222 
532.000000	 60.609388 
531.000000	 60.519075 
530.000000	 60.451984 
529.000000	 60.410642 
528.000000	 60.392141 
527.000000	 60.388755 
526.000000	 60.390305 
525.000000	 60.387420 
524.000000	 60.374474 
523.000000	 60.351085 
522.000000	 60.322308 
521.000000	 60.296869 
520.000000	 60.284304 
519.000000	 60.291337 
518.000000	 60.319447 
517.000000	 60.364317 
516.000000	 60.416078 
515.000000	 60.462689 
514.000000	 60.491704 
513.000000	 60.493731 
512.000000	 60.463976 
511.000000	 60.403084 
510.000000	 60.317492 
509.000000	 60.217738 
508.000000	 60.116338 
507.000000	 60.025358 
506.000000	 59.953761 
505.000000	 59.905886 
504.000000	 59.881210 
503.000000	 59.875369 
502.000000	 59.881997 
501.000000	 59.894752 
500.000000	 59.908509 
499.000000	 59.919929 
498.000000	 59.925222 
497.000000	 59.920120 
496.000000	 59.899497 
495.000000	 59.858608 
494.000000	 59.795284 
493.000000	 59.711337 
492.000000	 59.614539 
491.000000	 59.516406 
490.000000	 59.429979 
489.000000	 59.366464 
488.000000	 59.331607 
487.000000	 59.325265 
486.000000	 59.341382 
485.000000	 59.370231 
484.000000	 59.401702 
483.000000	 59.427094 
482.000000	 59.441542 
481.000000	 59.443497 
480.000000	 59.433484 
479.000000	 59.413957 
478.000000	 59.387755 
477.000000	 59.357142 
476.000000	 59.322953 
475.000000	 59.285378 
474.000000	 59.244561 
473.000000	 59.202241 
472.000000	 59.162425 
471.000000	 59.131741 
470.000000	 59.118366 
469.000000	 59.129667 
468.000000	 59.169840 
467.000000	 59.237551 
466.000000	 59.325456 
465.000000	 59.420800 
464.000000	 59.508633 
463.000000	 59.575271 
462.000000	 59.612011 
461.000000	 59.617972 
460.000000	 59.598541 
459.000000	 59.565305 
458.000000	 59.529066 
457.000000	 59.498405 
456.000000	 59.473347 
455.000000	 59.446477 
454.000000	 59.403109 
453.000000	 59.326624 
452.000000	 59.203720 
451.000000	 59.030342 
450.000000	 58.814334 
449.000000	 58.575487 
448.000000	 58.340644 
447.000000	 58.137488 
446.000000	 57.988047 
445.000000	 57.903718 
444.000000	 57.882165 
443.000000	 57.908916 
442.000000	 57.962822 
441.000000	 58.022069 
440.000000	 58.069658 
439.000000	 58.097171 
438.000000	 58.104062 
437.000000	 58.096241 
436.000000	 58.082842 
435.000000	 58.071184 
434.000000	 58.063030 
433.000000	 58.053064 
432.000000	 58.030629 
431.000000	 57.982826 
430.000000	 57.900619 
429.000000	 57.781291 
428.000000	 57.631325 
427.000000	 57.465481 
426.000000	 57.302212 
425.000000	 57.162404 
424.000000	 57.064223 
423.000000	 57.020378 
422.000000	 57.033467 
421.000000	 57.102704 
420.000000	 57.224678 
419.000000	 57.395052 
418.000000	 57.608246 
417.000000	 57.858300 
416.000000	 58.135604 
415.000000	 58.424544 
414.000000	 58.701753 
413.000000	 58.931946 
412.000000	 59.075736 
411.000000	 59.102773 
410.000000	 58.999872 
409.000000	 58.769631 
408.000000	 58.438920 
407.000000	 58.063650 
406.000000	 57.711696 
405.000000	 57.451319 
404.000000	 57.328915 
403.000000	 57.363152 
402.000000	 57.530570 
401.000000	 57.774901 
400.000000	 58.013200 
399.000000	 58.160138 
398.000000	 58.141922 
397.000000	 57.917308 
396.000000	 57.479071 
395.000000	 56.851816 
394.000000	 56.092357 
393.000000	 55.278468 
392.000000	 54.484748 
391.000000	 53.771543 
390.000000	 53.175663 
389.000000	 52.720212 
388.000000	 52.418184 
387.000000	 52.296662 
386.000000	 52.411365 
385.000000	 52.843499 
384.000000	 53.694820 
383.000000	 55.040597 
382.000000	 56.873774 
381.000000	 59.091448 
380.000000	 61.483550 
379.000000	 63.779640 
378.000000	 65.711188 
377.000000	 67.062664 
376.000000	 67.727732 
375.000000	 67.714881 
374.000000	 67.156696 
373.000000	 66.240930 
372.000000	 65.192151 
371.000000	 64.157652 
370.000000	 63.179111 

