PE IR       SPECTRUM    SPECTRUM    ASCII       PEDS        1.60        
  -1
C-1AE0~1.ASC
17/05/02
12:27:19.00
17/05/02
12:27:19.00
tln
$C-4040-8_t0019$<tbV0>[12.5,2.0,8.0,0.0,22,1,0]
370.000000
64









2002,4.07    
MIRTGS : RIGHTBACK : INTERNAL 2
MIR : ON : INTERNAL 2
OPTKBR

0.200000
8
8.000000
FILLER
RATIO
SPECTRUM
UNLOCKED 256

DOUBLE
64
COMBINED
1
0
0


1.000000
RATIO


1
0
TRUE
51149
0
LEFT NOT FITTED RIGHT NOT FITTED 0
NONE
NONE
15600
12.000000
4.427000
51148
TRUE
1 0 8 72 0 0 0 0 

15798.010000






#HDR
-1
-1
#GR
CM-1
%T
0.00002384185791015625
0.0
7800.000000
-1.000000
7431
8
75.198554
43.054318
#DATA
7800.000000	69.079494 
7799.000000	67.824745 
7798.000000	66.988086 
7797.000000	66.589474 
7796.000000	66.598796 
7795.000000	66.959261 
7794.000000	67.586183 
7793.000000	68.379759 
7792.000000	69.246459 
7791.000000	70.108008 
7790.000000	70.894527 
7789.000000	71.548986 
7788.000000	72.042798 
7787.000000	72.362446 
7786.000000	72.522211 
7785.000000	72.530603 
7784.000000	72.379231 
7783.000000	72.030568 
7782.000000	71.433067 
7781.000000	70.536756 
7780.000000	69.318604 
7779.000000	67.810463 
7778.000000	66.110014 
7777.000000	64.380121 
7776.000000	62.822294 
7775.000000	61.642098 
7774.000000	60.995554 
7773.000000	60.966563 
7772.000000	61.540174 
7771.000000	62.613320 
7770.000000	64.019966 
7769.000000	65.545201 
7768.000000	66.960644 
7767.000000	68.070387 
7766.000000	68.742179 
7765.000000	68.921422 
7764.000000	68.633794 
7763.000000	67.977976 
7762.000000	67.099285 
7761.000000	66.167140 
7760.000000	65.334391 
7759.000000	64.723825 
7758.000000	64.392256 
7757.000000	64.341378 
7756.000000	64.503002 
7755.000000	64.768433 
7754.000000	65.003299 
7753.000000	65.073418 
7752.000000	64.884090 
7751.000000	64.386200 
7750.000000	63.612055 
7749.000000	62.646198 
7748.000000	61.645054 
7747.000000	60.782098 
7746.000000	60.249233 
7745.000000	60.211849 
7744.000000	60.781788 
7743.000000	61.992144 
7742.000000	63.775706 
7741.000000	65.971779 
7740.000000	68.345260 
7739.000000	70.626807 
7738.000000	72.575068 
7737.000000	74.018287 
7736.000000	74.884152 
7735.000000	75.198554 
7734.000000	75.058245 
7733.000000	74.597215 
7732.000000	73.948669 
7731.000000	73.220872 
7730.000000	72.497367 
7729.000000	71.827793 
7728.000000	71.273612 
7727.000000	70.875787 
7726.000000	70.674705 
7725.000000	70.676660 
7724.000000	70.857715 
7723.000000	71.147680 
7722.000000	71.441149 
7721.000000	71.610927 
7720.000000	71.531271 
7719.000000	71.111369 
7718.000000	70.317625 
7717.000000	69.187474 
7716.000000	67.822551 
7715.000000	66.373252 
7714.000000	65.006136 
7713.000000	63.874602 
7712.000000	63.088679 
7711.000000	62.703275 
7710.000000	62.714600 
7709.000000	63.069510 
7708.000000	63.683700 
7707.000000	64.461970 
7706.000000	65.318250 
7705.000000	66.173982 
7704.000000	66.973137 
7703.000000	67.676162 
7702.000000	68.261599 
7701.000000	68.719506 
7700.000000	69.043254 
7699.000000	69.229936 
7698.000000	69.270277 
7697.000000	69.163608 
7696.000000	68.904662 
7695.000000	68.499255 
7694.000000	67.956829 
7693.000000	67.302370 
7692.000000	66.570520 
7691.000000	65.805602 
7690.000000	65.062403 
7689.000000	64.399099 
7688.000000	63.879537 
7687.000000	63.563108 
7686.000000	63.502764 
7685.000000	63.734555 
7684.000000	64.272117 
7683.000000	65.101265 
7682.000000	66.181421 
7681.000000	67.448186 
7680.000000	68.821978 
7679.000000	70.213270 
7678.000000	71.535229 
7677.000000	72.703862 
7676.000000	73.647499 
7675.000000	74.303936 
7674.000000	74.631738 
7673.000000	74.606943 
7672.000000	74.236679 
7671.000000	73.552846 
7670.000000	72.625851 
7669.000000	71.545362 
7668.000000	70.421123 
7667.000000	69.359326 
7666.000000	68.458819 
7665.000000	67.787098 
7664.000000	67.375421 
7663.000000	67.216849 
7662.000000	67.272901 
7661.000000	67.485284 
7660.000000	67.788028 
7659.000000	68.119025 
7658.000000	68.427348 
7657.000000	68.669676 
7656.000000	68.812346 
7655.000000	68.826746 
7654.000000	68.696045 
7653.000000	68.424916 
7652.000000	68.044996 
7651.000000	67.611885 
7650.000000	67.200040 
7649.000000	66.896629 
7648.000000	66.780853 
7647.000000	66.896224 
7646.000000	67.249464 
7645.000000	67.811298 
7644.000000	68.523144 
7643.000000	69.307279 
7642.000000	70.085859 
7641.000000	70.793724 
7640.000000	71.389222 
7639.000000	71.858787 
7638.000000	72.207760 
7637.000000	72.446179 
7636.000000	72.589635 
7635.000000	72.655344 
7634.000000	72.655892 
7633.000000	72.600293 
7632.000000	72.499179 
7631.000000	72.368073 
7630.000000	72.225213 
7629.000000	72.088003 
7628.000000	71.962952 
7627.000000	71.839833 
7626.000000	71.692156 
7625.000000	71.479678 
7624.000000	71.156907 
7623.000000	70.685839 
7622.000000	70.050096 
7621.000000	69.263648 
7620.000000	68.369317 
7619.000000	67.439293 
7618.000000	66.551518 
7617.000000	65.792965 
7616.000000	65.230393 
7615.000000	64.922928 
7614.000000	64.907526 
7613.000000	65.205168 
7612.000000	65.811419 
7611.000000	66.698837 
7610.000000	67.818713 
7609.000000	69.086933 
7608.000000	70.386910 
7607.000000	71.576309 
7606.000000	72.505903 
7605.000000	73.041820 
7604.000000	73.091125 
7603.000000	72.629380 
7602.000000	71.707940 
7601.000000	70.452904 
7600.000000	69.038343 
7599.000000	67.646908 
7598.000000	66.434860 
7597.000000	65.503025 
7596.000000	64.889478 
7595.000000	64.579081 
7594.000000	64.521098 
7593.000000	64.659905 
7592.000000	64.945435 
7591.000000	65.338587 
7590.000000	65.810394 
7589.000000	66.325354 
7588.000000	66.840624 
7587.000000	67.290377 
7586.000000	67.603158 
7585.000000	67.710828 
7584.000000	67.567253 
7583.000000	67.163324 
7582.000000	66.531682 
7581.000000	65.746974 
7580.000000	64.907121 
7579.000000	64.116096 
7578.000000	63.458538 
7577.000000	62.984204 
7576.000000	62.707424 
7575.000000	62.609767 
7574.000000	62.650871 
7573.000000	62.781143 
7572.000000	62.949895 
7571.000000	63.116908 
7570.000000	63.251018 
7569.000000	63.339400 
7568.000000	63.372159 
7567.000000	63.354849 
7566.000000	63.307309 
7565.000000	63.260841 
7564.000000	63.248968 
7563.000000	63.300442 
7562.000000	63.438057 
7561.000000	63.663840 
7560.000000	63.960647 
7559.000000	64.288306 
7558.000000	64.591026 
7557.000000	64.811110 
7556.000000	64.903402 
7555.000000	64.847564 
7554.000000	64.654111 
7553.000000	64.362311 
7552.000000	64.030814 
7551.000000	63.723468 
7550.000000	63.495159 
7549.000000	63.379645 
7548.000000	63.386034 
7547.000000	63.504171 
7546.000000	63.714480 
7545.000000	63.995194 
7544.000000	64.333963 
7543.000000	64.729738 
7542.000000	65.193247 
7541.000000	65.739941 
7540.000000	66.378188 
7539.000000	67.096900 
7538.000000	67.859315 
7537.000000	68.608546 
7536.000000	69.270920 
7535.000000	69.773912 
7534.000000	70.057868 
7533.000000	70.095443 
7532.000000	69.894719 
7531.000000	69.503927 
7530.000000	68.996620 
7529.000000	68.459105 
7528.000000	67.970585 
7527.000000	67.592072 
7526.000000	67.352938 
7525.000000	67.252111 
7524.000000	67.262911 
7523.000000	67.345929 
7522.000000	67.460823 
7521.000000	67.577338 
7520.000000	67.679691 
7519.000000	67.765665 
7518.000000	67.839622 
7517.000000	67.904567 
7516.000000	67.954730 
7515.000000	67.971801 
7514.000000	67.929816 
7513.000000	67.798948 
7512.000000	67.555618 
7511.000000	67.190217 
7510.000000	66.714668 
7509.000000	66.163730 
7508.000000	65.583992 
7507.000000	65.035486 
7506.000000	64.580321 
7505.000000	64.274263 
7504.000000	64.151334 
7503.000000	64.225244 
7502.000000	64.486241 
7501.000000	64.903688 
7500.000000	65.430140 
7499.000000	66.009116 
7498.000000	66.581702 
7497.000000	67.095518 
7496.000000	67.509698 
7495.000000	67.799210 
7494.000000	67.955112 
7493.000000	67.984366 
7492.000000	67.905807 
7491.000000	67.747044 
7490.000000	67.538380 
7489.000000	67.312836 
7488.000000	67.097735 
7487.000000	66.918182 
7486.000000	66.786050 
7485.000000	66.708183 
7484.000000	66.674184 
7483.000000	66.660428 
7482.000000	66.631269 
7481.000000	66.544532 
7480.000000	66.366696 
7479.000000	66.077709 
7478.000000	65.686893 
7477.000000	65.232253 
7476.000000	64.776277 
7475.000000	64.390468 
7474.000000	64.139699 
7473.000000	64.066791 
7472.000000	64.175271 
7471.000000	64.427995 
7470.000000	64.750385 
7469.000000	65.048098 
7468.000000	65.232610 
7467.000000	65.244889 
7466.000000	65.066146 
7465.000000	64.724469 
7464.000000	64.289808 
7463.000000	63.856124 
7462.000000	63.515663 
7461.000000	63.336277 
7460.000000	63.347887 
7459.000000	63.534331 
7458.000000	63.844037 
7457.000000	64.201450 
7456.000000	64.525127 
7455.000000	64.751696 
7454.000000	64.846181 
7453.000000	64.815855 
7452.000000	64.699268 
7451.000000	64.562439 
7450.000000	64.478445 
7449.000000	64.506506 
7448.000000	64.675784 
7447.000000	64.974617 
7446.000000	65.357327 
7445.000000	65.746998 
7444.000000	66.057491 
7443.000000	66.209363 
7442.000000	66.151070 
7441.000000	65.863513 
7440.000000	65.365266 
7439.000000	64.707899 
7438.000000	63.966393 
7437.000000	63.225388 
7436.000000	62.564468 
7435.000000	62.046527 
7434.000000	61.708736 
7433.000000	61.560845 
7432.000000	61.588096 
7431.000000	61.754274 
7430.000000	62.017083 
7429.000000	62.330460 
7428.000000	62.663102 
7427.000000	62.992477 
7426.000000	63.316249 
7425.000000	63.643264 
7424.000000	63.987851 
7423.000000	64.358806 
7422.000000	64.750123 
7421.000000	65.137648 
7420.000000	65.481376 
7419.000000	65.734672 
7418.000000	65.859436 
7417.000000	65.839123 
7416.000000	65.689206 
7415.000000	65.457129 
7414.000000	65.212535 
7413.000000	65.029644 
7412.000000	64.967298 
7411.000000	65.051770 
7410.000000	65.269827 
7409.000000	65.570163 
7408.000000	65.878772 
7407.000000	66.117000 
7406.000000	66.221332 
7405.000000	66.160392 
7404.000000	65.942382 
7403.000000	65.612697 
7402.000000	65.236401 
7401.000000	64.885878 
7400.000000	64.619827 
7399.000000	64.474248 
7398.000000	64.457297 
7397.000000	64.550709 
7396.000000	64.722609 
7395.000000	64.932155 
7394.000000	65.142083 
7393.000000	65.323615 
7392.000000	65.459990 
7391.000000	65.545678 
7390.000000	65.581941 
7389.000000	65.574669 
7388.000000	65.529608 
7387.000000	65.453934 
7386.000000	65.354514 
7385.000000	65.238094 
7384.000000	65.110468 
7383.000000	64.976859 
7382.000000	64.841341 
7381.000000	64.706587 
7380.000000	64.574575 
7379.000000	64.446163 
7378.000000	64.324021 
7377.000000	64.209699 
7376.000000	64.109778 
7375.000000	64.032268 
7374.000000	63.992428 
7373.000000	64.002084 
7372.000000	64.079403 
7371.000000	64.238357 
7370.000000	64.495635 
7369.000000	64.862155 
7368.000000	65.343999 
7367.000000	65.938210 
7366.000000	66.626262 
7365.000000	67.373967 
7364.000000	68.127202 
7363.000000	68.819022 
7362.000000	69.376301 
7361.000000	69.733619 
7360.000000	69.848847 
7359.000000	69.713497 
7358.000000	69.361615 
7357.000000	68.862056 
7356.000000	68.303799 
7355.000000	67.773795 
7354.000000	67.342448 
7353.000000	67.046070 
7352.000000	66.883802 
7351.000000	66.822218 
7350.000000	66.810989 
7349.000000	66.800451 
7348.000000	66.758513 
7347.000000	66.678833 
7346.000000	66.578197 
7345.000000	66.488862 
7344.000000	66.443824 
7343.000000	66.461849 
7342.000000	66.532731 
7341.000000	66.623449 
7340.000000	66.687035 
7339.000000	66.675829 
7338.000000	66.555738 
7337.000000	66.321921 
7336.000000	66.003370 
7335.000000	65.656566 
7334.000000	65.351462 
7333.000000	65.159153 
7332.000000	65.133643 
7331.000000	65.300703 
7330.000000	65.650486 
7329.000000	66.140747 
7328.000000	66.704273 
7327.000000	67.264342 
7326.000000	67.748308 
7325.000000	68.101072 
7324.000000	68.291759 
7323.000000	68.318319 
7322.000000	68.198537 
7321.000000	67.963862 
7320.000000	67.644238 
7319.000000	67.268419 
7318.000000	66.849160 
7317.000000	66.393494 
7316.000000	65.895557 
7315.000000	65.350866 
7314.000000	64.757061 
7313.000000	64.122867 
7312.000000	63.470840 
7311.000000	62.834072 
7310.000000	62.259817 
7309.000000	61.799359 
7308.000000	61.504006 
7307.000000	61.412262 
7306.000000	61.545038 
7305.000000	61.897540 
7304.000000	62.439298 
7303.000000	63.115668 
7302.000000	63.849878 
7301.000000	64.555215 
7300.000000	65.150594 
7299.000000	65.572690 
7298.000000	65.783548 
7297.000000	65.775084 
7296.000000	65.570259 
7295.000000	65.212106 
7294.000000	64.759588 
7293.000000	64.267349 
7292.000000	63.783025 
7291.000000	63.332867 
7290.000000	62.928318 
7289.000000	62.563085 
7288.000000	62.226986 
7287.000000	61.908268 
7286.000000	61.600470 
7285.000000	61.307549 
7284.000000	61.042833 
7283.000000	60.825800 
7282.000000	60.672569 
7281.000000	60.601091 
7280.000000	60.625743 
7279.000000	60.762143 
7278.000000	61.024570 
7277.000000	61.429834 
7276.000000	61.990857 
7275.000000	62.711310 
7274.000000	63.576197 
7273.000000	64.545464 
7272.000000	65.552163 
7271.000000	66.513967 
7270.000000	67.339777 
7269.000000	67.947483 
7268.000000	68.275427 
7267.000000	68.300795 
7266.000000	68.037724 
7265.000000	67.540955 
7264.000000	66.889047 
7263.000000	66.171669 
7262.000000	65.474987 
7261.000000	64.872860 
7260.000000	64.418292 
7259.000000	64.142394 
7258.000000	64.057731 
7257.000000	64.164781 
7256.000000	64.451694 
7255.000000	64.896392 
7254.000000	65.466094 
7253.000000	66.116595 
7252.000000	66.796231 
7251.000000	67.447376 
7250.000000	68.013525 
7249.000000	68.443131 
7248.000000	68.695282 
7247.000000	68.743729 
7246.000000	68.581891 
7245.000000	68.223524 
7244.000000	67.704796 
7243.000000	67.079210 
7242.000000	66.412043 
7241.000000	65.771722 
7240.000000	65.227723 
7239.000000	64.834904 
7238.000000	64.626145 
7237.000000	64.607930 
7236.000000	64.762711 
7235.000000	65.051054 
7234.000000	65.416073 
7233.000000	65.799283 
7232.000000	66.147994 
7231.000000	66.426157 
7230.000000	66.615438 
7229.000000	66.715621 
7228.000000	66.737771 
7227.000000	66.700458 
7226.000000	66.622686 
7225.000000	66.524744 
7224.000000	66.426157 
7223.000000	66.348409 
7222.000000	66.312909 
7221.000000	66.342473 
7220.000000	66.453886 
7219.000000	66.654300 
7218.000000	66.933107 
7217.000000	67.261052 
7216.000000	67.590928 
7215.000000	67.864799 
7214.000000	68.026089 
7213.000000	68.033790 
7212.000000	67.870593 
7211.000000	67.552709 
7210.000000	67.119598 
7209.000000	66.625881 
7208.000000	66.126132 
7207.000000	65.666842 
7206.000000	65.272665 
7205.000000	64.945745 
7204.000000	64.669871 
7203.000000	64.421892 
7202.000000	64.180302 
7201.000000	63.935422 
7200.000000	63.691568 
7199.000000	63.465547 
7198.000000	63.286900 
7197.000000	63.189697 
7196.000000	63.200974 
7195.000000	63.333058 
7194.000000	63.583350 
7193.000000	63.931274 
7192.000000	64.341402 
7191.000000	64.767026 
7190.000000	65.157699 
7189.000000	65.466833 
7188.000000	65.656781 
7187.000000	65.708017 
7186.000000	65.619015 
7185.000000	65.411305 
7184.000000	65.123224 
7183.000000	64.808058 
7182.000000	64.526247 
7181.000000	64.333558 
7180.000000	64.272761 
7179.000000	64.364123 
7178.000000	64.605355 
7177.000000	64.967298 
7176.000000	65.403318 
7175.000000	65.850114 
7174.000000	66.239833 
7173.000000	66.509461 
7172.000000	66.612267 
7171.000000	66.519451 
7170.000000	66.224551 
7169.000000	65.745234 
7168.000000	65.121388 
7167.000000	64.408349 
7166.000000	63.671088 
7165.000000	62.978219 
7164.000000	62.392783 
7163.000000	61.968159 
7162.000000	61.736941 
7161.000000	61.709380 
7160.000000	61.866259 
7159.000000	62.162876 
7158.000000	62.532091 
7157.000000	62.893271 
7156.000000	63.166856 
7155.000000	63.284277 
7154.000000	63.204765 
7153.000000	62.918782 
7152.000000	62.453603 
7151.000000	61.862635 
7150.000000	61.221432 
7149.000000	60.610747 
7148.000000	60.107898 
7147.000000	59.773516 
7146.000000	59.645175 
7145.000000	59.732985 
7144.000000	60.020351 
7143.000000	60.468316 
7142.000000	61.018729 
7141.000000	61.604475 
7140.000000	62.156796 
7139.000000	62.617111 
7138.000000	62.942409 
7137.000000	63.113975 
7136.000000	63.131880 
7135.000000	63.019847 
7134.000000	62.822055 
7133.000000	62.595462 
7132.000000	62.399744 
7131.000000	62.286233 
7130.000000	62.296557 
7129.000000	62.447023 
7128.000000	62.730145 
7127.000000	63.111734 
7126.000000	63.540530 
7125.000000	63.957023 
7124.000000	64.308023 
7123.000000	64.553284 
7122.000000	64.671969 
7121.000000	64.663696 
7120.000000	64.545440 
7119.000000	64.344596 
7118.000000	64.092135 
7117.000000	63.816928 
7116.000000	63.543367 
7115.000000	63.292670 
7114.000000	63.084697 
7113.000000	62.941050 
7112.000000	62.884688 
7111.000000	62.935209 
7110.000000	63.105440 
7109.000000	63.396620 
7108.000000	63.795828 
7107.000000	64.269876 
7106.000000	64.773988 
7105.000000	65.259456 
7104.000000	65.681505 
7103.000000	66.009235 
7102.000000	66.225147 
7101.000000	66.328644 
7100.000000	66.327428 
7099.000000	66.237521 
7098.000000	66.071391 
7097.000000	65.838027 
7096.000000	65.540623 
7095.000000	65.184116 
7094.000000	64.774918 
7093.000000	64.327621 
7092.000000	63.864469 
7091.000000	63.415670 
7090.000000	63.012099 
7089.000000	62.680459 
7088.000000	62.436270 
7087.000000	62.282013 
7086.000000	62.206363 
7085.000000	62.189579 
7084.000000	62.206268 
7083.000000	62.234711 
7082.000000	62.261819 
7081.000000	62.286257 
7080.000000	62.310385 
7079.000000	62.342190 
7078.000000	62.388134 
7077.000000	62.452983 
7076.000000	62.532806 
7075.000000	62.621784 
7074.000000	62.712693 
7073.000000	62.802910 
7072.000000	62.895059 
7071.000000	62.998962 
7070.000000	63.128089 
7069.000000	63.296985 
7068.000000	63.514113 
7067.000000	63.782787 
7066.000000	64.098477 
7065.000000	64.449453 
7064.000000	64.817476 
7063.000000	65.181779 
7062.000000	65.519571 
7061.000000	65.808343 
7060.000000	66.023993 
7059.000000	66.138839 
7058.000000	66.122174 
7057.000000	65.947747 
7056.000000	65.598297 
7055.000000	65.071034 
7054.000000	64.385557 
7053.000000	63.587284 
7052.000000	62.745833 
7051.000000	61.944293 
7050.000000	61.270260 
7049.000000	60.797214 
7048.000000	60.576128 
7047.000000	60.627484 
7046.000000	60.933804 
7045.000000	61.444425 
7044.000000	62.076640 
7043.000000	62.730145 
7042.000000	63.297820 
7041.000000	63.681721 
7040.000000	63.809108 
7039.000000	63.642740 
7038.000000	63.188481 
7037.000000	62.492871 
7036.000000	61.636018 
7035.000000	60.717606 
7034.000000	59.842514 
7033.000000	59.104466 
7032.000000	58.575367 
7031.000000	58.295965 
7030.000000	58.274936 
7029.000000	58.489608 
7028.000000	58.890986 
7027.000000	59.413909 
7026.000000	59.983372 
7025.000000	60.529565 
7024.000000	60.989451 
7023.000000	61.321234 
7022.000000	61.500477 
7021.000000	61.528134 
7020.000000	61.422777 
7019.000000	61.220455 
7018.000000	60.968995 
7017.000000	60.717105 
7016.000000	60.508036 
7015.000000	60.371923 
7014.000000	60.325002 
7013.000000	60.367536 
7012.000000	60.488772 
7011.000000	60.667967 
7010.000000	60.880732 
7009.000000	61.103749 
7008.000000	61.319828 
7007.000000	61.519432 
7006.000000	61.702084 
7005.000000	61.874246 
7004.000000	62.045860 
7003.000000	62.231302 
7002.000000	62.439632 
7001.000000	62.670207 
7000.000000	62.906908 
6999.000000	63.126206 
6998.000000	63.294506 
6997.000000	63.376402 
6996.000000	63.342070 
6995.000000	63.177704 
6994.000000	62.888956 
6993.000000	62.505245 
6992.000000	62.071514 
6991.000000	61.641597 
6990.000000	61.264324 
6989.000000	60.975193 
6988.000000	60.787558 
6987.000000	60.692048 
6986.000000	60.663485 
6985.000000	60.670328 
6984.000000	60.685992 
6983.000000	60.696482 
6982.000000	60.702824 
6981.000000	60.718703 
6980.000000	60.761952 
6979.000000	60.847544 
6978.000000	60.978698 
6977.000000	61.147332 
6976.000000	61.333370 
6975.000000	61.515045 
6974.000000	61.677861 
6973.000000	61.821246 
6972.000000	61.960339 
6971.000000	62.120604 
6970.000000	62.329912 
6969.000000	62.606191 
6968.000000	62.949562 
6967.000000	63.337874 
6966.000000	63.732981 
6965.000000	64.084434 
6964.000000	64.345812 
6963.000000	64.479851 
6962.000000	64.470052 
6961.000000	64.321351 
6960.000000	64.059925 
6959.000000	63.727235 
6958.000000	63.370823 
6957.000000	63.040709 
6956.000000	62.781596 
6955.000000	62.627601 
6954.000000	62.598085 
6953.000000	62.697029 
6952.000000	62.912750 
6951.000000	63.218355 
6950.000000	63.576579 
6949.000000	63.941645 
6948.000000	64.269471 
6947.000000	64.523863 
6946.000000	64.684295 
6945.000000	64.748263 
6944.000000	64.729070 
6943.000000	64.654016 
6942.000000	64.551115 
6941.000000	64.444351 
6940.000000	64.343023 
6939.000000	64.244341 
6938.000000	64.132547 
6937.000000	63.987731 
6936.000000	63.794827 
6935.000000	63.552069 
6934.000000	63.276219 
6933.000000	63.000202 
6932.000000	62.768936 
6931.000000	62.628054 
6930.000000	62.612009 
6929.000000	62.733650 
6928.000000	62.980413 
6927.000000	63.315773 
6926.000000	63.687658 
6925.000000	64.040064 
6924.000000	64.324951 
6923.000000	64.512324 
6922.000000	64.595246 
6921.000000	64.588189 
6920.000000	64.520025 
6919.000000	64.424109 
6918.000000	64.328217 
6917.000000	64.247679 
6916.000000	64.186215 
6915.000000	64.135289 
6914.000000	64.083075 
6913.000000	64.018082 
6912.000000	63.936018 
6911.000000	63.842821 
6910.000000	63.753795 
6909.000000	63.690543 
6908.000000	63.673377 
6907.000000	63.716530 
6906.000000	63.823032 
6905.000000	63.980937 
6904.000000	64.164876 
6903.000000	64.340806 
6902.000000	64.474058 
6901.000000	64.538764 
6900.000000	64.524626 
6899.000000	64.439916 
6898.000000	64.309000 
6897.000000	64.167571 
6896.000000	64.052629 
6895.000000	63.991737 
6894.000000	63.996171 
6893.000000	64.060974 
6892.000000	64.166021 
6891.000000	64.281725 
6890.000000	64.378952 
6889.000000	64.436697 
6888.000000	64.449405 
6887.000000	64.426064 
6886.000000	64.389753 
6885.000000	64.368057 
6884.000000	64.387035 
6883.000000	64.463067 
6882.000000	64.597868 
6881.000000	64.778399 
6880.000000	64.978766 
6879.000000	65.168452 
6878.000000	65.316557 
6877.000000	65.399813 
6876.000000	65.404868 
6875.000000	65.330433 
6874.000000	65.183329 
6873.000000	64.975810 
6872.000000	64.721608 
6871.000000	64.433884 
6870.000000	64.124870 
6869.000000	63.806223 
6868.000000	63.490867 
6867.000000	63.193893 
6866.000000	62.931728 
6865.000000	62.721729 
6864.000000	62.578845 
6863.000000	62.514066 
6862.000000	62.528014 
6861.000000	62.613821 
6860.000000	62.754750 
6859.000000	62.929892 
6858.000000	63.115763 
6857.000000	63.291525 
6856.000000	63.439774 
6855.000000	63.549923 
6854.000000	63.617038 
6853.000000	63.642668 
6852.000000	63.631701 
6851.000000	63.593959 
6850.000000	63.542222 
6849.000000	63.490009 
6848.000000	63.449668 
6847.000000	63.430500 
6846.000000	63.437747 
6845.000000	63.469481 
6844.000000	63.518524 
6843.000000	63.572955 
6842.000000	63.621973 
6841.000000	63.658642 
6840.000000	63.685059 
6839.000000	63.711881 
6838.000000	63.757205 
6837.000000	63.842415 
6836.000000	63.984394 
6835.000000	64.187932 
6834.000000	64.442992 
6833.000000	64.725112 
6832.000000	65.000343 
6831.000000	65.234613 
6830.000000	65.399765 
6829.000000	65.484237 
6828.000000	65.488553 
6827.000000	65.426254 
6826.000000	65.314054 
6825.000000	65.167784 
6824.000000	64.995265 
6823.000000	64.796280 
6822.000000	64.565467 
6821.000000	64.298748 
6820.000000	63.999581 
6819.000000	63.683176 
6818.000000	63.376569 
6817.000000	63.114094 
6816.000000	62.928533 
6815.000000	62.843227 
6814.000000	62.862133 
6813.000000	62.969827 
6812.000000	63.135170 
6811.000000	63.318943 
6810.000000	63.481068 
6809.000000	63.591265 
6808.000000	63.634014 
6807.000000	63.612008 
6806.000000	63.538455 
6805.000000	63.438081 
6804.000000	63.337039 
6803.000000	63.260912 
6802.000000	63.228917 
6801.000000	63.251924 
6800.000000	63.331770 
6799.000000	63.462233 
6798.000000	63.633155 
6797.000000	63.829469 
6796.000000	64.033937 
6795.000000	64.229369 
6794.000000	64.400482 
6793.000000	64.534282 
6792.000000	64.620375 
6791.000000	64.654517 
6790.000000	64.636588 
6789.000000	64.569020 
6788.000000	64.454007 
6787.000000	64.295101 
6786.000000	64.094686 
6785.000000	63.855957 
6784.000000	63.583087 
6783.000000	63.283014 
6782.000000	62.967371 
6781.000000	62.650942 
6780.000000	62.355518 
6779.000000	62.101626 
6778.000000	61.915373 
6777.000000	61.820530 
6776.000000	61.840319 
6775.000000	61.988449 
6774.000000	62.269234 
6773.000000	62.671399 
6772.000000	63.170027 
6771.000000	63.726520 
6770.000000	64.295077 
6769.000000	64.827847 
6768.000000	65.283894 
6767.000000	65.634226 
6766.000000	65.867996 
6765.000000	65.991115 
6764.000000	66.023230 
6763.000000	65.989208 
6762.000000	65.913915 
6761.000000	65.813159 
6760.000000	65.693068 
6759.000000	65.548038 
6758.000000	65.368580 
6757.000000	65.145063 
6756.000000	64.877033 
6755.000000	64.575600 
6754.000000	64.261817 
6753.000000	63.966441 
6752.000000	63.721251 
6751.000000	63.556480 
6750.000000	63.490819 
6749.000000	63.532137 
6748.000000	63.673758 
6747.000000	63.898515 
6746.000000	64.181661 
6745.000000	64.494419 
6744.000000	64.806985 
6743.000000	65.091919 
6742.000000	65.326380 
6741.000000	65.491747 
6740.000000	65.573883 
6739.000000	65.565466 
6738.000000	65.466141 
6737.000000	65.282440 
6736.000000	65.026831 
6735.000000	64.717602 
6734.000000	64.377140 
6733.000000	64.028835 
6732.000000	63.696312 
6731.000000	63.401699 
6730.000000	63.164973 
6729.000000	63.002848 
6728.000000	62.927126 
6727.000000	62.941861 
6726.000000	63.042187 
6725.000000	63.214206 
6724.000000	63.434338 
6723.000000	63.669323 
6722.000000	63.882637 
6721.000000	64.038515 
6720.000000	64.110565 
6719.000000	64.084410 
6718.000000	63.963985 
6717.000000	63.769459 
6716.000000	63.535308 
6715.000000	63.302993 
6714.000000	63.112568 
6713.000000	62.994194 
6712.000000	62.964177 
6711.000000	63.022518 
6710.000000	63.153004 
6709.000000	63.327765 
6708.000000	63.512635 
6707.000000	63.675355 
6706.000000	63.789534 
6705.000000	63.842153 
6704.000000	63.832759 
6703.000000	63.776087 
6702.000000	63.696432 
6701.000000	63.623881 
6700.000000	63.586688 
6699.000000	63.605618 
6698.000000	63.692402 
6697.000000	63.843774 
6696.000000	64.043760 
6695.000000	64.265084 
6694.000000	64.477348 
6693.000000	64.651036 
6692.000000	64.764165 
6691.000000	64.805221 
6690.000000	64.774489 
6689.000000	64.682817 
6688.000000	64.548301 
6687.000000	64.391541 
6686.000000	64.231348 
6685.000000	64.082908 
6684.000000	63.955926 
6683.000000	63.854813 
6682.000000	63.778924 
6681.000000	63.724040 
6680.000000	63.683414 
6679.000000	63.647627 
6678.000000	63.607549 
6677.000000	63.554525 
6676.000000	63.485479 
6675.000000	63.398647 
6674.000000	63.301205 
6673.000000	63.208246 
6672.000000	63.141965 
6671.000000	63.125467 
6670.000000	63.178062 
6669.000000	63.309001 
6668.000000	63.513898 
6667.000000	63.773417 
6666.000000	64.056897 
6665.000000	64.329028 
6664.000000	64.555692 
6663.000000	64.712405 
6662.000000	64.784765 
6661.000000	64.770245 
6660.000000	64.675331 
6659.000000	64.513111 
6658.000000	64.297294 
6657.000000	64.039611 
6656.000000	63.753008 
6655.000000	63.451170 
6654.000000	63.148021 
6653.000000	62.856674 
6652.000000	62.592244 
6651.000000	62.366604 
6650.000000	62.184143 
6649.000000	62.041711 
6648.000000	61.924958 
6647.000000	61.817026 
6646.000000	61.700868 
6645.000000	61.568546 
6644.000000	61.421203 
6643.000000	61.272788 
6642.000000	61.143684 
6641.000000	61.057949 
6640.000000	61.032509 
6639.000000	61.076402 
6638.000000	61.184382 
6637.000000	61.343669 
6636.000000	61.534619 
6635.000000	61.741805 
6634.000000	61.957216 
6633.000000	62.183856 
6632.000000	62.432670 
6631.000000	62.720870 
6630.000000	63.064050 
6629.000000	63.469648 
6628.000000	63.930487 
6627.000000	64.423823 
6626.000000	64.911723 
6625.000000	65.352487 
6624.000000	65.703988 
6623.000000	65.932464 
6622.000000	66.016483 
6621.000000	65.954017 
6620.000000	65.760588 
6619.000000	65.466690 
6618.000000	65.113735 
6617.000000	64.748430 
6616.000000	64.416432 
6615.000000	64.158535 
6614.000000	64.003491 
6613.000000	63.968682 
6612.000000	64.053058 
6611.000000	64.240431 
6610.000000	64.498066 
6609.000000	64.782261 
6608.000000	65.044975 
6607.000000	65.241837 
6606.000000	65.339374 
6605.000000	65.319943 
6604.000000	65.188598 
6603.000000	64.971423 
6602.000000	64.710807 
6601.000000	64.456176 
6600.000000	64.257669 
6599.000000	64.153194 
6598.000000	64.162921 
6597.000000	64.281368 
6596.000000	64.480495 
6595.000000	64.713358 
6594.000000	64.923429 
6593.000000	65.059089 
6592.000000	65.084362 
6591.000000	64.989423 
6590.000000	64.789414 
6589.000000	64.523315 
6588.000000	64.242792 
6587.000000	63.999962 
6586.000000	63.835692 
6585.000000	63.768529 
6584.000000	63.793516 
6583.000000	63.882517 
6582.000000	63.995695 
6581.000000	64.088463 
6580.000000	64.123797 
6579.000000	64.080262 
6578.000000	63.956189 
6577.000000	63.770437 
6576.000000	63.556718 
6575.000000	63.355660 
6574.000000	63.205003 
6573.000000	63.131284 
6572.000000	63.144803 
6571.000000	63.240313 
6570.000000	63.399314 
6569.000000	63.596606 
6568.000000	63.805341 
6567.000000	64.004349 
6566.000000	64.178395 
6565.000000	64.317822 
6564.000000	64.416837 
6563.000000	64.470148 
6562.000000	64.472913 
6561.000000	64.420819 
6560.000000	64.312076 
6559.000000	64.150810 
6558.000000	63.947963 
6557.000000	63.722085 
6556.000000	63.497781 
6555.000000	63.303327 
6554.000000	63.163828 
6553.000000	63.095927 
6552.000000	63.106679 
6551.000000	63.192534 
6550.000000	63.342976 
6549.000000	63.543033 
6548.000000	63.776922 
6547.000000	64.029693 
6546.000000	64.286589 
6545.000000	64.533543 
6544.000000	64.754819 
6543.000000	64.935159 
6542.000000	65.061616 
6541.000000	65.125966 
6540.000000	65.128374 
6539.000000	65.076446 
6538.000000	64.986681 
6537.000000	64.878964 
6536.000000	64.773464 
6535.000000	64.686441 
6534.000000	64.628100 
6533.000000	64.602279 
6532.000000	64.606857 
6531.000000	64.637708 
6530.000000	64.691138 
6529.000000	64.765834 
6528.000000	64.862871 
6527.000000	64.983463 
6526.000000	65.126228 
6525.000000	65.285682 
6524.000000	65.451192 
6523.000000	65.608859 
6522.000000	65.743446 
6521.000000	65.843534 
6520.000000	65.902638 
6519.000000	65.919971 
6518.000000	65.898323 
6517.000000	65.841341 
6516.000000	65.751600 
6515.000000	65.631031 
6514.000000	65.481042 
6513.000000	65.303754 
6512.000000	65.104889 
6511.000000	64.896249 
6510.000000	64.694857 
6509.000000	64.521265 
6508.000000	64.395284 
6507.000000	64.331936 
6506.000000	64.336967 
6505.000000	64.403390 
6504.000000	64.514088 
6503.000000	64.643526 
6502.000000	64.766097 
6501.000000	64.860153 
6500.000000	64.915871 
6499.000000	64.935660 
6498.000000	64.933919 
6497.000000	64.931106 
6496.000000	64.947986 
6495.000000	64.998221 
6494.000000	65.083265 
6493.000000	65.190815 
6492.000000	65.298247 
6491.000000	65.378260 
6490.000000	65.406775 
6489.000000	65.369820 
6488.000000	65.268301 
6487.000000	65.117883 
6486.000000	64.945960 
6485.000000	64.783811 
6484.000000	64.659333 
6483.000000	64.588999 
6482.000000	64.575719 
6481.000000	64.607453 
6480.000000	64.661002 
6479.000000	64.709615 
6478.000000	64.730858 
6477.000000	64.713382 
6476.000000	64.658689 
6475.000000	64.581656 
6474.000000	64.505052 
6473.000000	64.452290 
6472.000000	64.439535 
6471.000000	64.470839 
6470.000000	64.536356 
6469.000000	64.616727 
6468.000000	64.688920 
6467.000000	64.732456 
6466.000000	64.735174 
6465.000000	64.697122 
6464.000000	64.629721 
6463.000000	64.551281 
6462.000000	64.481306 
6461.000000	64.434337 
6460.000000	64.416337 
6459.000000	64.423251 
6458.000000	64.443445 
6457.000000	64.463162 
6456.000000	64.470863 
6455.000000	64.461731 
6454.000000	64.439153 
6453.000000	64.411306 
6452.000000	64.391684 
6451.000000	64.392828 
6450.000000	64.425420 
6449.000000	64.494633 
6448.000000	64.599347 
6447.000000	64.733815 
6446.000000	64.883828 
6445.000000	65.029740 
6444.000000	65.147280 
6443.000000	65.212559 
6442.000000	65.205717 
6441.000000	65.115928 
6440.000000	64.945101 
6439.000000	64.708852 
6438.000000	64.434027 
6437.000000	64.153599 
6436.000000	63.901591 
6435.000000	63.705396 
6434.000000	63.580393 
6433.000000	63.527894 
6432.000000	63.536000 
6431.000000	63.584828 
6430.000000	63.651537 
6429.000000	63.717842 
6428.000000	63.771653 
6427.000000	63.812112 
6426.000000	63.844299 
6425.000000	63.880944 
6424.000000	63.932466 
6423.000000	64.009809 
6422.000000	64.119863 
6421.000000	64.264988 
6420.000000	64.443135 
6419.000000	64.644980 
6418.000000	64.856004 
6417.000000	65.056490 
6416.000000	65.225434 
6415.000000	65.344381 
6414.000000	65.402054 
6413.000000	65.398001 
6412.000000	65.343713 
6411.000000	65.263152 
6410.000000	65.186858 
6409.000000	65.146493 
6408.000000	65.164780 
6407.000000	65.250635 
6406.000000	65.394353 
6405.000000	65.571570 
6404.000000	65.747094 
6403.000000	65.885329 
6402.000000	65.957260 
6401.000000	65.949726 
6400.000000	65.865397 
6399.000000	65.720415 
6398.000000	65.540146 
6397.000000	65.350484 
6396.000000	65.175056 
6395.000000	65.030574 
6394.000000	64.926743 
6393.000000	64.867758 
6392.000000	64.852547 
6391.000000	64.877581 
6390.000000	64.935469 
6389.000000	65.016031 
6388.000000	65.105390 
6387.000000	65.187382 
6386.000000	65.243601 
6385.000000	65.256929 
6384.000000	65.216207 
6383.000000	65.118908 
6382.000000	64.972949 
6381.000000	64.795136 
6380.000000	64.607477 
6379.000000	64.432597 
6378.000000	64.288544 
6377.000000	64.186310 
6376.000000	64.128327 
6375.000000	64.110708 
6374.000000	64.125466 
6373.000000	64.164328 
6372.000000	64.220881 
6371.000000	64.292407 
6370.000000	64.377140 
6369.000000	64.475345 
6368.000000	64.585518 
6367.000000	64.704561 
6366.000000	64.826059 
6365.000000	64.940977 
6364.000000	65.038394 
6363.000000	65.108299 
6362.000000	65.144252 
6361.000000	65.143895 
6360.000000	65.110087 
6359.000000	65.050506 
6358.000000	64.976501 
6357.000000	64.901518 
6356.000000	64.838504 
6355.000000	64.798378 
6354.000000	64.787626 
6353.000000	64.808177 
6352.000000	64.856028 
6351.000000	64.923048 
6350.000000	64.997720 
6349.000000	65.066146 
6348.000000	65.116000 
6347.000000	65.138816 
6346.000000	65.132427 
6345.000000	65.100860 
6344.000000	65.053725 
6343.000000	65.004014 
6342.000000	64.964199 
6341.000000	64.943456 
6340.000000	64.944696 
6339.000000	64.964079 
6338.000000	64.992642 
6337.000000	65.019392 
6336.000000	65.034747 
6335.000000	65.033626 
6334.000000	65.016436 
6333.000000	64.988493 
6332.000000	64.957261 
6331.000000	64.929795 
6330.000000	64.909076 
6329.000000	64.894127 
6328.000000	64.879775 
6327.000000	64.860725 
6326.000000	64.835715 
6325.000000	64.809107 
6324.000000	64.792704 
6323.000000	64.800596 
6322.000000	64.844942 
6321.000000	64.930033 
6320.000000	65.048885 
6319.000000	65.183830 
6318.000000	65.309667 
6317.000000	65.400433 
6316.000000	65.436196 
6315.000000	65.409040 
6314.000000	65.325546 
6313.000000	65.205645 
6312.000000	65.077376 
6311.000000	64.970946 
6310.000000	64.911246 
6309.000000	64.912629 
6308.000000	64.975881 
6307.000000	65.090203 
6306.000000	65.236401 
6305.000000	65.391349 
6304.000000	65.533018 
6303.000000	65.642857 
6302.000000	65.709280 
6301.000000	65.726613 
6300.000000	65.697026 
6299.000000	65.629339 
6298.000000	65.537905 
6297.000000	65.440797 
6296.000000	65.355563 
6295.000000	65.297484 
6294.000000	65.275049 
6293.000000	65.289306 
6292.000000	65.333557 
6291.000000	65.396237 
6290.000000	65.463328 
6289.000000	65.522789 
6288.000000	65.565371 
6287.000000	65.586423 
6286.000000	65.584492 
6285.000000	65.560579 
6284.000000	65.515089 
6283.000000	65.447044 
6282.000000	65.354585 
6281.000000	65.236377 
6280.000000	65.095019 
6279.000000	64.938402 
6278.000000	64.781022 
6277.000000	64.641118 
6276.000000	64.537000 
6275.000000	64.481544 
6274.000000	64.477252 
6273.000000	64.514970 
6272.000000	64.574980 
6271.000000	64.632272 
6270.000000	64.661645 
6269.000000	64.645719 
6268.000000	64.577937 
6267.000000	64.466285 
6266.000000	64.329242 
6265.000000	64.193534 
6264.000000	64.085507 
6263.000000	64.027881 
6262.000000	64.033246 
6261.000000	64.103913 
6260.000000	64.232254 
6259.000000	64.403057 
6258.000000	64.598679 
6257.000000	64.798903 
6256.000000	64.984250 
6255.000000	65.136575 
6254.000000	65.240812 
6253.000000	65.286350 
6252.000000	65.268492 
6251.000000	65.190005 
6250.000000	65.060997 
6249.000000	64.898848 
6248.000000	64.725470 
6247.000000	64.564681 
6246.000000	64.437675 
6245.000000	64.360356 
6244.000000	64.339613 
6243.000000	64.373779 
6242.000000	64.451980 
6241.000000	64.556360 
6240.000000	64.666509 
6239.000000	64.762210 
6238.000000	64.829611 
6237.000000	64.861178 
6236.000000	64.860486 
6235.000000	64.837837 
6234.000000	64.811491 
6233.000000	64.802312 
6232.000000	64.829516 
6231.000000	64.906597 
6230.000000	65.035295 
6229.000000	65.205287 
6228.000000	65.393400 
6227.000000	65.568661 
6226.000000	65.698528 
6225.000000	65.756201 
6224.000000	65.725612 
6223.000000	65.604925 
6222.000000	65.406513 
6221.000000	65.154671 
6220.000000	64.879560 
6219.000000	64.612674 
6218.000000	64.381933 
6217.000000	64.208149 
6216.000000	64.104700 
6215.000000	64.075779 
6214.000000	64.117741 
6213.000000	64.219856 
6212.000000	64.366936 
6211.000000	64.540123 
6210.000000	64.717364 
6209.000000	64.877486 
6208.000000	65.000081 
6207.000000	65.071582 
6206.000000	65.086102 
6205.000000	65.047025 
6204.000000	64.966320 
6203.000000	64.860320 
6202.000000	64.746642 
6201.000000	64.639234 
6200.000000	64.546322 
6199.000000	64.470028 
6198.000000	64.407610 
6197.000000	64.353418 
6196.000000	64.301729 
6195.000000	64.247965 
6194.000000	64.190745 
6193.000000	64.130043 
6192.000000	64.069175 
6191.000000	64.012360 
6190.000000	63.966560 
6189.000000	63.938903 
6188.000000	63.937854 
6187.000000	63.970279 
6186.000000	64.041519 
6185.000000	64.153957 
6184.000000	64.304924 
6183.000000	64.484596 
6182.000000	64.677953 
6181.000000	64.866423 
6180.000000	65.031552 
6179.000000	65.159201 
6178.000000	65.240788 
6177.000000	65.275764 
6176.000000	65.268015 
6175.000000	65.224528 
6174.000000	65.152239 
6173.000000	65.056395 
6172.000000	64.942145 
6171.000000	64.815163 
6170.000000	64.684557 
6169.000000	64.562201 
6168.000000	64.460587 
6167.000000	64.389991 
6166.000000	64.355731 
6165.000000	64.356541 
6164.000000	64.382052 
6163.000000	64.418077 
6162.000000	64.447855 
6161.000000	64.460492 
6160.000000	64.452505 
6159.000000	64.431786 
6158.000000	64.414906 
6157.000000	64.423131 
6156.000000	64.475059 
6155.000000	64.581108 
6154.000000	64.738464 
6153.000000	64.932012 
6152.000000	65.138411 
6151.000000	65.329551 
6150.000000	65.480327 
6149.000000	65.571928 
6148.000000	65.596485 
6147.000000	65.555644 
6146.000000	65.459203 
6145.000000	65.324234 
6144.000000	65.171670 
6143.000000	65.023779 
6142.000000	64.900994 
6141.000000	64.820456 
6140.000000	64.793515 
6139.000000	64.824724 
6138.000000	64.911341 
6137.000000	65.043330 
6136.000000	65.206217 
6135.000000	65.381932 
6134.000000	65.553760 
6133.000000	65.708994 
6132.000000	65.840339 
6131.000000	65.946936 
6130.000000	66.030287 
6129.000000	66.093420 
6128.000000	66.135835 
6127.000000	66.153478 
6126.000000	66.138410 
6125.000000	66.083240 
6124.000000	65.982866 
6123.000000	65.839695 
6122.000000	65.661931 
6121.000000	65.464377 
6120.000000	65.263772 
6119.000000	65.076088 
6118.000000	64.912986 
6117.000000	64.779853 
6116.000000	64.675378 
6115.000000	64.592933 
6114.000000	64.522171 
6113.000000	64.453125 
6112.000000	64.378976 
6111.000000	64.298558 
6110.000000	64.215278 
6109.000000	64.137125 
6108.000000	64.072895 
6107.000000	64.030766 
6106.000000	64.015197 
6105.000000	64.025735 
6104.000000	64.055824 
6103.000000	64.095354 
6102.000000	64.132905 
6101.000000	64.158892 
6100.000000	64.166069 
6099.000000	64.153742 
6098.000000	64.127564 
6097.000000	64.098167 
6096.000000	64.077925 
6095.000000	64.077425 
6094.000000	64.102029 
6093.000000	64.151144 
6092.000000	64.218664 
6091.000000	64.295244 
6090.000000	64.371156 
6089.000000	64.441156 
6088.000000	64.505577 
6087.000000	64.568710 
6086.000000	64.636683 
6085.000000	64.715933 
6084.000000	64.809370 
6083.000000	64.913582 
6082.000000	65.018701 
6081.000000	65.112304 
6080.000000	65.180039 
6079.000000	65.211248 
6078.000000	65.198731 
6077.000000	65.143203 
6076.000000	65.049362 
6075.000000	64.925503 
6074.000000	64.780497 
6073.000000	64.622282 
6072.000000	64.458227 
6071.000000	64.295959 
6070.000000	64.143848 
6069.000000	64.011573 
6068.000000	63.909912 
6067.000000	63.849472 
6066.000000	63.838267 
6065.000000	63.879251 
6064.000000	63.970160 
6063.000000	64.103388 
6062.000000	64.268064 
6061.000000	64.452028 
6060.000000	64.645171 
6059.000000	64.840412 
6058.000000	65.033388 
6057.000000	65.221142 
6056.000000	65.401053 
6055.000000	65.568327 
6054.000000	65.715670 
6053.000000	65.833234 
6052.000000	65.912771 
6051.000000	65.947294 
6050.000000	65.937352 
6049.000000	65.886712 
6048.000000	65.804481 
6047.000000	65.699863 
6046.000000	65.582442 
6045.000000	65.458440 
6044.000000	65.331006 
6043.000000	65.201616 
6042.000000	65.072107 
6041.000000	64.947199 
6040.000000	64.835357 
6039.000000	64.748668 
6038.000000	64.700508 
6037.000000	64.701747 
6036.000000	64.756798 
6035.000000	64.860653 
6034.000000	64.998626 
6033.000000	65.147995 
6032.000000	65.282797 
6031.000000	65.378546 
6030.000000	65.418195 
6029.000000	65.395975 
6028.000000	65.319180 
6027.000000	65.204691 
6026.000000	65.076589 
6025.000000	64.961242 
6024.000000	64.881229 
6023.000000	64.851403 
6022.000000	64.875245 
6021.000000	64.946889 
6020.000000	65.050864 
6019.000000	65.167284 
6018.000000	65.274596 
6017.000000	65.353989 
6016.000000	65.392637 
6015.000000	65.384936 
6014.000000	65.334105 
6013.000000	65.249919 
6012.000000	65.147471 
6011.000000	65.043616 
6010.000000	64.954447 
6009.000000	64.892506 
6008.000000	64.865064 
6007.000000	64.873552 
6006.000000	64.914464 
6005.000000	64.980292 
6004.000000	65.061426 
6003.000000	65.147614 
6002.000000	65.229129 
6001.000000	65.298080 
6000.000000	65.347695 
5999.000000	65.374279 
5998.000000	65.375947 
5997.000000	65.354228 
5996.000000	65.314054 
5995.000000	65.262842 
5994.000000	65.210127 
5993.000000	65.164875 
5992.000000	65.136265 
5991.000000	65.128278 
5990.000000	65.140104 
5989.000000	65.164017 
5988.000000	65.187358 
5987.000000	65.195155 
5986.000000	65.174603 
5985.000000	65.117096 
5984.000000	65.020728 
5983.000000	64.891147 
5982.000000	64.740729 
5981.000000	64.585590 
5980.000000	64.442467 
5979.000000	64.325141 
5978.000000	64.242649 
5977.000000	64.198422 
5976.000000	64.191508 
5975.000000	64.217782 
5974.000000	64.272451 
5973.000000	64.350318 
5972.000000	64.448142 
5971.000000	64.563274 
5970.000000	64.694261 
5969.000000	64.837932 
5968.000000	64.989233 
5967.000000	65.140962 
5966.000000	65.282535 
5965.000000	65.403342 
5964.000000	65.490484 
5963.000000	65.532040 
5962.000000	65.517616 
5961.000000	65.442037 
5960.000000	65.305852 
5959.000000	65.116882 
5958.000000	64.890861 
5957.000000	64.650344 
5956.000000	64.421916 
5955.000000	64.232063 
5954.000000	64.103007 
5953.000000	64.048433 
5952.000000	64.070391 
5951.000000	64.158868 
5950.000000	64.293146 
5949.000000	64.446473 
5948.000000	64.589858 
5947.000000	64.699387 
5946.000000	64.758634 
5945.000000	64.763879 
5944.000000	64.722561 
5943.000000	64.652156 
5942.000000	64.573979 
5941.000000	64.509129 
5940.000000	64.474081 
5939.000000	64.477038 
5938.000000	64.518094 
5937.000000	64.588832 
5936.000000	64.676308 
5935.000000	64.765620 
5934.000000	64.844369 
5933.000000	64.903903 
5932.000000	64.940285 
5931.000000	64.954185 
5930.000000	64.949178 
5929.000000	64.930582 
5928.000000	64.903521 
5927.000000	64.873027 
5926.000000	64.843130 
5925.000000	64.818048 
5924.000000	64.800548 
5923.000000	64.793443 
5922.000000	64.796757 
5921.000000	64.806604 
5920.000000	64.814925 
5919.000000	64.809751 
5918.000000	64.779663 
5917.000000	64.715981 
5916.000000	64.618086 
5915.000000	64.493250 
5914.000000	64.358663 
5913.000000	64.236831 
5912.000000	64.153099 
5911.000000	64.128065 
5910.000000	64.174675 
5909.000000	64.294457 
5908.000000	64.477348 
5907.000000	64.703917 
5906.000000	64.948105 
5905.000000	65.182495 
5904.000000	65.381693 
5903.000000	65.526127 
5902.000000	65.603876 
5901.000000	65.611457 
5900.000000	65.552687 
5899.000000	65.437531 
5898.000000	65.281367 
5897.000000	65.102672 
5896.000000	64.922404 
5895.000000	64.760184 
5894.000000	64.632344 
5893.000000	64.549136 
5892.000000	64.514446 
5891.000000	64.525580 
5890.000000	64.574432 
5889.000000	64.649891 
5888.000000	64.739227 
5887.000000	64.831495 
5886.000000	64.917063 
5885.000000	64.990401 
5884.000000	65.048074 
5883.000000	65.090394 
5882.000000	65.119433 
5881.000000	65.138864 
5880.000000	65.152883 
5879.000000	65.164232 
5878.000000	65.173792 
5877.000000	65.178894 
5876.000000	65.174365 
5875.000000	65.153121 
5874.000000	65.109109 
5873.000000	65.038132 
5872.000000	64.940690 
5871.000000	64.824295 
5870.000000	64.703416 
5869.000000	64.596843 
5868.000000	64.523863 
5867.000000	64.498949 
5866.000000	64.528417 
5865.000000	64.608097 
5864.000000	64.724159 
5863.000000	64.855408 
5862.000000	64.979100 
5861.000000	65.076136 
5860.000000	65.135622 
5859.000000	65.156054 
5858.000000	65.144991 
5857.000000	65.115547 
5856.000000	65.082144 
5855.000000	65.056157 
5854.000000	65.042710 
5853.000000	65.040254 
5852.000000	65.041494 
5851.000000	65.037107 
5850.000000	65.018367 
5849.000000	64.980554 
5848.000000	64.923071 
5847.000000	64.849734 
5846.000000	64.766383 
5845.000000	64.679932 
5844.000000	64.597129 
5843.000000	64.524197 
5842.000000	64.466261 
5841.000000	64.427447 
5840.000000	64.411330 
5839.000000	64.420366 
5838.000000	64.455127 
5837.000000	64.513850 
5836.000000	64.590907 
5835.000000	64.678311 
5834.000000	64.765691 
5833.000000	64.843392 
5832.000000	64.903903 
5831.000000	64.943671 
5830.000000	64.963483 
5829.000000	64.967918 
5828.000000	64.963412 
5827.000000	64.956760 
5826.000000	64.953231 
5825.000000	64.955520 
5824.000000	64.963388 
5823.000000	64.974212 
5822.000000	64.984583 
5821.000000	64.989447 
5820.000000	64.983344 
5819.000000	64.960479 
5818.000000	64.915895 
5817.000000	64.845275 
5816.000000	64.747333 
5815.000000	64.624643 
5814.000000	64.485073 
5813.000000	64.341306 
5812.000000	64.209103 
5811.000000	64.105463 
5810.000000	64.044022 
5809.000000	64.031291 
5808.000000	64.065694 
5807.000000	64.135909 
5806.000000	64.226388 
5805.000000	64.320158 
5804.000000	64.404869 
5803.000000	64.474487 
5802.000000	64.531540 
5801.000000	64.584922 
5800.000000	64.645457 
5799.000000	64.720368 
5798.000000	64.810872 
5797.000000	64.910626 
5796.000000	65.006899 
5795.000000	65.084195 
5794.000000	65.129423 
5793.000000	65.136146 
5792.000000	65.107321 
5791.000000	65.054917 
5790.000000	64.996409 
5789.000000	64.950060 
5788.000000	64.929938 
5787.000000	64.942526 
5786.000000	64.985823 
5785.000000	65.050220 
5784.000000	65.123486 
5783.000000	65.192890 
5782.000000	65.248823 
5781.000000	65.286087 
5780.000000	65.304780 
5779.000000	65.307927 
5778.000000	65.299963 
5777.000000	65.283441 
5776.000000	65.258646 
5775.000000	65.221595 
5774.000000	65.166211 
5773.000000	65.085625 
5772.000000	64.975476 
5771.000000	64.836382 
5770.000000	64.675664 
5769.000000	64.506793 
5768.000000	64.347076 
5767.000000	64.214372 
5766.000000	64.123177 
5765.000000	64.081144 
5764.000000	64.087510 
5763.000000	64.133548 
5762.000000	64.205288 
5761.000000	64.286184 
5760.000000	64.362025 
5759.000000	64.423847 
5758.000000	64.469838 
5757.000000	64.504146 
5756.000000	64.534306 
5755.000000	64.566826 
5754.000000	64.604926 
5753.000000	64.646792 
5752.000000	64.686226 
5751.000000	64.714980 
5750.000000	64.725589 
5749.000000	64.715862 
5748.000000	64.688611 
5747.000000	64.652156 
5746.000000	64.617681 
5745.000000	64.595842 
5744.000000	64.594602 
5743.000000	64.617061 
5742.000000	64.661097 
5741.000000	64.719963 
5740.000000	64.784955 
5739.000000	64.847826 
5738.000000	64.902448 
5737.000000	64.945578 
5736.000000	64.976382 
5735.000000	64.995789 
5734.000000	65.004730 
5733.000000	65.004158 
5732.000000	64.994192 
5731.000000	64.976096 
5730.000000	64.952588 
5729.000000	64.929413 
5728.000000	64.915633 
5727.000000	64.922022 
5726.000000	64.958596 
5725.000000	65.031218 
5724.000000	65.140771 
5723.000000	65.279316 
5722.000000	65.432190 
5721.000000	65.577697 
5720.000000	65.692114 
5719.000000	65.752768 
5718.000000	65.743637 
5717.000000	65.657949 
5716.000000	65.500736 
5715.000000	65.286612 
5714.000000	65.037727 
5713.000000	64.778041 
5712.000000	64.529681 
5711.000000	64.309310 
5710.000000	64.127302 
5709.000000	63.988304 
5708.000000	63.892936 
5707.000000	63.839888 
5706.000000	63.826918 
5705.000000	63.850665 
5704.000000	63.906764 
5703.000000	63.986563 
5702.000000	64.078974 
5701.000000	64.169549 
5700.000000	64.244484 
5699.000000	64.291119 
5698.000000	64.302825 
5697.000000	64.280176 
5696.000000	64.230632 
5695.000000	64.167618 
5694.000000	64.105057 
5693.000000	64.054155 
5692.000000	64.019942 
5691.000000	64.000201 
5690.000000	63.987493 
5689.000000	63.972234 
5688.000000	63.947153 
5687.000000	63.910531 
5686.000000	63.866686 
5685.000000	63.825345 
5684.000000	63.798785 
5683.000000	63.798403 
5682.000000	63.830828 
5681.000000	63.895702 
5680.000000	63.987183 
5679.000000	64.093804 
5678.000000	64.200782 
5677.000000	64.292430 
5676.000000	64.356613 
5675.000000	64.385676 
5674.000000	64.376997 
5673.000000	64.333605 
5672.000000	64.262413 
5671.000000	64.173746 
5670.000000	64.079475 
5669.000000	63.991355 
5668.000000	63.919830 
5667.000000	63.872194 
5666.000000	63.852715 
5665.000000	63.861727 
5664.000000	63.895702 
5663.000000	63.949275 
5662.000000	64.016413 
5661.000000	64.091610 
5660.000000	64.170384 
5659.000000	64.248180 
5658.000000	64.320302 
5657.000000	64.381933 
5656.000000	64.428949 
5655.000000	64.458656 
5654.000000	64.470887 
5653.000000	64.469695 
5652.000000	64.462518 
5651.000000	64.458632 
5650.000000	64.467120 
5649.000000	64.494967 
5648.000000	64.544582 
5647.000000	64.613652 
5646.000000	64.694309 
5645.000000	64.776062 
5644.000000	64.846491 
5643.000000	64.895558 
5642.000000	64.915275 
5641.000000	64.902234 
5640.000000	64.856266 
5639.000000	64.779686 
5638.000000	64.677524 
5637.000000	64.555978 
5636.000000	64.424371 
5635.000000	64.294552 
5634.000000	64.181113 
5633.000000	64.099788 
5632.000000	64.065313 
5631.000000	64.088463 
5630.000000	64.172410 
5629.000000	64.311671 
5628.000000	64.492535 
5627.000000	64.695882 
5626.000000	64.899897 
5625.000000	65.084862 
5624.000000	65.237045 
5623.000000	65.350365 
5622.000000	65.426135 
5621.000000	65.470576 
5620.000000	65.492224 
5619.000000	65.498042 
5618.000000	65.492534 
5617.000000	65.475988 
5616.000000	65.447640 
5615.000000	65.405154 
5614.000000	65.349435 
5613.000000	65.282559 
5612.000000	65.209865 
5611.000000	65.136861 
5610.000000	65.068221 
5609.000000	65.006589 
5608.000000	64.952182 
5607.000000	64.903593 
5606.000000	64.858937 
5605.000000	64.817023 
5604.000000	64.777994 
5603.000000	64.743590 
5602.000000	64.716649 
5601.000000	64.698791 
5600.000000	64.690017 
5599.000000	64.687180 
5598.000000	64.685416 
5597.000000	64.679193 
5596.000000	64.664554 
5595.000000	64.639830 
5594.000000	64.606547 
5593.000000	64.569878 
5592.000000	64.536309 
5591.000000	64.511179 
5590.000000	64.497351 
5589.000000	64.494085 
5588.000000	64.497423 
5587.000000	64.501094 
5586.000000	64.498829 
5585.000000	64.486122 
5584.000000	64.461851 
5583.000000	64.428544 
5582.000000	64.391946 
5581.000000	64.359045 
5580.000000	64.337086 
5579.000000	64.331173 
5578.000000	64.343762 
5577.000000	64.374089 
5576.000000	64.419388 
5575.000000	64.475512 
5574.000000	64.537739 
5573.000000	64.601254 
5572.000000	64.661526 
5571.000000	64.714860 
5570.000000	64.757704 
5569.000000	64.787483 
5568.000000	64.803075 
5567.000000	64.804935 
5566.000000	64.795589 
5565.000000	64.778852 
5564.000000	64.760398 
5563.000000	64.745020 
5562.000000	64.736485 
5561.000000	64.735436 
5560.000000	64.740037 
5559.000000	64.745426 
5558.000000	64.745354 
5557.000000	64.734172 
5556.000000	64.708256 
5555.000000	64.668345 
5554.000000	64.619493 
5553.000000	64.570164 
5552.000000	64.529967 
5551.000000	64.507079 
5550.000000	64.506292 
5549.000000	64.527225 
5548.000000	64.564752 
5547.000000	64.610838 
5546.000000	64.656615 
5545.000000	64.695096 
5544.000000	64.722800 
5543.000000	64.739966 
5542.000000	64.750218 
5541.000000	64.758682 
5540.000000	64.770174 
5539.000000	64.787626 
5538.000000	64.811062 
5537.000000	64.838361 
5536.000000	64.865303 
5535.000000	64.888167 
5534.000000	64.903211 
5533.000000	64.908647 
5532.000000	64.903378 
5531.000000	64.887213 
5530.000000	64.860200 
5529.000000	64.822292 
5528.000000	64.774036 
5527.000000	64.716935 
5526.000000	64.653921 
5525.000000	64.589500 
5524.000000	64.528322 
5523.000000	64.474368 
5522.000000	64.429640 
5521.000000	64.394688 
5520.000000	64.368891 
5519.000000	64.352202 
5518.000000	64.345455 
5517.000000	64.351677 
5516.000000	64.375472 
5515.000000	64.422035 
5514.000000	64.495015 
5513.000000	64.594125 
5512.000000	64.714050 
5511.000000	64.843726 
5510.000000	64.968061 
5509.000000	65.070223 
5508.000000	65.135455 
5507.000000	65.153646 
5506.000000	65.122485 
5505.000000	65.047478 
5504.000000	64.940977 
5503.000000	64.820003 
5502.000000	64.702606 
5501.000000	64.605355 
5500.000000	64.540815 
5499.000000	64.515471 
5498.000000	64.529633 
5497.000000	64.576697 
5496.000000	64.645051 
5495.000000	64.719581 
5494.000000	64.785170 
5493.000000	64.829301 
5492.000000	64.845466 
5491.000000	64.833402 
5490.000000	64.799976 
5489.000000	64.757251 
5488.000000	64.719653 
5487.000000	64.700627 
5486.000000	64.708733 
5485.000000	64.745473 
5484.000000	64.804768 
5483.000000	64.875221 
5482.000000	64.942383 
5481.000000	64.992976 
5480.000000	65.017700 
5479.000000	65.013742 
5478.000000	64.984488 
5477.000000	64.937949 
5476.000000	64.883923 
5475.000000	64.830875 
5474.000000	64.784383 
5473.000000	64.746665 
5472.000000	64.716649 
5471.000000	64.691638 
5470.000000	64.667606 
5469.000000	64.640808 
5468.000000	64.608192 
5467.000000	64.567995 
5466.000000	64.518618 
5465.000000	64.459490 
5464.000000	64.390397 
5463.000000	64.313220 
5462.000000	64.232087 
5461.000000	64.154624 
5460.000000	64.090347 
5459.000000	64.050316 
5458.000000	64.045095 
5457.000000	64.082360 
5456.000000	64.163875 
5455.000000	64.285063 
5454.000000	64.435267 
5453.000000	64.599013 
5452.000000	64.758515 
5451.000000	64.896368 
5450.000000	64.998435 
5449.000000	65.055680 
5448.000000	65.065193 
5447.000000	65.030264 
5446.000000	64.959406 
5445.000000	64.865112 
5444.000000	64.761948 
5443.000000	64.664173 
5442.000000	64.583921 
5441.000000	64.530873 
5440.000000	64.511203 
5439.000000	64.526915 
5438.000000	64.575076 
5437.000000	64.649152 
5436.000000	64.738655 
5435.000000	64.830183 
5434.000000	64.908838 
5433.000000	64.960503 
5432.000000	64.974141 
5431.000000	64.942574 
5430.000000	64.865422 
5429.000000	64.749288 
5428.000000	64.607238 
5427.000000	64.456582 
5426.000000	64.316082 
5425.000000	64.202642 
5424.000000	64.128017 
5423.000000	64.097380 
5422.000000	64.108180 
5421.000000	64.150452 
5420.000000	64.211797 
5419.000000	64.280486 
5418.000000	64.348220 
5417.000000	64.410710 
5416.000000	64.469218 
5415.000000	64.528584 
5414.000000	64.594268 
5413.000000	64.669585 
5412.000000	64.753556 
5411.000000	64.840579 
5410.000000	64.922428 
5409.000000	64.990782 
5408.000000	65.039396 
5407.000000	65.066814 
5406.000000	65.077996 
5405.000000	65.082669 
5404.000000	65.094137 
5403.000000	65.123939 
5402.000000	65.179467 
5401.000000	65.259552 
5400.000000	65.356445 
5399.000000	65.453743 
5398.000000	65.532422 
5397.000000	65.571999 
5396.000000	65.556859 
5395.000000	65.478372 
5394.000000	65.338039 
5393.000000	65.145635 
5392.000000	64.917278 
5391.000000	64.672875 
5390.000000	64.432954 
5389.000000	64.215993 
5388.000000	64.036822 
5387.000000	63.905239 
5386.000000	63.826441 
5385.000000	63.802695 
5384.000000	63.833856 
5383.000000	63.916206 
5382.000000	64.042711 
5381.000000	64.202594 
5380.000000	64.381170 
5379.000000	64.559555 
5378.000000	64.716720 
5377.000000	64.831757 
5376.000000	64.887142 
5375.000000	64.872121 
5374.000000	64.784455 
5373.000000	64.631271 
5372.000000	64.428901 
5371.000000	64.200758 
5370.000000	63.974356 
5369.000000	63.777375 
5368.000000	63.633275 
5367.000000	63.558220 
5366.000000	63.557672 
5365.000000	63.626575 
5364.000000	63.749003 
5363.000000	63.901400 
5362.000000	64.055776 
5361.000000	64.184927 
5360.000000	64.266467 
5359.000000	64.286971 
5358.000000	64.243125 
5357.000000	64.142370 
5356.000000	64.001488 
5355.000000	63.843178 
5354.000000	63.691353 
5353.000000	63.567233 
5352.000000	63.486075 
5351.000000	63.455557 
5350.000000	63.477921 
5349.000000	63.548588 
5348.000000	63.658261 
5347.000000	63.793849 
5346.000000	63.940405 
5345.000000	64.082455 
5344.000000	64.204382 
5343.000000	64.293909 
5342.000000	64.342427 
5341.000000	64.347195 
5340.000000	64.312696 
5339.000000	64.246201 
5338.000000	64.155912 
5337.000000	64.049863 
5336.000000	63.935852 
5335.000000	63.819217 
5334.000000	63.703989 
5333.000000	63.594102 
5332.000000	63.494229 
5331.000000	63.412165 
5330.000000	63.356351 
5329.000000	63.333725 
5328.000000	63.345694 
5327.000000	63.385152 
5326.000000	63.436651 
5325.000000	63.478469 
5324.000000	63.488125 
5323.000000	63.445997 
5322.000000	63.342976 
5321.000000	63.183045 
5320.000000	62.984442 
5319.000000	62.773752 
5318.000000	62.583827 
5317.000000	62.442612 
5316.000000	62.373852 
5315.000000	62.391018 
5314.000000	62.499070 
5313.000000	62.693810 
5312.000000	62.963819 
5311.000000	63.292598 
5310.000000	63.656210 
5309.000000	64.024829 
5308.000000	64.361763 
5307.000000	64.628076 
5306.000000	64.785480 
5305.000000	64.805626 
5304.000000	64.680409 
5303.000000	64.427661 
5302.000000	64.092206 
5301.000000	63.738584 
5300.000000	63.441634 
5299.000000	63.267230 
5298.000000	63.260459 
5297.000000	63.431119 
5296.000000	63.751554 
5295.000000	64.162087 
5294.000000	64.587736 
5293.000000	64.954423 
5292.000000	65.202474 
5291.000000	65.303039 
5290.000000	65.262269 
5289.000000	65.116214 
5288.000000	64.915871 
5287.000000	64.715194 
5286.000000	64.557814 
5285.000000	64.464426 
5284.000000	64.431524 
5283.000000	64.433026 
5282.000000	64.432454 
5281.000000	64.389014 
5280.000000	64.270257 
5279.000000	64.055681 
5278.000000	63.742423 
5277.000000	63.342046 
5276.000000	62.880730 
5275.000000	62.389636 
5274.000000	61.906051 
5273.000000	61.467719 
5272.000000	61.114788 
5271.000000	60.880517 
5270.000000	60.796070 
5269.000000	60.882306 
5268.000000	61.153507 
5267.000000	61.604833 
5266.000000	62.220859 
5265.000000	62.970924 
5264.000000	63.814663 
5263.000000	64.700341 
5262.000000	65.572381 
5261.000000	66.376018 
5260.000000	67.061734 
5259.000000	67.589783 
5258.000000	67.935752 
5257.000000	68.094062 
5256.000000	68.079853 
5255.000000	67.928361 
5254.000000	67.687439 
5253.000000	67.409992 
5252.000000	67.147779 
5251.000000	66.941809 
5250.000000	66.814637 
5249.000000	66.765475 
5248.000000	66.775107 
5247.000000	66.808748 
5246.000000	66.825938 
5245.000000	66.788339 
5244.000000	66.669487 
5243.000000	66.458940 
5242.000000	66.160345 
5241.000000	65.792703 
5240.000000	65.382742 
5239.000000	64.963507 
5238.000000	64.567542 
5237.000000	64.223647 
5236.000000	63.953375 
5235.000000	63.768172 
5234.000000	63.670372 
5233.000000	63.651061 
5232.000000	63.689446 
5231.000000	63.762474 
5230.000000	63.848757 
5229.000000	63.931870 
5228.000000	64.000225 
5227.000000	64.054107 
5226.000000	64.102435 
5225.000000	64.158320 
5224.000000	64.232850 
5223.000000	64.330196 
5222.000000	64.444279 
5221.000000	64.559912 
5220.000000	64.656257 
5219.000000	64.712262 
5218.000000	64.712929 
5217.000000	64.656019 
5216.000000	64.552474 
5215.000000	64.423179 
5214.000000	64.295434 
5213.000000	64.194583 
5212.000000	64.140820 
5211.000000	64.145112 
5210.000000	64.207625 
5209.000000	64.321637 
5208.000000	64.471149 
5207.000000	64.634823 
5206.000000	64.788603 
5205.000000	64.911007 
5204.000000	64.984273 
5203.000000	64.996170 
5202.000000	64.943718 
5201.000000	64.833235 
5200.000000	64.680051 
5199.000000	64.505434 
5198.000000	64.333963 
5197.000000	64.188599 
5196.000000	64.087176 
5195.000000	64.038300 
5194.000000	64.040541 
5193.000000	64.082312 
5192.000000	64.145421 
5191.000000	64.208245 
5190.000000	64.250373 
5189.000000	64.256930 
5188.000000	64.219927 
5187.000000	64.140915 
5186.000000	64.026832 
5185.000000	63.892030 
5184.000000	63.753390 
5183.000000	63.629698 
5182.000000	63.537955 
5181.000000	63.491320 
5180.000000	63.497114 
5179.000000	63.556241 
5178.000000	63.663339 
5177.000000	63.807773 
5176.000000	63.975310 
5175.000000	64.150381 
5174.000000	64.317607 
5173.000000	64.464926 
5172.000000	64.584398 
5171.000000	64.673042 
5170.000000	64.731884 
5169.000000	64.765310 
5168.000000	64.778876 
5167.000000	64.779353 
5166.000000	64.771795 
5165.000000	64.760208 
5164.000000	64.745426 
5163.000000	64.728069 
5162.000000	64.706826 
5161.000000	64.679503 
5160.000000	64.643692 
5159.000000	64.597654 
5158.000000	64.541697 
5157.000000	64.478206 
5156.000000	64.412641 
5155.000000	64.352321 
5154.000000	64.305925 
5153.000000	64.281129 
5152.000000	64.283466 
5151.000000	64.314818 
5150.000000	64.372348 
5149.000000	64.448881 
5148.000000	64.533972 
5147.000000	64.615821 
5146.000000	64.683651 
5145.000000	64.729356 
5144.000000	64.748167 
5143.000000	64.738893 
5142.000000	64.703655 
5141.000000	64.647221 
5140.000000	64.575266 
5139.000000	64.494252 
5138.000000	64.411354 
5137.000000	64.334201 
5136.000000	64.271092 
5135.000000	64.229631 
5134.000000	64.215946 
5133.000000	64.232945 
5132.000000	64.279437 
5131.000000	64.349961 
5130.000000	64.434170 
5129.000000	64.520049 
5128.000000	64.595222 
5127.000000	64.650535 
5126.000000	64.681220 
5125.000000	64.688563 
5124.000000	64.679169 
5123.000000	64.662384 
5122.000000	64.647769 
5121.000000	64.642405 
5120.000000	64.649176 
5119.000000	64.666271 
5118.000000	64.688229 
5117.000000	64.708232 
5116.000000	64.720344 
5115.000000	64.721775 
5114.000000	64.714026 
5113.000000	64.701557 
5112.000000	64.690780 
5111.000000	64.687609 
5110.000000	64.696121 
5109.000000	64.716911 
5108.000000	64.747714 
5107.000000	64.784264 
5106.000000	64.821934 
5105.000000	64.857673 
5104.000000	64.890193 
5103.000000	64.920210 
5102.000000	64.949488 
5101.000000	64.979505 
5100.000000	65.010952 
5099.000000	65.042877 
5098.000000	65.073108 
5097.000000	65.098762 
5096.000000	65.117263 
5095.000000	65.127635 
5094.000000	65.130209 
5093.000000	65.126967 
5092.000000	65.120005 
5091.000000	65.110850 
5090.000000	65.100049 
5089.000000	65.086984 
5088.000000	65.070295 
5087.000000	65.048480 
5086.000000	65.020918 
5085.000000	64.988040 
5084.000000	64.951610 
5083.000000	64.913940 
5082.000000	64.877009 
5081.000000	64.842128 
5080.000000	64.809536 
5079.000000	64.778995 
5078.000000	64.750099 
5077.000000	64.722895 
5076.000000	64.698004 
5075.000000	64.676761 
5074.000000	64.660573 
5073.000000	64.650797 
5072.000000	64.647912 
5071.000000	64.651918 
5070.000000	64.661145 
5069.000000	64.674830 
5068.000000	64.693140 
5067.000000	64.717745 
5066.000000	64.750933 
5065.000000	64.795541 
5064.000000	64.853405 
5063.000000	64.923644 
5062.000000	65.001964 
5061.000000	65.080523 
5060.000000	65.149497 
5059.000000	65.198874 
5058.000000	65.221309 
5057.000000	65.213847 
5056.000000	65.179514 
5055.000000	65.127158 
5054.000000	65.069508 
5053.000000	65.020775 
5052.000000	64.993262 
5051.000000	64.995503 
5050.000000	65.029573 
5049.000000	65.091514 
5048.000000	65.171170 
5047.000000	65.256237 
5046.000000	65.332460 
5045.000000	65.387248 
5044.000000	65.410757 
5043.000000	65.397572 
5042.000000	65.346908 
5041.000000	65.262246 
5040.000000	65.150904 
5039.000000	65.022683 
5038.000000	64.889192 
5037.000000	64.762234 
5036.000000	64.652633 
5035.000000	64.568877 
5034.000000	64.515805 
5033.000000	64.494371 
5032.000000	64.500761 
5031.000000	64.527916 
5030.000000	64.566779 
5029.000000	64.609003 
5028.000000	64.647150 
5027.000000	64.677739 
5026.000000	64.700436 
5025.000000	64.719080 
5024.000000	64.738917 
5023.000000	64.765858 
5022.000000	64.804124 
5021.000000	64.855146 
5020.000000	64.917278 
5019.000000	64.985156 
5018.000000	65.051484 
5017.000000	65.107846 
5016.000000	65.147209 
5015.000000	65.165019 
5014.000000	65.160536 
5013.000000	65.136790 
5012.000000	65.099859 
5011.000000	65.057444 
5010.000000	65.017223 
5009.000000	64.985561 
5008.000000	64.966320 
5007.000000	64.959692 
5006.000000	64.962530 
5005.000000	64.969730 
5004.000000	64.975833 
5003.000000	64.976191 
5002.000000	64.968419 
5001.000000	64.952850 
5000.000000	64.932727 
4999.000000	64.912557 
4998.000000	64.897441 
4997.000000	64.890980 
4996.000000	64.894938 
4995.000000	64.908862 
4994.000000	64.930129 
4993.000000	64.954376 
4992.000000	64.977049 
4991.000000	64.994645 
4990.000000	65.005254 
4989.000000	65.008521 
4988.000000	65.006375 
4987.000000	65.002274 
4986.000000	65.000510 
4985.000000	65.004897 
4984.000000	65.018343 
4983.000000	65.042066 
4982.000000	65.075254 
4981.000000	65.114974 
4980.000000	65.156340 
4979.000000	65.193676 
4978.000000	65.221524 
4977.000000	65.236234 
4976.000000	65.236663 
4975.000000	65.224933 
4974.000000	65.206265 
4973.000000	65.187454 
4972.000000	65.175652 
4971.000000	65.175104 
4970.000000	65.187239 
4969.000000	65.208196 
4968.000000	65.230727 
4967.000000	65.244507 
4966.000000	65.239548 
4965.000000	65.208458 
4964.000000	65.148830 
4963.000000	65.064144 
4962.000000	64.963078 
4961.000000	64.858126 
4960.000000	64.762759 
4959.000000	64.688467 
4958.000000	64.642119 
4957.000000	64.625430 
4956.000000	64.634919 
4955.000000	64.663505 
4954.000000	64.702534 
4953.000000	64.743638 
4952.000000	64.780831 
4951.000000	64.810872 
4950.000000	64.833903 
4949.000000	64.851880 
4948.000000	64.867997 
4947.000000	64.885115 
4946.000000	64.904856 
4945.000000	64.927506 
4944.000000	64.951395 
4943.000000	64.974498 
4942.000000	64.993882 
4941.000000	65.007138 
4940.000000	65.011739 
4939.000000	65.006542 
4938.000000	64.990735 
4937.000000	64.964270 
4936.000000	64.927554 
4935.000000	64.881539 
4934.000000	64.827632 
4933.000000	64.767694 
4932.000000	64.704537 
4931.000000	64.641952 
4930.000000	64.584803 
4929.000000	64.538693 
4928.000000	64.509463 
4927.000000	64.502334 
4926.000000	64.520597 
4925.000000	64.565062 
4924.000000	64.632916 
4923.000000	64.718246 
4922.000000	64.813280 
4921.000000	64.909505 
4920.000000	64.998316 
4919.000000	65.072917 
4918.000000	65.129542 
4917.000000	65.167260 
4916.000000	65.187811 
4915.000000	65.194225 
4914.000000	65.190076 
4913.000000	65.178298 
4912.000000	65.161538 
4911.000000	65.141439 
4910.000000	65.119600 
4909.000000	65.097522 
4908.000000	65.077614 
4907.000000	65.062046 
4906.000000	65.052795 
4905.000000	65.050601 
4904.000000	65.055036 
4903.000000	65.064311 
4902.000000	65.075302 
4901.000000	65.084624 
4900.000000	65.088748 
4899.000000	65.084385 
4898.000000	65.068459 
4897.000000	65.038537 
4896.000000	64.992523 
4895.000000	64.928936 
4894.000000	64.847517 
4893.000000	64.749598 
4892.000000	64.639425 
4891.000000	64.524340 
4890.000000	64.414763 
4889.000000	64.322280 
4888.000000	64.258074 
4887.000000	64.230418 
4886.000000	64.243125 
4885.000000	64.293479 
4884.000000	64.373731 
4883.000000	64.471721 
4882.000000	64.574170 
4881.000000	64.668488 
4880.000000	64.745163 
4879.000000	64.798808 
4878.000000	64.828062 
4877.000000	64.834547 
4876.000000	64.821934 
4875.000000	64.794421 
4874.000000	64.755988 
4873.000000	64.710187 
4872.000000	64.660549 
4871.000000	64.610648 
4870.000000	64.564919 
4869.000000	64.527893 
4868.000000	64.503645 
4867.000000	64.494967 
4866.000000	64.502406 
4865.000000	64.524674 
4864.000000	64.558005 
4863.000000	64.598131 
4862.000000	64.641022 
4861.000000	64.683842 
4860.000000	64.725065 
4859.000000	64.764380 
4858.000000	64.802289 
4857.000000	64.838933 
4856.000000	64.873504 
4855.000000	64.903664 
4854.000000	64.926004 
4853.000000	64.936494 
4852.000000	64.932274 
4851.000000	64.911675 
4850.000000	64.875245 
4849.000000	64.825987 
4848.000000	64.769124 
4847.000000	64.710617 
4846.000000	64.656066 
4845.000000	64.610052 
4844.000000	64.575648 
4843.000000	64.553999 
4842.000000	64.544773 
4841.000000	64.546585 
4840.000000	64.557957 
4839.000000	64.577436 
4838.000000	64.604210 
4837.000000	64.637589 
4836.000000	64.676976 
4835.000000	64.721202 
4834.000000	64.768195 
4833.000000	64.814734 
4832.000000	64.856338 
4831.000000	64.888334 
4830.000000	64.905953 
4829.000000	64.906144 
4828.000000	64.887428 
4827.000000	64.850878 
4826.000000	64.799571 
4825.000000	64.738559 
4824.000000	64.673328 
4823.000000	64.609193 
4822.000000	64.549994 
4821.000000	64.497852 
4820.000000	64.453077 
4819.000000	64.414787 
4818.000000	64.381456 
4817.000000	64.351940 
4816.000000	64.326333 
4815.000000	64.306354 
4814.000000	64.294505 
4813.000000	64.293837 
4812.000000	64.306497 
4811.000000	64.333558 
4810.000000	64.373636 
4809.000000	64.423656 
4808.000000	64.478659 
4807.000000	64.533400 
4806.000000	64.583182 
4805.000000	64.624619 
4804.000000	64.656209 
4803.000000	64.677906 
4802.000000	64.691019 
4801.000000	64.697003 
4800.000000	64.696860 
4799.000000	64.690995 
4798.000000	64.679455 
4797.000000	64.662313 
4796.000000	64.640283 
4795.000000	64.615511 
4794.000000	64.591550 
4793.000000	64.573049 
4792.000000	64.565157 
4791.000000	64.571809 
4790.000000	64.594745 
4789.000000	64.633202 
4788.000000	64.683842 
4787.000000	64.741063 
4786.000000	64.798307 
4785.000000	64.849615 
4784.000000	64.890527 
4783.000000	64.918637 
4782.000000	64.933800 
4781.000000	64.937925 
4780.000000	64.933753 
4779.000000	64.924836 
4778.000000	64.913678 
4777.000000	64.901924 
4776.000000	64.889335 
4775.000000	64.875006 
4774.000000	64.856743 
4773.000000	64.831948 
4772.000000	64.798545 
4771.000000	64.755892 
4770.000000	64.704942 
4769.000000	64.648365 
4768.000000	64.590549 
4767.000000	64.537119 
4766.000000	64.494061 
4765.000000	64.466905 
4764.000000	64.459061 
4763.000000	64.471530 
4762.000000	64.502573 
4761.000000	64.548349 
4760.000000	64.603543 
4759.000000	64.662504 
4758.000000	64.720296 
4757.000000	64.772891 
4756.000000	64.817285 
4755.000000	64.851164 
4754.000000	64.872765 
4753.000000	64.880037 
4752.000000	64.871764 
4751.000000	64.846372 
4750.000000	64.803647 
4749.000000	64.743566 
4748.000000	64.667272 
4747.000000	64.576888 
4746.000000	64.476227 
4745.000000	64.370393 
4744.000000	64.265632 
4743.000000	64.169430 
4742.000000	64.089465 
4741.000000	64.033031 
4740.000000	64.005875 
4739.000000	64.011049 
4738.000000	64.048027 
4737.000000	64.111948 
4736.000000	64.194607 
4735.000000	64.285111 
4734.000000	64.372706 
4733.000000	64.448595 
4732.000000	64.507842 
4731.000000	64.549660 
4730.000000	64.576911 
4729.000000	64.594435 
4728.000000	64.607262 
4727.000000	64.618372 
4726.000000	64.628624 
4725.000000	64.637088 
4724.000000	64.642071 
4723.000000	64.643001 
4722.000000	64.640569 
4721.000000	64.637660 
4720.000000	64.637899 
4719.000000	64.645004 
4718.000000	64.660882 
4717.000000	64.684534 
4716.000000	64.712572 
4715.000000	64.739656 
4714.000000	64.760613 
4713.000000	64.771771 
4712.000000	64.772653 
4711.000000	64.765787 
4710.000000	64.755678 
4709.000000	64.746880 
4708.000000	64.742279 
4707.000000	64.741754 
4706.000000	64.741969 
4705.000000	64.737462 
4704.000000	64.722824 
4703.000000	64.694404 
4702.000000	64.652609 
4701.000000	64.601922 
4700.000000	64.549827 
4699.000000	64.505410 
4698.000000	64.476513 
4697.000000	64.467954 
4696.000000	64.479827 
4695.000000	64.507937 
4694.000000	64.545059 
4693.000000	64.582681 
4692.000000	64.613652 
4691.000000	64.633011 
4690.000000	64.638948 
4689.000000	64.632105 
4688.000000	64.615011 
4687.000000	64.590263 
4686.000000	64.559864 
4685.000000	64.525079 
4684.000000	64.486789 
4683.000000	64.446449 
4682.000000	64.406800 
4681.000000	64.371919 
4680.000000	64.346933 
4679.000000	64.336705 
4678.000000	64.344716 
4677.000000	64.371466 
4676.000000	64.414525 
4675.000000	64.468550 
4674.000000	64.526510 
4673.000000	64.581346 
4672.000000	64.626979 
4671.000000	64.659309 
4670.000000	64.676809 
4669.000000	64.680290 
4668.000000	64.672708 
4667.000000	64.657783 
4666.000000	64.640164 
4665.000000	64.624810 
4664.000000	64.616417 
4663.000000	64.619231 
4662.000000	64.636087 
4661.000000	64.668297 
4660.000000	64.714646 
4659.000000	64.771318 
4658.000000	64.831972 
4657.000000	64.888787 
4656.000000	64.933896 
4655.000000	64.961004 
4654.000000	64.966845 
4653.000000	64.951801 
4652.000000	64.919710 
4651.000000	64.876723 
4650.000000	64.829969 
4649.000000	64.785909 
4648.000000	64.749240 
4647.000000	64.722490 
4646.000000	64.706444 
4645.000000	64.700627 
4644.000000	64.704537 
4643.000000	64.717888 
4642.000000	64.740777 
4641.000000	64.773225 
4640.000000	64.814543 
4639.000000	64.862918 
4638.000000	64.914321 
4637.000000	64.963960 
4636.000000	65.006732 
4635.000000	65.038704 
4634.000000	65.057802 
4633.000000	65.064454 
4632.000000	65.061306 
4631.000000	65.052080 
4630.000000	65.040564 
4629.000000	65.029287 
4628.000000	65.019011 
4627.000000	65.008640 
4626.000000	64.996027 
4625.000000	64.979267 
4624.000000	64.957952 
4623.000000	64.933466 
4622.000000	64.909219 
4621.000000	64.889264 
4620.000000	64.877772 
4619.000000	64.877223 
4618.000000	64.888572 
4617.000000	64.910626 
4616.000000	64.940738 
4615.000000	64.975738 
4614.000000	65.012145 
4613.000000	65.047025 
4612.000000	65.077590 
4611.000000	65.101313 
4610.000000	65.115928 
4609.000000	65.119719 
4608.000000	65.111374 
4607.000000	65.090250 
4606.000000	65.057158 
4605.000000	65.014481 
4604.000000	64.965891 
4603.000000	64.916038 
4602.000000	64.869546 
4601.000000	64.830708 
4600.000000	64.802551 
4599.000000	64.786744 
4598.000000	64.783382 
4597.000000	64.791512 
4596.000000	64.809560 
4595.000000	64.835810 
4594.000000	64.868164 
4593.000000	64.904284 
4592.000000	64.941477 
4591.000000	64.976525 
4590.000000	65.005922 
4589.000000	65.026187 
4588.000000	65.034627 
4587.000000	65.029191 
4586.000000	65.009379 
4585.000000	64.975547 
4584.000000	64.929699 
4583.000000	64.874219 
4582.000000	64.811944 
4581.000000	64.745759 
4580.000000	64.678502 
4579.000000	64.613056 
4578.000000	64.552450 
4577.000000	64.500331 
4576.000000	64.460730 
4575.000000	64.437699 
4574.000000	64.434576 
4573.000000	64.453053 
4572.000000	64.492678 
4571.000000	64.549946 
4570.000000	64.619064 
4569.000000	64.692068 
4568.000000	64.760851 
4567.000000	64.818000 
4566.000000	64.858484 
4565.000000	64.880537 
4564.000000	64.885902 
4563.000000	64.878749 
4562.000000	64.864945 
4561.000000	64.850664 
4560.000000	64.840984 
4559.000000	64.839124 
4558.000000	64.845919 
4557.000000	64.860486 
4556.000000	64.880681 
4555.000000	64.904236 
4554.000000	64.929389 
4553.000000	64.955234 
4552.000000	64.981770 
4551.000000	65.009307 
4550.000000	65.038084 
4549.000000	65.067577 
4548.000000	65.096235 
4547.000000	65.121459 
4546.000000	65.140295 
4545.000000	65.150046 
4544.000000	65.148973 
4543.000000	65.137290 
4542.000000	65.117049 
4541.000000	65.092587 
4540.000000	65.070080 
4539.000000	65.056443 
4538.000000	65.058064 
4537.000000	65.078997 
4536.000000	65.120410 
4535.000000	65.179467 
4534.000000	65.249633 
4533.000000	65.321731 
4532.000000	65.385723 
4531.000000	65.432620 
4530.000000	65.456128 
4529.000000	65.453672 
4528.000000	65.426707 
4527.000000	65.379977 
4526.000000	65.320539 
4525.000000	65.256214 
4524.000000	65.193915 
4523.000000	65.138769 
4522.000000	65.093207 
4521.000000	65.057253 
4520.000000	65.028905 
4519.000000	65.005040 
4518.000000	64.982628 
4517.000000	64.959669 
4516.000000	64.935970 
4515.000000	64.912676 
4514.000000	64.892578 
4513.000000	64.879131 
4512.000000	64.875984 
4511.000000	64.885306 
4510.000000	64.907860 
4509.000000	64.942312 
4508.000000	64.985442 
4507.000000	65.032553 
4506.000000	65.078401 
4505.000000	65.118026 
4504.000000	65.147709 
4503.000000	65.165400 
4502.000000	65.170955 
4501.000000	65.165877 
4500.000000	65.152740 
4499.000000	65.134835 
4498.000000	65.115237 
4497.000000	65.096402 
4496.000000	65.080261 
4495.000000	65.068149 
4494.000000	65.060520 
4493.000000	65.057158 
4492.000000	65.057611 
4491.000000	65.061163 
4490.000000	65.067028 
4489.000000	65.074419 
4488.000000	65.082526 
4487.000000	65.090203 
4486.000000	65.096020 
4485.000000	65.098428 
4484.000000	65.095901 
4483.000000	65.087413 
4482.000000	65.072703 
4481.000000	65.052652 
4480.000000	65.029335 
4479.000000	65.005946 
4478.000000	64.985537 
4477.000000	64.971423 
4476.000000	64.965701 
4475.000000	64.970421 
4474.000000	64.987063 
4473.000000	65.016651 
4472.000000	65.059232 
4471.000000	65.113449 
4470.000000	65.176415 
4469.000000	65.243268 
4468.000000	65.307998 
4467.000000	65.363693 
4466.000000	65.403962 
4465.000000	65.424442 
4464.000000	65.423583 
4463.000000	65.402746 
4462.000000	65.366196 
4461.000000	65.320253 
4460.000000	65.272188 
4459.000000	65.229487 
4458.000000	65.198349 
4457.000000	65.183424 
4456.000000	65.186524 
4455.000000	65.207529 
4454.000000	65.243363 
4453.000000	65.289425 
4452.000000	65.339279 
4451.000000	65.385413 
4450.000000	65.420413 
4449.000000	65.437531 
4448.000000	65.432882 
4447.000000	65.406107 
4446.000000	65.360951 
4445.000000	65.304255 
4444.000000	65.245747 
4443.000000	65.196013 
4442.000000	65.164422 
4441.000000	65.157055 
4440.000000	65.175724 
4439.000000	65.217447 
4438.000000	65.275406 
4437.000000	65.340018 
4436.000000	65.400600 
4435.000000	65.447306 
4434.000000	65.471649 
4433.000000	65.469241 
4432.000000	65.440964 
4431.000000	65.392756 
4430.000000	65.333366 
4429.000000	65.273690 
4428.000000	65.224313 
4427.000000	65.193438 
4426.000000	65.188217 
4425.000000	65.209245 
4424.000000	65.248966 
4423.000000	65.295243 
4422.000000	65.335869 
4421.000000	65.358066 
4420.000000	65.354204 
4419.000000	65.314674 
4418.000000	65.225052 
4417.000000	65.089988 
4416.000000	64.934945 
4415.000000	64.788913 
4414.000000	64.679098 
4413.000000	64.625287 
4412.000000	64.633989 
4411.000000	64.707159 
4410.000000	64.835619 
4409.000000	64.997410 
4408.000000	65.159440 
4407.000000	65.278553 
4406.000000	65.315318 
4405.000000	65.236449 
4404.000000	65.034389 
4403.000000	64.734411 
4402.000000	64.395093 
4401.000000	64.073896 
4400.000000	63.850355 
4399.000000	63.793730 
4398.000000	63.976645 
4397.000000	64.496588 
4396.000000	65.378904 
4395.000000	66.619420 
4394.000000	68.005800 
4393.000000	69.142627 
4392.000000	69.497823 
4391.000000	68.515610 
4390.000000	65.894722 
4389.000000	61.706399 
4388.000000	56.493639 
4387.000000	51.161456 
4386.000000	46.681404 
4385.000000	43.862867 
4384.000000	43.054318 
4383.000000	44.129419 
4382.000000	46.604657 
4381.000000	49.796986 
4380.000000	53.122735 
4379.000000	56.166243 
4378.000000	58.712172 
4377.000000	60.753536 
4376.000000	62.281107 
4375.000000	63.368868 
4374.000000	64.072132 
4373.000000	64.465355 
4372.000000	64.683794 
4371.000000	64.840865 
4370.000000	65.048193 
4369.000000	65.351724 
4368.000000	65.735220 
4367.000000	66.135191 
4366.000000	66.476941 
4365.000000	66.701126 
4364.000000	66.799068 
4363.000000	66.784119 
4362.000000	66.689515 
4361.000000	66.544747 
4360.000000	66.367506 
4359.000000	66.173624 
4358.000000	65.974855 
4357.000000	65.797019 
4356.000000	65.670394 
4355.000000	65.610694 
4354.000000	65.619826 
4353.000000	65.690231 
4352.000000	65.803885 
4351.000000	65.935111 
4350.000000	66.057562 
4349.000000	66.144251 
4348.000000	66.178369 
4347.000000	66.164064 
4346.000000	66.115403 
4345.000000	66.041731 
4344.000000	65.954947 
4343.000000	65.869116 
4342.000000	65.793681 
4341.000000	65.732955 
4340.000000	65.686082 
4339.000000	65.649747 
4338.000000	65.617895 
4337.000000	65.584206 
4336.000000	65.543842 
4335.000000	65.494918 
4334.000000	65.436816 
4333.000000	65.370249 
4332.000000	65.296769 
4331.000000	65.218544 
4330.000000	65.138125 
4329.000000	65.058684 
4328.000000	64.983773 
4327.000000	64.918041 
4326.000000	64.866566 
4325.000000	64.834809 
4324.000000	64.826297 
4323.000000	64.842820 
4322.000000	64.882779 
4321.000000	64.942193 
4320.000000	65.014767 
4319.000000	65.093159 
4318.000000	65.169382 
4317.000000	65.236902 
4316.000000	65.291333 
4315.000000	65.331029 
4314.000000	65.356755 
4313.000000	65.371394 
4312.000000	65.378761 
4311.000000	65.383434 
4310.000000	65.389943 
4309.000000	65.401458 
4308.000000	65.419340 
4307.000000	65.443348 
4306.000000	65.471744 
4305.000000	65.501451 
4304.000000	65.528512 
4303.000000	65.549182 
4302.000000	65.560126 
4301.000000	65.559148 
4300.000000	65.545153 
4299.000000	65.518879 
4298.000000	65.482091 
4297.000000	65.437197 
4296.000000	65.386939 
4295.000000	65.334200 
4294.000000	65.281963 
4293.000000	65.233111 
4292.000000	65.190529 
4291.000000	65.156984 
4290.000000	65.134763 
4289.000000	65.125346 
4288.000000	65.129208 
4287.000000	65.144896 
4286.000000	65.170240 
4285.000000	65.202355 
4284.000000	65.238046 
4283.000000	65.273857 
4282.000000	65.306782 
4281.000000	65.334177 
4280.000000	65.353775 
4279.000000	65.363693 
4278.000000	65.362620 
4277.000000	65.350198 
4276.000000	65.327143 
4275.000000	65.295433 
4274.000000	65.258169 
4273.000000	65.219235 
4272.000000	65.182733 
4271.000000	65.152168 
4270.000000	65.129780 
4269.000000	65.116333 
4268.000000	65.110850 
4267.000000	65.111303 
4266.000000	65.114903 
4265.000000	65.119361 
4264.000000	65.123128 
4263.000000	65.125846 
4262.000000	65.128159 
4261.000000	65.131163 
4260.000000	65.135741 
4259.000000	65.141725 
4258.000000	65.147471 
4257.000000	65.150117 
4256.000000	65.146470 
4255.000000	65.133523 
4254.000000	65.109777 
4253.000000	65.075802 
4252.000000	65.034508 
4251.000000	64.990425 
4250.000000	64.948892 
4249.000000	64.914798 
4248.000000	64.891552 
4247.000000	64.880633 
4246.000000	64.881563 
4245.000000	64.892101 
4244.000000	64.908742 
4243.000000	64.927482 
4242.000000	64.944434 
4241.000000	64.956402 
4240.000000	64.961266 
4239.000000	64.957380 
4238.000000	64.944291 
4237.000000	64.922380 
4236.000000	64.893031 
4235.000000	64.858722 
4234.000000	64.822745 
4233.000000	64.788961 
4232.000000	64.761400 
4231.000000	64.743804 
4230.000000	64.738917 
4229.000000	64.748001 
4228.000000	64.770793 
4227.000000	64.805364 
4226.000000	64.848494 
4225.000000	64.895749 
4224.000000	64.941978 
4223.000000	64.981865 
4222.000000	65.010476 
4221.000000	65.024161 
4220.000000	65.020942 
4219.000000	65.001225 
4218.000000	64.968299 
4217.000000	64.927744 
4216.000000	64.886283 
4215.000000	64.850616 
4214.000000	64.826464 
4213.000000	64.816832 
4212.000000	64.821386 
4211.000000	64.836192 
4210.000000	64.855194 
4209.000000	64.871048 
4208.000000	64.877080 
4207.000000	64.869093 
4206.000000	64.845943 
4205.000000	64.810276 
4204.000000	64.767479 
4203.000000	64.724469 
4202.000000	64.687681 
4201.000000	64.661574 
4200.000000	64.647793 
4199.000000	64.644980 
4198.000000	64.649534 
4197.000000	64.657235 
4196.000000	64.664721 
4195.000000	64.670228 
4194.000000	64.674448 
4193.000000	64.679932 
4192.000000	64.690732 
4191.000000	64.709877 
4190.000000	64.739489 
4189.000000	64.779782 
4188.000000	64.829206 
4187.000000	64.885044 
4186.000000	64.943575 
4185.000000	65.001273 
4184.000000	65.054750 
4183.000000	65.101695 
4182.000000	65.139913 
4181.000000	65.167880 
4180.000000	65.184068 
4179.000000	65.187406 
4178.000000	65.176963 
4177.000000	65.152788 
4176.000000	65.115714 
4175.000000	65.068125 
4174.000000	65.013456 
4173.000000	64.956021 
4172.000000	64.900445 
4171.000000	64.850854 
4170.000000	64.809966 
4169.000000	64.778447 
4168.000000	64.755129 
4167.000000	64.737510 
4166.000000	64.722633 
4165.000000	64.708018 
4164.000000	64.692091 
4163.000000	64.674997 
4162.000000	64.657831 
4161.000000	64.643049 
4160.000000	64.632487 
4159.000000	64.627838 
4158.000000	64.629840 
4157.000000	64.638113 
4156.000000	64.651322 
4155.000000	64.667129 
4154.000000	64.682817 
4153.000000	64.695692 
4152.000000	64.703369 
4151.000000	64.704847 
4150.000000	64.700722 
4149.000000	64.693093 
4148.000000	64.685130 
4147.000000	64.680099 
4146.000000	64.680552 
4145.000000	64.687609 
4144.000000	64.700722 
4143.000000	64.717698 
4142.000000	64.735460 
4141.000000	64.751029 
4140.000000	64.762330 
4139.000000	64.768385 
4138.000000	64.769291 
4137.000000	64.766287 
4136.000000	64.760851 
4135.000000	64.754104 
4134.000000	64.746642 
4133.000000	64.738416 
4132.000000	64.729523 
4131.000000	64.720201 
4130.000000	64.711475 
4129.000000	64.705419 
4128.000000	64.704298 
4127.000000	64.710140 
4126.000000	64.723515 
4125.000000	64.743232 
4124.000000	64.766335 
4123.000000	64.788699 
4122.000000	64.805912 
4121.000000	64.814472 
4120.000000	64.812707 
4119.000000	64.801430 
4118.000000	64.783596 
4117.000000	64.763426 
4116.000000	64.745450 
4115.000000	64.733242 
4114.000000	64.728760 
4113.000000	64.732098 
4112.000000	64.741706 
4111.000000	64.755082 
4110.000000	64.769840 
4109.000000	64.784502 
4108.000000	64.798784 
4107.000000	64.813661 
4106.000000	64.830470 
4105.000000	64.850330 
4104.000000	64.873528 
4103.000000	64.899015 
4102.000000	64.924550 
4101.000000	64.946889 
4100.000000	64.963102 
4099.000000	64.970684 
4098.000000	64.968752 
4097.000000	64.957404 
4096.000000	64.938020 
4095.000000	64.912486 
4094.000000	64.883089 
4093.000000	64.852094 
4092.000000	64.821791 
4091.000000	64.794445 
4090.000000	64.772439 
4089.000000	64.758324 
4088.000000	64.754462 
4087.000000	64.762711 
4086.000000	64.783859 
4085.000000	64.816975 
4084.000000	64.859008 
4083.000000	64.905619 
4082.000000	64.950919 
4081.000000	64.988446 
4080.000000	65.012168 
4079.000000	65.017533 
4078.000000	65.002489 
4077.000000	64.967775 
4076.000000	64.917278 
4075.000000	64.857125 
4074.000000	64.794802 
4073.000000	64.738345 
4072.000000	64.694261 
4071.000000	64.667129 
4070.000000	64.658451 
4069.000000	64.666795 
4068.000000	64.687895 
4067.000000	64.715647 
4066.000000	64.743447 
4065.000000	64.765644 
4064.000000	64.778780 
4063.000000	64.782094 
4062.000000	64.777803 
4061.000000	64.770507 
4060.000000	64.766216 
4059.000000	64.770746 
4058.000000	64.788699 
4057.000000	64.821767 
4056.000000	64.868974 
4055.000000	64.925932 
4054.000000	64.986157 
4053.000000	65.042352 
4052.000000	65.087676 
4051.000000	65.117216 
4050.000000	65.128898 
4049.000000	65.123772 
4048.000000	65.105509 
4047.000000	65.079069 
4046.000000	65.049672 
4045.000000	65.021300 
4044.000000	64.996480 
4043.000000	64.975619 
4042.000000	64.957976 
4041.000000	64.942169 
4040.000000	64.927387 
4039.000000	64.913940 
4038.000000	64.903402 
4037.000000	64.898014 
4036.000000	64.899826 
4035.000000	64.909648 
4034.000000	64.926552 
4033.000000	64.947414 
4032.000000	64.967656 
4031.000000	64.982461 
4030.000000	64.988136 
4029.000000	64.983081 
4028.000000	64.968347 
4027.000000	64.947509 
4026.000000	64.925861 
4025.000000	64.908671 
4024.000000	64.900565 
4023.000000	64.904451 
4022.000000	64.920806 
4021.000000	64.947915 
4020.000000	64.981746 
4019.000000	65.017747 
4018.000000	65.050578 
4017.000000	65.075492 
4016.000000	65.088510 
4015.000000	65.087103 
4014.000000	65.070486 
4013.000000	65.039801 
4012.000000	64.998197 
4011.000000	64.950299 
4010.000000	64.902162 
4009.000000	64.860105 
4008.000000	64.829707 
4007.000000	64.814710 
4006.000000	64.816403 
4005.000000	64.833402 
4004.000000	64.862012 
4003.000000	64.897155 
4002.000000	64.933276 
4001.000000	64.965415 
4000.000000	64.990234 
3999.000000	65.006113 
3998.000000	65.012860 
3997.000000	65.011239 
3996.000000	65.002155 
3995.000000	64.986419 
3994.000000	64.964556 
3993.000000	64.936757 
3992.000000	64.903378 
3991.000000	64.865469 
3990.000000	64.825177 
3989.000000	64.785742 
3988.000000	64.751052 
3987.000000	64.725089 
3986.000000	64.710855 
3985.000000	64.710235 
3984.000000	64.723420 
3983.000000	64.748907 
3982.000000	64.783692 
3981.000000	64.823770 
3980.000000	64.864778 
3979.000000	64.902400 
3978.000000	64.933013 
3977.000000	64.953637 
3976.000000	64.962577 
3975.000000	64.959144 
3974.000000	64.944338 
3973.000000	64.920639 
3972.000000	64.891958 
3971.000000	64.863276 
3970.000000	64.839935 
3969.000000	64.826965 
3968.000000	64.827919 
3967.000000	64.844393 
3966.000000	64.875340 
3965.000000	64.917325 
3964.000000	64.965033 
3963.000000	65.012335 
3962.000000	65.053462 
3961.000000	65.083813 
3960.000000	65.101027 
3959.000000	65.105319 
3958.000000	65.098857 
3957.000000	65.085101 
3956.000000	65.068006 
3955.000000	65.051031 
3954.000000	65.036463 
3953.000000	65.025019 
3952.000000	65.016245 
3951.000000	65.008664 
3950.000000	65.000844 
3949.000000	64.991784 
3948.000000	64.981150 
3947.000000	64.969539 
3946.000000	64.958405 
3945.000000	64.949727 
3944.000000	64.945030 
3943.000000	64.945507 
3942.000000	64.950966 
3941.000000	64.960551 
3940.000000	64.972472 
3939.000000	64.984869 
3938.000000	64.995980 
3937.000000	65.004825 
3936.000000	65.011358 
3935.000000	65.016555 
3934.000000	65.021920 
3933.000000	65.029096 
3932.000000	65.039157 
3931.000000	65.052509 
3930.000000	65.068507 
3929.000000	65.085601 
3928.000000	65.101552 
3927.000000	65.113854 
3926.000000	65.120458 
3925.000000	65.119981 
3924.000000	65.112090 
3923.000000	65.097403 
3922.000000	65.077543 
3921.000000	65.054869 
3920.000000	65.032267 
3919.000000	65.012645 
3918.000000	64.998531 
3917.000000	64.992022 
3916.000000	64.994239 
3915.000000	65.005397 
3914.000000	65.024662 
3913.000000	65.050125 
3912.000000	65.079069 
3911.000000	65.108275 
3910.000000	65.134525 
3909.000000	65.155029 
3908.000000	65.168261 
3907.000000	65.174007 
3906.000000	65.173435 
3905.000000	65.168642 
3904.000000	65.162134 
3903.000000	65.156030 
3902.000000	65.151500 
3901.000000	65.148496 
3900.000000	65.146279 
3899.000000	65.143656 
3898.000000	65.139794 
3897.000000	65.134596 
3896.000000	65.129041 
3895.000000	65.124940 
3894.000000	65.124487 
3893.000000	65.129327 
3892.000000	65.140104 
3891.000000	65.155839 
3890.000000	65.174460 
3889.000000	65.192747 
3888.000000	65.207338 
3887.000000	65.215325 
3886.000000	65.215110 
3885.000000	65.206766 
3884.000000	65.191578 
3883.000000	65.172052 
3882.000000	65.151071 
3881.000000	65.131449 
3880.000000	65.115475 
3879.000000	65.104436 
3878.000000	65.098667 
3877.000000	65.097260 
3876.000000	65.098381 
3875.000000	65.099406 
3874.000000	65.097403 
3873.000000	65.089774 
3872.000000	65.074896 
3871.000000	65.052199 
3870.000000	65.022778 
3869.000000	64.989256 
3868.000000	64.955496 
3867.000000	64.926004 
3866.000000	64.904856 
3865.000000	64.895057 
3864.000000	64.897942 
3863.000000	64.912676 
3862.000000	64.936709 
3861.000000	64.966106 
3860.000000	64.996719 
3859.000000	65.024685 
3858.000000	65.047430 
3857.000000	65.063786 
3856.000000	65.074324 
3855.000000	65.080785 
3854.000000	65.085744 
3853.000000	65.091681 
3852.000000	65.100431 
3851.000000	65.112805 
3850.000000	65.127849 
3849.000000	65.143227 
3848.000000	65.155553 
3847.000000	65.161132 
3846.000000	65.156722 
3845.000000	65.140581 
3844.000000	65.112662 
3843.000000	65.075325 
3842.000000	65.032887 
3841.000000	64.990830 
3840.000000	64.954805 
3839.000000	64.929151 
3838.000000	64.916324 
3837.000000	64.915943 
3836.000000	64.925265 
3835.000000	64.940118 
3834.000000	64.956068 
3833.000000	64.969849 
3832.000000	64.979863 
3831.000000	64.986610 
3830.000000	64.992022 
3829.000000	64.998483 
3828.000000	65.007805 
3827.000000	65.020370 
3826.000000	65.034699 
3825.000000	65.047931 
3824.000000	65.056800 
3823.000000	65.058255 
3822.000000	65.050435 
3821.000000	65.033292 
3820.000000	65.008735 
3819.000000	64.979934 
3818.000000	64.950513 
3817.000000	64.923739 
3816.000000	64.901614 
3815.000000	64.884519 
3814.000000	64.871096 
3813.000000	64.859223 
3812.000000	64.846301 
3811.000000	64.829921 
3810.000000	64.808821 
3809.000000	64.782834 
3808.000000	64.753532 
3807.000000	64.723539 
3806.000000	64.696931 
3805.000000	64.677619 
3804.000000	64.669704 
3803.000000	64.676141 
3802.000000	64.698839 
3801.000000	64.737820 
3800.000000	64.791393 
3799.000000	64.856433 
3798.000000	64.928364 
3797.000000	65.001821 
3796.000000	65.070819 
3795.000000	65.129518 
3794.000000	65.173101 
3793.000000	65.198349 
3792.000000	65.204429 
3791.000000	65.192961 
3790.000000	65.168309 
3789.000000	65.136408 
3788.000000	65.103840 
3787.000000	65.075969 
3786.000000	65.056920 
3785.000000	65.047764 
3784.000000	65.046858 
3783.000000	65.050244 
3782.000000	65.053272 
3781.000000	65.051579 
3780.000000	65.042757 
3779.000000	65.026640 
3778.000000	65.005397 
3777.000000	64.982891 
3776.000000	64.963221 
3775.000000	64.949655 
3774.000000	64.943313 
3773.000000	64.943671 
3772.000000	64.948630 
3771.000000	64.955377 
3770.000000	64.961361 
3769.000000	64.964938 
3768.000000	64.965963 
3767.000000	64.965295 
3766.000000	64.964461 
3765.000000	64.965295 
3764.000000	64.969706 
3763.000000	64.978861 
3762.000000	64.993381 
3761.000000	65.013480 
3760.000000	65.039062 
3759.000000	65.069675 
3758.000000	65.104293 
3757.000000	65.141534 
3756.000000	65.179324 
3755.000000	65.215086 
3754.000000	65.246105 
3753.000000	65.269827 
3752.000000	65.284180 
3751.000000	65.288472 
3750.000000	65.282654 
3749.000000	65.267539 
3748.000000	65.244221 
3747.000000	65.214133 
3746.000000	65.178632 
3745.000000	65.139079 
3744.000000	65.097188 
3743.000000	65.055084 
3742.000000	65.015244 
3741.000000	64.980316 
3740.000000	64.952707 
3739.000000	64.934182 
3738.000000	64.925289 
3737.000000	64.925217 
3736.000000	64.931750 
3735.000000	64.941692 
3734.000000	64.951252 
3733.000000	64.957022 
3732.000000	64.956283 
3731.000000	64.948034 
3730.000000	64.932727 
3729.000000	64.912486 
3728.000000	64.890122 
3727.000000	64.868950 
3726.000000	64.852309 
3725.000000	64.842915 
3724.000000	64.842224 
3723.000000	64.850568 
3722.000000	64.867305 
3721.000000	64.890694 
3720.000000	64.918231 
3719.000000	64.947152 
3718.000000	64.974570 
3717.000000	64.998078 
3716.000000	65.015840 
3715.000000	65.027022 
3714.000000	65.031743 
3713.000000	65.031456 
3712.000000	65.028429 
3711.000000	65.025639 
3710.000000	65.025925 
3709.000000	65.031886 
3708.000000	65.045118 
3707.000000	65.065741 
3706.000000	65.092253 
3705.000000	65.121984 
3704.000000	65.151166 
3703.000000	65.175890 
3702.000000	65.192389 
3701.000000	65.198040 
3700.000000	65.191459 
3699.000000	65.173220 
3698.000000	65.145254 
3697.000000	65.110778 
3696.000000	65.073537 
3695.000000	65.037441 
3694.000000	65.005731 
3693.000000	64.980745 
3692.000000	64.963531 
3691.000000	64.954113 
3690.000000	64.951229 
3689.000000	64.952874 
3688.000000	64.956617 
3687.000000	64.960098 
3686.000000	64.961314 
3685.000000	64.959144 
3684.000000	64.953565 
3683.000000	64.945697 
3682.000000	64.937543 
3681.000000	64.931583 
3680.000000	64.929938 
3679.000000	64.933824 
3678.000000	64.943122 
3677.000000	64.956164 
3676.000000	64.969825 
3675.000000	64.980196 
3674.000000	64.983534 
3673.000000	64.977192 
3672.000000	64.960551 
3671.000000	64.934778 
3670.000000	64.902997 
3669.000000	64.868950 
3668.000000	64.836263 
3667.000000	64.807462 
3666.000000	64.783334 
3665.000000	64.763140 
3664.000000	64.745140 
3663.000000	64.727497 
3662.000000	64.709401 
3661.000000	64.691472 
3660.000000	64.675736 
3659.000000	64.665079 
3658.000000	64.662671 
3657.000000	64.670586 
3656.000000	64.689564 
3655.000000	64.718198 
3654.000000	64.753651 
3653.000000	64.792275 
3652.000000	64.830279 
3651.000000	64.864850 
3650.000000	64.894247 
3649.000000	64.918088 
3648.000000	64.936590 
3647.000000	64.950275 
3646.000000	64.959645 
3645.000000	64.964866 
3644.000000	64.965534 
3643.000000	64.961576 
3642.000000	64.952802 
3641.000000	64.939618 
3640.000000	64.922857 
3639.000000	64.904260 
3638.000000	64.885878 
3637.000000	64.869809 
3636.000000	64.858102 
3635.000000	64.852237 
3634.000000	64.852809 
3633.000000	64.859485 
3632.000000	64.871025 
3631.000000	64.885640 
3630.000000	64.901375 
3629.000000	64.916539 
3628.000000	64.929938 
3627.000000	64.940953 
3626.000000	64.949631 
3625.000000	64.956426 
3624.000000	64.961910 
3623.000000	64.966249 
3622.000000	64.969253 
3621.000000	64.970207 
3620.000000	64.967966 
3619.000000	64.961743 
3618.000000	64.951539 
3617.000000	64.938545 
3616.000000	64.925003 
3615.000000	64.913892 
3614.000000	64.908146 
3613.000000	64.909934 
3612.000000	64.919972 
3611.000000	64.937138 
3610.000000	64.958834 
3609.000000	64.981245 
3608.000000	65.000367 
3607.000000	65.012717 
3606.000000	65.016031 
3605.000000	65.009808 
3604.000000	64.995169 
3603.000000	64.974832 
3602.000000	64.952421 
3601.000000	64.931726 
3600.000000	64.915752 
3599.000000	64.906525 
3598.000000	64.904379 
3597.000000	64.908194 
3596.000000	64.915728 
3595.000000	64.924359 
3594.000000	64.931702 
3593.000000	64.936184 
3592.000000	64.937543 
3591.000000	64.936614 
3590.000000	64.935374 
3589.000000	64.936184 
3588.000000	64.941048 
3587.000000	64.950895 
3586.000000	64.965152 
3585.000000	64.982128 
3584.000000	64.999055 
3583.000000	65.013098 
3582.000000	65.021800 
3581.000000	65.023970 
3580.000000	65.019536 
3579.000000	65.009570 
3578.000000	64.995718 
3577.000000	64.980006 
3576.000000	64.964103 
3575.000000	64.949083 
3574.000000	64.935469 
3573.000000	64.923167 
3572.000000	64.911532 
3571.000000	64.899706 
3570.000000	64.886903 
3569.000000	64.873123 
3568.000000	64.858865 
3567.000000	64.845728 
3566.000000	64.835619 
3565.000000	64.831113 
3564.000000	64.834523 
3563.000000	64.847636 
3562.000000	64.870715 
3561.000000	64.902496 
3560.000000	64.940047 
3559.000000	64.979314 
3558.000000	65.015625 
3557.000000	65.044665 
3556.000000	65.063500 
3555.000000	65.071082 
3554.000000	65.068387 
3553.000000	65.058302 
3552.000000	65.044784 
3551.000000	65.032076 
3550.000000	65.023875 
3549.000000	65.022492 
3548.000000	65.028595 
3547.000000	65.041589 
3546.000000	65.059590 
3545.000000	65.079951 
3544.000000	65.099430 
3543.000000	65.114998 
3542.000000	65.123915 
3541.000000	65.124011 
3540.000000	65.113949 
3539.000000	65.093231 
3538.000000	65.062785 
3537.000000	65.024948 
3536.000000	64.983224 
3535.000000	64.941883 
3534.000000	64.905285 
3533.000000	64.877295 
3532.000000	64.860057 
3531.000000	64.853668 
3530.000000	64.856076 
3529.000000	64.863657 
3528.000000	64.872169 
3527.000000	64.877796 
3526.000000	64.878344 
3525.000000	64.873766 
3524.000000	64.866495 
3523.000000	64.860630 
3522.000000	64.860677 
3521.000000	64.870190 
3520.000000	64.890766 
3519.000000	64.921450 
3518.000000	64.959001 
3517.000000	64.998126 
3516.000000	65.033388 
3515.000000	65.059709 
3514.000000	65.073823 
3513.000000	65.074300 
3512.000000	65.061759 
3511.000000	65.038037 
3510.000000	65.005898 
3509.000000	64.968061 
3508.000000	64.926838 
3507.000000	64.883971 
3506.000000	64.840674 
3505.000000	64.798665 
3504.000000	64.760112 
3503.000000	64.728617 
3502.000000	64.708590 
3501.000000	64.705181 
3500.000000	64.722681 
3499.000000	64.764094 
3498.000000	64.829730 
3497.000000	64.916467 
3496.000000	65.017747 
3495.000000	65.124273 
3494.000000	65.225315 
3493.000000	65.310430 
3492.000000	65.371322 
3491.000000	65.403437 
3490.000000	65.406441 
3489.000000	65.384387 
3488.000000	65.344023 
3487.000000	65.293407 
3486.000000	65.239930 
3485.000000	65.189433 
3484.000000	65.145325 
3483.000000	65.109372 
3482.000000	65.081739 
3481.000000	65.062689 
3480.000000	65.052008 
3479.000000	65.049505 
3478.000000	65.054321 
3477.000000	65.064883 
3476.000000	65.078473 
3475.000000	65.091109 
3474.000000	65.098571 
3473.000000	65.096950 
3472.000000	65.084242 
3471.000000	65.060901 
3470.000000	65.030074 
3469.000000	64.996862 
3468.000000	64.967203 
3467.000000	64.946556 
3466.000000	64.938211 
3465.000000	64.942717 
3464.000000	64.958357 
3463.000000	64.981579 
3462.000000	65.007853 
3461.000000	65.033030 
3460.000000	65.054202 
3459.000000	65.070509 
3458.000000	65.082097 
3457.000000	65.090823 
3456.000000	65.099096 
3455.000000	65.109443 
3454.000000	65.124368 
3453.000000	65.144777 
3452.000000	65.170264 
3451.000000	65.198349 
3450.000000	65.225720 
3449.000000	65.247607 
3448.000000	65.259122 
3447.000000	65.255928 
3446.000000	65.235519 
3445.000000	65.197801 
3444.000000	65.145349 
3443.000000	65.083336 
3442.000000	65.018725 
3441.000000	64.958810 
3440.000000	64.909768 
3439.000000	64.875578 
3438.000000	64.857435 
3437.000000	64.853501 
3436.000000	64.859795 
3435.000000	64.871096 
3434.000000	64.882588 
3433.000000	64.890408 
3432.000000	64.892482 
3431.000000	64.888405 
3430.000000	64.879298 
3429.000000	64.867353 
3428.000000	64.855146 
3427.000000	64.844632 
3426.000000	64.837288 
3425.000000	64.833807 
3424.000000	64.834356 
3423.000000	64.838814 
3422.000000	64.846944 
3421.000000	64.858722 
3420.000000	64.874362 
3419.000000	64.893984 
3418.000000	64.917755 
3417.000000	64.945530 
3416.000000	64.976787 
3415.000000	65.010499 
3414.000000	65.045261 
3413.000000	65.079236 
3412.000000	65.110659 
3411.000000	65.137887 
3410.000000	65.159654 
3409.000000	65.174961 
3408.000000	65.183854 
3407.000000	65.186762 
3406.000000	65.184640 
3405.000000	65.178394 
3404.000000	65.169358 
3403.000000	65.158581 
3402.000000	65.147137 
3401.000000	65.135693 
3400.000000	65.124607 
3399.000000	65.113759 
3398.000000	65.102958 
3397.000000	65.091848 
3396.000000	65.080142 
3395.000000	65.067982 
3394.000000	65.055680 
3393.000000	65.044140 
3392.000000	65.034580 
3391.000000	65.028190 
3390.000000	65.025854 
3389.000000	65.027737 
3388.000000	65.033173 
3387.000000	65.040540 
3386.000000	65.047693 
3385.000000	65.052270 
3384.000000	65.052485 
3383.000000	65.047717 
3382.000000	65.038609 
3381.000000	65.027165 
3380.000000	65.015649 
3379.000000	65.006470 
3378.000000	65.000844 
3377.000000	64.998507 
3376.000000	64.997577 
3375.000000	64.995312 
3374.000000	64.988899 
3373.000000	64.976263 
3372.000000	64.957284 
3371.000000	64.933776 
3370.000000	64.909672 
3369.000000	64.889860 
3368.000000	64.879393 
3367.000000	64.882016 
3366.000000	64.899444 
3365.000000	64.930820 
3364.000000	64.972925 
3363.000000	65.020847 
3362.000000	65.069055 
3361.000000	65.112543 
3360.000000	65.147471 
3359.000000	65.171766 
3358.000000	65.185046 
3357.000000	65.188193 
3356.000000	65.182995 
3355.000000	65.171265 
3354.000000	65.154838 
3353.000000	65.135002 
3352.000000	65.112781 
3351.000000	65.088534 
3350.000000	65.063095 
3349.000000	65.037298 
3348.000000	65.012550 
3347.000000	64.990353 
3346.000000	64.972281 
3345.000000	64.959621 
3344.000000	64.952802 
3343.000000	64.951443 
3342.000000	64.954304 
3341.000000	64.959836 
3340.000000	64.966487 
3339.000000	64.973306 
3338.000000	64.979982 
3337.000000	64.986777 
3336.000000	64.994192 
3335.000000	65.002536 
3334.000000	65.011644 
3333.000000	65.020632 
3332.000000	65.028309 
3331.000000	65.033125 
3330.000000	65.033864 
3329.000000	65.030455 
3328.000000	65.023994 
3327.000000	65.016603 
3326.000000	65.010809 
3325.000000	65.009069 
3324.000000	65.012574 
3323.000000	65.021467 
3322.000000	65.034127 
3321.000000	65.048027 
3320.000000	65.059971 
3319.000000	65.067291 
3318.000000	65.068125 
3317.000000	65.061831 
3316.000000	65.049028 
3315.000000	65.031433 
3314.000000	65.011501 
3313.000000	64.991831 
3312.000000	64.974904 
3311.000000	64.962697 
3310.000000	64.956450 
3309.000000	64.956450 
3308.000000	64.962029 
3307.000000	64.971756 
3306.000000	64.983415 
3305.000000	64.994621 
3304.000000	65.002942 
3303.000000	65.006566 
3302.000000	65.004539 
3301.000000	64.997172 
3300.000000	64.985895 
3299.000000	64.972972 
3298.000000	64.960885 
3297.000000	64.951705 
3296.000000	64.946794 
3295.000000	64.946150 
3294.000000	64.948678 
3293.000000	64.952588 
3292.000000	64.955830 
3291.000000	64.956617 
3290.000000	64.953804 
3289.000000	64.947342 
3288.000000	64.938020 
3287.000000	64.927601 
3286.000000	64.918065 
3285.000000	64.911460 
3284.000000	64.909315 
3283.000000	64.912271 
3282.000000	64.920043 
3281.000000	64.931464 
3280.000000	64.944720 
3279.000000	64.957690 
3278.000000	64.968347 
3277.000000	64.975261 
3276.000000	64.977669 
3275.000000	64.975857 
3274.000000	64.970755 
3273.000000	64.963698 
3272.000000	64.956235 
3271.000000	64.949321 
3270.000000	64.943289 
3269.000000	64.937806 
3268.000000	64.931941 
3267.000000	64.924788 
3266.000000	64.915871 
3265.000000	64.905428 
3264.000000	64.894604 
3263.000000	64.885210 
3262.000000	64.879202 
3261.000000	64.878153 
3260.000000	64.882922 
3259.000000	64.893102 
3258.000000	64.907264 
3257.000000	64.923024 
3256.000000	64.937925 
3255.000000	64.950013 
3254.000000	64.958190 
3253.000000	64.962625 
3252.000000	64.964604 
3251.000000	64.966082 
3250.000000	64.969253 
3249.000000	64.975571 
3248.000000	64.985847 
3247.000000	64.999580 
3246.000000	65.015363 
3245.000000	65.031218 
3244.000000	65.045142 
3243.000000	65.055418 
3242.000000	65.061259 
3241.000000	65.062594 
3240.000000	65.060210 
3239.000000	65.055418 
3238.000000	65.049648 
3237.000000	65.044140 
3236.000000	65.039658 
3235.000000	65.036201 
3234.000000	65.033340 
3233.000000	65.030336 
3232.000000	65.026450 
3231.000000	65.020895 
3230.000000	65.013170 
3229.000000	65.003061 
3228.000000	64.990687 
3227.000000	64.976334 
3226.000000	64.960622 
3225.000000	64.944362 
3224.000000	64.928865 
3223.000000	64.915609 
3222.000000	64.906215 
3221.000000	64.902114 
3220.000000	64.904427 
3219.000000	64.913272 
3218.000000	64.927935 
3217.000000	64.946627 
3216.000000	64.967203 
3215.000000	64.986991 
3214.000000	65.003991 
3213.000000	65.016794 
3212.000000	65.025138 
3211.000000	65.029835 
3210.000000	65.031957 
3209.000000	65.032625 
3208.000000	65.032339 
3207.000000	65.030765 
3206.000000	65.026664 
3205.000000	65.018343 
3204.000000	65.004324 
3203.000000	64.984107 
3202.000000	64.958453 
3201.000000	64.929628 
3200.000000	64.901018 
3199.000000	64.876484 
3198.000000	64.859294 
3197.000000	64.851522 
3196.000000	64.853405 
3195.000000	64.863467 
3194.000000	64.878630 
3193.000000	64.895319 
3192.000000	64.910006 
3191.000000	64.920282 
3190.000000	64.924883 
3189.000000	64.924335 
3188.000000	64.919948 
3187.000000	64.913845 
3186.000000	64.908218 
3185.000000	64.904785 
3184.000000	64.904522 
3183.000000	64.907526 
3182.000000	64.913201 
3181.000000	64.920401 
3180.000000	64.928007 
3179.000000	64.935088 
3178.000000	64.941096 
3177.000000	64.946103 
3176.000000	64.950513 
3175.000000	64.954996 
3174.000000	64.960193 
3173.000000	64.966559 
3172.000000	64.974141 
3171.000000	64.982509 
3170.000000	64.990615 
3169.000000	64.997243 
3168.000000	65.001058 
3167.000000	65.001010 
3166.000000	64.996528 
3165.000000	64.987826 
3164.000000	64.975881 
3163.000000	64.962029 
3162.000000	64.947891 
3161.000000	64.935040 
3160.000000	64.924883 
3159.000000	64.918494 
3158.000000	64.916443 
3157.000000	64.918923 
3156.000000	64.925599 
3155.000000	64.935684 
3154.000000	64.948081 
3153.000000	64.961433 
3152.000000	64.974308 
3151.000000	64.985108 
3150.000000	64.992594 
3149.000000	64.995932 
3148.000000	64.994907 
3147.000000	64.989900 
3146.000000	64.981842 
3145.000000	64.972019 
3144.000000	64.961624 
3143.000000	64.951705 
3142.000000	64.942717 
3141.000000	64.934825 
3140.000000	64.928197 
3139.000000	64.923167 
3138.000000	64.920473 
3137.000000	64.921140 
3136.000000	64.926195 
3135.000000	64.936447 
3134.000000	64.951801 
3133.000000	64.971160 
3132.000000	64.992332 
3131.000000	65.012407 
3130.000000	65.028262 
3129.000000	65.037441 
3128.000000	65.038633 
3127.000000	65.032148 
3126.000000	65.019893 
3125.000000	65.005111 
3124.000000	64.991641 
3123.000000	64.983105 
3122.000000	64.982104 
3121.000000	64.989614 
3120.000000	65.004873 
3119.000000	65.025544 
3118.000000	65.048098 
3117.000000	65.068578 
3116.000000	65.083169 
3115.000000	65.089058 
3114.000000	65.084958 
3113.000000	65.071368 
3112.000000	65.050649 
3111.000000	65.026378 
3110.000000	65.002775 
3109.000000	64.983916 
3108.000000	64.972829 
3107.000000	64.971065 
3106.000000	64.978051 
3105.000000	64.991664 
3104.000000	65.008473 
3103.000000	65.024471 
3102.000000	65.036296 
3101.000000	65.041661 
3100.000000	65.040135 
3099.000000	65.032815 
3098.000000	65.022277 
3097.000000	65.011882 
3096.000000	65.004897 
3095.000000	65.003824 
3094.000000	65.010046 
3093.000000	65.023422 
3092.000000	65.042614 
3091.000000	65.065240 
3090.000000	65.088415 
3089.000000	65.109086 
3088.000000	65.124607 
3087.000000	65.132975 
3086.000000	65.133213 
3085.000000	65.125417 
3084.000000	65.110707 
3083.000000	65.090990 
3082.000000	65.068745 
3081.000000	65.046501 
3080.000000	65.026617 
3079.000000	65.010738 
3078.000000	64.999747 
3077.000000	64.993619 
3076.000000	64.991641 
3075.000000	64.992594 
3074.000000	64.995098 
3073.000000	64.998006 
3072.000000	65.000343 
3071.000000	65.001678 
3070.000000	65.002036 
3069.000000	65.001654 
3068.000000	65.000677 
3067.000000	64.999294 
3066.000000	64.997458 
3065.000000	64.995002 
3064.000000	64.991807 
3063.000000	64.987754 
3062.000000	64.982891 
3061.000000	64.977407 
3060.000000	64.971733 
3059.000000	64.966559 
3058.000000	64.962244 
3057.000000	64.959192 
3056.000000	64.957261 
3055.000000	64.955830 
3054.000000	64.953994 
3053.000000	64.950585 
3052.000000	64.944767 
3051.000000	64.935851 
3050.000000	64.923977 
3049.000000	64.909911 
3048.000000	64.894914 
3047.000000	64.880323 
3046.000000	64.867377 
3045.000000	64.856886 
3044.000000	64.848971 
3043.000000	64.843225 
3042.000000	64.838862 
3041.000000	64.835095 
3040.000000	64.831566 
3039.000000	64.828419 
3038.000000	64.826345 
3037.000000	64.826321 
3036.000000	64.829277 
3035.000000	64.835548 
3034.000000	64.844846 
3033.000000	64.856219 
3032.000000	64.868259 
3031.000000	64.879679 
3030.000000	64.889669 
3029.000000	64.898061 
3028.000000	64.905333 
3027.000000	64.912390 
3026.000000	64.920234 
3025.000000	64.929533 
3024.000000	64.940214 
3023.000000	64.951610 
3022.000000	64.962458 
3021.000000	64.971423 
3020.000000	64.977359 
3019.000000	64.979624 
3018.000000	64.978408 
3017.000000	64.974689 
3016.000000	64.969921 
3015.000000	64.965701 
3014.000000	64.963388 
3013.000000	64.963936 
3012.000000	64.967656 
3011.000000	64.974331 
3010.000000	64.983224 
3009.000000	64.993166 
3008.000000	65.002727 
3007.000000	65.010499 
3006.000000	65.015292 
3005.000000	65.016293 
3004.000000	65.013217 
3003.000000	65.006399 
3002.000000	64.996743 
3001.000000	64.985728 
3000.000000	64.975047 
2999.000000	64.966297 
2998.000000	64.960670 
2997.000000	64.959073 
2996.000000	64.961528 
2995.000000	64.967465 
2994.000000	64.975571 
2993.000000	64.984202 
2992.000000	64.991474 
2991.000000	64.995574 
2990.000000	64.995121 
2989.000000	64.989447 
2988.000000	64.978551 
2987.000000	64.963197 
2986.000000	64.944958 
2985.000000	64.926028 
2984.000000	64.908885 
2983.000000	64.895939 
2982.000000	64.889264 
2981.000000	64.890313 
2980.000000	64.899468 
2979.000000	64.916086 
2978.000000	64.938449 
2977.000000	64.963960 
2976.000000	64.989423 
2975.000000	65.011525 
2974.000000	65.027046 
2973.000000	65.033411 
2972.000000	65.029001 
2971.000000	65.013599 
2970.000000	64.988374 
2969.000000	64.955735 
2968.000000	64.919328 
2967.000000	64.883136 
2966.000000	64.850759 
2965.000000	64.824938 
2964.000000	64.807248 
2963.000000	64.797830 
2962.000000	64.795446 
2961.000000	64.798092 
2960.000000	64.803123 
2959.000000	64.808058 
2958.000000	64.811062 
2957.000000	64.810800 
2956.000000	64.806962 
2955.000000	64.799976 
2954.000000	64.791107 
2953.000000	64.781904 
2952.000000	64.773988 
2951.000000	64.768981 
2950.000000	64.767813 
2949.000000	64.770960 
2948.000000	64.778017 
2947.000000	64.787864 
2946.000000	64.799308 
2945.000000	64.810609 
2944.000000	64.820885 
2943.000000	64.829730 
2942.000000	64.837837 
2941.000000	64.846801 
2940.000000	64.858579 
2939.000000	64.874911 
2938.000000	64.896774 
2937.000000	64.924049 
2936.000000	64.954924 
2935.000000	64.986205 
2934.000000	65.013885 
2933.000000	65.034055 
2932.000000	65.043306 
2931.000000	65.039515 
2930.000000	65.022158 
2929.000000	64.992547 
2928.000000	64.953041 
2927.000000	64.906644 
2926.000000	64.856815 
2925.000000	64.806699 
2924.000000	64.758920 
2923.000000	64.715600 
2922.000000	64.678454 
2921.000000	64.648938 
2920.000000	64.628124 
2919.000000	64.616799 
2918.000000	64.615082 
2917.000000	64.622688 
2916.000000	64.638447 
2915.000000	64.660644 
2914.000000	64.686727 
2913.000000	64.714002 
2912.000000	64.739847 
2911.000000	64.761924 
2910.000000	64.778614 
2909.000000	64.789009 
2908.000000	64.793157 
2907.000000	64.791893 
2906.000000	64.786577 
2905.000000	64.779019 
2904.000000	64.771294 
2903.000000	64.765548 
2902.000000	64.763641 
2901.000000	64.766979 
2900.000000	64.776277 
2899.000000	64.791512 
2898.000000	64.811587 
2897.000000	64.834618 
2896.000000	64.857935 
2895.000000	64.878869 
2894.000000	64.894986 
2893.000000	64.904475 
2892.000000	64.906430 
2891.000000	64.901328 
2890.000000	64.890599 
2889.000000	64.876317 
2888.000000	64.860677 
2887.000000	64.845705 
2886.000000	64.832901 
2885.000000	64.823174 
2884.000000	64.816832 
2883.000000	64.813661 
2882.000000	64.813566 
2881.000000	64.816498 
2880.000000	64.822602 
2879.000000	64.831948 
2878.000000	64.844441 
2877.000000	64.859676 
2876.000000	64.876675 
2875.000000	64.894127 
2874.000000	64.910411 
2873.000000	64.923954 
2872.000000	64.933609 
2871.000000	64.938759 
2870.000000	64.939475 
2869.000000	64.936375 
2868.000000	64.930391 
2867.000000	64.922714 
2866.000000	64.914608 
2865.000000	64.907169 
2864.000000	64.901423 
2863.000000	64.898061 
2862.000000	64.897441 
2861.000000	64.899325 
2860.000000	64.903163 
2859.000000	64.907813 
2858.000000	64.911603 
2857.000000	64.912796 
2856.000000	64.909934 
2855.000000	64.902234 
2854.000000	64.889693 
2853.000000	64.873433 
2852.000000	64.855360 
2851.000000	64.837884 
2850.000000	64.823460 
2849.000000	64.813780 
2848.000000	64.809584 
2847.000000	64.810395 
2846.000000	64.814925 
2845.000000	64.821171 
2844.000000	64.827227 
2843.000000	64.831781 
2842.000000	64.834427 
2841.000000	64.835643 
2840.000000	64.837026 
2839.000000	64.840555 
2838.000000	64.848494 
2837.000000	64.862465 
2836.000000	64.883446 
2835.000000	64.911317 
2834.000000	64.945125 
2833.000000	64.983129 
2832.000000	65.022969 
2831.000000	65.062069 
2830.000000	65.097808 
2829.000000	65.127801 
2828.000000	65.149974 
2827.000000	65.162754 
2826.000000	65.165281 
2825.000000	65.157580 
2824.000000	65.140652 
2823.000000	65.116500 
2822.000000	65.087985 
2821.000000	65.058684 
2820.000000	65.032267 
2819.000000	65.012073 
2818.000000	65.000438 
2817.000000	64.998221 
2816.000000	65.004730 
2815.000000	65.017747 
2814.000000	65.033984 
2813.000000	65.049910 
2812.000000	65.062570 
2811.000000	65.070223 
2810.000000	65.072369 
2809.000000	65.069723 
2808.000000	65.063714 
2807.000000	65.055847 
2806.000000	65.047216 
2805.000000	65.038275 
2804.000000	65.028858 
2803.000000	65.018630 
2802.000000	65.007424 
2801.000000	64.995527 
2800.000000	64.984011 
2799.000000	64.974403 
2798.000000	64.968204 
2797.000000	64.966392 
2796.000000	64.969134 
2795.000000	64.975500 
2794.000000	64.983749 
2793.000000	64.991712 
2792.000000	64.997506 
2791.000000	65.000081 
2790.000000	64.999294 
2789.000000	64.995741 
2788.000000	64.990472 
2787.000000	64.984536 
2786.000000	64.978814 
2785.000000	64.973592 
2784.000000	64.969038 
2783.000000	64.965152 
2782.000000	64.962124 
2781.000000	64.960527 
2780.000000	64.961099 
2779.000000	64.964604 
2778.000000	64.971542 
2777.000000	64.982008 
2776.000000	64.995527 
2775.000000	65.011024 
2774.000000	65.027165 
2773.000000	65.042614 
2772.000000	65.056467 
2771.000000	65.068316 
2770.000000	65.078210 
2769.000000	65.086555 
2768.000000	65.093636 
2767.000000	65.099525 
2766.000000	65.103721 
2765.000000	65.105414 
2764.000000	65.103602 
2763.000000	65.097594 
2762.000000	65.087318 
2761.000000	65.073513 
2760.000000	65.057802 
2759.000000	65.042424 
2758.000000	65.029835 
2757.000000	65.021991 
2756.000000	65.020203 
2755.000000	65.024399 
2754.000000	65.033411 
2753.000000	65.045046 
2752.000000	65.056777 
2751.000000	65.066218 
2750.000000	65.071725 
2749.000000	65.072607 
2748.000000	65.069222 
2747.000000	65.062808 
2746.000000	65.055108 
2745.000000	65.047812 
2744.000000	65.042209 
2743.000000	65.038800 
2742.000000	65.037345 
2741.000000	65.037035 
2740.000000	65.036845 
2739.000000	65.035915 
2738.000000	65.034031 
2737.000000	65.031433 
2736.000000	65.028953 
2735.000000	65.027666 
2734.000000	65.028548 
2733.000000	65.031957 
2732.000000	65.037894 
2731.000000	65.045809 
2730.000000	65.055084 
2729.000000	65.064954 
2728.000000	65.074801 
2727.000000	65.084314 
2726.000000	65.093350 
2725.000000	65.101671 
2724.000000	65.109109 
2723.000000	65.115404 
2722.000000	65.120434 
2721.000000	65.124034 
2720.000000	65.126252 
2719.000000	65.127635 
2718.000000	65.128827 
2717.000000	65.130686 
2716.000000	65.133905 
2715.000000	65.138769 
2714.000000	65.145039 
2713.000000	65.151906 
2712.000000	65.158176 
2711.000000	65.162467 
2710.000000	65.163707 
2709.000000	65.161228 
2708.000000	65.154981 
2707.000000	65.145325 
2706.000000	65.133023 
2705.000000	65.118789 
2704.000000	65.103101 
2703.000000	65.086030 
2702.000000	65.067434 
2701.000000	65.046858 
2700.000000	65.023994 
2699.000000	64.999032 
2698.000000	64.972686 
2697.000000	64.946413 
2696.000000	64.922285 
2695.000000	64.902615 
2694.000000	64.889383 
2693.000000	64.883995 
2692.000000	64.886832 
2691.000000	64.897131 
2690.000000	64.913225 
2689.000000	64.932751 
2688.000000	64.953303 
2687.000000	64.972734 
2686.000000	64.989686 
2685.000000	65.003442 
2684.000000	65.014028 
2683.000000	65.021920 
2682.000000	65.027618 
2681.000000	65.031504 
2680.000000	65.033483 
2679.000000	65.033316 
2678.000000	65.030527 
2677.000000	65.025091 
2676.000000	65.017318 
2675.000000	65.008211 
2674.000000	64.999103 
2673.000000	64.991426 
2672.000000	64.986252 
2671.000000	64.984202 
2670.000000	64.985156 
2669.000000	64.988327 
2668.000000	64.992713 
2667.000000	64.997291 
2666.000000	65.001344 
2665.000000	65.004467 
2664.000000	65.006494 
2663.000000	65.007686 
2662.000000	65.008354 
2661.000000	65.008711 
2660.000000	65.008902 
2659.000000	65.008974 
2658.000000	65.008950 
2657.000000	65.008854 
2656.000000	65.008735 
2655.000000	65.008640 
2654.000000	65.008401 
2653.000000	65.007710 
2652.000000	65.005850 
2651.000000	65.002036 
2650.000000	64.995360 
2649.000000	64.985609 
2648.000000	64.973068 
2647.000000	64.959287 
2646.000000	64.946532 
2645.000000	64.937734 
2644.000000	64.935779 
2643.000000	64.942836 
2642.000000	64.959883 
2641.000000	64.986085 
2640.000000	65.019035 
2639.000000	65.054798 
2638.000000	65.088844 
2637.000000	65.116763 
2636.000000	65.135192 
2635.000000	65.142583 
2634.000000	65.139269 
2633.000000	65.127301 
2632.000000	65.109872 
2631.000000	65.090441 
2630.000000	65.071988 
2629.000000	65.056562 
2628.000000	65.045166 
2627.000000	65.038013 
2626.000000	65.034723 
2625.000000	65.035128 
2624.000000	65.039038 
2623.000000	65.046501 
2622.000000	65.057373 
2621.000000	65.071010 
2620.000000	65.086030 
2619.000000	65.100359 
2618.000000	65.111541 
2617.000000	65.117287 
2616.000000	65.116071 
2615.000000	65.107774 
2614.000000	65.093779 
2613.000000	65.076756 
2612.000000	65.060067 
2611.000000	65.046882 
2610.000000	65.039587 
2609.000000	65.039038 
2608.000000	65.044736 
2607.000000	65.054941 
2606.000000	65.067243 
2605.000000	65.079164 
2604.000000	65.088677 
2603.000000	65.094566 
2602.000000	65.096211 
2601.000000	65.093827 
2600.000000	65.087866 
2599.000000	65.078997 
2598.000000	65.068054 
2597.000000	65.055966 
2596.000000	65.043592 
2595.000000	65.032148 
2594.000000	65.022921 
2593.000000	65.017199 
2592.000000	65.015983 
2591.000000	65.019965 
2590.000000	65.029096 
2589.000000	65.042734 
2588.000000	65.059614 
2587.000000	65.078091 
2586.000000	65.096211 
2585.000000	65.112233 
2584.000000	65.124773 
2583.000000	65.132856 
2582.000000	65.136051 
2581.000000	65.134477 
2580.000000	65.128803 
2579.000000	65.120077 
2578.000000	65.109872 
2577.000000	65.099930 
2576.000000	65.092015 
2575.000000	65.087652 
2574.000000	65.087652 
2573.000000	65.092086 
2572.000000	65.100026 
2571.000000	65.109658 
2570.000000	65.118718 
2569.000000	65.125203 
2568.000000	65.127635 
2567.000000	65.125751 
2566.000000	65.120458 
2565.000000	65.113401 
2564.000000	65.106415 
2563.000000	65.101313 
2562.000000	65.098977 
2561.000000	65.099239 
2560.000000	65.100836 
2559.000000	65.101909 
2558.000000	65.100526 
2557.000000	65.095138 
2556.000000	65.085101 
2555.000000	65.070724 
2554.000000	65.053415 
2553.000000	65.035367 
2552.000000	65.018796 
2551.000000	65.005421 
2550.000000	64.996480 
2549.000000	64.992237 
2548.000000	64.992117 
2547.000000	64.994835 
2546.000000	64.998769 
2545.000000	65.002584 
2544.000000	65.005183 
2543.000000	65.006208 
2542.000000	65.005731 
2541.000000	65.004682 
2540.000000	65.004014 
2539.000000	65.004897 
2538.000000	65.008425 
2537.000000	65.015435 
2536.000000	65.026140 
2535.000000	65.040111 
2534.000000	65.056467 
2533.000000	65.073752 
2532.000000	65.090346 
2531.000000	65.104603 
2530.000000	65.115189 
2529.000000	65.121316 
2528.000000	65.122723 
2527.000000	65.119528 
2526.000000	65.112113 
2525.000000	65.100979 
2524.000000	65.086793 
2523.000000	65.070724 
2522.000000	65.054202 
2521.000000	65.039157 
2520.000000	65.027689 
2519.000000	65.021562 
2518.000000	65.021610 
2517.000000	65.027618 
2516.000000	65.038037 
2515.000000	65.050244 
2514.000000	65.061211 
2513.000000	65.067958 
2512.000000	65.068483 
2511.000000	65.062165 
2510.000000	65.049815 
2509.000000	65.033459 
2508.000000	65.015864 
2507.000000	64.999699 
2506.000000	64.986753 
2505.000000	64.977908 
2504.000000	64.972734 
2503.000000	64.969944 
2502.000000	64.967918 
2501.000000	64.965152 
2500.000000	64.960622 
2499.000000	64.954042 
2498.000000	64.945697 
2497.000000	64.936518 
2496.000000	64.927816 
2495.000000	64.921021 
2494.000000	64.917469 
2493.000000	64.918327 
2492.000000	64.924263 
2491.000000	64.935445 
2490.000000	64.951395 
2489.000000	64.971017 
2488.000000	64.992690 
2487.000000	65.014433 
2486.000000	65.034222 
2485.000000	65.050292 
2484.000000	65.061330 
2483.000000	65.066671 
2482.000000	65.066385 
2481.000000	65.061163 
2480.000000	65.052056 
2479.000000	65.040326 
2478.000000	65.027284 
2477.000000	65.014100 
2476.000000	65.001964 
2475.000000	64.992046 
2474.000000	64.985537 
2473.000000	64.983510 
2472.000000	64.986801 
2471.000000	64.995789 
2470.000000	65.010261 
2469.000000	65.029311 
2468.000000	65.051293 
2467.000000	65.074110 
2466.000000	65.095376 
2465.000000	65.112757 
2464.000000	65.124368 
2463.000000	65.128898 
2462.000000	65.126156 
2461.000000	65.116882 
2460.000000	65.102791 
2459.000000	65.086293 
2458.000000	65.070104 
2457.000000	65.056920 
2456.000000	65.048909 
2455.000000	65.047550 
2454.000000	65.053129 
2453.000000	65.065026 
2452.000000	65.081453 
2451.000000	65.100121 
2450.000000	65.118193 
2449.000000	65.132975 
2448.000000	65.142345 
2447.000000	65.144944 
2446.000000	65.140604 
2445.000000	65.130138 
2444.000000	65.115380 
2443.000000	65.098690 
2442.000000	65.082669 
2441.000000	65.069603 
2440.000000	65.061092 
2439.000000	65.057611 
2438.000000	65.058588 
2437.000000	65.062785 
2436.000000	65.068149 
2435.000000	65.072822 
2434.000000	65.075325 
2433.000000	65.075087 
2432.000000	65.072417 
2431.000000	65.068364 
2430.000000	65.064668 
2429.000000	65.062975 
2428.000000	65.064549 
2427.000000	65.069913 
2426.000000	65.078854 
2425.000000	65.090465 
2424.000000	65.103554 
2423.000000	65.116810 
2422.000000	65.129280 
2421.000000	65.140342 
2420.000000	65.149736 
2419.000000	65.157318 
2418.000000	65.162706 
2417.000000	65.165257 
2416.000000	65.163946 
2415.000000	65.157675 
2414.000000	65.145587 
2413.000000	65.127515 
2412.000000	65.104389 
2411.000000	65.078234 
2410.000000	65.051841 
2409.000000	65.028500 
2408.000000	65.011167 
2407.000000	65.001678 
2406.000000	65.000391 
2405.000000	65.006136 
2404.000000	65.016555 
2403.000000	65.028738 
2402.000000	65.039992 
2401.000000	65.048360 
2400.000000	65.053200 
2399.000000	65.054750 
2398.000000	65.054297 
2397.000000	65.053248 
2396.000000	65.052890 
2395.000000	65.053772 
2394.000000	65.055799 
2393.000000	65.058183 
2392.000000	65.059781 
2391.000000	65.059638 
2390.000000	65.056991 
2389.000000	65.051555 
2388.000000	65.043592 
2387.000000	65.033841 
2386.000000	65.023231 
2385.000000	65.012884 
2384.000000	65.003919 
2383.000000	64.997529 
2382.000000	64.994716 
2381.000000	64.996290 
2380.000000	65.002512 
2379.000000	65.012907 
2378.000000	65.026354 
2377.000000	65.041112 
2376.000000	65.055084 
2375.000000	65.066289 
2374.000000	65.073275 
2373.000000	65.075492 
2372.000000	65.073466 
2371.000000	65.068745 
2370.000000	65.063309 
2369.000000	65.059256 
2368.000000	65.058231 
2367.000000	65.060973 
2366.000000	65.067100 
2365.000000	65.075349 
2364.000000	65.084123 
2363.000000	65.091609 
2362.000000	65.096616 
2361.000000	65.098619 
2360.000000	65.097904 
2359.000000	65.095424 
2358.000000	65.092301 
2357.000000	65.089726 
2356.000000	65.088415 
2355.000000	65.088844 
2354.000000	65.090990 
2353.000000	65.094375 
2352.000000	65.098309 
2351.000000	65.102267 
2350.000000	65.105772 
2349.000000	65.108466 
2348.000000	65.110063 
2347.000000	65.110278 
2346.000000	65.108919 
2345.000000	65.105724 
2344.000000	65.100336 
2343.000000	65.092587 
2342.000000	65.082430 
2341.000000	65.070080 
2340.000000	65.055894 
2339.000000	65.040540 
2338.000000	65.024685 
2337.000000	65.009140 
2336.000000	64.994502 
2335.000000	64.981198 
2334.000000	64.969301 
2333.000000	64.958977 
2332.000000	64.950013 
2331.000000	64.942431 
2330.000000	64.936304 
2329.000000	64.932131 
2328.000000	64.930582 
2327.000000	64.932680 
2326.000000	64.939332 
2325.000000	64.951491 
2324.000000	64.969444 
2323.000000	64.993095 
2322.000000	65.021514 
2321.000000	65.053224 
2320.000000	65.086245 
2319.000000	65.118217 
2318.000000	65.146970 
2317.000000	65.170431 
2316.000000	65.187191 
2315.000000	65.196132 
2314.000000	65.196728 
2313.000000	65.188765 
2312.000000	65.172696 
2311.000000	65.149283 
2310.000000	65.119791 
2309.000000	65.086150 
2308.000000	65.050816 
2307.000000	65.016674 
2306.000000	64.986610 
2305.000000	64.963364 
2304.000000	64.948916 
2303.000000	64.944291 
2302.000000	64.949202 
2301.000000	64.962077 
2300.000000	64.980483 
2299.000000	65.001106 
2298.000000	65.020775 
2297.000000	65.036392 
2296.000000	65.046000 
2295.000000	65.048623 
2294.000000	65.044617 
2293.000000	65.035152 
2292.000000	65.022468 
2291.000000	65.008926 
2290.000000	64.996910 
2289.000000	64.988255 
2288.000000	64.984035 
2287.000000	64.984560 
2286.000000	64.989304 
2285.000000	64.997243 
2284.000000	65.006995 
2283.000000	65.017223 
2282.000000	65.026688 
2281.000000	65.034699 
2280.000000	65.040802 
2279.000000	65.045070 
2278.000000	65.047788 
2277.000000	65.049672 
2276.000000	65.051579 
2275.000000	65.054297 
2274.000000	65.058779 
2273.000000	65.065503 
2272.000000	65.074563 
2271.000000	65.085315 
2270.000000	65.096616 
2269.000000	65.106964 
2268.000000	65.114617 
2267.000000	65.118265 
2266.000000	65.116977 
2265.000000	65.110826 
2264.000000	65.100789 
2263.000000	65.088605 
2262.000000	65.076446 
2261.000000	65.066361 
2260.000000	65.059900 
2259.000000	65.057659 
2258.000000	65.059399 
2257.000000	65.063905 
2256.000000	65.069365 
2255.000000	65.073704 
2254.000000	65.075135 
2253.000000	65.072441 
2252.000000	65.065026 
2251.000000	65.053176 
2250.000000	65.037822 
2249.000000	65.020537 
2248.000000	65.003442 
2247.000000	64.988732 
2246.000000	64.978671 
2245.000000	64.975047 
2244.000000	64.979100 
2243.000000	64.991116 
2242.000000	65.010380 
2241.000000	65.035271 
2240.000000	65.063357 
2239.000000	65.091776 
2238.000000	65.117645 
2237.000000	65.138530 
2236.000000	65.152978 
2235.000000	65.160608 
2234.000000	65.161895 
2233.000000	65.158224 
2232.000000	65.151405 
2231.000000	65.143275 
2230.000000	65.135288 
2229.000000	65.128254 
2228.000000	65.122413 
2227.000000	65.117549 
2226.000000	65.113067 
2225.000000	65.108323 
2224.000000	65.102958 
2223.000000	65.096759 
2222.000000	65.090131 
2221.000000	65.083551 
2220.000000	65.077757 
2219.000000	65.073370 
2218.000000	65.070605 
2217.000000	65.069150 
2216.000000	65.068435 
2215.000000	65.067434 
2214.000000	65.065002 
2213.000000	65.060114 
2212.000000	65.052199 
2211.000000	65.041232 
2210.000000	65.027952 
2209.000000	65.013647 
2208.000000	64.999747 
2207.000000	64.987802 
2206.000000	64.979195 
2205.000000	64.974713 
2204.000000	64.974498 
2203.000000	64.977860 
2202.000000	64.983606 
2201.000000	64.990377 
2200.000000	64.996767 
2199.000000	65.001797 
2198.000000	65.005278 
2197.000000	65.007662 
2196.000000	65.010261 
2195.000000	65.014863 
2194.000000	65.023255 
2193.000000	65.036988 
2192.000000	65.056419 
2191.000000	65.080809 
2190.000000	65.107822 
2189.000000	65.134191 
2188.000000	65.155959 
2187.000000	65.169477 
2186.000000	65.171933 
2185.000000	65.162301 
2184.000000	65.141344 
2183.000000	65.111613 
2182.000000	65.076971 
2181.000000	65.041756 
2180.000000	65.010118 
2179.000000	64.985251 
2178.000000	64.968919 
2177.000000	64.961576 
2176.000000	64.962482 
2175.000000	64.970135 
2174.000000	64.982748 
2173.000000	64.998626 
2172.000000	65.016341 
2171.000000	65.034794 
2170.000000	65.052938 
2169.000000	65.069770 
2168.000000	65.084409 
2167.000000	65.096187 
2166.000000	65.104627 
2165.000000	65.109610 
2164.000000	65.111565 
2163.000000	65.111255 
2162.000000	65.109705 
2161.000000	65.107846 
2160.000000	65.106534 
2159.000000	65.105938 
2158.000000	65.105938 
2157.000000	65.105843 
2156.000000	65.104818 
2155.000000	65.102005 
2154.000000	65.096950 
2153.000000	65.089726 
2152.000000	65.080928 
2151.000000	65.071606 
2150.000000	65.063118 
2149.000000	65.056586 
2148.000000	65.052604 
2147.000000	65.051293 
2146.000000	65.052056 
2145.000000	65.053796 
2144.000000	65.055036 
2143.000000	65.054416 
2142.000000	65.050888 
2141.000000	65.044116 
2140.000000	65.034341 
2139.000000	65.022349 
2138.000000	65.009117 
2137.000000	64.995527 
2136.000000	64.982223 
2135.000000	64.969325 
2134.000000	64.956665 
2133.000000	64.944076 
2132.000000	64.931631 
2131.000000	64.919805 
2130.000000	64.909601 
2129.000000	64.902305 
2128.000000	64.899325 
2127.000000	64.901518 
2126.000000	64.909243 
2125.000000	64.921736 
2124.000000	64.937543 
2123.000000	64.954638 
2122.000000	64.970827 
2121.000000	64.984273 
2120.000000	64.993906 
2119.000000	64.999699 
2118.000000	65.002489 
2117.000000	65.003585 
2116.000000	65.004658 
2115.000000	65.007162 
2114.000000	65.012121 
2113.000000	65.019917 
2112.000000	65.030264 
2111.000000	65.042304 
2110.000000	65.054845 
2109.000000	65.066552 
2108.000000	65.076231 
2107.000000	65.083098 
2106.000000	65.086793 
2105.000000	65.087676 
2104.000000	65.086579 
2103.000000	65.084719 
2102.000000	65.083360 
2101.000000	65.083670 
2100.000000	65.086317 
2099.000000	65.091514 
2098.000000	65.098857 
2097.000000	65.107393 
2096.000000	65.116119 
2095.000000	65.124201 
2094.000000	65.130996 
2093.000000	65.136432 
2092.000000	65.140581 
2091.000000	65.143704 
2090.000000	65.145754 
2089.000000	65.146470 
2088.000000	65.145158 
2087.000000	65.140914 
2086.000000	65.133118 
2085.000000	65.121436 
2084.000000	65.106225 
2083.000000	65.088558 
2082.000000	65.069985 
2081.000000	65.052199 
2080.000000	65.036964 
2079.000000	65.025591 
2078.000000	65.018916 
2077.000000	65.017175 
2076.000000	65.019941 
2075.000000	65.026402 
2074.000000	65.035486 
2073.000000	65.045928 
2072.000000	65.056467 
2071.000000	65.065860 
2070.000000	65.073132 
2069.000000	65.077662 
2068.000000	65.079283 
2067.000000	65.078377 
2066.000000	65.075778 
2065.000000	65.072607 
2064.000000	65.069866 
2063.000000	65.068221 
2062.000000	65.067744 
2061.000000	65.067958 
2060.000000	65.068006 
2059.000000	65.066885 
2058.000000	65.064001 
2057.000000	65.059351 
2056.000000	65.053629 
2055.000000	65.047907 
2054.000000	65.043592 
2053.000000	65.041899 
2052.000000	65.043449 
2051.000000	65.048122 
2050.000000	65.055060 
2049.000000	65.063023 
2048.000000	65.070700 
2047.000000	65.077304 
2046.000000	65.082430 
2045.000000	65.086364 
2044.000000	65.089797 
2043.000000	65.093350 
2042.000000	65.097451 
2041.000000	65.102005 
2040.000000	65.106463 
2039.000000	65.110015 
2038.000000	65.111827 
2037.000000	65.111374 
2036.000000	65.108513 
2035.000000	65.103626 
2034.000000	65.097570 
2033.000000	65.091371 
2032.000000	65.086078 
2031.000000	65.082383 
2030.000000	65.080595 
2029.000000	65.080785 
2028.000000	65.082430 
2027.000000	65.085124 
2026.000000	65.088057 
2025.000000	65.090608 
2024.000000	65.092110 
2023.000000	65.091991 
2022.000000	65.089845 
2021.000000	65.085387 
2020.000000	65.078806 
2019.000000	65.070438 
2018.000000	65.061068 
2017.000000	65.051603 
2016.000000	65.043139 
2015.000000	65.036559 
2014.000000	65.032458 
2013.000000	65.031147 
2012.000000	65.032315 
2011.000000	65.035390 
2010.000000	65.039539 
2009.000000	65.043878 
2008.000000	65.047621 
2007.000000	65.050220 
2006.000000	65.051364 
2005.000000	65.051150 
2004.000000	65.049743 
2003.000000	65.047502 
2002.000000	65.044617 
2001.000000	65.041255 
2000.000000	65.037584 
1999.000000	65.033650 
1998.000000	65.029668 
1997.000000	65.025901 
1996.000000	65.022850 
1995.000000	65.021204 
1994.000000	65.021800 
1993.000000	65.025305 
1992.000000	65.032196 
1991.000000	65.042376 
1990.000000	65.055203 
1989.000000	65.069437 
1988.000000	65.083432 
1987.000000	65.095138 
1986.000000	65.102648 
1985.000000	65.104269 
1984.000000	65.099215 
1983.000000	65.087509 
1982.000000	65.070176 
1981.000000	65.049147 
1980.000000	65.026736 
1979.000000	65.005373 
1978.000000	64.987063 
1977.000000	64.973163 
1976.000000	64.964246 
1975.000000	64.960169 
1974.000000	64.960289 
1973.000000	64.963626 
1972.000000	64.969182 
1971.000000	64.975786 
1970.000000	64.982581 
1969.000000	64.988660 
1968.000000	64.993500 
1967.000000	64.996838 
1966.000000	64.998936 
1965.000000	65.000391 
1964.000000	65.002298 
1963.000000	65.005874 
1962.000000	65.012049 
1961.000000	65.021347 
1960.000000	65.033507 
1959.000000	65.047478 
1958.000000	65.061354 
1957.000000	65.072989 
1956.000000	65.080380 
1955.000000	65.082287 
1954.000000	65.078639 
1953.000000	65.070462 
1952.000000	65.059661 
1951.000000	65.048670 
1950.000000	65.039825 
1949.000000	65.034937 
1948.000000	65.034866 
1947.000000	65.039467 
1946.000000	65.047883 
1945.000000	65.058732 
1944.000000	65.070438 
1943.000000	65.081572 
1942.000000	65.090918 
1941.000000	65.097689 
1940.000000	65.101504 
1939.000000	65.102505 
1938.000000	65.100979 
1937.000000	65.097546 
1936.000000	65.092945 
1935.000000	65.088033 
1934.000000	65.083646 
1933.000000	65.080428 
1932.000000	65.078616 
1931.000000	65.077948 
1930.000000	65.077781 
1929.000000	65.077352 
1928.000000	65.075778 
1927.000000	65.072512 
1926.000000	65.067315 
1925.000000	65.060544 
1924.000000	65.052938 
1923.000000	65.045404 
1922.000000	65.038847 
1921.000000	65.033769 
1920.000000	65.030384 
1919.000000	65.028333 
1918.000000	65.027213 
1917.000000	65.026283 
1916.000000	65.025091 
1915.000000	65.023446 
1914.000000	65.021538 
1913.000000	65.019702 
1912.000000	65.018510 
1911.000000	65.018296 
1910.000000	65.019106 
1909.000000	65.020775 
1908.000000	65.022897 
1907.000000	65.024948 
1906.000000	65.026283 
1905.000000	65.026283 
1904.000000	65.024709 
1903.000000	65.021657 
1902.000000	65.017509 
1901.000000	65.013122 
1900.000000	65.009641 
1899.000000	65.008282 
1898.000000	65.010166 
1897.000000	65.015912 
1896.000000	65.025472 
1895.000000	65.038084 
1894.000000	65.052175 
1893.000000	65.065836 
1892.000000	65.076947 
1891.000000	65.083909 
1890.000000	65.085744 
1889.000000	65.082526 
1888.000000	65.075349 
1887.000000	65.065979 
1886.000000	65.056300 
1885.000000	65.047883 
1884.000000	65.041875 
1883.000000	65.038609 
1882.000000	65.037727 
1881.000000	65.038514 
1880.000000	65.040349 
1879.000000	65.042686 
1878.000000	65.045332 
1877.000000	65.048432 
1876.000000	65.052151 
1875.000000	65.056681 
1874.000000	65.061902 
1873.000000	65.067458 
1872.000000	65.072584 
1871.000000	65.076303 
1870.000000	65.077424 
1869.000000	65.074992 
1868.000000	65.068292 
1867.000000	65.057158 
1866.000000	65.041899 
1865.000000	65.023374 
1864.000000	65.003228 
1863.000000	64.983463 
1862.000000	64.966583 
1861.000000	64.955043 
1860.000000	64.950966 
1859.000000	64.955854 
1858.000000	64.969992 
1857.000000	64.992547 
1856.000000	65.021204 
1855.000000	65.052604 
1854.000000	65.082836 
1853.000000	65.108108 
1852.000000	65.125417 
1851.000000	65.132999 
1850.000000	65.130615 
1849.000000	65.119624 
1848.000000	65.102505 
1847.000000	65.082287 
1846.000000	65.061902 
1845.000000	65.043568 
1844.000000	65.028500 
1843.000000	65.016818 
1842.000000	65.008044 
1841.000000	65.001082 
1840.000000	64.995098 
1839.000000	64.989662 
1838.000000	64.984917 
1837.000000	64.981532 
1836.000000	64.980268 
1835.000000	64.982080 
1834.000000	64.987301 
1833.000000	64.995694 
1832.000000	65.006422 
1831.000000	65.018248 
1830.000000	65.029788 
1829.000000	65.039873 
1828.000000	65.047717 
1827.000000	65.053009 
1826.000000	65.055918 
1825.000000	65.056896 
1824.000000	65.056467 
1823.000000	65.055012 
1822.000000	65.052700 
1821.000000	65.049743 
1820.000000	65.046381 
1819.000000	65.043044 
1818.000000	65.040254 
1817.000000	65.038442 
1816.000000	65.037822 
1815.000000	65.038371 
1814.000000	65.039658 
1813.000000	65.040826 
1812.000000	65.040922 
1811.000000	65.039086 
1810.000000	65.034890 
1809.000000	65.028309 
1808.000000	65.019750 
1807.000000	65.010023 
1806.000000	65.000414 
1805.000000	64.992237 
1804.000000	64.986944 
1803.000000	64.985609 
1802.000000	64.988994 
1801.000000	64.997220 
1800.000000	65.009784 
1799.000000	65.025424 
1798.000000	65.042424 
1797.000000	65.058803 
1796.000000	65.072655 
1795.000000	65.082311 
1794.000000	65.086841 
1793.000000	65.086030 
1792.000000	65.080523 
1791.000000	65.071606 
1790.000000	65.060949 
1789.000000	65.050196 
1788.000000	65.040683 
1787.000000	65.033245 
1786.000000	65.028238 
1785.000000	65.025544 
1784.000000	65.024948 
1783.000000	65.026164 
1782.000000	65.029168 
1781.000000	65.034079 
1780.000000	65.040969 
1779.000000	65.049648 
1778.000000	65.059566 
1777.000000	65.069389 
1776.000000	65.077233 
1775.000000	65.081000 
1774.000000	65.079069 
1773.000000	65.070533 
1772.000000	65.055751 
1771.000000	65.036487 
1770.000000	65.015578 
1769.000000	64.996385 
1768.000000	64.982056 
1767.000000	64.974951 
1766.000000	64.976072 
1765.000000	64.984798 
1764.000000	64.999008 
1763.000000	65.015506 
1762.000000	65.030860 
1761.000000	65.042018 
1760.000000	65.046906 
1759.000000	65.044641 
1758.000000	65.035700 
1757.000000	65.021657 
1756.000000	65.004611 
1755.000000	64.986729 
1754.000000	64.969468 
1753.000000	64.953875 
1752.000000	64.939928 
1751.000000	64.927124 
1750.000000	64.914631 
1749.000000	64.901876 
1748.000000	64.888834 
1747.000000	64.876270 
1746.000000	64.865636 
1745.000000	64.858508 
1744.000000	64.856243 
1743.000000	64.859199 
1742.000000	64.866638 
1741.000000	64.876699 
1740.000000	64.886522 
1739.000000	64.893126 
1738.000000	64.894032 
1737.000000	64.888048 
1736.000000	64.875340 
1735.000000	64.857578 
1734.000000	64.837551 
1733.000000	64.818644 
1732.000000	64.804005 
1731.000000	64.795923 
1730.000000	64.795541 
1729.000000	64.802527 
1728.000000	64.815688 
1727.000000	64.832854 
1726.000000	64.851689 
1725.000000	64.869856 
1724.000000	64.885139 
1723.000000	64.895892 
1722.000000	64.900970 
1721.000000	64.900159 
1720.000000	64.894008 
1719.000000	64.883780 
1718.000000	64.871478 
1717.000000	64.859485 
1716.000000	64.850187 
1715.000000	64.845514 
1714.000000	64.846706 
1713.000000	64.854192 
1712.000000	64.867568 
1711.000000	64.885616 
1710.000000	64.906644 
1709.000000	64.928817 
1708.000000	64.950227 
1707.000000	64.969086 
1706.000000	64.983892 
1705.000000	64.993405 
1704.000000	64.996838 
1703.000000	64.993786 
1702.000000	64.984536 
1701.000000	64.970016 
1700.000000	64.951682 
1699.000000	64.931750 
1698.000000	64.912414 
1697.000000	64.895749 
1696.000000	64.883089 
1695.000000	64.875006 
1694.000000	64.871311 
1693.000000	64.871311 
1692.000000	64.874053 
1691.000000	64.878630 
1690.000000	64.884233 
1689.000000	64.890360 
1688.000000	64.896392 
1687.000000	64.901804 
1686.000000	64.905953 
1685.000000	64.908123 
1684.000000	64.907646 
1683.000000	64.904212 
1682.000000	64.897871 
1681.000000	64.889311 
1680.000000	64.879751 
1679.000000	64.870738 
1678.000000	64.863967 
1677.000000	64.860939 
1676.000000	64.862513 
1675.000000	64.868903 
1674.000000	64.879894 
1673.000000	64.894747 
1672.000000	64.912462 
1671.000000	64.931797 
1670.000000	64.951467 
1669.000000	64.970064 
1668.000000	64.986348 
1667.000000	64.999341 
1666.000000	65.008282 
1665.000000	65.012741 
1664.000000	65.012884 
1663.000000	65.009140 
1662.000000	65.002250 
1661.000000	64.993000 
1660.000000	64.982342 
1659.000000	64.971303 
1658.000000	64.960908 
1657.000000	64.952254 
1656.000000	64.946317 
1655.000000	64.943957 
1654.000000	64.945721 
1653.000000	64.951658 
1652.000000	64.961218 
1651.000000	64.973115 
1650.000000	64.985609 
1649.000000	64.996671 
1648.000000	65.004563 
1647.000000	65.008211 
1646.000000	65.007352 
1645.000000	65.002870 
1644.000000	64.996266 
1643.000000	64.989280 
1642.000000	64.983510 
1641.000000	64.979648 
1640.000000	64.977788 
1639.000000	64.977312 
1638.000000	64.977049 
1637.000000	64.975786 
1636.000000	64.972352 
1635.000000	64.966106 
1634.000000	64.956831 
1633.000000	64.944887 
1632.000000	64.931130 
1631.000000	64.916777 
1630.000000	64.903378 
1629.000000	64.892530 
1628.000000	64.885854 
1627.000000	64.884614 
1626.000000	64.889693 
1625.000000	64.901065 
1624.000000	64.917612 
1623.000000	64.937257 
1622.000000	64.957165 
1621.000000	64.974474 
1620.000000	64.986872 
1619.000000	64.993000 
1618.000000	64.992833 
1617.000000	64.987492 
1616.000000	64.978671 
1615.000000	64.968180 
1614.000000	64.957427 
1613.000000	64.947080 
1612.000000	64.937138 
1611.000000	64.927411 
1610.000000	64.917826 
1609.000000	64.908981 
1608.000000	64.902091 
1607.000000	64.898800 
1606.000000	64.900827 
1605.000000	64.909267 
1604.000000	64.924120 
1603.000000	64.943861 
1602.000000	64.965867 
1601.000000	64.987206 
1600.000000	65.005064 
1599.000000	65.017557 
1598.000000	65.023875 
1597.000000	65.024328 
1596.000000	65.020036 
1595.000000	65.012192 
1594.000000	65.001964 
1593.000000	64.990234 
1592.000000	64.977598 
1591.000000	64.964675 
1590.000000	64.952182 
1589.000000	64.941477 
1588.000000	64.933943 
1587.000000	64.931106 
1586.000000	64.934015 
1585.000000	64.942812 
1584.000000	64.956617 
1583.000000	64.973449 
1582.000000	64.990472 
1581.000000	65.004658 
1580.000000	65.013098 
1579.000000	65.014028 
1578.000000	65.006446 
1577.000000	64.990568 
1576.000000	64.967465 
1575.000000	64.938926 
1574.000000	64.907169 
1573.000000	64.874696 
1572.000000	64.843797 
1571.000000	64.816665 
1570.000000	64.794993 
1569.000000	64.780068 
1568.000000	64.772105 
1567.000000	64.770770 
1566.000000	64.774990 
1565.000000	64.783358 
1564.000000	64.794015 
1563.000000	64.805555 
1562.000000	64.816665 
1561.000000	64.826774 
1560.000000	64.835739 
1559.000000	64.843893 
1558.000000	64.851522 
1557.000000	64.858913 
1556.000000	64.866042 
1555.000000	64.872837 
1554.000000	64.879083 
1553.000000	64.884757 
1552.000000	64.889836 
1551.000000	64.894247 
1550.000000	64.897704 
1549.000000	64.899587 
1548.000000	64.898824 
1547.000000	64.894080 
1546.000000	64.884042 
1545.000000	64.867997 
1544.000000	64.846086 
1543.000000	64.819240 
1542.000000	64.789438 
1541.000000	64.759612 
1540.000000	64.733076 
1539.000000	64.712667 
1538.000000	64.700603 
1537.000000	64.698004 
1536.000000	64.704942 
1535.000000	64.720273 
1534.000000	64.742136 
1533.000000	64.768123 
1532.000000	64.795804 
1531.000000	64.822959 
1530.000000	64.847660 
1529.000000	64.868068 
1528.000000	64.882946 
1527.000000	64.891624 
1526.000000	64.893889 
1525.000000	64.890027 
1524.000000	64.880895 
1523.000000	64.867806 
1522.000000	64.852356 
1521.000000	64.836573 
1520.000000	64.822602 
1519.000000	64.812707 
1518.000000	64.808773 
1517.000000	64.812302 
1516.000000	64.824080 
1515.000000	64.844012 
1514.000000	64.871072 
1513.000000	64.903402 
1512.000000	64.938616 
1511.000000	64.973926 
1510.000000	65.006923 
1509.000000	65.035367 
1508.000000	65.057754 
1507.000000	65.072941 
1506.000000	65.080571 
1505.000000	65.080213 
1504.000000	65.071749 
1503.000000	65.055084 
1502.000000	65.030503 
1501.000000	64.999055 
1500.000000	64.963150 
1499.000000	64.926171 
1498.000000	64.892220 
1497.000000	64.865112 
1496.000000	64.847755 
1495.000000	64.841079 
1494.000000	64.843940 
1493.000000	64.853310 
1492.000000	64.865136 
1491.000000	64.875388 
1490.000000	64.881229 
1489.000000	64.881181 
1488.000000	64.875698 
1487.000000	64.866614 
1486.000000	64.856767 
1485.000000	64.848852 
1484.000000	64.845013 
1483.000000	64.845895 
1482.000000	64.850950 
1481.000000	64.858555 
1480.000000	64.866471 
1479.000000	64.872455 
1478.000000	64.874815 
1477.000000	64.872908 
1476.000000	64.866852 
1475.000000	64.857506 
1474.000000	64.846253 
1473.000000	64.834403 
1472.000000	64.823222 
1471.000000	64.813661 
1470.000000	64.806151 
1469.000000	64.800834 
1468.000000	64.797687 
1467.000000	64.796829 
1466.000000	64.798569 
1465.000000	64.803338 
1464.000000	64.811658 
1463.000000	64.823770 
1462.000000	64.839243 
1461.000000	64.856791 
1460.000000	64.874482 
1459.000000	64.889812 
1458.000000	64.900588 
1457.000000	64.905095 
1456.000000	64.902734 
1455.000000	64.893937 
1454.000000	64.880347 
1453.000000	64.864063 
1452.000000	64.847278 
1451.000000	64.831686 
1450.000000	64.818263 
1449.000000	64.807128 
1448.000000	64.797830 
1447.000000	64.789772 
1446.000000	64.782619 
1445.000000	64.776420 
1444.000000	64.771723 
1443.000000	64.769268 
1442.000000	64.769577 
1441.000000	64.772748 
1440.000000	64.778280 
1439.000000	64.785408 
1438.000000	64.793205 
1437.000000	64.801144 
1436.000000	64.809203 
1435.000000	64.817905 
1434.000000	64.827871 
1433.000000	64.839529 
1432.000000	64.852714 
1431.000000	64.866495 
1430.000000	64.878916 
1429.000000	64.887499 
1428.000000	64.889883 
1427.000000	64.884233 
1426.000000	64.869952 
1425.000000	64.847946 
1424.000000	64.820528 
1423.000000	64.791321 
1422.000000	64.764165 
1421.000000	64.742732 
1420.000000	64.729523 
1419.000000	64.725589 
1418.000000	64.730191 
1417.000000	64.741349 
1416.000000	64.756131 
1415.000000	64.771413 
1414.000000	64.784288 
1413.000000	64.792895 
1412.000000	64.796376 
1411.000000	64.795207 
1410.000000	64.790701 
1409.000000	64.784455 
1408.000000	64.778256 
1407.000000	64.773273 
1406.000000	64.770197 
1405.000000	64.768934 
1404.000000	64.768934 
1403.000000	64.769315 
1402.000000	64.769315 
1401.000000	64.768171 
1400.000000	64.765429 
1399.000000	64.760780 
1398.000000	64.754223 
1397.000000	64.745950 
1396.000000	64.736294 
1395.000000	64.725828 
1394.000000	64.715266 
1393.000000	64.705538 
1392.000000	64.697623 
1391.000000	64.692425 
1390.000000	64.690566 
1389.000000	64.692306 
1388.000000	64.697313 
1387.000000	64.704680 
1386.000000	64.713215 
1385.000000	64.721560 
1384.000000	64.728593 
1383.000000	64.733433 
1382.000000	64.735794 
1381.000000	64.735698 
1380.000000	64.733862 
1379.000000	64.730906 
1378.000000	64.727854 
1377.000000	64.725637 
1376.000000	64.725208 
1375.000000	64.727354 
1374.000000	64.732885 
1373.000000	64.742255 
1372.000000	64.755630 
1371.000000	64.772629 
1370.000000	64.792251 
1369.000000	64.812970 
1368.000000	64.832663 
1367.000000	64.848995 
1366.000000	64.859724 
1365.000000	64.862990 
1364.000000	64.857912 
1363.000000	64.844608 
1362.000000	64.824509 
1361.000000	64.799928 
1360.000000	64.773893 
1359.000000	64.749693 
1358.000000	64.730477 
1357.000000	64.718770 
1356.000000	64.716219 
1355.000000	64.723062 
1354.000000	64.738416 
1353.000000	64.760351 
1352.000000	64.785957 
1351.000000	64.812088 
1350.000000	64.835619 
1349.000000	64.854168 
1348.000000	64.866113 
1347.000000	64.870810 
1346.000000	64.868497 
1345.000000	64.860248 
1344.000000	64.847707 
1343.000000	64.832711 
1342.000000	64.817237 
1341.000000	64.803028 
1340.000000	64.791584 
1339.000000	64.783859 
1338.000000	64.780139 
1337.000000	64.780044 
1336.000000	64.782547 
1335.000000	64.785957 
1334.000000	64.788413 
1333.000000	64.787912 
1332.000000	64.783048 
1331.000000	64.773297 
1330.000000	64.759159 
1329.000000	64.742183 
1328.000000	64.724612 
1327.000000	64.708709 
1326.000000	64.696598 
1325.000000	64.689469 
1324.000000	64.687657 
1323.000000	64.690542 
1322.000000	64.697051 
1321.000000	64.705872 
1320.000000	64.715576 
1319.000000	64.724993 
1318.000000	64.733386 
1317.000000	64.740085 
1316.000000	64.744925 
1315.000000	64.747810 
1314.000000	64.749121 
1313.000000	64.749360 
1312.000000	64.749431 
1311.000000	64.750194 
1310.000000	64.752507 
1309.000000	64.757013 
1308.000000	64.763760 
1307.000000	64.772009 
1306.000000	64.780473 
1305.000000	64.787387 
1304.000000	64.790916 
1303.000000	64.789533 
1302.000000	64.782619 
1301.000000	64.770483 
1300.000000	64.754295 
1299.000000	64.736151 
1298.000000	64.718246 
1297.000000	64.702749 
1296.000000	64.691066 
1295.000000	64.683794 
1294.000000	64.680886 
1293.000000	64.681696 
1292.000000	64.685153 
1291.000000	64.690184 
1290.000000	64.695978 
1289.000000	64.702200 
1288.000000	64.708733 
1287.000000	64.715671 
1286.000000	64.722990 
1285.000000	64.730501 
1284.000000	64.737772 
1283.000000	64.744186 
1282.000000	64.749026 
1281.000000	64.751553 
1280.000000	64.751362 
1279.000000	64.748191 
1278.000000	64.742183 
1277.000000	64.733481 
1276.000000	64.722466 
1275.000000	64.709448 
1274.000000	64.694929 
1273.000000	64.679646 
1272.000000	64.664769 
1271.000000	64.651608 
1270.000000	64.641952 
1269.000000	64.637613 
1268.000000	64.640069 
1267.000000	64.650058 
1266.000000	64.667201 
1265.000000	64.689922 
1264.000000	64.715504 
1263.000000	64.740443 
1262.000000	64.761233 
1261.000000	64.775133 
1260.000000	64.780616 
1259.000000	64.777565 
1258.000000	64.767241 
1257.000000	64.751791 
1256.000000	64.733886 
1255.000000	64.716076 
1254.000000	64.700508 
1253.000000	64.688515 
1252.000000	64.680933 
1251.000000	64.677953 
1250.000000	64.679408 
1249.000000	64.684581 
1248.000000	64.692401 
1247.000000	64.701557 
1246.000000	64.710402 
1245.000000	64.717531 
1244.000000	64.721536 
1243.000000	64.721608 
1242.000000	64.717435 
1241.000000	64.709281 
1240.000000	64.698076 
1239.000000	64.684915 
1238.000000	64.670872 
1237.000000	64.656662 
1236.000000	64.642429 
1235.000000	64.628195 
1234.000000	64.613866 
1233.000000	64.599800 
1232.000000	64.586758 
1231.000000	64.576292 
1230.000000	64.570522 
1229.000000	64.571571 
1228.000000	64.581131 
1227.000000	64.599633 
1226.000000	64.626169 
1225.000000	64.658188 
1224.000000	64.692163 
1223.000000	64.723777 
1222.000000	64.749097 
1221.000000	64.765262 
1220.000000	64.771056 
1219.000000	64.767003 
1218.000000	64.755225 
1217.000000	64.738845 
1216.000000	64.721322 
1215.000000	64.705801 
1214.000000	64.694142 
1213.000000	64.687299 
1212.000000	64.684438 
1211.000000	64.683794 
1210.000000	64.682698 
1209.000000	64.678716 
1208.000000	64.669775 
1207.000000	64.654755 
1206.000000	64.633822 
1205.000000	64.608621 
1204.000000	64.581847 
1203.000000	64.556670 
1202.000000	64.536499 
1201.000000	64.524030 
1200.000000	64.520931 
1199.000000	64.527273 
1198.000000	64.541745 
1197.000000	64.561676 
1196.000000	64.583897 
1195.000000	64.605021 
1194.000000	64.622163 
1193.000000	64.633154 
1192.000000	64.637017 
1191.000000	64.633798 
1190.000000	64.624238 
1189.000000	64.609479 
1188.000000	64.591002 
1187.000000	64.570403 
1186.000000	64.549255 
1185.000000	64.529323 
1184.000000	64.512324 
1183.000000	64.499998 
1182.000000	64.494109 
1181.000000	64.496159 
1180.000000	64.506864 
1179.000000	64.526057 
1178.000000	64.552569 
1177.000000	64.584183 
1176.000000	64.617991 
1175.000000	64.650702 
1174.000000	64.679145 
1173.000000	64.700579 
1172.000000	64.713215 
1171.000000	64.716196 
1170.000000	64.709949 
1169.000000	64.696049 
1168.000000	64.676618 
1167.000000	64.654588 
1166.000000	64.632582 
1165.000000	64.612889 
1164.000000	64.596867 
1163.000000	64.584994 
1162.000000	64.576888 
1161.000000	64.571642 
1160.000000	64.568257 
1159.000000	64.565944 
1158.000000	64.564323 
1157.000000	64.563488 
1156.000000	64.563870 
1155.000000	64.565801 
1154.000000	64.569139 
1153.000000	64.573097 
1152.000000	64.576268 
1151.000000	64.576816 
1150.000000	64.573168 
1149.000000	64.564251 
1148.000000	64.550137 
1147.000000	64.531993 
1146.000000	64.512014 
1145.000000	64.492917 
1144.000000	64.477086 
1143.000000	64.466285 
1142.000000	64.461398 
1141.000000	64.462566 
1140.000000	64.469146 
1139.000000	64.480018 
1138.000000	64.493846 
1137.000000	64.509248 
1136.000000	64.524984 
1135.000000	64.539813 
1134.000000	64.552283 
1133.000000	64.560794 
1132.000000	64.563775 
1131.000000	64.560031 
1130.000000	64.548921 
1129.000000	64.530706 
1128.000000	64.506912 
1127.000000	64.479923 
1126.000000	64.453005 
1125.000000	64.429450 
1124.000000	64.412188 
1123.000000	64.402985 
1122.000000	64.402222 
1121.000000	64.408707 
1120.000000	64.419817 
1119.000000	64.432072 
1118.000000	64.441633 
1117.000000	64.445161 
1116.000000	64.440727 
1115.000000	64.427900 
1114.000000	64.408302 
1113.000000	64.385151 
1112.000000	64.362788 
1111.000000	64.345741 
1110.000000	64.337754 
1109.000000	64.341020 
1108.000000	64.355540 
1107.000000	64.379191 
1106.000000	64.408016 
1105.000000	64.436912 
1104.000000	64.460682 
1103.000000	64.475035 
1102.000000	64.477539 
1101.000000	64.467811 
1100.000000	64.447712 
1099.000000	64.420580 
1098.000000	64.390826 
1097.000000	64.362978 
1096.000000	64.340806 
1095.000000	64.326596 
1094.000000	64.321184 
1093.000000	64.324092 
1092.000000	64.333581 
1091.000000	64.347267 
1090.000000	64.362621 
1089.000000	64.377284 
1088.000000	64.389538 
1087.000000	64.398264 
1086.000000	64.402937 
1085.000000	64.403676 
1084.000000	64.400911 
1083.000000	64.395499 
1082.000000	64.388346 
1081.000000	64.380455 
1080.000000	64.372539 
1079.000000	64.365506 
1078.000000	64.359974 
1077.000000	64.356946 
1076.000000	64.357209 
1075.000000	64.361882 
1074.000000	64.371967 
1073.000000	64.388561 
1072.000000	64.412403 
1071.000000	64.443445 
1070.000000	64.480757 
1069.000000	64.522147 
1068.000000	64.564275 
1067.000000	64.603161 
1066.000000	64.634585 
1065.000000	64.655208 
1064.000000	64.662861 
1063.000000	64.657115 
1062.000000	64.639425 
1061.000000	64.612460 
1060.000000	64.579677 
1059.000000	64.544439 
1058.000000	64.509510 
1057.000000	64.477109 
1056.000000	64.448642 
1055.000000	64.425134 
1054.000000	64.407658 
1053.000000	64.397478 
1052.000000	64.396190 
1051.000000	64.404988 
1050.000000	64.424729 
1049.000000	64.454889 
1048.000000	64.493560 
1047.000000	64.537119 
1046.000000	64.581131 
1045.000000	64.620852 
1044.000000	64.652109 
1043.000000	64.672040 
1042.000000	64.679241 
1041.000000	64.673924 
1040.000000	64.657282 
1039.000000	64.631175 
1038.000000	64.597892 
1037.000000	64.559698 
1036.000000	64.518976 
1035.000000	64.477825 
1034.000000	64.438438 
1033.000000	64.402914 
1032.000000	64.373207 
1031.000000	64.350843 
1030.000000	64.336800 
1029.000000	64.331459 
1028.000000	64.334201 
1027.000000	64.343595 
1026.000000	64.357376 
1025.000000	64.372825 
1024.000000	64.387083 
1023.000000	64.397907 
1022.000000	64.403676 
1021.000000	64.403891 
1020.000000	64.399075 
1019.000000	64.390516 
1018.000000	64.380049 
1017.000000	64.369392 
1016.000000	64.359855 
1015.000000	64.352035 
1014.000000	64.346098 
1013.000000	64.341425 
1012.000000	64.337158 
1011.000000	64.332556 
1010.000000	64.327311 
1009.000000	64.321660 
1008.000000	64.316177 
1007.000000	64.311528 
1006.000000	64.307999 
1005.000000	64.305567 
1004.000000	64.303612 
1003.000000	64.300966 
1002.000000	64.296340 
1001.000000	64.288783 
1000.000000	64.278078 
999.000000	 64.264774 
998.000000	 64.250373 
997.000000	 64.236998 
996.000000	 64.226889 
995.000000	 64.222121 
994.000000	 64.223837 
993.000000	 64.231944 
992.000000	 64.244866 
991.000000	 64.260029 
990.000000	 64.274120 
989.000000	 64.283847 
988.000000	 64.286708 
987.000000	 64.281654 
986.000000	 64.269471 
985.000000	 64.252591 
984.000000	 64.234542 
983.000000	 64.219117 
982.000000	 64.209818 
981.000000	 64.208936 
980.000000	 64.216995 
979.000000	 64.232873 
978.000000	 64.254093 
977.000000	 64.277505 
976.000000	 64.300084 
975.000000	 64.319586 
974.000000	 64.334678 
973.000000	 64.345097 
972.000000	 64.351630 
971.000000	 64.355397 
970.000000	 64.357423 
969.000000	 64.357972 
968.000000	 64.356589 
967.000000	 64.351987 
966.000000	 64.342761 
965.000000	 64.327597 
964.000000	 64.306306 
963.000000	 64.279770 
962.000000	 64.249992 
961.000000	 64.220023 
960.000000	 64.193391 
959.000000	 64.173507 
958.000000	 64.162945 
957.000000	 64.163565 
956.000000	 64.176058 
955.000000	 64.200210 
954.000000	 64.234471 
953.000000	 64.275717 
952.000000	 64.319443 
951.000000	 64.359998 
950.000000	 64.391398 
949.000000	 64.408040 
948.000000	 64.405941 
947.000000	 64.383554 
946.000000	 64.342236 
945.000000	 64.286351 
944.000000	 64.222121 
943.000000	 64.157032 
942.000000	 64.097857 
941.000000	 64.049887 
940.000000	 64.015269 
939.000000	 63.993787 
938.000000	 63.982081 
937.000000	 63.974952 
936.000000	 63.966822 
935.000000	 63.953280 
934.000000	 63.932394 
933.000000	 63.905167 
932.000000	 63.875532 
931.000000	 63.849139 
930.000000	 63.832640 
929.000000	 63.831925 
928.000000	 63.850522 
927.000000	 63.888573 
926.000000	 63.942527 
925.000000	 64.005875 
924.000000	 64.070057 
923.000000	 64.126515 
922.000000	 64.168715 
921.000000	 64.193511 
920.000000	 64.200925 
919.000000	 64.194774 
918.000000	 64.180612 
917.000000	 64.165616 
916.000000	 64.156484 
915.000000	 64.159011 
914.000000	 64.177131 
913.000000	 64.212560 
912.000000	 64.266014 
911.000000	 64.335465 
910.000000	 64.416837 
909.000000	 64.503240 
908.000000	 64.586281 
907.000000	 64.655542 
906.000000	 64.700245 
905.000000	 64.711403 
904.000000	 64.683914 
903.000000	 64.618349 
902.000000	 64.520835 
901.000000	 64.403510 
900.000000	 64.281082 
899.000000	 64.167714 
898.000000	 64.073491 
897.000000	 64.002299 
896.000000	 63.951921 
895.000000	 63.915610 
894.000000	 63.885760 
893.000000	 63.855671 
892.000000	 63.823723 
891.000000	 63.793659 
890.000000	 63.774132 
889.000000	 63.774466 
888.000000	 63.802838 
887.000000	 63.862371 
886.000000	 63.950181 
885.000000	 64.056181 
884.000000	 64.166355 
883.000000	 64.265632 
882.000000	 64.342021 
881.000000	 64.389276 
880.000000	 64.408445 
879.000000	 64.407229 
878.000000	 64.397501 
877.000000	 64.391779 
876.000000	 64.400744 
875.000000	 64.430141 
874.000000	 64.479923 
873.000000	 64.543867 
872.000000	 64.611554 
871.000000	 64.670205 
870.000000	 64.708328 
869.000000	 64.717435 
868.000000	 64.694046 
867.000000	 64.639639 
866.000000	 64.560747 
865.000000	 64.466452 
864.000000	 64.366245 
863.000000	 64.268112 
862.000000	 64.177393 
861.000000	 64.096450 
860.000000	 64.025402 
859.000000	 63.963484 
858.000000	 63.910222 
857.000000	 63.866591 
856.000000	 63.835048 
855.000000	 63.818717 
854.000000	 63.819909 
853.000000	 63.838696 
852.000000	 63.872075 
851.000000	 63.913083 
850.000000	 63.951897 
849.000000	 63.978719 
848.000000	 63.985848 
847.000000	 63.969898 
846.000000	 63.932204 
845.000000	 63.878107 
844.000000	 63.815402 
843.000000	 63.752150 
842.000000	 63.695001 
841.000000	 63.648247 
840.000000	 63.613319 
839.000000	 63.589453 
838.000000	 63.574361 
837.000000	 63.565325 
836.000000	 63.560414 
835.000000	 63.558483 
834.000000	 63.560461 
833.000000	 63.567924 
832.000000	 63.583469 
831.000000	 63.609671 
830.000000	 63.647174 
829.000000	 63.693857 
828.000000	 63.744616 
827.000000	 63.792324 
826.000000	 63.828849 
825.000000	 63.846993 
824.000000	 63.842678 
823.000000	 63.816022 
822.000000	 63.771939 
821.000000	 63.719153 
820.000000	 63.668560 
819.000000	 63.630437 
818.000000	 63.612127 
817.000000	 63.616013 
816.000000	 63.639235 
815.000000	 63.674449 
814.000000	 63.711810 
813.000000	 63.741779 
812.000000	 63.757681 
811.000000	 63.757205 
810.000000	 63.742232 
809.000000	 63.718676 
808.000000	 63.693785 
807.000000	 63.674855 
806.000000	 63.666915 
805.000000	 63.671708 
804.000000	 63.687753 
803.000000	 63.710689 
802.000000	 63.735103 
801.000000	 63.755464 
800.000000	 63.767814 
799.000000	 63.770151 
798.000000	 63.762712 
797.000000	 63.747286 
796.000000	 63.726758 
795.000000	 63.704371 
794.000000	 63.683080 
793.000000	 63.665270 
792.000000	 63.652396 
791.000000	 63.645648 
790.000000	 63.645648 
789.000000	 63.652467 
788.000000	 63.665580 
787.000000	 63.683700 
786.000000	 63.704657 
785.000000	 63.725686 
784.000000	 63.743829 
783.000000	 63.756084 
782.000000	 63.760423 
781.000000	 63.755607 
780.000000	 63.741874 
779.000000	 63.720870 
778.000000	 63.695669 
777.000000	 63.669776 
776.000000	 63.647127 
775.000000	 63.631033 
774.000000	 63.624334 
773.000000	 63.628625 
772.000000	 63.644218 
771.000000	 63.670086 
770.000000	 63.703584 
769.000000	 63.740706 
768.000000	 63.776040 
767.000000	 63.803648 
766.000000	 63.817691 
765.000000	 63.813781 
764.000000	 63.789653 
763.000000	 63.746070 
762.000000	 63.687205 
761.000000	 63.619709 
760.000000	 63.551735 
759.000000	 63.490796 
758.000000	 63.442611 
757.000000	 63.409495 
756.000000	 63.390493 
755.000000	 63.381576 
754.000000	 63.376855 
753.000000	 63.370728 
752.000000	 63.359498 
751.000000	 63.342523 
750.000000	 63.321423 
749.000000	 63.300251 
748.000000	 63.283205 
747.000000	 63.273739 
746.000000	 63.272953 
745.000000	 63.279962 
744.000000	 63.292169 
743.000000	 63.306522 
742.000000	 63.320517 
741.000000	 63.333368 
740.000000	 63.346123 
739.000000	 63.361001 
738.000000	 63.380312 
737.000000	 63.405370 
736.000000	 63.435673 
735.000000	 63.468599 
734.000000	 63.499641 
733.000000	 63.523888 
732.000000	 63.536357 
731.000000	 63.534379 
730.000000	 63.516831 
729.000000	 63.484239 
728.000000	 63.438487 
727.000000	 63.382601 
726.000000	 63.320541 
725.000000	 63.256597 
724.000000	 63.195466 
723.000000	 63.142251 
722.000000	 63.101410 
721.000000	 63.076281 
720.000000	 63.067746 
719.000000	 63.073849 
718.000000	 63.089752 
717.000000	 63.108849 
716.000000	 63.123488 
715.000000	 63.126778 
714.000000	 63.114285 
713.000000	 63.085389 
712.000000	 63.042759 
711.000000	 62.992072 
710.000000	 62.940382 
709.000000	 62.894845 
708.000000	 62.860608 
707.000000	 62.840557 
706.000000	 62.835454 
705.000000	 62.844491 
704.000000	 62.866020 
703.000000	 62.898278 
702.000000	 62.939524 
701.000000	 62.988090 
700.000000	 63.041710 
699.000000	 63.097047 
698.000000	 63.149619 
697.000000	 63.194155 
696.000000	 63.225603 
695.000000	 63.239192 
694.000000	 63.231587 
693.000000	 63.201403 
692.000000	 63.149881 
691.000000	 63.080191 
690.000000	 62.997174 
689.000000	 62.906527 
688.000000	 62.814283 
687.000000	 62.726116 
686.000000	 62.646865 
685.000000	 62.580347 
684.000000	 62.529039 
683.000000	 62.494063 
682.000000	 62.475132 
681.000000	 62.470173 
680.000000	 62.475919 
679.000000	 62.487721 
678.000000	 62.501072 
677.000000	 62.511348 
676.000000	 62.515902 
675.000000	 62.513327 
674.000000	 62.504887 
673.000000	 62.493062 
672.000000	 62.481379 
671.000000	 62.473487 
670.000000	 62.471628 
669.000000	 62.476086 
668.000000	 62.484860 
667.000000	 62.494730 
666.000000	 62.501406 
665.000000	 62.500905 
664.000000	 62.490653 
663.000000	 62.470269 
662.000000	 62.441706 
661.000000	 62.408614 
660.000000	 62.375235 
659.000000	 62.345194 
658.000000	 62.321233 
657.000000	 62.304592 
656.000000	 62.294721 
655.000000	 62.289738 
654.000000	 62.287640 
653.000000	 62.286806 
652.000000	 62.286019 
651.000000	 62.284564 
650.000000	 62.282538 
649.000000	 62.280011 
648.000000	 62.276792 
647.000000	 62.271857 
646.000000	 62.263655 
645.000000	 62.249898 
644.000000	 62.228441 
643.000000	 62.197422 
642.000000	 62.155652 
641.000000	 62.103128 
640.000000	 62.041378 
639.000000	 61.973500 
638.000000	 61.903810 
637.000000	 61.838316 
636.000000	 61.783671 
635.000000	 61.746501 
634.000000	 61.731958 
633.000000	 61.742877 
632.000000	 61.778950 
631.000000	 61.836171 
630.000000	 61.907720 
629.000000	 61.984992 
628.000000	 62.059497 
627.000000	 62.124609 
626.000000	 62.176418 
625.000000	 62.214231 
624.000000	 62.239384 
623.000000	 62.255048 
622.000000	 62.264013 
621.000000	 62.267756 
620.000000	 62.265491 
619.000000	 62.254953 
618.000000	 62.232589 
617.000000	 62.196445 
616.000000	 62.145733 
615.000000	 62.082886 
614.000000	 62.012219 
613.000000	 61.939764 
612.000000	 61.871290 
611.000000	 61.811065 
610.000000	 61.761021 
609.000000	 61.720561 
608.000000	 61.687088 
607.000000	 61.657309 
606.000000	 61.628603 
605.000000	 61.600255 
604.000000	 61.573576 
603.000000	 61.552333 
602.000000	 61.541461 
601.000000	 61.546277 
600.000000	 61.570382 
599.000000	 61.614918 
598.000000	 61.678123 
597.000000	 61.754560 
596.000000	 61.836433 
595.000000	 61.913037 
594.000000	 61.973237 
593.000000	 62.006521 
592.000000	 62.004828 
591.000000	 61.964511 
590.000000	 61.887359 
589.000000	 61.780905 
588.000000	 61.657643 
587.000000	 61.532330 
586.000000	 61.419224 
585.000000	 61.329412 
584.000000	 61.269140 
583.000000	 61.238312 
582.000000	 61.231207 
581.000000	 61.238455 
580.000000	 61.249876 
579.000000	 61.256480 
578.000000	 61.252570 
577.000000	 61.236119 
576.000000	 61.209034 
575.000000	 61.175608 
574.000000	 61.141419 
573.000000	 61.111378 
572.000000	 61.089181 
571.000000	 61.076712 
570.000000	 61.074280 
569.000000	 61.081480 
568.000000	 61.096954 
567.000000	 61.119174 
566.000000	 61.146140 
565.000000	 61.174750 
564.000000	 61.201977 
563.000000	 61.224675 
562.000000	 61.241054 
561.000000	 61.250209 
560.000000	 61.253881 
559.000000	 61.255669 
558.000000	 61.260533 
557.000000	 61.273765 
556.000000	 61.298465 
555.000000	 61.334466 
554.000000	 61.377549 
553.000000	 61.420392 
552.000000	 61.453104 
551.000000	 61.465954 
550.000000	 61.452126 
549.000000	 61.410093 
548.000000	 61.344528 
547.000000	 61.265492 
546.000000	 61.186385 
545.000000	 61.120510 
544.000000	 61.077928 
543.000000	 61.062526 
542.000000	 61.071586 
541.000000	 61.096239 
540.000000	 61.124348 
539.000000	 61.143541 
538.000000	 61.144256 
537.000000	 61.122155 
536.000000	 61.079049 
535.000000	 61.021494 
534.000000	 60.958003 
533.000000	 60.897541 
532.000000	 60.846734 
531.000000	 60.809016 
530.000000	 60.784029 
529.000000	 60.769748 
528.000000	 60.763716 
527.000000	 60.764312 
526.000000	 60.771155 
525.000000	 60.784983 
524.000000	 60.806775 
523.000000	 60.835742 
522.000000	 60.868859 
521.000000	 60.901546 
520.000000	 60.928440 
519.000000	 60.944843 
518.000000	 60.947561 
517.000000	 60.936284 
516.000000	 60.912823 
515.000000	 60.881304 
514.000000	 60.845780 
513.000000	 60.808873 
512.000000	 60.770797 
511.000000	 60.730075 
510.000000	 60.683536 
509.000000	 60.628199 
508.000000	 60.562443 
507.000000	 60.487627 
506.000000	 60.407614 
505.000000	 60.328722 
504.000000	 60.257363 
503.000000	 60.198521 
502.000000	 60.153651 
501.000000	 60.119986 
500.000000	 60.090923 
499.000000	 60.057663 
498.000000	 60.010719 
497.000000	 59.942817 
496.000000	 59.850454 
495.000000	 59.735655 
494.000000	 59.606170 
493.000000	 59.474563 
492.000000	 59.354829 
491.000000	 59.260272 
490.000000	 59.201407 
489.000000	 59.183764 
488.000000	 59.206151 
487.000000	 59.261679 
486.000000	 59.339427 
485.000000	 59.426832 
484.000000	 59.511160 
483.000000	 59.582352 
482.000000	 59.634065 
481.000000	 59.664011 
480.000000	 59.672760 
479.000000	 59.663558 
478.000000	 59.640789 
477.000000	 59.609103 
476.000000	 59.572410 
475.000000	 59.534311 
474.000000	 59.498167 
473.000000	 59.467124 
472.000000	 59.443902 
471.000000	 59.429621 
470.000000	 59.423017 
469.000000	 59.420061 
468.000000	 59.413552 
467.000000	 59.394049 
466.000000	 59.351682 
465.000000	 59.277582 
464.000000	 59.166908 
463.000000	 59.021663 
462.000000	 58.850288 
461.000000	 58.667922 
460.000000	 58.491992 
459.000000	 58.338308 
458.000000	 58.217144 
457.000000	 58.132266 
456.000000	 58.078646 
455.000000	 58.044767 
454.000000	 58.014416 
453.000000	 57.971358 
452.000000	 57.902145 
451.000000	 57.799100 
450.000000	 57.661819 
449.000000	 57.495903 
448.000000	 57.314586 
447.000000	 57.135486 
446.000000	 56.977248 
445.000000	 56.854796 
444.000000	 56.777048 
443.000000	 56.743931 
442.000000	 56.745028 
441.000000	 56.761455 
440.000000	 56.766557 
439.000000	 56.734251 
438.000000	 56.645464 
437.000000	 56.496119 
436.000000	 56.294393 
435.000000	 56.064605 
434.000000	 55.845284 
433.000000	 55.679011 
432.000000	 55.597496 
431.000000	 55.617403 
430.000000	 55.740427 
429.000000	 55.947756 
428.000000	 56.200265 
427.000000	 56.452178 
426.000000	 56.666660 
425.000000	 56.814861 
424.000000	 56.880760 
423.000000	 56.859636 
422.000000	 56.755089 
421.000000	 56.577324 
420.000000	 56.342196 
419.000000	 56.058883 
418.000000	 55.730724 
417.000000	 55.368590 
416.000000	 54.996895 
415.000000	 54.650616 
414.000000	 54.378247 
413.000000	 54.233431 
412.000000	 54.271149 
411.000000	 54.531741 
410.000000	 55.038666 
409.000000	 55.779910 
408.000000	 56.723499 
407.000000	 57.809829 
406.000000	 58.980894 
405.000000	 60.183095 
404.000000	 61.389040 
403.000000	 62.579202 
402.000000	 63.760709 
401.000000	 64.970350 
400.000000	 66.231727 
399.000000	 67.562699 
398.000000	 68.904900 
397.000000	 70.134472 
396.000000	 71.054553 
395.000000	 71.453738 
394.000000	 71.129989 
393.000000	 69.951295 
392.000000	 67.920088 
391.000000	 65.201139 
390.000000	 62.051963 
389.000000	 58.794951 
388.000000	 55.753326 
387.000000	 53.216361 
386.000000	 51.444411 
385.000000	 50.617527 
384.000000	 50.845289 
383.000000	 52.095651 
382.000000	 54.186272 
381.000000	 56.779074 
380.000000	 59.364748 
379.000000	 61.410832 
378.000000	 62.478637 
377.000000	 62.317156 
376.000000	 60.922288 
375.000000	 58.522033 
374.000000	 55.473685 
373.000000	 52.243494 
372.000000	 49.227833 
371.000000	 46.843886 
370.000000	 45.464730 

