PE IR       SPECTRUM    SPECTRUM    ASCII       PEDS        1.60        
  -1
C-1B61~1.ASC
17/05/02
13:25:23.00
17/05/02
13:25:23.00
tln
$C-4040-8_t0030$<tbV0>[-12.5,7.0,8.0,0.0,22,1,0]
370.000000
64









2002,4.07    
MIRTGS : RIGHTBACK : INTERNAL 2
MIR : ON : INTERNAL 2
OPTKBR

0.200000
8
8.000000
FILLER
RATIO
SPECTRUM
UNLOCKED 256

DOUBLE
64
COMBINED
1
0
0


1.000000
RATIO


1
0
TRUE
51149
0
LEFT NOT FITTED RIGHT NOT FITTED 0
NONE
NONE
15600
12.000000
4.427000
51148
TRUE
1 0 8 72 0 0 0 0 

15798.010000






#HDR
-1
-1
#GR
CM-1
%T
0.00002384185791015625
0.0
7800.000000
-1.000000
7431
8
85.096073
56.432747
#DATA
7800.000000	84.946155 
7799.000000	85.096073 
7798.000000	84.446191 
7797.000000	83.093452 
7796.000000	81.197404 
7795.000000	78.969621 
7794.000000	76.632380 
7793.000000	74.396157 
7792.000000	72.404217 
7791.000000	70.726609 
7790.000000	69.372129 
7789.000000	68.313932 
7788.000000	67.505288 
7787.000000	66.915464 
7786.000000	66.536664 
7785.000000	66.396284 
7784.000000	66.528129 
7783.000000	66.964149 
7782.000000	67.691969 
7781.000000	68.657422 
7780.000000	69.744348 
7779.000000	70.812225 
7778.000000	71.709370 
7777.000000	72.323560 
7776.000000	72.615265 
7775.000000	72.615170 
7774.000000	72.413229 
7773.000000	72.126102 
7772.000000	71.869993 
7771.000000	71.713376 
7770.000000	71.660757 
7769.000000	71.659517 
7768.000000	71.624779 
7767.000000	71.478295 
7766.000000	71.185183 
7765.000000	70.755386 
7764.000000	70.247578 
7763.000000	69.754052 
7762.000000	69.379639 
7761.000000	69.202136 
7760.000000	69.261550 
7759.000000	69.555020 
7758.000000	70.045208 
7757.000000	70.676827 
7756.000000	71.389269 
7755.000000	72.137188 
7754.000000	72.882390 
7753.000000	73.599171 
7752.000000	74.252986 
7751.000000	74.790000 
7750.000000	75.141477 
7749.000000	75.233745 
7748.000000	75.012493 
7747.000000	74.452352 
7746.000000	73.598670 
7745.000000	72.572731 
7744.000000	71.560311 
7743.000000	70.771265 
7742.000000	70.414519 
7741.000000	70.650720 
7740.000000	71.549129 
7739.000000	73.065185 
7738.000000	75.030899 
7737.000000	77.183628 
7736.000000	79.213333 
7735.000000	80.826711 
7734.000000	81.808829 
7733.000000	82.061481 
7732.000000	81.625699 
7731.000000	80.651879 
7730.000000	79.347586 
7729.000000	77.923226 
7728.000000	76.556921 
7727.000000	75.351643 
7726.000000	74.354267 
7725.000000	73.535561 
7724.000000	72.862696 
7723.000000	72.263693 
7722.000000	71.671986 
7721.000000	71.009254 
7720.000000	70.188784 
7719.000000	69.144248 
7718.000000	67.835593 
7717.000000	66.275596 
7716.000000	64.524078 
7715.000000	62.701749 
7714.000000	60.967206 
7713.000000	59.495091 
7712.000000	58.439016 
7711.000000	57.907557 
7710.000000	57.942390 
7709.000000	58.506131 
7708.000000	59.496402 
7707.000000	60.761022 
7706.000000	62.143611 
7705.000000	63.496208 
7704.000000	64.728498 
7703.000000	65.816426 
7702.000000	66.804051 
7701.000000	67.776370 
7700.000000	68.818426 
7699.000000	69.983363 
7698.000000	71.249270 
7697.000000	72.538995 
7696.000000	73.698282 
7695.000000	74.547195 
7694.000000	74.906945 
7693.000000	74.672341 
7692.000000	73.818421 
7691.000000	72.421765 
7690.000000	70.645999 
7689.000000	68.716192 
7688.000000	66.869807 
7687.000000	65.312170 
7686.000000	64.184737 
7685.000000	63.548684 
7684.000000	63.377881 
7683.000000	63.580632 
7682.000000	64.030790 
7681.000000	64.605998 
7680.000000	65.207171 
7679.000000	65.781784 
7678.000000	66.314148 
7677.000000	66.821908 
7676.000000	67.327904 
7675.000000	67.847824 
7674.000000	68.365287 
7673.000000	68.839263 
7672.000000	69.222712 
7671.000000	69.467711 
7670.000000	69.551086 
7669.000000	69.471096 
7668.000000	69.259381 
7667.000000	68.962693 
7666.000000	68.632745 
7665.000000	68.314433 
7664.000000	68.040633 
7663.000000	67.824196 
7662.000000	67.662024 
7661.000000	67.539310 
7660.000000	67.439484 
7659.000000	67.352867 
7658.000000	67.283248 
7657.000000	67.245602 
7656.000000	67.261886 
7655.000000	67.360019 
7654.000000	67.563509 
7653.000000	67.877483 
7652.000000	68.285512 
7651.000000	68.748331 
7650.000000	69.212818 
7649.000000	69.625830 
7648.000000	69.946312 
7647.000000	70.149374 
7646.000000	70.235300 
7645.000000	70.235610 
7644.000000	70.194983 
7643.000000	70.161175 
7642.000000	70.164704 
7641.000000	70.215272 
7640.000000	70.291376 
7639.000000	70.350456 
7638.000000	70.339870 
7637.000000	70.217537 
7636.000000	69.964599 
7635.000000	69.596219 
7634.000000	69.157361 
7633.000000	68.713140 
7632.000000	68.332147 
7631.000000	68.069267 
7630.000000	67.955374 
7629.000000	67.990565 
7628.000000	68.151235 
7627.000000	68.394446 
7626.000000	68.671727 
7625.000000	68.932652 
7624.000000	69.134330 
7623.000000	69.238567 
7622.000000	69.210577 
7621.000000	69.020271 
7620.000000	68.643903 
7619.000000	68.073272 
7618.000000	67.316246 
7617.000000	66.410613 
7616.000000	65.425729 
7615.000000	64.455819 
7614.000000	63.609743 
7613.000000	62.984585 
7612.000000	62.649726 
7611.000000	62.621188 
7610.000000	62.854361 
7609.000000	63.255238 
7608.000000	63.697052 
7607.000000	64.061450 
7606.000000	64.264178 
7605.000000	64.279508 
7604.000000	64.141345 
7603.000000	63.925457 
7602.000000	63.723039 
7601.000000	63.609385 
7600.000000	63.624215 
7599.000000	63.761305 
7598.000000	63.980293 
7597.000000	64.226818 
7596.000000	64.458513 
7595.000000	64.667057 
7594.000000	64.883041 
7593.000000	65.163898 
7592.000000	65.576028 
7591.000000	66.165661 
7590.000000	66.941857 
7589.000000	67.860388 
7588.000000	68.834972 
7587.000000	69.759941 
7586.000000	70.530152 
7585.000000	71.076416 
7584.000000	71.366357 
7583.000000	71.411395 
7582.000000	71.256971 
7581.000000	70.969104 
7580.000000	70.618820 
7579.000000	70.266962 
7578.000000	69.964337 
7577.000000	69.748616 
7576.000000	69.642472 
7575.000000	69.653534 
7574.000000	69.773030 
7573.000000	69.975399 
7572.000000	70.218658 
7571.000000	70.448994 
7570.000000	70.606017 
7569.000000	70.634889 
7568.000000	70.498251 
7567.000000	70.182871 
7566.000000	69.707226 
7565.000000	69.110989 
7564.000000	68.451142 
7563.000000	67.781996 
7562.000000	67.143082 
7561.000000	66.555070 
7560.000000	66.019558 
7559.000000	65.530347 
7558.000000	65.077805 
7557.000000	64.669728 
7556.000000	64.333891 
7555.000000	64.116668 
7554.000000	64.064478 
7553.000000	64.220118 
7552.000000	64.604806 
7551.000000	65.204381 
7550.000000	65.963196 
7549.000000	66.794252 
7548.000000	67.593479 
7547.000000	68.260431 
7546.000000	68.718576 
7545.000000	68.930840 
7544.000000	68.904519 
7543.000000	68.687367 
7542.000000	68.352603 
7541.000000	67.980194 
7540.000000	67.638015 
7539.000000	67.373800 
7538.000000	67.205381 
7537.000000	67.129755 
7536.000000	67.123866 
7535.000000	67.166423 
7534.000000	67.232847 
7533.000000	67.304039 
7532.000000	67.362523 
7531.000000	67.394518 
7530.000000	67.382740 
7529.000000	67.303562 
7528.000000	67.133188 
7527.000000	66.853952 
7526.000000	66.457366 
7525.000000	65.949559 
7524.000000	65.352916 
7523.000000	64.705586 
7522.000000	64.052724 
7521.000000	63.440179 
7520.000000	62.904834 
7519.000000	62.471246 
7518.000000	62.150835 
7517.000000	61.945319 
7516.000000	61.845231 
7515.000000	61.838579 
7514.000000	61.914229 
7513.000000	62.065434 
7512.000000	62.279176 
7511.000000	62.543606 
7510.000000	62.840414 
7509.000000	63.151860 
7508.000000	63.457298 
7507.000000	63.740181 
7506.000000	63.985681 
7505.000000	64.187908 
7504.000000	64.351344 
7503.000000	64.487361 
7502.000000	64.610719 
7501.000000	64.735174 
7500.000000	64.871454 
7499.000000	65.020680 
7498.000000	65.174269 
7497.000000	65.319538 
7496.000000	65.444850 
7495.000000	65.543580 
7494.000000	65.615725 
7493.000000	65.671563 
7492.000000	65.724873 
7491.000000	65.784907 
7490.000000	65.848588 
7489.000000	65.898966 
7488.000000	65.906333 
7487.000000	65.833449 
7486.000000	65.649485 
7485.000000	65.340089 
7484.000000	64.919686 
7483.000000	64.431142 
7482.000000	63.943743 
7481.000000	63.536095 
7480.000000	63.284087 
7479.000000	63.241004 
7478.000000	63.428044 
7477.000000	63.825249 
7476.000000	64.381551 
7475.000000	65.025329 
7474.000000	65.681672 
7473.000000	66.284823 
7472.000000	66.794323 
7471.000000	67.197823 
7470.000000	67.506074 
7469.000000	67.741489 
7468.000000	67.925810 
7467.000000	68.068909 
7466.000000	68.164634 
7465.000000	68.191862 
7464.000000	68.127751 
7463.000000	67.954707 
7462.000000	67.674565 
7461.000000	67.308521 
7460.000000	66.893219 
7459.000000	66.475796 
7458.000000	66.102361 
7457.000000	65.812683 
7456.000000	65.631842 
7455.000000	65.569376 
7454.000000	65.623521 
7453.000000	65.778017 
7452.000000	66.006088 
7451.000000	66.272377 
7450.000000	66.537237 
7449.000000	66.761946 
7448.000000	66.910719 
7447.000000	66.960501 
7446.000000	66.902613 
7445.000000	66.746902 
7444.000000	66.518831 
7443.000000	66.252779 
7442.000000	65.984249 
7441.000000	65.738630 
7440.000000	65.527486 
7439.000000	65.343856 
7438.000000	65.170383 
7437.000000	64.990377 
7436.000000	64.800119 
7435.000000	64.613938 
7434.000000	64.466714 
7433.000000	64.404416 
7432.000000	64.474582 
7431.000000	64.705801 
7430.000000	65.102767 
7429.000000	65.638637 
7428.000000	66.261863 
7427.000000	66.905236 
7426.000000	67.500758 
7425.000000	67.993330 
7424.000000	68.351101 
7423.000000	68.568873 
7422.000000	68.665933 
7421.000000	68.676900 
7420.000000	68.642997 
7419.000000	68.599653 
7418.000000	68.576502 
7417.000000	68.595719 
7416.000000	68.668389 
7415.000000	68.796658 
7414.000000	68.972158 
7413.000000	69.178557 
7412.000000	69.390749 
7411.000000	69.579386 
7410.000000	69.713640 
7409.000000	69.767427 
7408.000000	69.729328 
7407.000000	69.601655 
7406.000000	69.399666 
7405.000000	69.145798 
7404.000000	68.865036 
7403.000000	68.578529 
7402.000000	68.301582 
7401.000000	68.041563 
7400.000000	67.801427 
7399.000000	67.580366 
7398.000000	67.381072 
7397.000000	67.204809 
7396.000000	67.055845 
7395.000000	66.930532 
7394.000000	66.819548 
7393.000000	66.698074 
7392.000000	66.529631 
7391.000000	66.272115 
7390.000000	65.888381 
7389.000000	65.362334 
7388.000000	64.708280 
7387.000000	63.978862 
7386.000000	63.258934 
7385.000000	62.653946 
7384.000000	62.266850 
7383.000000	62.174654 
7382.000000	62.407112 
7381.000000	62.933588 
7380.000000	63.667988 
7379.000000	64.485621 
7378.000000	65.251898 
7377.000000	65.844130 
7376.000000	66.185235 
7375.000000	66.254973 
7374.000000	66.094183 
7373.000000	65.784788 
7372.000000	65.431332 
7371.000000	65.131664 
7370.000000	64.955782 
7369.000000	64.934110 
7368.000000	65.054988 
7367.000000	65.278124 
7366.000000	65.549659 
7365.000000	65.823769 
7364.000000	66.073441 
7363.000000	66.296720 
7362.000000	66.512680 
7361.000000	66.749644 
7360.000000	67.031812 
7359.000000	67.364883 
7358.000000	67.734408 
7357.000000	68.102288 
7356.000000	68.416333 
7355.000000	68.616271 
7354.000000	68.656539 
7353.000000	68.507051 
7352.000000	68.158364 
7351.000000	67.620801 
7350.000000	66.924667 
7349.000000	66.114664 
7348.000000	65.247321 
7347.000000	64.381480 
7346.000000	63.574671 
7345.000000	62.873125 
7344.000000	62.311506 
7343.000000	61.904358 
7342.000000	61.644124 
7341.000000	61.507821 
7340.000000	61.460018 
7339.000000	61.465048 
7338.000000	61.489629 
7337.000000	61.513686 
7336.000000	61.528706 
7335.000000	61.538004 
7334.000000	61.549377 
7333.000000	61.574912 
7332.000000	61.626291 
7331.000000	61.709594 
7330.000000	61.825704 
7329.000000	61.976695 
7328.000000	62.165260 
7327.000000	62.397003 
7326.000000	62.675189 
7325.000000	62.996339 
7324.000000	63.346505 
7323.000000	63.701605 
7322.000000	64.029288 
7321.000000	64.293360 
7320.000000	64.462327 
7319.000000	64.523792 
7318.000000	64.480042 
7317.000000	64.346837 
7316.000000	64.150094 
7315.000000	63.925075 
7314.000000	63.702559 
7313.000000	63.503122 
7312.000000	63.336110 
7311.000000	63.204216 
7310.000000	63.100028 
7309.000000	63.012075 
7308.000000	62.925124 
7307.000000	62.825083 
7306.000000	62.695765 
7305.000000	62.523579 
7304.000000	62.295889 
7303.000000	62.008810 
7302.000000	61.673092 
7301.000000	61.319351 
7300.000000	60.992598 
7299.000000	60.749578 
7298.000000	60.647130 
7297.000000	60.732078 
7296.000000	61.023354 
7295.000000	61.512231 
7294.000000	62.159514 
7293.000000	62.906670 
7292.000000	63.683485 
7291.000000	64.424729 
7290.000000	65.081167 
7289.000000	65.624785 
7288.000000	66.049027 
7287.000000	66.362261 
7286.000000	66.578888 
7285.000000	66.713714 
7284.000000	66.778326 
7283.000000	66.780614 
7282.000000	66.728711 
7281.000000	66.633772 
7280.000000	66.513919 
7279.000000	66.384577 
7278.000000	66.256642 
7277.000000	66.128420 
7276.000000	65.986871 
7275.000000	65.811157 
7274.000000	65.580916 
7273.000000	65.285086 
7272.000000	64.928817 
7271.000000	64.535450 
7270.000000	64.144349 
7269.000000	63.799786 
7268.000000	63.544154 
7267.000000	63.406538 
7266.000000	63.398027 
7265.000000	63.505482 
7264.000000	63.699340 
7263.000000	63.939619 
7262.000000	64.187264 
7261.000000	64.409732 
7260.000000	64.589810 
7259.000000	64.725422 
7258.000000	64.825654 
7257.000000	64.902400 
7256.000000	64.964962 
7255.000000	65.014958 
7254.000000	65.043044 
7253.000000	65.031695 
7252.000000	64.958500 
7251.000000	64.804267 
7250.000000	64.560675 
7249.000000	64.235258 
7248.000000	63.852357 
7247.000000	63.448357 
7246.000000	63.067674 
7245.000000	62.749505 
7244.000000	62.515544 
7243.000000	62.366223 
7242.000000	62.280654 
7241.000000	62.226629 
7240.000000	62.164640 
7239.000000	62.069678 
7238.000000	61.935162 
7237.000000	61.783981 
7236.000000	61.658167 
7235.000000	61.613345 
7234.000000	61.699247 
7233.000000	61.945509 
7232.000000	62.348818 
7231.000000	62.870359 
7230.000000	63.441467 
7229.000000	63.980460 
7228.000000	64.412355 
7227.000000	64.684629 
7226.000000	64.778852 
7225.000000	64.711952 
7224.000000	64.530515 
7223.000000	64.295363 
7222.000000	64.068388 
7221.000000	63.900923 
7220.000000	63.826322 
7219.000000	63.862061 
7218.000000	64.009284 
7217.000000	64.257740 
7216.000000	64.589405 
7215.000000	64.985132 
7214.000000	65.424370 
7213.000000	65.883350 
7212.000000	66.336750 
7211.000000	66.755342 
7210.000000	67.110943 
7209.000000	67.378830 
7208.000000	67.542791 
7207.000000	67.599654 
7206.000000	67.558789 
7205.000000	67.444872 
7204.000000	67.286610 
7203.000000	67.114734 
7202.000000	66.948747 
7201.000000	66.796326 
7200.000000	66.648483 
7199.000000	66.486334 
7198.000000	66.287970 
7197.000000	66.040182 
7196.000000	65.744996 
7195.000000	65.425729 
7194.000000	65.126562 
7193.000000	64.904308 
7192.000000	64.814805 
7191.000000	64.897155 
7190.000000	65.161371 
7189.000000	65.581226 
7188.000000	66.096711 
7187.000000	66.624855 
7186.000000	67.079353 
7185.000000	67.386531 
7184.000000	67.500329 
7183.000000	67.410278 
7182.000000	67.142820 
7181.000000	66.750597 
7180.000000	66.298031 
7179.000000	65.846180 
7178.000000	65.440177 
7177.000000	65.104913 
7176.000000	64.847660 
7175.000000	64.662861 
7174.000000	64.541459 
7173.000000	64.479303 
7172.000000	64.481663 
7171.000000	64.558768 
7170.000000	64.720535 
7169.000000	64.968395 
7168.000000	65.290141 
7167.000000	65.659141 
7166.000000	66.035985 
7165.000000	66.377735 
7164.000000	66.642761 
7163.000000	66.799330 
7162.000000	66.828274 
7161.000000	66.726779 
7160.000000	66.506552 
7159.000000	66.190338 
7158.000000	65.810227 
7157.000000	65.398883 
7156.000000	64.994406 
7155.000000	64.638495 
7154.000000	64.374518 
7153.000000	64.237928 
7152.000000	64.259648 
7151.000000	64.460659 
7150.000000	64.845466 
7149.000000	65.396809 
7148.000000	66.075181 
7147.000000	66.820526 
7146.000000	67.561554 
7145.000000	68.226170 
7144.000000	68.749618 
7143.000000	69.084620 
7142.000000	69.211435 
7141.000000	69.139885 
7140.000000	68.907332 
7139.000000	68.569302 
7138.000000	68.192720 
7137.000000	67.837858 
7136.000000	67.556500 
7135.000000	67.371964 
7134.000000	67.287325 
7133.000000	67.271876 
7132.000000	67.278265 
7131.000000	67.241787 
7130.000000	67.099237 
7129.000000	66.798496 
7128.000000	66.309595 
7127.000000	65.635251 
7126.000000	64.809060 
7125.000000	63.895225 
7124.000000	62.971043 
7123.000000	62.123990 
7122.000000	61.431837 
7121.000000	60.961270 
7120.000000	60.756301 
7119.000000	60.834860 
7118.000000	61.184620 
7117.000000	61.765146 
7116.000000	62.512159 
7115.000000	63.337922 
7114.000000	64.143967 
7113.000000	64.838004 
7112.000000	65.347719 
7111.000000	65.626764 
7110.000000	65.662717 
7109.000000	65.477681 
7108.000000	65.121412 
7107.000000	64.662170 
7106.000000	64.172315 
7105.000000	63.717126 
7104.000000	63.345527 
7103.000000	63.094091 
7102.000000	62.978100 
7101.000000	62.994766 
7100.000000	63.127183 
7099.000000	63.353729 
7098.000000	63.647246 
7097.000000	63.976693 
7096.000000	64.310622 
7095.000000	64.617705 
7094.000000	64.867711 
7093.000000	65.031838 
7092.000000	65.089154 
7091.000000	65.028810 
7090.000000	64.850425 
7089.000000	64.563274 
7088.000000	64.185142 
7087.000000	63.738083 
7086.000000	63.245010 
7085.000000	62.726712 
7084.000000	62.196993 
7083.000000	61.668610 
7082.000000	61.153101 
7081.000000	60.672616 
7080.000000	60.252833 
7079.000000	59.935402 
7078.000000	59.767508 
7077.000000	59.799957 
7076.000000	60.069131 
7075.000000	60.588836 
7074.000000	61.336016 
7073.000000	62.251901 
7072.000000	63.245177 
7071.000000	64.207983 
7070.000000	65.033364 
7069.000000	65.635824 
7068.000000	65.967178 
7067.000000	66.020965 
7066.000000	65.830850 
7065.000000	65.457415 
7064.000000	64.973473 
7063.000000	64.445090 
7062.000000	63.921332 
7061.000000	63.431835 
7060.000000	62.990546 
7059.000000	62.604808 
7058.000000	62.283658 
7057.000000	62.045550 
7056.000000	61.916303 
7055.000000	61.919379 
7054.000000	62.069320 
7053.000000	62.356209 
7052.000000	62.749195 
7051.000000	63.194274 
7050.000000	63.628911 
7049.000000	63.993382 
7048.000000	64.243698 
7047.000000	64.359188 
7046.000000	64.345526 
7045.000000	64.230251 
7044.000000	64.054012 
7043.000000	63.859033 
7042.000000	63.680338 
7041.000000	63.538503 
7040.000000	63.442850 
7039.000000	63.395690 
7038.000000	63.395428 
7037.000000	63.440990 
7036.000000	63.533186 
7035.000000	63.673758 
7034.000000	63.860464 
7033.000000	64.083695 
7032.000000	64.324426 
7031.000000	64.553689 
7030.000000	64.740109 
7029.000000	64.852142 
7028.000000	64.860939 
7027.000000	64.748597 
7026.000000	64.513301 
7025.000000	64.173531 
7024.000000	63.764572 
7023.000000	63.336706 
7022.000000	62.947916 
7021.000000	62.652778 
7020.000000	62.493467 
7019.000000	62.489581 
7018.000000	62.633156 
7017.000000	62.893104 
7016.000000	63.222479 
7015.000000	63.569521 
7014.000000	63.885784 
7013.000000	64.140367 
7012.000000	64.323067 
7011.000000	64.442801 
7010.000000	64.520096 
7009.000000	64.576101 
7008.000000	64.624285 
7007.000000	64.663362 
7006.000000	64.680147 
7005.000000	64.659452 
7004.000000	64.593648 
7003.000000	64.491343 
7002.000000	64.379525 
7001.000000	64.300060 
7000.000000	64.299035 
6999.000000	64.414429 
6998.000000	64.663386 
6997.000000	65.034317 
6996.000000	65.486502 
6995.000000	65.962243 
6994.000000	66.393136 
6993.000000	66.716361 
6992.000000	66.885375 
6991.000000	66.881823 
6990.000000	66.714000 
6989.000000	66.413402 
6988.000000	66.025996 
6987.000000	65.602803 
6986.000000	65.188193 
6985.000000	64.814519 
6984.000000	64.496397 
6983.000000	64.233446 
6982.000000	64.011240 
6981.000000	63.810038 
6980.000000	63.605356 
6979.000000	63.378906 
6978.000000	63.122510 
6977.000000	62.847042 
6976.000000	62.575054 
6975.000000	62.345051 
6974.000000	62.201046 
6973.000000	62.188816 
6972.000000	62.341165 
6971.000000	62.672948 
6970.000000	63.176131 
6969.000000	63.816571 
6968.000000	64.538145 
6967.000000	65.268969 
6966.000000	65.932011 
6965.000000	66.458559 
6964.000000	66.797757 
6963.000000	66.928768 
6962.000000	66.864395 
6961.000000	66.646528 
6960.000000	66.338467 
6959.000000	66.007065 
6958.000000	65.710186 
6957.000000	65.483570 
6956.000000	65.338158 
6955.000000	65.255784 
6954.000000	65.198969 
6953.000000	65.125775 
6952.000000	65.003943 
6951.000000	64.816427 
6950.000000	64.568114 
6949.000000	64.283347 
6948.000000	64.000201 
6947.000000	63.755917 
6946.000000	63.579583 
6945.000000	63.483333 
6944.000000	63.461709 
6943.000000	63.494825 
6942.000000	63.554620 
6941.000000	63.614201 
6940.000000	63.653111 
6939.000000	63.661217 
6938.000000	63.639521 
6937.000000	63.593006 
6936.000000	63.533473 
6935.000000	63.473415 
6934.000000	63.424992 
6933.000000	63.395261 
6932.000000	63.390064 
6931.000000	63.413882 
6930.000000	63.471555 
6929.000000	63.568329 
6928.000000	63.711333 
6927.000000	63.907599 
6926.000000	64.162755 
6925.000000	64.477515 
6924.000000	64.843940 
6923.000000	65.244364 
6922.000000	65.653157 
6921.000000	66.039848 
6920.000000	66.374158 
6919.000000	66.631317 
6918.000000	66.798305 
6917.000000	66.874599 
6916.000000	66.873335 
6915.000000	66.815686 
6914.000000	66.729474 
6913.000000	66.639375 
6912.000000	66.564130 
6911.000000	66.512274 
6910.000000	66.484379 
6909.000000	66.474795 
6908.000000	66.478824 
6907.000000	66.492366 
6906.000000	66.515707 
6905.000000	66.548776 
6904.000000	66.589784 
6903.000000	66.631722 
6902.000000	66.661977 
6901.000000	66.666173 
6900.000000	66.631889 
6899.000000	66.554284 
6898.000000	66.438341 
6897.000000	66.299557 
6896.000000	66.159749 
6895.000000	66.041922 
6894.000000	65.963053 
6893.000000	65.929865 
6892.000000	65.936207 
6891.000000	65.963983 
6890.000000	65.989089 
6889.000000	65.990400 
6888.000000	65.953993 
6887.000000	65.876531 
6886.000000	65.765309 
6885.000000	65.634441 
6884.000000	65.501427 
6883.000000	65.379619 
6882.000000	65.278720 
6881.000000	65.202951 
6880.000000	65.152430 
6879.000000	65.125584 
6878.000000	65.119099 
6877.000000	65.129756 
6876.000000	65.152716 
6875.000000	65.181803 
6874.000000	65.213394 
6873.000000	65.247440 
6872.000000	65.287661 
6871.000000	65.340876 
6870.000000	65.417766 
6869.000000	65.528178 
6868.000000	65.678095 
6867.000000	65.864610 
6866.000000	66.073489 
6865.000000	66.280651 
6864.000000	66.456794 
6863.000000	66.574668 
6862.000000	66.615438 
6861.000000	66.574716 
6860.000000	66.466617 
6859.000000	66.317796 
6858.000000	66.161870 
6857.000000	66.029024 
6856.000000	65.939807 
6855.000000	65.898704 
6854.000000	65.896034 
6853.000000	65.909099 
6852.000000	65.912532 
6851.000000	65.879559 
6850.000000	65.790200 
6849.000000	65.632462 
6848.000000	65.405106 
6847.000000	65.115332 
6846.000000	64.777612 
6845.000000	64.411330 
6844.000000	64.039492 
6843.000000	63.687205 
6842.000000	63.380432 
6841.000000	63.143920 
6840.000000	62.998628 
6839.000000	62.957501 
6838.000000	63.023996 
6837.000000	63.187074 
6836.000000	63.425278 
6835.000000	63.708305 
6834.000000	64.003634 
6833.000000	64.277672 
6832.000000	64.504337 
6831.000000	64.666962 
6830.000000	64.760851 
6829.000000	64.790225 
6828.000000	64.767622 
6827.000000	64.709472 
6826.000000	64.633607 
6825.000000	64.557647 
6824.000000	64.494109 
6823.000000	64.450144 
6822.000000	64.427852 
6821.000000	64.426636 
6820.000000	64.443445 
6819.000000	64.475536 
6818.000000	64.521503 
6817.000000	64.582276 
6816.000000	64.660716 
6815.000000	64.759469 
6814.000000	64.880990 
6813.000000	65.022563 
6812.000000	65.175247 
6811.000000	65.321373 
6810.000000	65.438842 
6809.000000	65.502524 
6808.000000	65.490102 
6807.000000	65.387225 
6806.000000	65.192556 
6805.000000	64.919996 
6804.000000	64.597630 
6803.000000	64.263916 
6802.000000	63.959383 
6801.000000	63.721990 
6800.000000	63.581204 
6799.000000	63.551425 
6798.000000	63.629794 
6797.000000	63.797211 
6796.000000	64.022827 
6795.000000	64.269471 
6794.000000	64.500665 
6793.000000	64.687848 
6792.000000	64.814376 
6791.000000	64.876699 
6790.000000	64.881896 
6789.000000	64.843082 
6788.000000	64.774465 
6787.000000	64.687252 
6786.000000	64.588046 
6785.000000	64.481425 
6784.000000	64.370417 
6783.000000	64.260840 
6782.000000	64.160037 
6781.000000	64.079213 
6780.000000	64.028072 
6779.000000	64.012432 
6778.000000	64.030694 
6777.000000	64.072394 
6776.000000	64.120292 
6775.000000	64.153146 
6774.000000	64.152431 
6773.000000	64.106273 
6772.000000	64.014148 
6771.000000	63.887763 
6770.000000	63.746285 
6769.000000	63.610672 
6768.000000	63.499784 
6767.000000	63.425850 
6766.000000	63.391995 
6765.000000	63.392519 
6764.000000	63.416790 
6763.000000	63.452148 
6762.000000	63.487768 
6761.000000	63.515734 
6760.000000	63.529205 
6759.000000	63.522863 
6758.000000	63.491964 
6757.000000	63.433313 
6756.000000	63.344717 
6755.000000	63.227367 
6754.000000	63.085985 
6753.000000	62.930321 
6752.000000	62.776684 
6751.000000	62.643146 
6750.000000	62.545347 
6749.000000	62.493705 
6748.000000	62.490057 
6747.000000	62.529063 
6746.000000	62.597250 
6745.000000	62.681794 
6744.000000	62.772107 
6743.000000	62.867259 
6742.000000	62.974596 
6741.000000	63.109159 
6740.000000	63.286876 
6739.000000	63.517141 
6738.000000	63.795638 
6737.000000	64.100551 
6736.000000	64.393639 
6735.000000	64.625430 
6734.000000	64.747262 
6733.000000	64.722633 
6732.000000	64.540243 
6731.000000	64.220166 
6730.000000	63.813686 
6729.000000	63.392782 
6728.000000	63.036131 
6727.000000	62.812757 
6726.000000	62.766027 
6725.000000	62.905001 
6724.000000	63.203597 
6723.000000	63.608026 
6722.000000	64.051055 
6721.000000	64.468336 
6720.000000	64.812374 
6719.000000	65.059065 
6718.000000	65.210604 
6717.000000	65.288567 
6716.000000	65.323066 
6715.000000	65.339803 
6714.000000	65.353560 
6713.000000	65.364170 
6712.000000	65.360379 
6711.000000	65.325760 
6710.000000	65.247464 
6709.000000	65.121006 
6708.000000	64.952230 
6707.000000	64.754843 
6706.000000	64.543819 
6705.000000	64.331603 
6704.000000	64.125442 
6703.000000	63.926672 
6702.000000	63.731098 
6701.000000	63.534593 
6700.000000	63.335895 
6699.000000	63.142299 
6698.000000	62.967038 
6697.000000	62.831830 
6696.000000	62.757897 
6695.000000	62.766432 
6694.000000	62.869262 
6693.000000	63.069319 
6692.000000	63.356041 
6691.000000	63.708329 
6690.000000	64.095878 
6689.000000	64.485144 
6688.000000	64.844417 
6687.000000	65.147066 
6686.000000	65.374255 
6685.000000	65.517544 
6684.000000	65.577602 
6683.000000	65.563797 
6682.000000	65.489745 
6681.000000	65.368819 
6680.000000	65.210723 
6679.000000	65.022492 
6678.000000	64.808273 
6677.000000	64.573121 
6676.000000	64.324784 
6675.000000	64.077377 
6674.000000	63.849902 
6673.000000	63.661813 
6672.000000	63.531994 
6671.000000	63.472056 
6670.000000	63.487529 
6669.000000	63.573575 
6668.000000	63.719248 
6667.000000	63.907408 
6666.000000	64.119720 
6665.000000	64.338302 
6664.000000	64.548254 
6663.000000	64.737057 
6662.000000	64.897084 
6661.000000	65.024876 
6660.000000	65.119767 
6659.000000	65.182185 
6658.000000	65.216302 
6657.000000	65.228986 
6656.000000	65.228056 
6655.000000	65.220451 
6654.000000	65.211749 
6653.000000	65.204787 
6652.000000	65.199375 
6651.000000	65.193462 
6650.000000	65.184164 
6649.000000	65.169930 
6648.000000	65.153789 
6647.000000	65.141558 
6646.000000	65.139389 
6645.000000	65.152215 
6644.000000	65.183115 
6643.000000	65.230178 
6642.000000	65.286445 
6641.000000	65.340328 
6640.000000	65.379786 
6639.000000	65.392112 
6638.000000	65.368556 
6637.000000	65.302610 
6636.000000	65.192127 
6635.000000	65.038061 
6634.000000	64.845037 
6633.000000	64.619469 
6632.000000	64.369511 
6631.000000	64.106988 
6630.000000	63.847732 
6629.000000	63.609552 
6628.000000	63.411045 
6627.000000	63.269209 
6626.000000	63.197803 
6625.000000	63.201284 
6624.000000	63.277149 
6623.000000	63.415503 
6622.000000	63.603353 
6621.000000	63.824248 
6620.000000	64.063191 
6619.000000	64.307904 
6618.000000	64.548563 
6617.000000	64.776611 
6616.000000	64.982223 
6615.000000	65.153264 
6614.000000	65.275382 
6613.000000	65.335845 
6612.000000	65.324592 
6611.000000	65.238189 
6610.000000	65.082597 
6609.000000	64.876747 
6608.000000	64.645314 
6607.000000	64.415669 
6606.000000	64.211273 
6605.000000	64.048171 
6604.000000	63.930034 
6603.000000	63.848853 
6602.000000	63.788819 
6601.000000	63.731098 
6600.000000	63.657832 
6599.000000	63.556933 
6598.000000	63.424062 
6597.000000	63.263511 
6596.000000	63.084387 
6595.000000	62.899565 
6594.000000	62.719345 
6593.000000	62.553191 
6592.000000	62.405490 
6591.000000	62.281322 
6590.000000	62.183570 
6589.000000	62.120747 
6588.000000	62.104821 
6587.000000	62.152791 
6586.000000	62.279081 
6585.000000	62.494277 
6584.000000	62.798547 
6583.000000	63.179278 
6582.000000	63.609099 
6581.000000	64.050817 
6580.000000	64.462661 
6579.000000	64.806795 
6578.000000	65.056252 
6577.000000	65.199756 
6576.000000	65.242338 
6575.000000	65.203690 
6574.000000	65.111494 
6573.000000	64.993238 
6572.000000	64.869642 
6571.000000	64.752793 
6570.000000	64.644980 
6569.000000	64.543676 
6568.000000	64.444589 
6567.000000	64.348864 
6566.000000	64.262890 
6565.000000	64.197039 
6564.000000	64.163208 
6563.000000	64.168906 
6562.000000	64.216375 
6561.000000	64.298987 
6560.000000	64.404177 
6559.000000	64.514780 
6558.000000	64.613819 
6557.000000	64.688467 
6556.000000	64.731454 
6555.000000	64.741873 
6554.000000	64.723944 
6553.000000	64.685320 
6552.000000	64.633083 
6551.000000	64.571714 
6550.000000	64.501452 
6549.000000	64.419174 
6548.000000	64.319682 
6547.000000	64.198946 
6546.000000	64.057588 
6545.000000	63.902759 
6544.000000	63.747525 
6543.000000	63.609337 
6542.000000	63.506245 
6541.000000	63.453102 
6540.000000	63.457989 
6539.000000	63.519144 
6538.000000	63.625073 
6537.000000	63.755559 
6536.000000	63.886356 
6535.000000	63.992738 
6534.000000	64.053750 
6533.000000	64.056706 
6532.000000	63.997983 
6531.000000	63.885068 
6530.000000	63.732910 
6529.000000	63.563895 
6528.000000	63.402295 
6527.000000	63.273334 
6526.000000	63.198328 
6525.000000	63.193297 
6524.000000	63.266301 
6523.000000	63.416266 
6522.000000	63.632822 
6521.000000	63.896179 
6520.000000	64.179873 
6519.000000	64.454483 
6518.000000	64.692234 
6517.000000	64.869666 
6516.000000	64.972090 
6515.000000	64.995908 
6514.000000	64.948725 
6513.000000	64.847803 
6512.000000	64.716124 
6511.000000	64.578747 
6510.000000	64.457297 
6509.000000	64.369511 
6508.000000	64.323902 
6507.000000	64.319658 
6506.000000	64.348769 
6505.000000	64.399051 
6504.000000	64.459586 
6503.000000	64.523506 
6502.000000	64.590048 
6501.000000	64.663219 
6500.000000	64.748930 
6499.000000	64.850902 
6498.000000	64.966988 
6497.000000	65.087175 
6496.000000	65.193629 
6495.000000	65.263056 
6494.000000	65.272068 
6493.000000	65.201926 
6492.000000	65.042114 
6491.000000	64.793634 
6490.000000	64.468169 
6489.000000	64.089417 
6488.000000	63.688468 
6487.000000	63.303112 
6486.000000	62.970447 
6485.000000	62.725591 
6484.000000	62.596607 
6483.000000	62.600898 
6482.000000	62.741756 
6481.000000	63.006472 
6480.000000	63.365936 
6479.000000	63.778805 
6478.000000	64.194297 
6477.000000	64.564061 
6476.000000	64.847755 
6475.000000	65.022659 
6474.000000	65.085840 
6473.000000	65.052914 
6472.000000	64.952206 
6471.000000	64.817786 
6470.000000	64.681625 
6469.000000	64.567160 
6468.000000	64.486312 
6467.000000	64.439749 
6466.000000	64.420342 
6465.000000	64.417982 
6464.000000	64.425158 
6463.000000	64.438271 
6462.000000	64.460730 
6461.000000	64.502000 
6460.000000	64.573931 
6459.000000	64.685678 
6458.000000	64.838361 
6457.000000	65.021967 
6456.000000	65.215253 
6455.000000	65.390729 
6454.000000	65.519213 
6453.000000	65.575361 
6452.000000	65.546751 
6451.000000	65.436387 
6450.000000	65.266227 
6449.000000	65.073180 
6448.000000	64.901542 
6447.000000	64.792418 
6446.000000	64.775347 
6445.000000	64.862370 
6444.000000	65.042233 
6443.000000	65.283370 
6442.000000	65.540623 
6441.000000	65.765166 
6440.000000	65.914416 
6439.000000	65.960073 
6438.000000	65.889120 
6437.000000	65.705585 
6436.000000	65.427660 
6435.000000	65.084528 
6434.000000	64.709186 
6433.000000	64.335751 
6432.000000	63.997054 
6431.000000	63.721108 
6430.000000	63.530278 
6429.000000	63.437390 
6428.000000	63.446736 
6427.000000	63.550209 
6426.000000	63.727831 
6425.000000	63.949275 
6424.000000	64.176130 
6423.000000	64.369678 
6422.000000	64.496064 
6421.000000	64.533352 
6420.000000	64.473319 
6419.000000	64.324927 
6418.000000	64.111042 
6417.000000	63.865208 
6416.000000	63.624620 
6415.000000	63.425540 
6414.000000	63.297390 
6413.000000	63.260769 
6412.000000	63.325190 
6411.000000	63.488936 
6410.000000	63.740324 
6409.000000	64.058208 
6408.000000	64.416694 
6407.000000	64.786911 
6406.000000	65.143108 
6405.000000	65.462732 
6404.000000	65.731787 
6403.000000	65.943336 
6402.000000	66.098809 
6401.000000	66.208553 
6400.000000	66.284942 
6399.000000	66.341519 
6398.000000	66.385459 
6397.000000	66.420459 
6396.000000	66.440463 
6395.000000	66.435766 
6394.000000	66.393065 
6393.000000	66.302633 
6392.000000	66.162133 
6391.000000	65.980505 
6390.000000	65.777635 
6389.000000	65.580940 
6388.000000	65.421104 
6387.000000	65.324926 
6386.000000	65.308690 
6385.000000	65.374064 
6384.000000	65.507006 
6383.000000	65.680980 
6382.000000	65.862488 
6381.000000	66.019177 
6380.000000	66.126799 
6379.000000	66.174364 
6378.000000	66.164135 
6377.000000	66.109848 
6376.000000	66.032576 
6375.000000	65.952801 
6374.000000	65.884733 
6373.000000	65.832233 
6372.000000	65.791535 
6371.000000	65.751051 
6370.000000	65.697789 
6369.000000	65.621662 
6368.000000	65.520787 
6367.000000	65.401625 
6366.000000	65.277624 
6365.000000	65.165185 
6364.000000	65.078735 
6363.000000	65.026140 
6362.000000	65.006113 
6361.000000	65.008831 
6360.000000	65.018630 
6359.000000	65.018749 
6358.000000	64.996385 
6357.000000	64.945697 
6356.000000	64.869999 
6355.000000	64.780426 
6354.000000	64.693331 
6353.000000	64.624643 
6352.000000	64.586758 
6351.000000	64.585423 
6350.000000	64.618301 
6349.000000	64.677119 
6348.000000	64.748716 
6347.000000	64.818906 
6346.000000	64.874815 
6345.000000	64.907646 
6344.000000	64.913511 
6343.000000	64.892816 
6342.000000	64.849925 
6341.000000	64.790534 
6340.000000	64.721727 
6339.000000	64.650535 
6338.000000	64.583063 
6337.000000	64.524126 
6336.000000	64.476180 
6335.000000	64.439964 
6334.000000	64.412641 
6333.000000	64.389491 
6332.000000	64.364433 
6331.000000	64.333009 
6330.000000	64.294672 
6329.000000	64.254426 
6328.000000	64.223003 
6327.000000	64.214205 
6326.000000	64.241766 
6325.000000	64.313983 
6324.000000	64.431118 
6323.000000	64.582395 
6322.000000	64.746117 
6321.000000	64.894413 
6320.000000	65.000081 
6319.000000	65.042877 
6318.000000	65.013861 
6317.000000	64.918923 
6316.000000	64.777851 
6315.000000	64.618587 
6314.000000	64.470601 
6313.000000	64.357566 
6312.000000	64.292407 
6311.000000	64.275527 
6310.000000	64.296936 
6309.000000	64.339470 
6308.000000	64.384627 
6307.000000	64.415860 
6306.000000	64.422821 
6305.000000	64.401030 
6304.000000	64.352846 
6303.000000	64.284682 
6302.000000	64.206552 
6301.000000	64.129543 
6300.000000	64.065647 
6299.000000	64.025926 
6298.000000	64.020514 
6297.000000	64.057302 
6296.000000	64.141225 
6295.000000	64.272475 
6294.000000	64.446902 
6293.000000	64.654159 
6292.000000	64.880561 
6291.000000	65.110635 
6290.000000	65.328431 
6289.000000	65.519547 
6288.000000	65.671682 
6287.000000	65.776872 
6286.000000	65.829634 
6285.000000	65.828275 
6284.000000	65.773344 
6283.000000	65.668463 
6282.000000	65.521574 
6281.000000	65.345883 
6280.000000	65.158557 
6279.000000	64.979600 
6278.000000	64.829254 
6277.000000	64.725136 
6276.000000	64.679336 
6275.000000	64.696693 
6274.000000	64.772415 
6273.000000	64.894247 
6272.000000	65.044689 
6271.000000	65.204787 
6270.000000	65.357065 
6269.000000	65.487360 
6268.000000	65.587019 
6267.000000	65.650463 
6266.000000	65.674090 
6265.000000	65.654969 
6264.000000	65.590524 
6263.000000	65.479874 
6262.000000	65.324831 
6261.000000	65.133666 
6260.000000	64.922523 
6259.000000	64.714789 
6258.000000	64.538788 
6257.000000	64.421176 
6256.000000	64.381718 
6255.000000	64.426255 
6254.000000	64.544582 
6253.000000	64.710450 
6252.000000	64.887118 
6251.000000	65.035080 
6250.000000	65.121507 
6249.000000	65.128374 
6248.000000	65.055847 
6247.000000	64.922404 
6246.000000	64.758086 
6245.000000	64.595532 
6244.000000	64.460253 
6243.000000	64.364719 
6242.000000	64.305615 
6241.000000	64.267420 
6240.000000	64.228701 
6239.000000	64.170265 
6238.000000	64.082860 
6237.000000	63.970541 
6236.000000	63.851809 
6235.000000	63.751316 
6234.000000	63.697242 
6233.000000	63.710880 
6232.000000	63.802623 
6231.000000	63.967704 
6230.000000	64.187145 
6229.000000	64.432120 
6228.000000	64.669704 
6227.000000	64.870119 
6226.000000	65.011930 
6225.000000	65.085554 
6224.000000	65.093111 
6223.000000	65.046358 
6222.000000	64.962649 
6221.000000	64.860582 
6220.000000	64.757442 
6219.000000	64.665722 
6218.000000	64.593768 
6217.000000	64.544248 
6216.000000	64.517641 
6215.000000	64.511108 
6214.000000	64.520430 
6213.000000	64.540028 
6212.000000	64.563655 
6211.000000	64.585232 
6210.000000	64.597773 
6209.000000	64.596080 
6208.000000	64.577126 
6207.000000	64.540767 
6206.000000	64.490032 
6205.000000	64.429235 
6204.000000	64.364290 
6203.000000	64.297485 
6202.000000	64.227032 
6201.000000	64.147067 
6200.000000	64.050006 
6199.000000	63.930106 
6198.000000	63.787174 
6197.000000	63.629293 
6196.000000	63.473176 
6195.000000	63.342094 
6194.000000	63.260769 
6193.000000	63.248491 
6192.000000	63.313555 
6191.000000	63.449931 
6190.000000	63.637351 
6189.000000	63.844347 
6188.000000	64.035844 
6187.000000	64.179968 
6186.000000	64.256453 
6185.000000	64.259004 
6184.000000	64.198327 
6183.000000	64.096522 
6182.000000	63.984107 
6181.000000	63.890552 
6180.000000	63.840389 
6179.000000	63.848352 
6178.000000	63.917779 
6177.000000	64.042258 
6176.000000	64.207673 
6175.000000	64.396595 
6174.000000	64.591693 
6173.000000	64.778828 
6172.000000	64.949083 
6171.000000	65.098404 
6170.000000	65.227317 
6169.000000	65.338087 
6168.000000	65.433311 
6167.000000	65.512704 
6166.000000	65.573740 
6165.000000	65.610074 
6164.000000	65.613889 
6163.000000	65.576982 
6162.000000	65.495777 
6161.000000	65.371966 
6160.000000	65.214180 
6159.000000	65.037131 
6158.000000	64.859795 
6157.000000	64.701557 
6156.000000	64.579415 
6155.000000	64.503121 
6154.000000	64.473295 
6153.000000	64.481830 
6152.000000	64.513516 
6151.000000	64.551258 
6150.000000	64.579796 
6149.000000	64.590382 
6148.000000	64.581489 
6147.000000	64.559054 
6146.000000	64.532995 
6145.000000	64.512515 
6144.000000	64.502286 
6143.000000	64.499330 
6142.000000	64.494061 
6141.000000	64.474678 
6140.000000	64.432024 
6139.000000	64.363336 
6138.000000	64.275288 
6137.000000	64.183902 
6136.000000	64.110755 
6135.000000	64.076638 
6134.000000	64.095640 
6133.000000	64.169549 
6132.000000	64.287924 
6131.000000	64.428997 
6130.000000	64.567780 
6129.000000	64.682340 
6128.000000	64.760637 
6127.000000	64.802980 
6126.000000	64.821696 
6125.000000	64.835715 
6124.000000	64.865136 
6123.000000	64.923930 
6122.000000	65.017342 
6121.000000	65.140390 
6120.000000	65.280127 
6119.000000	65.419864 
6118.000000	65.542006 
6117.000000	65.632271 
6116.000000	65.681004 
6115.000000	65.684914 
6114.000000	65.645956 
6113.000000	65.571379 
6112.000000	65.471911 
6111.000000	65.360569 
6110.000000	65.253138 
6109.000000	65.163898 
6108.000000	65.106558 
6107.000000	65.088057 
6106.000000	65.108418 
6105.000000	65.157699 
6104.000000	65.218591 
6103.000000	65.268754 
6102.000000	65.285396 
6101.000000	65.251326 
6100.000000	65.159392 
6099.000000	65.014386 
6098.000000	64.831185 
6097.000000	64.632487 
6096.000000	64.442610 
6095.000000	64.284706 
6094.000000	64.175987 
6093.000000	64.125442 
6092.000000	64.133143 
6091.000000	64.189863 
6090.000000	64.279842 
6089.000000	64.382791 
6088.000000	64.478063 
6087.000000	64.547562 
6086.000000	64.579129 
6085.000000	64.566540 
6084.000000	64.511489 
6083.000000	64.421391 
6082.000000	64.309406 
6081.000000	64.191317 
6080.000000	64.084219 
6079.000000	64.003157 
6078.000000	63.960599 
6077.000000	63.964319 
6076.000000	64.017701 
6075.000000	64.120244 
6074.000000	64.266777 
6073.000000	64.447855 
6072.000000	64.650368 
6071.000000	64.858126 
6070.000000	65.053987 
6069.000000	65.220451 
6068.000000	65.345072 
6067.000000	65.421748 
6066.000000	65.452814 
6065.000000	65.448212 
6064.000000	65.421605 
6063.000000	65.386939 
6062.000000	65.355801 
6061.000000	65.335273 
6060.000000	65.327501 
6059.000000	65.330386 
6058.000000	65.340828 
6057.000000	65.355706 
6056.000000	65.374040 
6055.000000	65.395545 
6054.000000	65.420675 
6053.000000	65.447711 
6052.000000	65.471673 
6051.000000	65.484189 
6050.000000	65.475630 
6049.000000	65.436339 
6048.000000	65.360212 
6047.000000	65.245628 
6046.000000	65.098452 
6045.000000	64.928650 
6044.000000	64.748716 
6043.000000	64.570784 
6042.000000	64.403867 
6041.000000	64.254760 
6040.000000	64.127922 
6039.000000	64.027190 
6038.000000	63.956260 
6037.000000	63.919281 
6036.000000	63.920211 
6035.000000	63.959646 
6034.000000	64.033937 
6033.000000	64.134240 
6032.000000	64.248037 
6031.000000	64.359259 
6030.000000	64.453291 
6029.000000	64.519906 
6028.000000	64.556741 
6027.000000	64.568471 
6026.000000	64.566326 
6025.000000	64.565396 
6024.000000	64.580106 
6023.000000	64.619755 
6022.000000	64.686679 
6021.000000	64.775586 
6020.000000	64.875531 
6019.000000	64.973640 
6018.000000	65.058493 
6017.000000	65.123152 
6016.000000	65.167331 
6015.000000	65.197300 
6014.000000	65.223121 
6013.000000	65.254664 
6012.000000	65.299630 
6011.000000	65.361189 
6010.000000	65.435075 
6009.000000	65.510082 
6008.000000	65.571689 
6007.000000	65.604519 
6006.000000	65.595221 
6005.000000	65.534472 
6004.000000	65.419983 
6003.000000	65.255951 
6002.000000	65.051484 
6001.000000	64.819359 
6000.000000	64.573860 
5999.000000	64.329576 
5998.000000	64.100718 
5997.000000	63.899803 
5996.000000	63.736104 
5995.000000	63.615989 
5994.000000	63.541388 
5993.000000	63.511610 
5992.000000	63.520622 
5991.000000	63.562464 
5990.000000	63.630294 
5989.000000	63.719964 
5988.000000	63.827466 
5987.000000	63.951683 
5986.000000	64.091825 
5985.000000	64.246344 
5984.000000	64.410829 
5983.000000	64.578962 
5982.000000	64.742779 
5981.000000	64.894676 
5980.000000	65.028882 
5979.000000	65.144085 
5978.000000	65.242838 
5977.000000	65.331816 
5976.000000	65.417838 
5975.000000	65.505957 
5974.000000	65.595960 
5973.000000	65.682673 
5972.000000	65.755939 
5971.000000	65.804696 
5970.000000	65.818905 
5969.000000	65.796065 
5968.000000	65.739083 
5967.000000	65.656447 
5966.000000	65.559697 
5965.000000	65.461897 
5964.000000	65.373420 
5963.000000	65.300107 
5962.000000	65.242910 
5961.000000	65.199232 
5960.000000	65.164375 
5959.000000	65.134143 
5958.000000	65.105175 
5957.000000	65.075755 
5956.000000	65.046238 
5955.000000	65.018558 
5954.000000	64.993977 
5953.000000	64.972448 
5952.000000	64.953422 
5951.000000	64.935517 
5950.000000	64.916777 
5949.000000	64.895153 
5948.000000	64.868950 
5947.000000	64.837574 
5946.000000	64.799880 
5945.000000	64.756965 
5944.000000	64.711785 
5943.000000	64.670634 
5942.000000	64.641189 
5941.000000	64.632320 
5940.000000	64.651775 
5939.000000	64.703917 
5938.000000	64.788317 
5937.000000	64.897942 
5936.000000	65.019655 
5935.000000	65.136075 
5934.000000	65.229558 
5933.000000	65.284514 
5932.000000	65.290737 
5931.000000	65.246081 
5930.000000	65.156912 
5929.000000	65.037274 
5928.000000	64.905929 
5927.000000	64.783000 
5926.000000	64.685702 
5925.000000	64.626169 
5924.000000	64.608597 
5923.000000	64.629793 
5922.000000	64.679098 
5921.000000	64.740824 
5920.000000	64.797544 
5919.000000	64.832282 
5918.000000	64.833831 
5917.000000	64.796972 
5916.000000	64.726686 
5915.000000	64.634895 
5914.000000	64.540624 
5913.000000	64.464259 
5912.000000	64.425206 
5911.000000	64.437603 
5910.000000	64.506983 
5909.000000	64.629960 
5908.000000	64.792990 
5907.000000	64.976143 
5906.000000	65.154886 
5905.000000	65.305328 
5904.000000	65.406990 
5903.000000	65.446424 
5902.000000	65.419602 
5901.000000	65.332174 
5900.000000	65.198111 
5899.000000	65.036273 
5898.000000	64.867019 
5897.000000	64.708185 
5896.000000	64.572954 
5895.000000	64.468097 
5894.000000	64.393281 
5893.000000	64.344215 
5892.000000	64.314103 
5891.000000	64.298605 
5890.000000	64.296698 
5889.000000	64.312529 
5888.000000	64.352202 
5887.000000	64.422345 
5886.000000	64.525341 
5885.000000	64.657568 
5884.000000	64.807462 
5883.000000	64.957547 
5882.000000	65.087413 
5881.000000	65.178179 
5880.000000	65.217566 
5879.000000	65.201258 
5878.000000	65.134310 
5877.000000	65.028715 
5876.000000	64.900493 
5875.000000	64.766478 
5874.000000	64.641165 
5873.000000	64.534449 
5872.000000	64.451026 
5871.000000	64.391756 
5870.000000	64.354562 
5869.000000	64.336943 
5868.000000	64.336323 
5867.000000	64.348697 
5866.000000	64.369964 
5865.000000	64.394640 
5864.000000	64.418005 
5863.000000	64.434790 
5862.000000	64.442324 
5861.000000	64.440917 
5860.000000	64.434409 
5859.000000	64.428663 
5858.000000	64.430403 
5857.000000	64.445447 
5856.000000	64.476227 
5855.000000	64.521193 
5854.000000	64.574098 
5853.000000	64.625597 
5852.000000	64.664936 
5851.000000	64.682722 
5850.000000	64.672398 
5849.000000	64.631772 
5848.000000	64.564371 
5847.000000	64.479112 
5846.000000	64.388394 
5845.000000	64.306139 
5844.000000	64.245843 
5843.000000	64.218139 
5842.000000	64.229583 
5841.000000	64.281249 
5840.000000	64.368081 
5839.000000	64.480447 
5838.000000	64.604926 
5837.000000	64.728569 
5836.000000	64.839959 
5835.000000	64.933204 
5834.000000	65.007495 
5833.000000	65.067720 
5832.000000	65.122199 
5831.000000	65.179634 
5830.000000	65.247416 
5829.000000	65.327143 
5828.000000	65.415024 
5827.000000	65.500593 
5826.000000	65.571045 
5825.000000	65.611600 
5824.000000	65.610313 
5823.000000	65.559720 
5822.000000	65.459418 
5821.000000	65.315747 
5820.000000	65.141081 
5819.000000	64.950871 
5818.000000	64.761185 
5817.000000	64.586901 
5816.000000	64.439845 
5815.000000	64.327549 
5814.000000	64.253330 
5813.000000	64.216613 
5812.000000	64.214372 
5811.000000	64.240479 
5810.000000	64.288806 
5809.000000	64.352250 
5808.000000	64.425611 
5807.000000	64.503097 
5806.000000	64.581727 
5805.000000	64.659142 
5804.000000	64.735388 
5803.000000	64.810824 
5802.000000	64.886212 
5801.000000	64.962148 
5800.000000	65.037369 
5799.000000	65.109229 
5798.000000	65.172243 
5797.000000	65.219545 
5796.000000	65.243148 
5795.000000	65.236186 
5794.000000	65.193748 
5793.000000	65.114521 
5792.000000	65.001702 
5791.000000	64.863133 
5790.000000	64.709401 
5789.000000	64.552354 
5788.000000	64.404034 
5787.000000	64.274787 
5786.000000	64.170742 
5785.000000	64.094543 
5784.000000	64.045763 
5783.000000	64.022946 
5782.000000	64.023232 
5781.000000	64.045333 
5780.000000	64.087772 
5779.000000	64.150619 
5778.000000	64.233350 
5777.000000	64.334297 
5776.000000	64.448237 
5775.000000	64.567160 
5774.000000	64.680576 
5773.000000	64.777016 
5772.000000	64.845871 
5771.000000	64.880466 
5770.000000	64.879727 
5769.000000	64.848589 
5768.000000	64.796948 
5767.000000	64.738082 
5766.000000	64.686107 
5765.000000	64.652824 
5764.000000	64.645814 
5763.000000	64.667630 
5762.000000	64.715981 
5761.000000	64.785671 
5760.000000	64.869570 
5759.000000	64.960551 
5758.000000	65.051960 
5757.000000	65.138840 
5756.000000	65.217185 
5755.000000	65.282726 
5754.000000	65.331339 
5753.000000	65.359282 
5752.000000	65.363860 
5751.000000	65.344738 
5750.000000	65.304136 
5749.000000	65.248203 
5748.000000	65.184521 
5747.000000	65.122008 
5746.000000	65.067195 
5745.000000	65.023589 
5744.000000	64.989924 
5743.000000	64.961314 
5742.000000	64.930129 
5741.000000	64.888334 
5740.000000	64.830589 
5739.000000	64.756298 
5738.000000	64.669609 
5737.000000	64.578747 
5736.000000	64.493799 
5735.000000	64.424705 
5734.000000	64.377927 
5733.000000	64.355874 
5732.000000	64.356637 
5731.000000	64.375042 
5730.000000	64.404797 
5729.000000	64.439988 
5728.000000	64.475965 
5727.000000	64.510703 
5726.000000	64.543080 
5725.000000	64.574003 
5724.000000	64.604640 
5723.000000	64.636063 
5722.000000	64.668202 
5721.000000	64.699697 
5720.000000	64.728355 
5719.000000	64.750814 
5718.000000	64.763879 
5717.000000	64.764738 
5716.000000	64.751815 
5715.000000	64.724922 
5714.000000	64.685797 
5713.000000	64.636898 
5712.000000	64.581251 
5711.000000	64.521837 
5710.000000	64.461946 
5709.000000	64.404273 
5708.000000	64.351844 
5707.000000	64.308238 
5706.000000	64.278340 
5705.000000	64.267063 
5704.000000	64.279437 
5703.000000	64.319729 
5702.000000	64.389729 
5701.000000	64.487528 
5700.000000	64.606189 
5699.000000	64.734101 
5698.000000	64.856100 
5697.000000	64.956688 
5696.000000	65.021824 
5695.000000	65.041732 
5694.000000	65.012788 
5693.000000	64.938735 
5692.000000	64.829730 
5691.000000	64.700818 
5690.000000	64.568614 
5689.000000	64.448738 
5688.000000	64.353013 
5687.000000	64.288353 
5686.000000	64.255976 
5685.000000	64.252877 
5684.000000	64.273166 
5683.000000	64.310669 
5682.000000	64.361000 
5681.000000	64.422869 
5680.000000	64.497613 
5679.000000	64.587759 
5678.000000	64.694881 
5677.000000	64.816832 
5676.000000	64.947438 
5675.000000	65.074491 
5674.000000	65.181517 
5673.000000	65.249872 
5672.000000	65.263867 
5671.000000	65.214037 
5670.000000	65.100383 
5669.000000	64.933848 
5668.000000	64.735054 
5667.000000	64.531350 
5666.000000	64.352130 
5665.000000	64.222788 
5664.000000	64.160156 
5663.000000	64.168953 
5662.000000	64.241576 
5661.000000	64.359688 
5660.000000	64.498877 
5659.000000	64.632749 
5658.000000	64.738512 
5657.000000	64.800691 
5656.000000	64.813852 
5655.000000	64.782238 
5654.000000	64.718675 
5653.000000	64.640569 
5652.000000	64.566898 
5651.000000	64.515042 
5650.000000	64.497566 
5649.000000	64.521527 
5648.000000	64.586544 
5647.000000	64.686512 
5646.000000	64.809703 
5645.000000	64.941716 
5644.000000	65.067505 
5643.000000	65.173411 
5642.000000	65.249967 
5641.000000	65.291762 
5640.000000	65.299510 
5639.000000	65.278673 
5638.000000	65.239214 
5637.000000	65.193748 
5636.000000	65.154504 
5635.000000	65.131044 
5634.000000	65.128803 
5633.000000	65.148830 
5632.000000	65.186572 
5631.000000	65.233373 
5630.000000	65.277838 
5629.000000	65.308594 
5628.000000	65.316319 
5627.000000	65.296721 
5626.000000	65.250539 
5625.000000	65.184903 
5624.000000	65.112137 
5623.000000	65.047430 
5622.000000	65.006375 
5621.000000	65.000510 
5620.000000	65.035462 
5619.000000	65.108394 
5618.000000	65.208506 
5617.000000	65.319705 
5616.000000	65.423679 
5615.000000	65.505242 
5614.000000	65.554404 
5613.000000	65.570354 
5612.000000	65.560913 
5611.000000	65.539932 
5610.000000	65.523076 
5609.000000	65.522766 
5608.000000	65.544939 
5607.000000	65.586543 
5606.000000	65.636992 
5605.000000	65.681624 
5604.000000	65.706777 
5603.000000	65.704703 
5602.000000	65.676450 
5601.000000	65.632104 
5600.000000	65.587949 
5599.000000	65.561747 
5598.000000	65.567231 
5597.000000	65.609741 
5596.000000	65.683960 
5595.000000	65.775179 
5594.000000	65.862631 
5593.000000	65.925073 
5592.000000	65.946602 
5591.000000	65.920519 
5590.000000	65.851497 
5589.000000	65.753746 
5588.000000	65.647673 
5587.000000	65.553760 
5586.000000	65.488076 
5585.000000	65.458965 
5584.000000	65.464568 
5583.000000	65.494704 
5582.000000	65.533494 
5581.000000	65.564751 
5580.000000	65.575313 
5579.000000	65.558791 
5578.000000	65.516614 
5577.000000	65.457224 
5576.000000	65.393567 
5575.000000	65.339326 
5574.000000	65.305948 
5573.000000	65.299582 
5572.000000	65.320444 
5571.000000	65.362739 
5570.000000	65.416741 
5569.000000	65.471100 
5568.000000	65.515661 
5567.000000	65.543293 
5566.000000	65.551233 
5565.000000	65.540814 
5564.000000	65.515685 
5563.000000	65.480804 
5562.000000	65.440678 
5561.000000	65.398550 
5560.000000	65.355539 
5559.000000	65.311813 
5558.000000	65.267872 
5557.000000	65.225148 
5556.000000	65.187096 
5555.000000	65.157890 
5554.000000	65.141367 
5553.000000	65.140151 
5552.000000	65.154314 
5551.000000	65.180969 
5550.000000	65.214562 
5549.000000	65.248465 
5548.000000	65.276789 
5547.000000	65.296840 
5546.000000	65.309357 
5545.000000	65.318751 
5544.000000	65.330195 
5543.000000	65.347361 
5542.000000	65.369963 
5541.000000	65.393185 
5540.000000	65.408134 
5539.000000	65.405035 
5538.000000	65.375137 
5537.000000	65.314769 
5536.000000	65.225505 
5535.000000	65.115094 
5534.000000	64.995002 
5533.000000	64.877676 
5532.000000	64.774513 
5531.000000	64.693355 
5530.000000	64.638543 
5529.000000	64.610505 
5528.000000	64.607191 
5527.000000	64.625144 
5526.000000	64.660406 
5525.000000	64.709043 
5524.000000	64.766335 
5523.000000	64.826607 
5522.000000	64.882969 
5521.000000	64.928317 
5520.000000	64.956617 
5519.000000	64.964127 
5518.000000	64.951634 
5517.000000	64.923453 
5516.000000	64.886641 
5515.000000	64.848613 
5514.000000	64.815807 
5513.000000	64.791464 
5512.000000	64.774966 
5511.000000	64.762043 
5510.000000	64.746809 
5509.000000	64.723372 
5508.000000	64.688086 
5507.000000	64.640545 
5506.000000	64.583373 
5505.000000	64.522290 
5504.000000	64.464282 
5503.000000	64.416718 
5502.000000	64.385223 
5501.000000	64.373350 
5500.000000	64.381814 
5499.000000	64.408826 
5498.000000	64.450860 
5497.000000	64.502787 
5496.000000	64.558982 
5495.000000	64.613652 
5494.000000	64.662241 
5493.000000	64.702701 
5492.000000	64.736104 
5491.000000	64.766955 
5490.000000	64.802074 
5489.000000	64.849519 
5488.000000	64.914965 
5487.000000	65.001368 
5486.000000	65.104603 
5485.000000	65.214109 
5484.000000	65.312838 
5483.000000	65.382194 
5482.000000	65.404939 
5481.000000	65.370535 
5480.000000	65.277743 
5479.000000	65.136551 
5478.000000	64.965701 
5477.000000	64.789223 
5476.000000	64.630627 
5475.000000	64.508318 
5474.000000	64.431953 
5473.000000	64.401793 
5472.000000	64.409589 
5471.000000	64.441943 
5470.000000	64.484524 
5469.000000	64.526176 
5468.000000	64.559960 
5467.000000	64.584970 
5466.000000	64.605116 
5465.000000	64.627790 
5464.000000	64.660239 
5463.000000	64.708161 
5462.000000	64.774179 
5461.000000	64.857029 
5460.000000	64.953422 
5459.000000	65.056896 
5458.000000	65.159940 
5457.000000	65.253615 
5456.000000	65.329647 
5455.000000	65.380859 
5454.000000	65.402817 
5453.000000	65.393972 
5452.000000	65.356540 
5451.000000	65.295433 
5450.000000	65.218591 
5449.000000	65.134263 
5448.000000	65.051007 
5447.000000	64.974093 
5446.000000	64.905571 
5445.000000	64.843797 
5444.000000	64.785456 
5443.000000	64.724659 
5442.000000	64.655685 
5441.000000	64.575242 
5440.000000	64.484810 
5439.000000	64.391064 
5438.000000	64.305877 
5437.000000	64.243555 
5436.000000	64.218449 
5435.000000	64.241957 
5434.000000	64.318990 
5433.000000	64.446187 
5432.000000	64.611172 
5431.000000	64.794278 
5430.000000	64.971160 
5429.000000	65.117454 
5428.000000	65.213060 
5427.000000	65.246033 
5426.000000	65.214753 
5425.000000	65.127015 
5424.000000	64.999318 
5423.000000	64.852690 
5422.000000	64.709949 
5421.000000	64.591121 
5420.000000	64.512848 
5419.000000	64.486598 
5418.000000	64.518332 
5417.000000	64.608573 
5416.000000	64.750909 
5415.000000	64.932894 
5414.000000	65.136623 
5413.000000	65.341591 
5412.000000	65.526318 
5411.000000	65.672397 
5410.000000	65.767669 
5409.000000	65.808820 
5408.000000	65.801429 
5407.000000	65.758252 
5406.000000	65.697526 
5405.000000	65.637016 
5404.000000	65.591979 
5403.000000	65.569996 
5402.000000	65.572023 
5401.000000	65.591025 
5400.000000	65.617632 
5399.000000	65.639853 
5398.000000	65.647459 
5397.000000	65.633082 
5396.000000	65.594005 
5395.000000	65.531873 
5394.000000	65.450358 
5393.000000	65.357255 
5392.000000	65.261912 
5391.000000	65.176367 
5390.000000	65.113401 
5389.000000	65.084838 
5388.000000	65.099191 
5387.000000	65.159893 
5386.000000	65.263986 
5385.000000	65.401363 
5384.000000	65.556406 
5383.000000	65.709781 
5382.000000	65.842366 
5381.000000	65.939736 
5380.000000	65.993547 
5379.000000	66.003274 
5378.000000	65.973758 
5377.000000	65.914607 
5376.000000	65.834832 
5375.000000	65.741467 
5374.000000	65.636897 
5373.000000	65.521049 
5372.000000	65.391826 
5371.000000	65.248823 
5370.000000	65.094876 
5369.000000	64.937281 
5368.000000	64.787769 
5367.000000	64.659953 
5366.000000	64.567804 
5365.000000	64.521741 
5364.000000	64.527106 
5363.000000	64.582133 
5362.000000	64.679121 
5361.000000	64.805579 
5360.000000	64.946770 
5359.000000	65.088105 
5358.000000	65.217781 
5357.000000	65.327787 
5356.000000	65.414071 
5355.000000	65.475058 
5354.000000	65.511322 
5353.000000	65.522408 
5352.000000	65.508055 
5351.000000	65.465569 
5350.000000	65.391516 
5349.000000	65.282249 
5348.000000	65.138292 
5347.000000	64.964270 
5346.000000	64.769148 
5345.000000	64.567255 
5344.000000	64.376950 
5343.000000	64.217877 
5342.000000	64.107155 
5341.000000	64.056038 
5340.000000	64.067053 
5339.000000	64.133048 
5338.000000	64.238286 
5337.000000	64.361095 
5336.000000	64.477705 
5335.000000	64.567089 
5334.000000	64.614582 
5333.000000	64.613866 
5332.000000	64.567255 
5331.000000	64.484262 
5330.000000	64.379763 
5329.000000	64.267921 
5328.000000	64.162516 
5327.000000	64.076542 
5326.000000	64.023327 
5325.000000	64.013028 
5324.000000	64.055800 
5323.000000	64.162564 
5322.000000	64.340925 
5321.000000	64.594078 
5320.000000	64.913630 
5319.000000	65.277171 
5318.000000	65.648841 
5317.000000	65.984272 
5316.000000	66.237974 
5315.000000	66.373467 
5314.000000	66.370558 
5313.000000	66.231799 
5312.000000	65.980362 
5311.000000	65.656018 
5310.000000	65.306711 
5309.000000	64.979505 
5308.000000	64.710903 
5307.000000	64.520311 
5306.000000	64.409518 
5305.000000	64.362645 
5304.000000	64.349913 
5303.000000	64.333152 
5302.000000	64.271926 
5301.000000	64.133214 
5300.000000	63.893175 
5299.000000	63.549447 
5298.000000	63.116121 
5297.000000	62.632417 
5296.000000	62.155938 
5295.000000	61.754012 
5294.000000	61.493802 
5293.000000	61.420822 
5292.000000	61.548161 
5291.000000	61.847543 
5290.000000	62.252640 
5289.000000	62.674379 
5288.000000	63.018894 
5287.000000	63.213849 
5286.000000	63.223123 
5285.000000	63.057303 
5284.000000	62.766718 
5283.000000	62.429785 
5282.000000	62.130045 
5281.000000	61.938619 
5280.000000	61.896491 
5279.000000	62.010002 
5278.000000	62.251353 
5277.000000	62.568473 
5276.000000	62.898588 
5275.000000	63.184952 
5274.000000	63.388609 
5273.000000	63.490247 
5272.000000	63.494896 
5271.000000	63.420987 
5270.000000	63.300681 
5269.000000	63.168072 
5268.000000	63.057398 
5267.000000	62.998533 
5266.000000	63.012886 
5265.000000	63.111996 
5264.000000	63.297176 
5263.000000	63.561439 
5262.000000	63.890576 
5261.000000	64.265704 
5260.000000	64.664769 
5259.000000	65.064525 
5258.000000	65.440726 
5257.000000	65.770149 
5256.000000	66.030001 
5255.000000	66.200089 
5254.000000	66.268348 
5253.000000	66.233444 
5252.000000	66.107296 
5251.000000	65.913629 
5250.000000	65.684318 
5249.000000	65.453004 
5248.000000	65.250968 
5247.000000	65.099883 
5246.000000	65.009760 
5245.000000	64.977622 
5244.000000	64.988684 
5243.000000	65.022659 
5242.000000	65.060520 
5241.000000	65.089035 
5240.000000	65.102481 
5239.000000	65.103578 
5238.000000	65.098643 
5237.000000	65.095806 
5236.000000	65.099406 
5235.000000	65.108799 
5234.000000	65.118122 
5233.000000	65.117239 
5232.000000	65.095949 
5231.000000	65.045261 
5230.000000	64.961361 
5229.000000	64.844965 
5228.000000	64.701557 
5227.000000	64.542293 
5226.000000	64.382052 
5225.000000	64.236092 
5224.000000	64.116740 
5223.000000	64.030551 
5222.000000	63.976907 
5221.000000	63.947486 
5220.000000	63.929724 
5219.000000	63.909101 
5218.000000	63.875174 
5217.000000	63.823866 
5216.000000	63.760662 
5215.000000	63.696980 
5214.000000	63.649821 
5213.000000	63.635420 
5212.000000	63.666486 
5211.000000	63.747119 
5210.000000	63.872408 
5209.000000	64.028573 
5208.000000	64.196515 
5207.000000	64.356160 
5206.000000	64.490413 
5205.000000	64.588928 
5204.000000	64.648342 
5203.000000	64.671659 
5202.000000	64.666652 
5201.000000	64.643216 
5200.000000	64.612174 
5199.000000	64.583301 
5198.000000	64.565229 
5197.000000	64.564037 
5196.000000	64.581704 
5195.000000	64.615917 
5194.000000	64.661097 
5193.000000	64.710068 
5192.000000	64.755153 
5191.000000	64.790654 
5190.000000	64.814758 
5189.000000	64.829492 
5188.000000	64.838957 
5187.000000	64.848589 
5186.000000	64.862585 
5185.000000	64.883208 
5184.000000	64.910364 
5183.000000	64.941668 
5182.000000	64.974308 
5181.000000	65.004897 
5180.000000	65.031194 
5179.000000	65.051484 
5178.000000	65.064907 
5177.000000	65.070819 
5176.000000	65.068888 
5175.000000	65.058255 
5174.000000	65.037536 
5173.000000	65.007328 
5172.000000	64.970636 
5171.000000	64.933180 
5170.000000	64.902496 
5169.000000	64.886069 
5168.000000	64.889717 
5167.000000	64.915084 
5166.000000	64.959383 
5165.000000	65.016388 
5164.000000	65.077853 
5163.000000	65.135622 
5162.000000	65.183377 
5161.000000	65.217423 
5160.000000	65.237569 
5159.000000	65.245866 
5158.000000	65.246653 
5157.000000	65.245199 
5156.000000	65.246176 
5155.000000	65.253686 
5154.000000	65.268397 
5153.000000	65.288305 
5152.000000	65.308046 
5151.000000	65.320873 
5150.000000	65.319895 
5149.000000	65.300416 
5148.000000	65.260982 
5147.000000	65.204000 
5146.000000	65.135598 
5145.000000	65.064072 
5144.000000	64.997792 
5143.000000	64.943075 
5142.000000	64.902353 
5141.000000	64.874148 
5140.000000	64.853310 
5139.000000	64.833855 
5138.000000	64.810848 
5137.000000	64.783096 
5136.000000	64.753413 
5135.000000	64.729046 
5134.000000	64.717984 
5133.000000	64.728164 
5132.000000	64.763331 
5131.000000	64.823484 
5130.000000	64.904665 
5129.000000	65.000009 
5128.000000	65.101623 
5127.000000	65.200948 
5126.000000	65.290498 
5125.000000	65.363550 
5124.000000	65.415024 
5123.000000	65.441513 
5122.000000	65.441942 
5121.000000	65.417647 
5120.000000	65.372514 
5119.000000	65.312623 
5118.000000	65.245652 
5117.000000	65.179991 
5116.000000	65.123701 
5115.000000	65.083360 
5114.000000	65.063357 
5113.000000	65.065407 
5112.000000	65.088796 
5111.000000	65.130758 
5110.000000	65.187215 
5109.000000	65.252971 
5108.000000	65.322899 
5107.000000	65.391445 
5106.000000	65.453982 
5105.000000	65.505814 
5104.000000	65.543866 
5103.000000	65.567302 
5102.000000	65.577054 
5101.000000	65.576577 
5100.000000	65.569090 
5099.000000	65.557408 
5098.000000	65.542149 
5097.000000	65.522122 
5096.000000	65.494966 
5095.000000	65.458798 
5094.000000	65.413427 
5093.000000	65.361261 
5092.000000	65.307283 
5091.000000	65.258502 
5090.000000	65.221524 
5089.000000	65.200853 
5088.000000	65.198111 
5087.000000	65.211033 
5086.000000	65.233945 
5085.000000	65.258860 
5084.000000	65.277266 
5083.000000	65.281844 
5082.000000	65.267610 
5081.000000	65.233325 
5080.000000	65.180850 
5079.000000	65.115714 
5078.000000	65.044522 
5077.000000	64.975595 
5076.000000	64.917302 
5075.000000	64.877557 
5074.000000	64.862632 
5073.000000	64.876270 
5072.000000	64.919209 
5071.000000	64.988255 
5070.000000	65.076756 
5069.000000	65.174698 
5068.000000	65.269947 
5067.000000	65.349793 
5066.000000	65.403056 
5065.000000	65.421104 
5064.000000	65.399360 
5063.000000	65.338039 
5062.000000	65.242171 
5061.000000	65.120720 
5060.000000	64.984822 
5059.000000	64.847254 
5058.000000	64.719915 
5057.000000	64.611768 
5056.000000	64.527988 
5055.000000	64.469885 
5054.000000	64.435577 
5053.000000	64.420390 
5052.000000	64.419245 
5051.000000	64.426755 
5050.000000	64.440011 
5049.000000	64.456939 
5048.000000	64.478182 
5047.000000	64.504814 
5046.000000	64.538693 
5045.000000	64.580678 
5044.000000	64.630365 
5043.000000	64.685320 
5042.000000	64.741396 
5041.000000	64.793467 
5040.000000	64.836025 
5039.000000	64.864444 
5038.000000	64.876461 
5037.000000	64.873170 
5036.000000	64.858579 
5035.000000	64.839243 
5034.000000	64.823341 
5033.000000	64.818882 
5032.000000	64.832067 
5031.000000	64.866209 
5030.000000	64.920902 
5029.000000	64.992332 
5028.000000	65.074801 
5027.000000	65.161681 
5026.000000	65.246462 
5025.000000	65.323972 
5024.000000	65.391826 
5023.000000	65.449047 
5022.000000	65.495586 
5021.000000	65.530800 
5020.000000	65.553808 
5019.000000	65.561866 
5018.000000	65.551781 
5017.000000	65.519905 
5016.000000	65.464282 
5015.000000	65.384912 
5014.000000	65.285396 
5013.000000	65.172195 
5012.000000	65.054106 
5011.000000	64.940810 
5010.000000	64.841532 
5009.000000	64.762902 
5008.000000	64.707994 
5007.000000	64.675569 
5006.000000	64.661240 
5005.000000	64.657902 
5004.000000	64.658808 
5003.000000	64.658379 
5002.000000	64.654827 
5001.000000	64.649462 
5000.000000	64.647364 
4999.000000	64.654612 
4998.000000	64.677381 
4997.000000	64.719033 
4996.000000	64.778995 
4995.000000	64.853024 
4994.000000	64.932727 
4993.000000	65.007972 
4992.000000	65.067934 
4991.000000	65.103626 
4990.000000	65.109229 
4989.000000	65.083408 
4988.000000	65.029430 
4987.000000	64.954376 
4986.000000	64.868211 
4985.000000	64.781808 
4984.000000	64.705514 
4983.000000	64.647698 
4982.000000	64.613747 
4981.000000	64.605879 
4980.000000	64.622998 
4979.000000	64.661717 
4978.000000	64.716839 
4977.000000	64.783048 
4976.000000	64.854884 
4975.000000	64.928030 
4974.000000	64.998650 
4973.000000	65.064191 
4972.000000	65.122246 
4971.000000	65.171289 
4970.000000	65.209865 
4969.000000	65.237426 
4968.000000	65.254926 
4967.000000	65.264081 
4966.000000	65.268373 
4965.000000	65.270805 
4964.000000	65.274381 
4963.000000	65.279889 
4962.000000	65.286183 
4961.000000	65.289425 
4960.000000	65.284371 
4959.000000	65.265178 
4958.000000	65.227508 
4957.000000	65.169358 
4956.000000	65.092015 
4955.000000	65.000152 
4954.000000	64.901185 
4953.000000	64.803409 
4952.000000	64.714884 
4951.000000	64.641857 
4950.000000	64.588260 
4949.000000	64.555668 
4948.000000	64.543557 
4947.000000	64.549660 
4946.000000	64.570617 
4945.000000	64.602756 
4944.000000	64.642047 
4943.000000	64.682984 
4942.000000	64.720082 
4941.000000	64.747834 
4940.000000	64.762091 
4939.000000	64.759826 
4938.000000	64.741182 
4937.000000	64.709186 
4936.000000	64.669823 
4935.000000	64.631152 
4934.000000	64.601278 
4933.000000	64.586520 
4932.000000	64.590001 
4931.000000	64.611220 
4930.000000	64.645814 
4929.000000	64.687085 
4928.000000	64.727711 
4927.000000	64.761471 
4926.000000	64.784312 
4925.000000	64.794683 
4924.000000	64.793777 
4923.000000	64.784193 
4922.000000	64.768695 
4921.000000	64.748716 
4920.000000	64.724874 
4919.000000	64.695668 
4918.000000	64.658331 
4917.000000	64.610004 
4916.000000	64.549088 
4915.000000	64.477109 
4914.000000	64.398813 
4913.000000	64.322662 
4912.000000	64.258503 
4911.000000	64.216732 
4910.000000	64.205670 
4909.000000	64.229536 
4908.000000	64.286756 
4907.000000	64.370465 
4906.000000	64.469623 
4905.000000	64.571285 
4904.000000	64.663076 
4903.000000	64.735770 
4902.000000	64.784669 
4901.000000	64.810538 
4900.000000	64.818644 
4899.000000	64.816570 
4898.000000	64.811968 
4897.000000	64.810824 
4896.000000	64.816164 
4895.000000	64.828872 
4894.000000	64.847469 
4893.000000	64.870309 
4892.000000	64.895009 
4891.000000	64.920043 
4890.000000	64.943623 
4889.000000	64.964437 
4888.000000	64.980459 
4887.000000	64.989256 
4886.000000	64.987492 
4885.000000	64.972376 
4884.000000	64.941549 
4883.000000	64.893794 
4882.000000	64.830231 
4881.000000	64.754486 
4880.000000	64.673137 
4879.000000	64.594745 
4878.000000	64.529466 
4877.000000	64.487028 
4876.000000	64.475393 
4875.000000	64.498925 
4874.000000	64.556741 
4873.000000	64.642310 
4872.000000	64.744162 
4871.000000	64.847779 
4870.000000	64.937376 
4869.000000	64.999580 
4868.000000	65.025973 
4867.000000	65.015268 
4866.000000	64.973378 
4865.000000	64.911866 
4864.000000	64.845204 
4863.000000	64.787101 
4862.000000	64.747881 
4861.000000	64.731860 
4860.000000	64.738011 
4859.000000	64.760160 
4858.000000	64.790153 
4857.000000	64.819693 
4856.000000	64.843010 
4855.000000	64.858031 
4854.000000	64.866065 
4853.000000	64.871311 
4852.000000	64.878463 
4851.000000	64.891362 
4850.000000	64.911413 
4849.000000	64.937043 
4848.000000	64.964175 
4847.000000	64.987802 
4846.000000	65.003442 
4845.000000	65.008592 
4844.000000	65.003585 
4843.000000	64.991164 
4842.000000	64.975857 
4841.000000	64.962816 
4840.000000	64.956212 
4839.000000	64.957880 
4838.000000	64.967226 
4837.000000	64.981985 
4836.000000	64.998745 
4835.000000	65.014076 
4834.000000	65.025639 
4833.000000	65.032410 
4832.000000	65.035080 
4831.000000	65.035486 
4830.000000	65.035963 
4829.000000	65.038037 
4828.000000	65.042519 
4827.000000	65.049266 
4826.000000	65.057229 
4825.000000	65.064930 
4824.000000	65.070915 
4823.000000	65.074229 
4822.000000	65.074229 
4821.000000	65.070700 
4820.000000	65.063452 
4819.000000	65.052199 
4818.000000	65.036463 
4817.000000	65.015769 
4816.000000	64.989852 
4815.000000	64.958906 
4814.000000	64.923810 
4813.000000	64.886045 
4812.000000	64.847779 
4811.000000	64.811563 
4810.000000	64.779472 
4809.000000	64.753556 
4808.000000	64.735054 
4807.000000	64.724946 
4806.000000	64.723396 
4805.000000	64.730596 
4804.000000	64.746117 
4803.000000	64.769816 
4802.000000	64.801669 
4801.000000	64.841580 
4800.000000	64.888715 
4799.000000	64.941573 
4798.000000	64.997720 
4797.000000	65.053486 
4796.000000	65.104532 
4795.000000	65.146112 
4794.000000	65.173840 
4793.000000	65.184783 
4792.000000	65.178108 
4791.000000	65.155625 
4790.000000	65.121650 
4789.000000	65.082812 
4788.000000	65.046691 
4787.000000	65.020656 
4786.000000	65.010261 
4785.000000	65.018677 
4784.000000	65.045714 
4783.000000	65.088200 
4782.000000	65.140509 
4781.000000	65.196037 
4780.000000	65.247917 
4779.000000	65.290355 
4778.000000	65.319323 
4777.000000	65.332770 
4776.000000	65.330672 
4775.000000	65.314531 
4774.000000	65.287017 
4773.000000	65.251421 
4772.000000	65.211272 
4771.000000	65.170407 
4770.000000	65.132403 
4769.000000	65.100574 
4768.000000	65.077948 
4767.000000	65.067076 
4766.000000	65.069317 
4765.000000	65.084481 
4764.000000	65.111064 
4763.000000	65.146350 
4762.000000	65.186405 
4761.000000	65.226578 
4760.000000	65.262341 
4759.000000	65.289759 
4758.000000	65.306234 
4757.000000	65.310573 
4756.000000	65.302968 
4755.000000	65.284729 
4754.000000	65.258240 
4753.000000	65.226435 
4752.000000	65.192294 
4751.000000	65.158748 
4750.000000	65.128564 
4749.000000	65.104007 
4748.000000	65.087056 
4747.000000	65.078926 
4746.000000	65.079784 
4745.000000	65.088486 
4744.000000	65.102624 
4743.000000	65.118360 
4742.000000	65.131115 
4741.000000	65.135908 
4740.000000	65.128421 
4739.000000	65.106105 
4738.000000	65.069055 
4737.000000	65.020442 
4736.000000	64.966273 
4735.000000	64.914536 
4734.000000	64.873719 
4733.000000	64.850974 
4732.000000	64.850735 
4731.000000	64.873552 
4730.000000	64.916300 
4729.000000	64.973282 
4728.000000	65.037155 
4727.000000	65.100574 
4726.000000	65.157413 
4725.000000	65.203499 
4724.000000	65.236997 
4723.000000	65.257787 
4722.000000	65.267491 
4721.000000	65.268325 
4720.000000	65.263128 
4719.000000	65.254807 
4718.000000	65.246081 
4717.000000	65.239596 
4716.000000	65.237331 
4715.000000	65.240883 
4714.000000	65.250182 
4713.000000	65.263772 
4712.000000	65.278768 
4711.000000	65.292048 
4710.000000	65.300774 
4709.000000	65.303468 
4708.000000	65.300703 
4707.000000	65.294718 
4706.000000	65.288400 
4705.000000	65.284442 
4704.000000	65.284347 
4703.000000	65.287971 
4702.000000	65.293884 
4701.000000	65.299463 
4700.000000	65.302658 
4699.000000	65.301752 
4698.000000	65.296196 
4697.000000	65.285849 
4696.000000	65.270853 
4695.000000	65.251016 
4694.000000	65.225839 
4693.000000	65.194797 
4692.000000	65.157318 
4691.000000	65.114569 
4690.000000	65.069675 
4689.000000	65.027976 
4688.000000	64.996242 
4687.000000	64.981436 
4686.000000	64.989161 
4685.000000	65.021586 
4684.000000	65.076732 
4683.000000	65.148949 
4682.000000	65.230178 
4681.000000	65.311336 
4680.000000	65.384411 
4679.000000	65.443873 
4678.000000	65.487647 
4677.000000	65.516638 
4676.000000	65.534090 
4675.000000	65.544652 
4674.000000	65.552711 
4673.000000	65.561413 
4672.000000	65.571856 
4671.000000	65.583539 
4670.000000	65.594148 
4669.000000	65.601372 
4668.000000	65.602898 
4667.000000	65.597987 
4666.000000	65.586781 
4665.000000	65.570926 
4664.000000	65.551853 
4663.000000	65.530204 
4662.000000	65.505385 
4661.000000	65.475702 
4660.000000	65.438628 
4659.000000	65.391945 
4658.000000	65.334963 
4657.000000	65.269613 
4656.000000	65.200233 
4655.000000	65.133309 
4654.000000	65.076041 
4653.000000	65.034675 
4652.000000	65.012979 
4651.000000	65.011143 
4650.000000	65.024948 
4649.000000	65.047001 
4648.000000	65.068483 
4647.000000	65.081405 
4646.000000	65.079665 
4645.000000	65.061545 
4644.000000	65.029335 
4643.000000	64.989447 
4642.000000	64.949846 
4641.000000	64.919257 
4640.000000	64.904904 
4639.000000	64.911031 
4638.000000	64.937901 
4637.000000	64.982104 
4636.000000	65.037536 
4635.000000	65.096712 
4634.000000	65.152502 
4633.000000	65.199851 
4632.000000	65.236401 
4631.000000	65.262722 
4630.000000	65.281367 
4629.000000	65.295362 
4628.000000	65.306949 
4627.000000	65.316843 
4626.000000	65.323972 
4625.000000	65.326046 
4624.000000	65.320301 
4623.000000	65.305709 
4622.000000	65.283060 
4621.000000	65.255355 
4620.000000	65.226459 
4619.000000	65.201044 
4618.000000	65.181899 
4617.000000	65.169429 
4616.000000	65.161085 
4615.000000	65.152001 
4614.000000	65.136885 
4613.000000	65.111637 
4612.000000	65.075063 
4611.000000	65.029621 
4610.000000	64.980721 
4609.000000	64.935445 
4608.000000	64.900255 
4607.000000	64.879179 
4606.000000	64.873266 
4605.000000	64.880490 
4604.000000	64.896368 
4603.000000	64.915251 
4602.000000	64.932894 
4601.000000	64.947390 
4600.000000	64.958953 
4599.000000	64.969849 
4598.000000	64.983057 
4597.000000	65.001225 
4596.000000	65.025162 
4595.000000	65.053653 
4594.000000	65.083599 
4593.000000	65.111041 
4592.000000	65.132570 
4591.000000	65.146040 
4590.000000	65.151286 
4589.000000	65.149974 
4588.000000	65.145492 
4587.000000	65.141296 
4586.000000	65.140151 
4585.000000	65.142679 
4584.000000	65.148210 
4583.000000	65.153074 
4582.000000	65.152001 
4581.000000	65.138697 
4580.000000	65.107798 
4579.000000	65.055465 
4578.000000	64.980721 
4577.000000	64.885926 
4576.000000	64.776754 
4575.000000	64.661622 
4574.000000	64.550399 
4573.000000	64.452838 
4572.000000	64.376878 
4571.000000	64.327359 
4570.000000	64.305400 
4569.000000	64.307808 
4568.000000	64.328885 
4567.000000	64.361286 
4566.000000	64.398598 
4565.000000	64.435052 
4564.000000	64.468002 
4563.000000	64.496827 
4562.000000	64.523506 
4561.000000	64.550065 
4560.000000	64.579010 
4559.000000	64.612174 
4558.000000	64.650177 
4557.000000	64.692306 
4556.000000	64.736127 
4555.000000	64.778518 
4554.000000	64.815521 
4553.000000	64.843463 
4552.000000	64.859104 
4551.000000	64.860367 
4550.000000	64.847016 
4549.000000	64.820790 
4548.000000	64.784908 
4547.000000	64.743399 
4546.000000	64.701437 
4545.000000	64.663934 
4544.000000	64.634466 
4543.000000	64.614248 
4542.000000	64.602804 
4541.000000	64.597177 
4540.000000	64.592957 
4539.000000	64.584803 
4538.000000	64.567828 
4537.000000	64.538502 
4536.000000	64.495754 
4535.000000	64.440941 
4534.000000	64.377498 
4533.000000	64.310121 
4532.000000	64.243865 
4531.000000	64.182996 
4530.000000	64.130163 
4529.000000	64.086413 
4528.000000	64.051342 
4527.000000	64.023947 
4526.000000	64.003443 
4525.000000	63.990497 
4524.000000	63.987660 
4523.000000	63.998699 
4522.000000	64.027547 
4521.000000	64.077520 
4520.000000	64.149594 
4519.000000	64.241290 
4518.000000	64.345669 
4517.000000	64.452457 
4516.000000	64.548754 
4515.000000	64.621996 
4514.000000	64.661669 
4513.000000	64.661335 
4512.000000	64.620161 
4511.000000	64.543533 
4510.000000	64.442253 
4509.000000	64.330673 
4508.000000	64.224147 
4507.000000	64.137244 
4506.000000	64.080524 
4505.000000	64.059591 
4504.000000	64.073991 
4503.000000	64.118576 
4502.000000	64.184141 
4501.000000	64.259743 
4500.000000	64.334249 
4499.000000	64.398217 
4498.000000	64.444494 
4497.000000	64.468502 
4496.000000	64.468216 
4495.000000	64.443874 
4494.000000	64.397716 
4493.000000	64.333677 
4492.000000	64.257717 
4491.000000	64.176607 
4490.000000	64.097929 
4489.000000	64.029049 
4488.000000	63.975882 
4487.000000	63.942742 
4486.000000	63.932108 
4485.000000	63.944268 
4484.000000	63.976383 
4483.000000	64.023900 
4482.000000	64.080977 
4481.000000	64.141869 
4480.000000	64.200758 
4479.000000	64.253616 
4478.000000	64.297986 
4477.000000	64.333438 
4476.000000	64.360976 
4475.000000	64.381647 
4474.000000	64.395856 
4473.000000	64.402914 
4472.000000	64.401435 
4471.000000	64.389681 
4470.000000	64.366769 
4469.000000	64.333963 
4468.000000	64.295101 
4467.000000	64.256787 
4466.000000	64.226555 
4465.000000	64.211964 
4464.000000	64.217352 
4463.000000	64.241695 
4462.000000	64.277815 
4461.000000	64.313459 
4460.000000	64.333963 
4459.000000	64.326310 
4458.000000	64.282345 
4457.000000	64.201927 
4456.000000	64.092421 
4455.000000	63.966488 
4454.000000	63.839650 
4453.000000	63.725161 
4452.000000	63.633394 
4451.000000	63.570475 
4450.000000	63.537764 
4449.000000	63.532924 
4448.000000	63.550186 
4447.000000	63.582062 
4446.000000	63.620996 
4445.000000	63.660097 
4444.000000	63.697028 
4443.000000	63.733744 
4442.000000	63.776421 
4441.000000	63.832592 
4440.000000	63.907170 
4439.000000	63.999819 
4438.000000	64.103269 
4437.000000	64.204764 
4436.000000	64.289665 
4435.000000	64.344620 
4434.000000	64.363002 
4433.000000	64.344692 
4432.000000	64.297056 
4431.000000	64.230728 
4430.000000	64.156389 
4429.000000	64.081358 
4428.000000	64.008736 
4427.000000	63.936901 
4426.000000	63.862085 
4425.000000	63.780546 
4424.000000	63.688063 
4423.000000	63.588142 
4422.000000	63.498735 
4421.000000	63.435173 
4420.000000	63.401746 
4419.000000	63.397812 
4418.000000	63.416242 
4417.000000	63.449954 
4416.000000	63.495159 
4415.000000	63.546991 
4414.000000	63.600707 
4413.000000	63.654255 
4412.000000	63.707518 
4411.000000	63.760876 
4410.000000	63.813543 
4409.000000	63.864374 
4408.000000	63.908958 
4407.000000	63.939881 
4406.000000	63.945269 
4405.000000	63.917088 
4404.000000	63.845658 
4403.000000	63.718962 
4402.000000	63.534259 
4401.000000	63.271999 
4400.000000	62.957143 
4399.000000	62.620997 
4398.000000	62.380599 
4397.000000	62.428855 
4396.000000	62.989211 
4395.000000	64.282202 
4394.000000	66.382288 
4393.000000	69.172406 
4392.000000	72.307658 
4391.000000	75.266742 
4390.000000	77.503156 
4389.000000	78.579115 
4388.000000	78.309631 
4387.000000	76.809740 
4386.000000	74.435710 
4385.000000	71.692562 
4384.000000	69.076085 
4383.000000	66.967678 
4382.000000	65.582799 
4381.000000	64.936923 
4380.000000	64.929771 
4379.000000	65.356588 
4378.000000	65.994167 
4377.000000	66.639018 
4376.000000	67.125344 
4375.000000	67.370367 
4374.000000	67.348599 
4373.000000	67.103695 
4372.000000	66.702604 
4371.000000	66.225552 
4370.000000	65.731501 
4369.000000	65.257024 
4368.000000	64.813041 
4367.000000	64.399790 
4366.000000	64.024949 
4365.000000	63.703083 
4364.000000	63.461446 
4363.000000	63.326001 
4362.000000	63.314628 
4361.000000	63.420605 
4360.000000	63.611245 
4359.000000	63.844203 
4358.000000	64.075088 
4357.000000	64.264178 
4356.000000	64.385390 
4355.000000	64.427256 
4354.000000	64.395308 
4353.000000	64.308905 
4352.000000	64.196085 
4351.000000	64.077734 
4350.000000	63.971757 
4349.000000	63.898754 
4348.000000	63.873076 
4347.000000	63.903951 
4346.000000	63.991165 
4345.000000	64.125204 
4344.000000	64.289331 
4343.000000	64.463973 
4342.000000	64.628601 
4341.000000	64.765548 
4340.000000	64.861059 
4339.000000	64.905929 
4338.000000	64.898276 
4337.000000	64.843559 
4336.000000	64.751291 
4335.000000	64.633083 
4334.000000	64.502215 
4333.000000	64.372014 
4332.000000	64.253759 
4331.000000	64.155888 
4330.000000	64.084815 
4329.000000	64.044189 
4328.000000	64.035344 
4327.000000	64.057135 
4326.000000	64.103913 
4325.000000	64.168310 
4324.000000	64.242458 
4323.000000	64.319157 
4322.000000	64.391660 
4321.000000	64.454936 
4320.000000	64.505147 
4319.000000	64.540243 
4318.000000	64.559602 
4317.000000	64.564013 
4316.000000	64.555120 
4315.000000	64.535784 
4314.000000	64.510416 
4313.000000	64.483666 
4312.000000	64.460134 
4311.000000	64.443564 
4310.000000	64.436364 
4309.000000	64.439678 
4308.000000	64.453482 
4307.000000	64.476919 
4306.000000	64.508080 
4305.000000	64.544177 
4304.000000	64.580941 
4303.000000	64.613223 
4302.000000	64.634704 
4301.000000	64.638185 
4300.000000	64.616775 
4299.000000	64.565300 
4298.000000	64.482355 
4297.000000	64.370822 
4296.000000	64.239406 
4295.000000	64.101195 
4294.000000	63.972759 
4293.000000	63.871121 
4292.000000	63.811206 
4291.000000	63.802099 
4290.000000	63.846015 
4289.000000	63.937258 
4288.000000	64.064097 
4287.000000	64.210057 
4286.000000	64.358496 
4285.000000	64.494991 
4284.000000	64.610219 
4283.000000	64.700198 
4282.000000	64.765930 
4281.000000	64.811515 
4280.000000	64.842033 
4279.000000	64.861297 
4278.000000	64.870810 
4277.000000	64.869093 
4276.000000	64.853787 
4275.000000	64.822340 
4274.000000	64.774131 
4273.000000	64.711046 
4272.000000	64.638137 
4271.000000	64.562845 
4270.000000	64.493298 
4269.000000	64.437222 
4268.000000	64.399862 
4267.000000	64.384365 
4266.000000	64.390611 
4265.000000	64.416527 
4264.000000	64.458847 
4263.000000	64.513254 
4262.000000	64.574933 
4261.000000	64.638996 
4260.000000	64.700436 
4259.000000	64.754557 
4258.000000	64.797139 
4257.000000	64.825153 
4256.000000	64.836883 
4255.000000	64.833235 
4254.000000	64.817619 
4253.000000	64.795327 
4252.000000	64.772200 
4251.000000	64.754343 
4250.000000	64.746451 
4249.000000	64.750957 
4248.000000	64.767575 
4247.000000	64.793467 
4246.000000	64.824151 
4245.000000	64.854788 
4244.000000	64.881134 
4243.000000	64.900135 
4242.000000	64.910554 
4241.000000	64.912843 
4240.000000	64.908957 
4239.000000	64.901375 
4238.000000	64.892792 
4237.000000	64.885687 
4236.000000	64.881539 
4235.000000	64.881062 
4234.000000	64.883589 
4233.000000	64.887857 
4232.000000	64.891743 
4231.000000	64.893150 
4230.000000	64.889883 
4229.000000	64.880084 
4228.000000	64.862585 
4227.000000	64.837336 
4226.000000	64.805436 
4225.000000	64.769101 
4224.000000	64.731621 
4223.000000	64.696955 
4222.000000	64.669322 
4221.000000	64.652419 
4220.000000	64.648890 
4219.000000	64.659762 
4218.000000	64.684414 
4217.000000	64.720129 
4216.000000	64.762544 
4215.000000	64.806222 
4214.000000	64.845585 
4213.000000	64.875888 
4212.000000	64.894032 
4211.000000	64.899063 
4210.000000	64.892387 
4209.000000	64.876914 
4208.000000	64.856672 
4207.000000	64.835524 
4206.000000	64.816308 
4205.000000	64.800977 
4204.000000	64.790797 
4203.000000	64.786100 
4202.000000	64.786624 
4201.000000	64.792180 
4200.000000	64.802718 
4199.000000	64.818215 
4198.000000	64.838361 
4197.000000	64.862275 
4196.000000	64.888501 
4195.000000	64.915275 
4194.000000	64.940953 
4193.000000	64.963889 
4192.000000	64.983057 
4191.000000	64.998793 
4190.000000	65.012741 
4189.000000	65.027022 
4188.000000	65.043902 
4187.000000	65.065717 
4186.000000	65.093493 
4185.000000	65.127372 
4184.000000	65.164852 
4183.000000	65.202593 
4182.000000	65.234518 
4181.000000	65.253949 
4180.000000	65.253114 
4179.000000	65.225553 
4178.000000	65.166831 
4177.000000	65.076327 
4176.000000	64.958095 
4175.000000	64.820814 
4174.000000	64.677047 
4173.000000	64.541578 
4172.000000	64.429163 
4171.000000	64.352345 
4170.000000	64.319849 
4169.000000	64.335775 
4168.000000	64.398550 
4167.000000	64.502096 
4166.000000	64.636802 
4165.000000	64.791560 
4164.000000	64.954137 
4163.000000	65.113544 
4162.000000	65.260410 
4161.000000	65.387940 
4160.000000	65.491509 
4159.000000	65.568327 
4158.000000	65.617561 
4157.000000	65.639352 
4156.000000	65.636181 
4155.000000	65.611171 
4154.000000	65.569210 
4153.000000	65.515470 
4152.000000	65.456581 
4151.000000	65.398430 
4150.000000	65.346550 
4149.000000	65.304517 
4148.000000	65.274286 
4147.000000	65.255451 
4146.000000	65.245819 
4145.000000	65.242266 
4144.000000	65.241384 
4143.000000	65.240168 
4142.000000	65.236473 
4141.000000	65.229463 
4140.000000	65.219330 
4139.000000	65.206217 
4138.000000	65.190482 
4137.000000	65.171742 
4136.000000	65.150427 
4135.000000	65.127825 
4134.000000	65.107083 
4133.000000	65.091896 
4132.000000	65.087008 
4131.000000	65.097212 
4130.000000	65.125489 
4129.000000	65.171575 
4128.000000	65.231513 
4127.000000	65.298533 
4126.000000	65.363788 
4125.000000	65.418004 
4124.000000	65.453672 
4123.000000	65.466499 
4122.000000	65.456557 
4121.000000	65.427947 
4120.000000	65.387916 
4119.000000	65.344905 
4118.000000	65.307140 
4117.000000	65.280890 
4116.000000	65.269875 
4115.000000	65.274453 
4114.000000	65.292525 
4113.000000	65.319895 
4112.000000	65.351319 
4111.000000	65.381336 
4110.000000	65.404820 
4109.000000	65.418100 
4108.000000	65.418958 
4107.000000	65.407466 
4106.000000	65.385580 
4105.000000	65.356731 
4104.000000	65.324950 
4103.000000	65.294098 
4102.000000	65.267395 
4101.000000	65.246486 
4100.000000	65.231466 
4099.000000	65.220785 
4098.000000	65.212273 
4097.000000	65.203404 
4096.000000	65.192174 
4095.000000	65.177679 
4094.000000	65.160036 
4093.000000	65.140461 
4092.000000	65.120577 
4091.000000	65.101909 
4090.000000	65.085315 
4089.000000	65.070581 
4088.000000	65.056777 
4087.000000	65.042734 
4086.000000	65.027618 
4085.000000	65.011262 
4084.000000	64.994788 
4083.000000	64.980268 
4082.000000	64.970898 
4081.000000	64.970135 
4080.000000	64.981150 
4079.000000	65.005493 
4078.000000	65.042901 
4077.000000	65.090990 
4076.000000	65.145826 
4075.000000	65.202212 
4074.000000	65.254950 
4073.000000	65.299606 
4072.000000	65.333366 
4071.000000	65.355420 
4070.000000	65.366768 
4069.000000	65.369606 
4068.000000	65.366721 
4067.000000	65.360736 
4066.000000	65.353846 
4065.000000	65.347385 
4064.000000	65.342235 
4063.000000	65.338826 
4062.000000	65.337491 
4061.000000	65.338468 
4060.000000	65.342164 
4059.000000	65.348601 
4058.000000	65.357160 
4057.000000	65.366411 
4056.000000	65.374088 
4055.000000	65.377569 
4054.000000	65.374493 
4053.000000	65.363740 
4052.000000	65.345525 
4051.000000	65.321779 
4050.000000	65.296006 
4049.000000	65.272259 
4048.000000	65.254449 
4047.000000	65.245079 
4046.000000	65.245032 
4045.000000	65.252733 
4044.000000	65.264701 
4043.000000	65.276241 
4042.000000	65.282654 
4041.000000	65.280055 
4040.000000	65.266299 
4039.000000	65.241599 
4038.000000	65.208601 
4037.000000	65.171742 
4036.000000	65.136194 
4035.000000	65.106773 
4034.000000	65.086674 
4033.000000	65.076971 
4032.000000	65.076327 
4031.000000	65.081334 
4030.000000	65.087127 
4029.000000	65.088701 
4028.000000	65.082073 
4027.000000	65.064764 
4026.000000	65.037012 
4025.000000	65.000939 
4024.000000	64.960741 
4023.000000	64.921069 
4022.000000	64.886665 
4021.000000	64.861321 
4020.000000	64.846897 
4019.000000	64.843034 
4018.000000	64.847683 
4017.000000	64.857745 
4016.000000	64.869809 
4015.000000	64.880943 
4014.000000	64.889550 
4013.000000	64.895319 
4012.000000	64.899587 
4011.000000	64.904594 
4010.000000	64.912819 
4009.000000	64.925956 
4008.000000	64.944601 
4007.000000	64.967632 
4006.000000	64.992713 
4005.000000	65.016794 
4004.000000	65.036773 
4003.000000	65.049934 
4002.000000	65.055131 
4001.000000	65.052700 
4000.000000	65.044140 
3999.000000	65.031957 
3998.000000	65.018963 
3997.000000	65.008068 
3996.000000	65.001749 
3995.000000	65.001821 
3994.000000	65.009737 
3993.000000	65.025806 
3992.000000	65.049695 
3991.000000	65.079736 
3990.000000	65.113544 
3989.000000	65.147352 
3988.000000	65.176510 
3987.000000	65.196204 
3986.000000	65.202260 
3985.000000	65.192222 
3984.000000	65.166068 
3983.000000	65.126585 
3982.000000	65.078949 
3981.000000	65.029811 
3980.000000	64.986157 
3979.000000	64.953851 
3978.000000	64.936423 
3977.000000	64.934825 
3976.000000	64.947485 
3975.000000	64.970874 
3974.000000	65.000581 
3973.000000	65.032339 
3972.000000	65.062880 
3971.000000	65.089774 
3970.000000	65.112185 
3969.000000	65.130043 
3968.000000	65.144133 
3967.000000	65.155005 
3966.000000	65.163302 
3965.000000	65.169548 
3964.000000	65.174150 
3963.000000	65.177536 
3962.000000	65.179920 
3961.000000	65.181636 
3960.000000	65.182614 
3959.000000	65.182733 
3958.000000	65.181636 
3957.000000	65.178966 
3956.000000	65.174794 
3955.000000	65.169596 
3954.000000	65.164375 
3953.000000	65.160465 
3952.000000	65.159273 
3951.000000	65.161967 
3950.000000	65.169000 
3949.000000	65.179729 
3948.000000	65.192747 
3947.000000	65.205836 
3946.000000	65.216612 
3945.000000	65.222668 
3944.000000	65.222311 
3943.000000	65.214514 
3942.000000	65.199255 
3941.000000	65.177130 
3940.000000	65.149354 
3939.000000	65.117502 
3938.000000	65.083599 
3937.000000	65.049719 
3936.000000	65.018105 
3935.000000	64.990925 
3934.000000	64.970302 
3933.000000	64.957880 
3932.000000	64.954638 
3931.000000	64.960741 
3930.000000	64.975285 
3929.000000	64.996576 
3928.000000	65.022110 
3927.000000	65.048909 
3926.000000	65.073609 
3925.000000	65.093135 
3924.000000	65.104866 
3923.000000	65.106773 
3922.000000	65.097808 
3921.000000	65.077972 
3920.000000	65.048789 
3919.000000	65.012955 
3918.000000	64.974522 
3917.000000	64.938044 
3916.000000	64.908194 
3915.000000	64.889097 
3914.000000	64.883184 
3913.000000	64.890789 
3912.000000	64.909815 
3911.000000	64.936208 
3910.000000	64.964795 
3909.000000	64.990234 
3908.000000	65.008449 
3907.000000	65.017247 
3906.000000	65.017056 
3905.000000	65.010499 
3904.000000	65.001702 
3903.000000	64.994978 
3902.000000	64.993834 
3901.000000	65.000247 
3900.000000	65.014481 
3899.000000	65.035271 
3898.000000	65.060567 
3897.000000	65.087962 
3896.000000	65.115523 
3895.000000	65.141630 
3894.000000	65.165305 
3893.000000	65.185332 
3892.000000	65.200209 
3891.000000	65.207648 
3890.000000	65.205502 
3889.000000	65.191650 
3888.000000	65.165114 
3887.000000	65.126657 
3886.000000	65.079259 
3885.000000	65.027952 
3884.000000	64.978861 
3883.000000	64.938282 
3882.000000	64.911413 
3881.000000	64.901590 
3880.000000	64.909672 
3879.000000	64.933848 
3878.000000	64.970040 
3877.000000	65.012788 
3876.000000	65.056395 
3875.000000	65.095257 
3874.000000	65.124964 
3873.000000	65.142798 
3872.000000	65.148210 
3871.000000	65.142512 
3870.000000	65.128684 
3869.000000	65.110826 
3868.000000	65.093374 
3867.000000	65.080642 
3866.000000	65.075874 
3865.000000	65.081048 
3864.000000	65.096187 
3863.000000	65.119838 
3862.000000	65.148901 
3861.000000	65.179729 
3860.000000	65.208363 
3859.000000	65.231561 
3858.000000	65.246796 
3857.000000	65.252614 
3856.000000	65.248250 
3855.000000	65.234112 
3854.000000	65.210580 
3853.000000	65.177917 
3852.000000	65.136384 
3851.000000	65.086650 
3850.000000	65.029716 
3849.000000	64.967370 
3848.000000	64.902520 
3847.000000	64.839363 
3846.000000	64.783215 
3845.000000	64.739823 
3844.000000	64.714026 
3843.000000	64.708971 
3842.000000	64.725184 
3841.000000	64.760398 
3840.000000	64.809155 
3839.000000	64.864420 
3838.000000	64.918136 
3837.000000	64.963579 
3836.000000	64.995861 
3835.000000	65.013432 
3834.000000	65.017509 
3833.000000	65.012145 
3832.000000	65.002655 
3831.000000	64.995026 
3830.000000	64.994072 
3829.000000	65.003132 
3828.000000	65.023469 
3827.000000	65.053963 
3826.000000	65.091967 
3825.000000	65.133619 
3824.000000	65.174722 
3823.000000	65.210866 
3822.000000	65.238142 
3821.000000	65.253424 
3820.000000	65.254950 
3819.000000	65.242242 
3818.000000	65.216302 
3817.000000	65.179896 
3816.000000	65.137100 
3815.000000	65.092825 
3814.000000	65.051937 
3813.000000	65.018916 
3812.000000	64.996790 
3811.000000	64.987087 
3810.000000	64.989423 
3809.000000	65.001559 
3808.000000	65.020346 
3807.000000	65.042161 
3806.000000	65.063953 
3805.000000	65.082836 
3804.000000	65.097308 
3803.000000	65.107011 
3802.000000	65.112686 
3801.000000	65.115547 
3800.000000	65.117168 
3799.000000	65.118718 
3798.000000	65.121030 
3797.000000	65.124297 
3796.000000	65.127968 
3795.000000	65.130972 
3794.000000	65.131998 
3793.000000	65.129899 
3792.000000	65.123844 
3791.000000	65.113759 
3790.000000	65.100312 
3789.000000	65.084743 
3788.000000	65.068960 
3787.000000	65.054583 
3786.000000	65.043091 
3785.000000	65.034890 
3784.000000	65.029287 
3783.000000	65.024709 
3782.000000	65.018916 
3781.000000	65.010070 
3780.000000	64.997124 
3779.000000	64.980578 
3778.000000	64.962267 
3777.000000	64.945316 
3776.000000	64.933133 
3775.000000	64.928650 
3774.000000	64.933347 
3773.000000	64.947032 
3772.000000	64.967846 
3771.000000	64.992809 
3770.000000	65.018701 
3769.000000	65.043044 
3768.000000	65.064549 
3767.000000	65.083289 
3766.000000	65.100479 
3765.000000	65.117478 
3764.000000	65.135002 
3763.000000	65.152645 
3762.000000	65.168762 
3761.000000	65.181016 
3760.000000	65.186786 
3759.000000	65.184664 
3758.000000	65.174365 
3757.000000	65.156817 
3756.000000	65.134167 
3755.000000	65.109062 
3754.000000	65.084099 
3753.000000	65.061044 
3752.000000	65.040898 
3751.000000	65.023875 
3750.000000	65.010023 
3749.000000	64.999175 
3748.000000	64.991617 
3747.000000	64.988040 
3746.000000	64.989423 
3745.000000	64.996576 
3744.000000	65.009975 
3743.000000	65.029120 
3742.000000	65.052747 
3741.000000	65.078830 
3740.000000	65.105009 
3739.000000	65.128803 
3738.000000	65.147972 
3737.000000	65.160965 
3736.000000	65.166711 
3735.000000	65.164995 
3734.000000	65.156674 
3733.000000	65.143704 
3732.000000	65.128731 
3731.000000	65.114879 
3730.000000	65.105319 
3729.000000	65.102815 
3728.000000	65.109014 
3727.000000	65.124201 
3726.000000	65.147423 
3725.000000	65.176391 
3724.000000	65.208172 
3723.000000	65.239405 
3722.000000	65.266871 
3721.000000	65.288066 
3720.000000	65.301728 
3719.000000	65.307831 
3718.000000	65.307354 
3717.000000	65.302348 
3716.000000	65.295219 
3715.000000	65.288662 
3714.000000	65.284967 
3713.000000	65.285563 
3712.000000	65.290760 
3711.000000	65.299725 
3710.000000	65.310382 
3709.000000	65.319728 
3708.000000	65.324664 
3707.000000	65.322709 
3706.000000	65.312695 
3705.000000	65.294909 
3704.000000	65.271306 
3703.000000	65.244841 
3702.000000	65.218949 
3701.000000	65.196657 
3700.000000	65.180039 
3699.000000	65.170049 
3698.000000	65.166521 
3697.000000	65.168261 
3696.000000	65.173721 
3695.000000	65.181350 
3694.000000	65.190005 
3693.000000	65.198874 
3692.000000	65.207672 
3691.000000	65.216422 
3690.000000	65.224981 
3689.000000	65.232992 
3688.000000	65.239715 
3687.000000	65.244388 
3686.000000	65.246367 
3685.000000	65.245246 
3684.000000	65.241098 
3683.000000	65.234494 
3682.000000	65.226674 
3681.000000	65.219211 
3680.000000	65.214037 
3679.000000	65.212726 
3678.000000	65.216398 
3677.000000	65.225172 
3676.000000	65.237832 
3675.000000	65.252065 
3674.000000	65.264487 
3673.000000	65.271997 
3672.000000	65.271973 
3671.000000	65.263509 
3670.000000	65.247464 
3669.000000	65.226578 
3668.000000	65.204834 
3667.000000	65.186429 
3666.000000	65.174746 
3665.000000	65.171527 
3664.000000	65.176582 
3663.000000	65.187716 
3662.000000	65.201473 
3661.000000	65.214395 
3660.000000	65.223884 
3659.000000	65.228867 
3658.000000	65.230226 
3657.000000	65.229821 
3656.000000	65.230107 
3655.000000	65.232992 
3654.000000	65.239644 
3653.000000	65.249824 
3652.000000	65.262246 
3651.000000	65.275263 
3650.000000	65.286993 
3649.000000	65.296077 
3648.000000	65.301346 
3647.000000	65.302252 
3646.000000	65.298604 
3645.000000	65.290284 
3644.000000	65.277218 
3643.000000	65.259575 
3642.000000	65.237545 
3641.000000	65.211749 
3640.000000	65.183138 
3639.000000	65.153121 
3638.000000	65.123295 
3637.000000	65.095233 
3636.000000	65.070223 
3635.000000	65.049171 
3634.000000	65.032815 
3633.000000	65.021872 
3632.000000	65.017104 
3631.000000	65.019345 
3630.000000	65.029215 
3629.000000	65.047121 
3628.000000	65.072536 
3627.000000	65.104269 
3626.000000	65.140318 
3625.000000	65.178370 
3624.000000	65.215849 
3623.000000	65.250468 
3622.000000	65.280485 
3621.000000	65.304708 
3620.000000	65.322589 
3619.000000	65.334057 
3618.000000	65.339708 
3617.000000	65.340161 
3616.000000	65.336465 
3615.000000	65.329432 
3614.000000	65.319919 
3613.000000	65.308356 
3612.000000	65.295243 
3611.000000	65.280485 
3610.000000	65.263676 
3609.000000	65.244388 
3608.000000	65.222358 
3607.000000	65.197896 
3606.000000	65.172123 
3605.000000	65.147209 
3604.000000	65.125942 
3603.000000	65.111136 
3602.000000	65.105056 
3601.000000	65.108728 
3600.000000	65.121698 
3599.000000	65.141987 
3598.000000	65.166592 
3597.000000	65.191698 
3596.000000	65.213847 
3595.000000	65.230274 
3594.000000	65.239715 
3593.000000	65.241932 
3592.000000	65.237903 
3591.000000	65.229320 
3590.000000	65.218234 
3589.000000	65.206456 
3588.000000	65.195584 
3587.000000	65.186619 
3586.000000	65.180015 
3585.000000	65.175914 
3584.000000	65.173840 
3583.000000	65.172958 
3582.000000	65.172266 
3581.000000	65.170741 
3580.000000	65.167927 
3579.000000	65.164065 
3578.000000	65.160274 
3577.000000	65.158224 
3576.000000	65.159606 
3575.000000	65.165638 
3574.000000	65.176439 
3573.000000	65.190839 
3572.000000	65.206193 
3571.000000	65.219068 
3570.000000	65.226054 
3569.000000	65.224575 
3568.000000	65.213799 
3567.000000	65.194773 
3566.000000	65.170407 
3565.000000	65.144920 
3564.000000	65.122985 
3563.000000	65.108466 
3562.000000	65.103626 
3561.000000	65.108561 
3560.000000	65.121507 
3559.000000	65.139079 
3558.000000	65.157175 
3557.000000	65.171766 
3556.000000	65.179681 
3555.000000	65.179276 
3554.000000	65.170550 
3553.000000	65.155076 
3552.000000	65.135598 
3551.000000	65.115427 
3550.000000	65.097689 
3549.000000	65.084815 
3548.000000	65.078115 
3547.000000	65.077710 
3546.000000	65.082740 
3545.000000	65.091753 
3544.000000	65.103125 
3543.000000	65.115618 
3542.000000	65.128016 
3541.000000	65.139746 
3540.000000	65.150117 
3539.000000	65.158247 
3538.000000	65.162825 
3537.000000	65.162014 
3536.000000	65.153861 
3535.000000	65.136837 
3534.000000	65.110373 
3533.000000	65.075564 
3532.000000	65.035223 
3531.000000	64.993667 
3530.000000	64.955830 
3529.000000	64.926314 
3528.000000	64.908337 
3527.000000	64.902901 
3526.000000	64.908814 
3525.000000	64.923071 
3524.000000	64.941716 
3523.000000	64.960885 
3522.000000	64.977478 
3521.000000	64.989519 
3520.000000	64.996719 
3519.000000	64.999938 
3518.000000	65.000391 
3517.000000	64.999198 
3516.000000	64.996981 
3515.000000	64.993810 
3514.000000	64.989590 
3513.000000	64.984273 
3512.000000	64.978241 
3511.000000	64.972209 
3510.000000	64.967656 
3509.000000	64.965558 
3508.000000	64.966678 
3507.000000	64.970207 
3506.000000	64.974045 
3505.000000	64.975023 
3504.000000	64.969801 
3503.000000	64.955806 
3502.000000	64.931941 
3501.000000	64.899873 
3500.000000	64.863824 
3499.000000	64.830279 
3498.000000	64.806699 
3497.000000	64.800262 
3496.000000	64.816117 
3495.000000	64.856529 
3494.000000	64.919996 
3493.000000	65.001368 
3492.000000	65.092420 
3491.000000	65.183424 
3490.000000	65.264368 
3489.000000	65.326380 
3488.000000	65.363049 
3487.000000	65.371179 
3486.000000	65.351343 
3485.000000	65.307235 
3484.000000	65.245819 
3483.000000	65.176105 
3482.000000	65.108323 
3481.000000	65.052485 
3480.000000	65.017199 
3479.000000	65.008449 
3478.000000	65.028643 
3477.000000	65.076375 
3476.000000	65.146422 
3475.000000	65.230560 
3474.000000	65.318918 
3473.000000	65.401244 
3472.000000	65.468382 
3471.000000	65.513563 
3470.000000	65.533208 
3469.000000	65.527081 
3468.000000	65.498113 
3467.000000	65.451431 
3466.000000	65.393519 
3465.000000	65.330791 
3464.000000	65.269088 
3463.000000	65.212488 
3462.000000	65.163493 
3461.000000	65.122723 
3460.000000	65.090036 
3459.000000	65.064573 
3458.000000	65.045094 
3457.000000	65.030765 
3456.000000	65.020966 
3455.000000	65.015530 
3454.000000	65.014123 
3453.000000	65.016388 
3452.000000	65.021181 
3451.000000	65.027499 
3450.000000	65.034055 
3449.000000	65.040230 
3448.000000	65.045976 
3447.000000	65.052056 
3446.000000	65.059852 
3445.000000	65.070676 
3444.000000	65.085172 
3443.000000	65.102601 
3442.000000	65.120673 
3441.000000	65.136218 
3440.000000	65.145921 
3439.000000	65.146946 
3438.000000	65.137839 
3437.000000	65.118837 
3436.000000	65.092015 
3435.000000	65.060782 
3434.000000	65.029525 
3433.000000	65.002274 
3432.000000	64.982438 
3431.000000	64.972424 
3430.000000	64.973282 
3429.000000	64.984869 
3428.000000	65.005707 
3427.000000	65.033578 
3426.000000	65.065836 
3425.000000	65.099644 
3424.000000	65.132141 
3423.000000	65.160393 
3422.000000	65.181779 
3421.000000	65.194201 
3420.000000	65.196251 
3419.000000	65.187549 
3418.000000	65.168380 
3417.000000	65.139961 
3416.000000	65.104269 
3415.000000	65.064072 
3414.000000	65.022516 
3413.000000	64.982962 
3412.000000	64.948606 
3411.000000	64.922237 
3410.000000	64.905977 
3409.000000	64.900851 
3408.000000	64.906811 
3407.000000	64.922738 
3406.000000	64.946627 
3405.000000	64.975547 
3404.000000	65.006160 
3403.000000	65.034437 
3402.000000	65.056037 
3401.000000	65.066480 
3400.000000	65.061855 
3399.000000	65.039634 
3398.000000	64.999270 
3397.000000	64.942908 
3396.000000	64.875411 
3395.000000	64.804196 
3394.000000	64.738225 
3393.000000	64.686703 
3392.000000	64.657020 
3391.000000	64.653778 
3390.000000	64.677810 
3389.000000	64.725875 
3388.000000	64.791345 
3387.000000	64.865636 
3386.000000	64.939928 
3385.000000	65.006494 
3384.000000	65.060353 
3383.000000	65.099239 
3382.000000	65.123629 
3381.000000	65.136075 
3380.000000	65.140223 
3379.000000	65.139746 
3378.000000	65.137457 
3377.000000	65.135598 
3376.000000	65.134859 
3375.000000	65.135550 
3374.000000	65.136814 
3373.000000	65.138030 
3372.000000	65.138125 
3371.000000	65.136241 
3370.000000	65.131473 
3369.000000	65.123081 
3368.000000	65.110611 
3367.000000	65.093922 
3366.000000	65.073442 
3365.000000	65.050435 
3364.000000	65.026497 
3363.000000	65.003395 
3362.000000	64.982867 
3361.000000	64.966607 
3360.000000	64.955615 
3359.000000	64.950323 
3358.000000	64.950418 
3357.000000	64.955067 
3356.000000	64.963006 
3355.000000	64.972782 
3354.000000	64.982748 
3353.000000	64.991140 
3352.000000	64.996600 
3351.000000	64.997982 
3350.000000	64.994740 
3349.000000	64.986968 
3348.000000	64.975357 
3347.000000	64.961290 
3346.000000	64.946746 
3345.000000	64.933943 
3344.000000	64.924979 
3343.000000	64.921736 
3342.000000	64.925551 
3341.000000	64.937210 
3340.000000	64.956951 
3339.000000	64.984273 
3338.000000	65.017867 
3337.000000	65.055656 
3336.000000	65.094900 
3335.000000	65.132069 
3334.000000	65.163302 
3333.000000	65.185117 
3332.000000	65.195035 
3331.000000	65.192008 
3330.000000	65.177059 
3329.000000	65.153217 
3328.000000	65.125226 
3327.000000	65.098738 
3326.000000	65.079164 
3325.000000	65.070843 
3324.000000	65.076208 
3323.000000	65.095329 
3322.000000	65.126085 
3321.000000	65.164923 
3320.000000	65.207433 
3319.000000	65.249466 
3318.000000	65.287232 
3317.000000	65.318202 
3316.000000	65.340614 
3315.000000	65.353488 
3314.000000	65.356445 
3313.000000	65.349221 
3312.000000	65.331840 
3311.000000	65.304827 
3310.000000	65.269255 
3309.000000	65.226936 
3308.000000	65.180587 
3307.000000	65.133523 
3306.000000	65.089607 
3305.000000	65.052580 
3304.000000	65.025353 
3303.000000	65.009617 
3302.000000	65.005302 
3301.000000	65.010881 
3300.000000	65.023207 
3299.000000	65.038537 
3298.000000	65.052843 
3297.000000	65.063023 
3296.000000	65.067148 
3295.000000	65.064907 
3294.000000	65.057253 
3293.000000	65.046310 
3292.000000	65.034627 
3291.000000	65.024876 
3290.000000	65.019202 
3289.000000	65.018701 
3288.000000	65.023660 
3287.000000	65.033173 
3286.000000	65.045785 
3285.000000	65.059471 
3284.000000	65.072202 
3283.000000	65.082144 
3282.000000	65.088272 
3281.000000	65.090203 
3280.000000	65.088295 
3279.000000	65.083289 
3278.000000	65.076184 
3277.000000	65.068030 
3276.000000	65.059924 
3275.000000	65.052747 
3274.000000	65.047240 
3273.000000	65.044069 
3272.000000	65.043830 
3271.000000	65.046763 
3270.000000	65.052819 
3269.000000	65.061330 
3268.000000	65.071582 
3267.000000	65.082669 
3266.000000	65.093994 
3265.000000	65.105175 
3264.000000	65.116381 
3263.000000	65.128111 
3262.000000	65.140986 
3261.000000	65.155577 
3260.000000	65.171647 
3259.000000	65.188193 
3258.000000	65.203356 
3257.000000	65.214920 
3256.000000	65.220665 
3255.000000	65.218997 
3254.000000	65.209436 
3253.000000	65.193009 
3252.000000	65.171909 
3251.000000	65.149307 
3250.000000	65.128493 
3249.000000	65.112400 
3248.000000	65.102815 
3247.000000	65.100145 
3246.000000	65.103626 
3245.000000	65.111422 
3244.000000	65.121531 
3243.000000	65.132021 
3242.000000	65.141344 
3241.000000	65.148568 
3240.000000	65.153455 
3239.000000	65.156102 
3238.000000	65.156650 
3237.000000	65.155315 
3236.000000	65.152478 
3235.000000	65.148591 
3234.000000	65.144300 
3233.000000	65.140438 
3232.000000	65.138077 
3231.000000	65.138125 
3230.000000	65.141248 
3229.000000	65.147519 
3228.000000	65.156483 
3227.000000	65.167284 
3226.000000	65.178847 
3225.000000	65.190267 
3224.000000	65.200805 
3223.000000	65.210294 
3222.000000	65.218830 
3221.000000	65.226483 
3220.000000	65.232801 
3219.000000	65.237164 
3218.000000	65.238237 
3217.000000	65.234541 
3216.000000	65.224409 
3215.000000	65.207028 
3214.000000	65.182375 
3213.000000	65.151548 
3212.000000	65.116477 
3211.000000	65.079689 
3210.000000	65.043926 
3209.000000	65.011239 
3208.000000	64.983272 
3207.000000	64.960741 
3206.000000	64.943909 
3205.000000	64.932560 
3204.000000	64.926552 
3203.000000	64.925813 
3202.000000	64.930486 
3201.000000	64.940738 
3200.000000	64.956378 
3199.000000	64.976739 
3198.000000	65.000820 
3197.000000	65.027332 
3196.000000	65.054845 
3195.000000	65.081858 
3194.000000	65.107297 
3193.000000	65.130352 
3192.000000	65.150356 
3191.000000	65.166854 
3190.000000	65.179347 
3189.000000	65.187358 
3188.000000	65.190649 
3187.000000	65.189504 
3186.000000	65.184831 
3185.000000	65.178418 
3184.000000	65.173006 
3183.000000	65.171575 
3182.000000	65.176820 
3181.000000	65.190458 
3180.000000	65.212702 
3179.000000	65.242028 
3178.000000	65.275001 
3177.000000	65.307259 
3176.000000	65.334224 
3175.000000	65.351986 
3174.000000	65.358090 
3173.000000	65.352106 
3172.000000	65.335631 
3171.000000	65.311741 
3170.000000	65.284442 
3169.000000	65.257525 
3168.000000	65.234065 
3167.000000	65.215945 
3166.000000	65.203666 
3165.000000	65.196490 
3164.000000	65.192985 
3163.000000	65.191507 
3162.000000	65.190744 
3161.000000	65.189719 
3160.000000	65.188193 
3159.000000	65.186405 
3158.000000	65.184998 
3157.000000	65.184450 
3156.000000	65.185260 
3155.000000	65.187501 
3154.000000	65.191030 
3153.000000	65.195417 
3152.000000	65.200328 
3151.000000	65.205645 
3150.000000	65.211534 
3149.000000	65.218329 
3148.000000	65.226411 
3147.000000	65.235996 
3146.000000	65.246605 
3145.000000	65.257167 
3144.000000	65.265774 
3143.000000	65.270042 
3142.000000	65.267467 
3141.000000	65.256214 
3140.000000	65.235352 
3139.000000	65.205454 
3138.000000	65.168690 
3137.000000	65.128755 
3136.000000	65.089845 
3135.000000	65.056252 
3134.000000	65.031576 
3133.000000	65.018057 
3132.000000	65.015983 
3131.000000	65.023946 
3130.000000	65.039086 
3129.000000	65.057826 
3128.000000	65.076255 
3127.000000	65.091156 
3126.000000	65.100121 
3125.000000	65.102291 
3124.000000	65.098071 
3123.000000	65.088963 
3122.000000	65.076971 
3121.000000	65.064358 
3120.000000	65.053200 
3119.000000	65.044903 
3118.000000	65.040278 
3117.000000	65.039443 
3116.000000	65.042042 
3115.000000	65.047287 
3114.000000	65.054273 
3113.000000	65.062117 
3112.000000	65.070223 
3111.000000	65.078210 
3110.000000	65.086150 
3109.000000	65.094590 
3108.000000	65.104746 
3107.000000	65.118050 
3106.000000	65.136003 
3105.000000	65.159726 
3104.000000	65.189552 
3103.000000	65.224790 
3102.000000	65.263485 
3101.000000	65.302419 
3100.000000	65.337729 
3099.000000	65.365600 
3098.000000	65.382909 
3097.000000	65.388131 
3096.000000	65.381622 
3095.000000	65.365767 
3094.000000	65.344190 
3093.000000	65.321087 
3092.000000	65.300297 
3091.000000	65.284442 
3090.000000	65.274524 
3089.000000	65.269994 
3088.000000	65.269017 
3087.000000	65.268969 
3086.000000	65.267515 
3085.000000	65.262889 
3084.000000	65.254330 
3083.000000	65.242099 
3082.000000	65.227293 
3081.000000	65.211391 
3080.000000	65.195679 
3079.000000	65.181040 
3078.000000	65.167856 
3077.000000	65.155935 
3076.000000	65.144777 
3075.000000	65.133953 
3074.000000	65.123319 
3073.000000	65.113568 
3072.000000	65.105700 
3071.000000	65.101480 
3070.000000	65.102744 
3069.000000	65.110921 
3068.000000	65.126442 
3067.000000	65.148258 
3066.000000	65.173816 
3065.000000	65.199136 
3064.000000	65.219473 
3063.000000	65.230369 
3062.000000	65.228724 
3061.000000	65.213513 
3060.000000	65.186333 
3059.000000	65.151071 
3058.000000	65.113043 
3057.000000	65.078115 
3056.000000	65.051317 
3055.000000	65.035772 
3054.000000	65.032100 
3053.000000	65.038752 
3052.000000	65.052270 
3051.000000	65.068554 
3050.000000	65.083813 
3049.000000	65.095329 
3048.000000	65.102243 
3047.000000	65.105056 
3046.000000	65.105652 
3045.000000	65.106010 
3044.000000	65.107822 
3043.000000	65.111732 
3042.000000	65.117359 
3041.000000	65.123367 
3040.000000	65.127968 
3039.000000	65.129351 
3038.000000	65.126442 
3037.000000	65.119171 
3036.000000	65.108203 
3035.000000	65.094995 
3034.000000	65.081357 
3033.000000	65.069174 
3032.000000	65.060043 
3031.000000	65.055370 
3030.000000	65.056157 
3029.000000	65.062952 
3028.000000	65.075969 
3027.000000	65.095186 
3026.000000	65.119791 
3025.000000	65.148353 
3024.000000	65.178608 
3023.000000	65.207815 
3022.000000	65.232801 
3021.000000	65.250563 
3020.000000	65.259075 
3019.000000	65.257358 
3018.000000	65.245962 
3017.000000	65.226817 
3016.000000	65.203046 
3015.000000	65.178227 
3014.000000	65.155982 
3013.000000	65.139508 
3012.000000	65.131044 
3011.000000	65.131831 
3010.000000	65.141987 
3009.000000	65.160679 
3008.000000	65.186214 
3007.000000	65.216207 
3006.000000	65.247678 
3005.000000	65.277194 
3004.000000	65.301322 
3003.000000	65.316915 
3002.000000	65.321636 
3001.000000	65.314435 
3000.000000	65.295553 
2999.000000	65.267086 
2998.000000	65.231871 
2997.000000	65.193653 
2996.000000	65.155887 
2995.000000	65.121388 
2994.000000	65.091991 
2993.000000	65.068531 
2992.000000	65.050959 
2991.000000	65.038800 
2990.000000	65.031623 
2989.000000	65.029335 
2988.000000	65.031909 
2987.000000	65.039181 
2986.000000	65.050601 
2985.000000	65.064883 
2984.000000	65.079879 
2983.000000	65.092897 
2982.000000	65.101337 
2981.000000	65.103173 
2980.000000	65.097641 
2979.000000	65.085458 
2978.000000	65.068769 
2977.000000	65.050458 
2976.000000	65.033531 
2975.000000	65.020322 
2974.000000	65.012121 
2973.000000	65.008974 
2972.000000	65.009927 
2971.000000	65.013408 
2970.000000	65.017962 
2969.000000	65.022397 
2968.000000	65.026450 
2967.000000	65.030360 
2966.000000	65.034604 
2965.000000	65.039348 
2964.000000	65.044379 
2963.000000	65.048766 
2962.000000	65.051102 
2961.000000	65.049862 
2960.000000	65.043973 
2959.000000	65.033030 
2958.000000	65.017700 
2957.000000	64.999294 
2956.000000	64.979648 
2955.000000	64.960670 
2954.000000	64.944100 
2953.000000	64.930915 
2952.000000	64.921331 
2951.000000	64.914798 
2950.000000	64.910793 
2949.000000	64.908599 
2948.000000	64.908146 
2947.000000	64.910101 
2946.000000	64.915752 
2945.000000	64.926552 
2944.000000	64.943671 
2943.000000	64.967107 
2942.000000	64.995503 
2941.000000	65.026092 
2940.000000	65.054821 
2939.000000	65.077209 
2938.000000	65.089058 
2937.000000	65.087723 
2936.000000	65.072178 
2935.000000	65.043377 
2934.000000	65.003895 
2933.000000	64.957571 
2932.000000	64.908289 
2931.000000	64.859414 
2930.000000	64.813160 
2929.000000	64.770841 
2928.000000	64.733076 
2927.000000	64.700126 
2926.000000	64.672279 
2925.000000	64.650130 
2924.000000	64.634037 
2923.000000	64.624214 
2922.000000	64.619874 
2921.000000	64.619898 
2920.000000	64.622449 
2919.000000	64.625978 
2918.000000	64.628982 
2917.000000	64.631271 
2916.000000	64.633321 
2915.000000	64.636969 
2914.000000	64.644002 
2913.000000	64.656639 
2912.000000	64.676308 
2911.000000	64.703869 
2910.000000	64.738893 
2909.000000	64.779973 
2908.000000	64.824962 
2907.000000	64.871072 
2906.000000	64.915513 
2905.000000	64.955306 
2904.000000	64.987587 
2903.000000	65.010118 
2902.000000	65.021562 
2901.000000	65.021610 
2900.000000	65.011215 
2899.000000	64.992952 
2898.000000	64.970445 
2897.000000	64.947581 
2896.000000	64.927601 
2895.000000	64.912819 
2894.000000	64.903903 
2893.000000	64.900040 
2892.000000	64.899158 
2891.000000	64.898610 
2890.000000	64.896249 
2889.000000	64.890885 
2888.000000	64.882707 
2887.000000	64.873003 
2886.000000	64.864087 
2885.000000	64.858531 
2884.000000	64.858460 
2883.000000	64.864754 
2882.000000	64.877128 
2881.000000	64.894294 
2880.000000	64.914298 
2879.000000	64.934873 
2878.000000	64.954352 
2877.000000	64.971852 
2876.000000	64.987182 
2875.000000	65.000677 
2874.000000	65.013003 
2873.000000	65.024757 
2872.000000	65.036153 
2871.000000	65.046668 
2870.000000	65.055346 
2869.000000	65.060782 
2868.000000	65.061902 
2867.000000	65.058112 
2866.000000	65.049552 
2865.000000	65.037178 
2864.000000	65.022921 
2863.000000	65.008735 
2862.000000	64.996337 
2861.000000	64.986777 
2860.000000	64.980149 
2859.000000	64.975595 
2858.000000	64.971661 
2857.000000	64.966678 
2856.000000	64.959406 
2855.000000	64.949345 
2854.000000	64.936971 
2853.000000	64.923572 
2852.000000	64.911079 
2851.000000	64.901471 
2850.000000	64.896368 
2849.000000	64.896702 
2848.000000	64.902448 
2847.000000	64.912843 
2846.000000	64.926695 
2845.000000	64.942479 
2844.000000	64.958763 
2843.000000	64.974308 
2842.000000	64.988160 
2841.000000	64.999747 
2840.000000	65.008902 
2839.000000	65.015745 
2838.000000	65.020632 
2837.000000	65.024185 
2836.000000	65.027427 
2835.000000	65.031266 
2834.000000	65.036654 
2833.000000	65.044260 
2832.000000	65.054368 
2831.000000	65.066742 
2830.000000	65.080690 
2829.000000	65.095186 
2828.000000	65.109014 
2827.000000	65.120983 
2826.000000	65.130162 
2825.000000	65.136003 
2824.000000	65.138459 
2823.000000	65.137982 
2822.000000	65.135240 
2821.000000	65.131306 
2820.000000	65.127611 
2819.000000	65.125727 
2818.000000	65.127253 
2817.000000	65.133571 
2816.000000	65.145635 
2815.000000	65.163731 
2814.000000	65.187144 
2813.000000	65.214180 
2812.000000	65.242481 
2811.000000	65.269136 
2810.000000	65.291285 
2809.000000	65.306496 
2808.000000	65.313482 
2807.000000	65.312147 
2806.000000	65.303492 
2805.000000	65.289354 
2804.000000	65.272402 
2803.000000	65.254878 
2802.000000	65.238785 
2801.000000	65.225291 
2800.000000	65.214967 
2799.000000	65.207600 
2798.000000	65.202522 
2797.000000	65.198898 
2796.000000	65.196084 
2795.000000	65.193748 
2794.000000	65.191936 
2793.000000	65.190982 
2792.000000	65.191555 
2791.000000	65.194368 
2790.000000	65.200018 
2789.000000	65.208911 
2788.000000	65.220785 
2787.000000	65.235114 
2786.000000	65.250706 
2785.000000	65.266227 
2784.000000	65.280151 
2783.000000	65.291094 
2782.000000	65.297937 
2781.000000	65.300130 
2780.000000	65.297532 
2779.000000	65.290522 
2778.000000	65.279650 
2777.000000	65.265583 
2776.000000	65.248870 
2775.000000	65.230131 
2774.000000	65.209770 
2773.000000	65.188431 
2772.000000	65.167069 
2771.000000	65.147089 
2770.000000	65.130233 
2769.000000	65.118217 
2768.000000	65.112495 
2767.000000	65.113830 
2766.000000	65.121746 
2765.000000	65.134549 
2764.000000	65.149545 
2763.000000	65.163540 
2762.000000	65.173459 
2761.000000	65.177130 
2760.000000	65.173745 
2759.000000	65.164041 
2758.000000	65.149831 
2757.000000	65.133666 
2756.000000	65.118050 
2755.000000	65.105032 
2754.000000	65.095758 
2753.000000	65.090537 
2752.000000	65.088963 
2751.000000	65.090274 
2750.000000	65.093898 
2749.000000	65.099573 
2748.000000	65.107250 
2747.000000	65.117144 
2746.000000	65.129375 
2745.000000	65.143966 
2744.000000	65.160465 
2743.000000	65.178012 
2742.000000	65.195560 
2741.000000	65.212059 
2740.000000	65.226626 
2739.000000	65.238761 
2738.000000	65.248298 
2737.000000	65.255331 
2736.000000	65.260291 
2735.000000	65.263843 
2734.000000	65.266776 
2733.000000	65.270209 
2732.000000	65.275168 
2731.000000	65.282750 
2730.000000	65.293645 
2729.000000	65.308046 
2728.000000	65.325164 
2727.000000	65.343403 
2726.000000	65.360236 
2725.000000	65.372848 
2724.000000	65.378713 
2723.000000	65.376138 
2722.000000	65.364956 
2721.000000	65.346574 
2720.000000	65.323734 
2719.000000	65.299892 
2718.000000	65.278482 
2717.000000	65.262103 
2716.000000	65.251970 
2715.000000	65.247917 
2714.000000	65.248537 
2713.000000	65.251469 
2712.000000	65.254378 
2711.000000	65.255570 
2710.000000	65.254187 
2709.000000	65.250444 
2708.000000	65.245485 
2707.000000	65.241098 
2706.000000	65.239095 
2705.000000	65.240812 
2704.000000	65.246963 
2703.000000	65.257191 
2702.000000	65.270400 
2701.000000	65.284705 
2700.000000	65.298056 
2699.000000	65.308308 
2698.000000	65.313816 
2697.000000	65.313744 
2696.000000	65.308117 
2695.000000	65.297889 
2694.000000	65.284609 
2693.000000	65.270233 
2692.000000	65.256619 
2691.000000	65.245103 
2690.000000	65.236306 
2689.000000	65.229940 
2688.000000	65.225005 
2687.000000	65.220141 
2686.000000	65.214061 
2685.000000	65.205955 
2684.000000	65.195941 
2683.000000	65.184855 
2682.000000	65.174341 
2681.000000	65.166068 
2680.000000	65.161728 
2679.000000	65.162062 
2678.000000	65.167188 
2677.000000	65.176248 
2676.000000	65.187907 
2675.000000	65.200567 
2674.000000	65.212965 
2673.000000	65.224146 
2672.000000	65.233683 
2671.000000	65.241622 
2670.000000	65.248060 
2669.000000	65.253233 
2668.000000	65.256977 
2667.000000	65.258932 
2666.000000	65.258359 
2665.000000	65.254402 
2664.000000	65.246295 
2663.000000	65.233778 
2662.000000	65.216922 
2661.000000	65.196275 
2660.000000	65.172815 
2659.000000	65.147924 
2658.000000	65.123152 
2657.000000	65.100097 
2656.000000	65.080165 
2655.000000	65.064668 
2654.000000	65.054392 
2653.000000	65.049839 
2652.000000	65.050697 
2651.000000	65.056395 
2650.000000	65.065765 
2649.000000	65.077447 
2648.000000	65.089797 
2647.000000	65.101480 
2646.000000	65.111494 
2645.000000	65.119600 
2644.000000	65.125799 
2643.000000	65.130901 
2642.000000	65.135931 
2641.000000	65.142107 
2640.000000	65.150403 
2639.000000	65.161347 
2638.000000	65.175151 
2637.000000	65.191531 
2636.000000	65.209817 
2635.000000	65.229034 
2634.000000	65.248084 
2633.000000	65.266036 
2632.000000	65.282201 
2631.000000	65.296387 
2630.000000	65.308666 
2629.000000	65.319561 
2628.000000	65.329718 
2627.000000	65.339565 
2626.000000	65.348839 
2625.000000	65.356993 
2624.000000	65.362691 
2623.000000	65.364313 
2622.000000	65.359973 
2621.000000	65.348529 
2620.000000	65.329527 
2619.000000	65.303945 
2618.000000	65.273833 
2617.000000	65.242171 
2616.000000	65.212011 
2615.000000	65.186142 
2614.000000	65.166258 
2613.000000	65.152740 
2612.000000	65.144681 
2611.000000	65.140366 
2610.000000	65.137743 
2609.000000	65.135049 
2608.000000	65.131521 
2607.000000	65.127491 
2606.000000	65.124249 
2605.000000	65.123462 
2604.000000	65.126943 
2603.000000	65.135931 
2602.000000	65.150904 
2601.000000	65.171241 
2600.000000	65.195560 
2599.000000	65.221762 
2598.000000	65.247797 
2597.000000	65.271210 
2596.000000	65.289831 
2595.000000	65.301656 
2594.000000	65.305066 
2593.000000	65.299201 
2592.000000	65.283846 
2591.000000	65.260076 
2590.000000	65.230202 
2589.000000	65.197563 
2588.000000	65.166115 
2587.000000	65.139889 
2586.000000	65.122342 
2585.000000	65.115404 
2584.000000	65.119051 
2583.000000	65.131497 
2582.000000	65.149402 
2581.000000	65.168833 
2580.000000	65.186071 
2579.000000	65.198349 
2578.000000	65.204477 
2577.000000	65.204858 
2576.000000	65.201258 
2575.000000	65.196084 
2574.000000	65.191841 
2573.000000	65.190649 
2572.000000	65.193796 
2571.000000	65.201735 
2570.000000	65.214014 
2569.000000	65.229582 
2568.000000	65.246987 
2567.000000	65.264487 
2566.000000	65.280389 
2565.000000	65.293169 
2564.000000	65.301918 
2563.000000	65.306019 
2562.000000	65.305685 
2561.000000	65.301728 
2560.000000	65.295481 
2559.000000	65.288734 
2558.000000	65.282869 
2557.000000	65.278744 
2556.000000	65.276265 
2555.000000	65.274620 
2554.000000	65.272402 
2553.000000	65.268063 
2552.000000	65.260505 
2551.000000	65.249443 
2550.000000	65.235638 
2549.000000	65.220880 
2548.000000	65.207290 
2547.000000	65.196967 
2546.000000	65.191578 
2545.000000	65.192103 
2544.000000	65.198421 
2543.000000	65.209555 
2542.000000	65.223836 
2541.000000	65.239429 
2540.000000	65.254497 
2539.000000	65.267801 
2538.000000	65.278530 
2537.000000	65.286612 
2536.000000	65.292382 
2535.000000	65.296602 
2534.000000	65.300178 
2533.000000	65.304040 
2532.000000	65.309071 
2531.000000	65.315723 
2530.000000	65.323925 
2529.000000	65.333104 
2528.000000	65.342211 
2527.000000	65.349817 
2526.000000	65.354347 
2525.000000	65.354204 
2524.000000	65.348243 
2523.000000	65.335798 
2522.000000	65.316891 
2521.000000	65.292215 
2520.000000	65.263175 
2519.000000	65.231919 
2518.000000	65.200948 
2517.000000	65.172839 
2516.000000	65.150022 
2515.000000	65.134191 
2514.000000	65.126276 
2513.000000	65.126085 
2512.000000	65.132713 
2511.000000	65.144586 
2510.000000	65.160059 
2509.000000	65.177345 
2508.000000	65.195393 
2507.000000	65.213608 
2506.000000	65.231919 
2505.000000	65.250492 
2504.000000	65.269470 
2503.000000	65.288615 
2502.000000	65.307235 
2501.000000	65.324258 
2500.000000	65.338444 
2499.000000	65.348553 
2498.000000	65.353703 
2497.000000	65.353631 
2496.000000	65.348505 
2495.000000	65.338754 
2494.000000	65.325069 
2493.000000	65.308189 
2492.000000	65.288853 
2491.000000	65.267872 
2490.000000	65.246295 
2489.000000	65.225529 
2488.000000	65.207147 
2487.000000	65.192794 
2486.000000	65.183973 
2485.000000	65.181756 
2484.000000	65.186357 
2483.000000	65.197038 
2482.000000	65.212178 
2481.000000	65.229701 
2480.000000	65.247321 
2479.000000	65.263152 
2478.000000	65.275931 
2477.000000	65.285158 
2476.000000	65.291118 
2475.000000	65.294575 
2474.000000	65.296411 
2473.000000	65.297484 
2472.000000	65.298390 
2471.000000	65.299391 
2470.000000	65.300512 
2469.000000	65.301465 
2468.000000	65.301895 
2467.000000	65.301537 
2466.000000	65.300083 
2465.000000	65.297579 
2464.000000	65.294146 
2463.000000	65.290093 
2462.000000	65.285658 
2461.000000	65.281081 
2460.000000	65.276479 
2459.000000	65.271854 
2458.000000	65.267157 
2457.000000	65.262126 
2456.000000	65.256690 
2455.000000	65.251040 
2454.000000	65.245628 
2453.000000	65.241289 
2452.000000	65.239095 
2451.000000	65.240025 
2450.000000	65.244698 
2449.000000	65.253233 
2448.000000	65.264964 
2447.000000	65.278482 
2446.000000	65.292096 
2445.000000	65.304064 
2444.000000	65.313339 
2443.000000	65.319418 
2442.000000	65.322422 
2441.000000	65.322780 
2440.000000	65.321087 
2439.000000	65.317702 
2438.000000	65.312385 
2437.000000	65.304327 
2436.000000	65.292716 
2435.000000	65.276861 
2434.000000	65.257072 
2433.000000	65.234494 
2432.000000	65.211582 
2431.000000	65.191388 
2430.000000	65.176916 
2429.000000	65.170550 
2428.000000	65.173172 
2427.000000	65.183949 
2426.000000	65.200519 
2425.000000	65.219235 
2424.000000	65.236210 
2423.000000	65.247988 
2422.000000	65.252208 
2421.000000	65.248203 
2420.000000	65.236830 
2419.000000	65.220642 
2418.000000	65.202903 
2417.000000	65.187311 
2416.000000	65.176868 
2415.000000	65.173602 
2414.000000	65.178084 
2413.000000	65.189385 
2412.000000	65.205383 
2411.000000	65.223312 
2410.000000	65.240216 
2409.000000	65.253543 
2408.000000	65.261459 
2407.000000	65.262961 
2406.000000	65.258097 
2405.000000	65.247511 
2404.000000	65.232586 
2403.000000	65.214943 
2402.000000	65.196514 
2401.000000	65.179276 
2400.000000	65.164971 
2399.000000	65.155076 
2398.000000	65.150594 
2397.000000	65.151929 
2396.000000	65.159010 
2395.000000	65.171027 
2394.000000	65.186905 
2393.000000	65.205097 
2392.000000	65.223932 
2391.000000	65.241813 
2390.000000	65.257382 
2389.000000	65.269494 
2388.000000	65.277314 
2387.000000	65.280246 
2386.000000	65.278077 
2385.000000	65.270829 
2384.000000	65.258955 
2383.000000	65.243029 
2382.000000	65.224194 
2381.000000	65.203785 
2380.000000	65.183258 
2379.000000	65.163946 
2378.000000	65.147018 
2377.000000	65.133333 
2376.000000	65.123224 
2375.000000	65.116596 
2374.000000	65.113019 
2373.000000	65.111899 
2372.000000	65.112352 
2371.000000	65.113782 
2370.000000	65.115594 
2369.000000	65.117526 
2368.000000	65.119457 
2367.000000	65.121579 
2366.000000	65.124273 
2365.000000	65.127944 
2364.000000	65.132808 
2363.000000	65.138959 
2362.000000	65.146088 
2361.000000	65.153431 
2360.000000	65.159988 
2359.000000	65.164542 
2358.000000	65.166187 
2357.000000	65.164399 
2356.000000	65.159535 
2355.000000	65.152740 
2354.000000	65.145850 
2353.000000	65.141010 
2352.000000	65.140199 
2351.000000	65.144872 
2350.000000	65.155363 
2349.000000	65.170764 
2348.000000	65.189051 
2347.000000	65.207600 
2346.000000	65.223860 
2345.000000	65.235853 
2344.000000	65.242624 
2343.000000	65.244412 
2342.000000	65.242576 
2341.000000	65.239143 
2340.000000	65.236234 
2339.000000	65.235471 
2338.000000	65.237760 
2337.000000	65.243077 
2336.000000	65.250706 
2335.000000	65.259575 
2334.000000	65.268301 
2333.000000	65.275716 
2332.000000	65.280961 
2331.000000	65.283632 
2330.000000	65.283679 
2329.000000	65.281510 
2328.000000	65.277576 
2327.000000	65.272593 
2326.000000	65.267610 
2325.000000	65.263724 
2324.000000	65.262055 
2323.000000	65.263485 
2322.000000	65.268445 
2321.000000	65.276646 
2320.000000	65.287017 
2319.000000	65.297937 
2318.000000	65.307426 
2317.000000	65.313577 
2316.000000	65.314960 
2315.000000	65.310883 
2314.000000	65.301728 
2313.000000	65.288805 
2312.000000	65.274071 
2311.000000	65.259861 
2310.000000	65.248417 
2309.000000	65.241718 
2308.000000	65.240931 
2307.000000	65.246367 
2306.000000	65.257263 
2305.000000	65.272092 
2304.000000	65.288639 
2303.000000	65.304398 
2302.000000	65.316891 
2301.000000	65.323972 
2300.000000	65.324282 
2299.000000	65.317440 
2298.000000	65.304231 
2297.000000	65.286326 
2296.000000	65.266084 
2295.000000	65.246200 
2294.000000	65.228891 
2293.000000	65.215849 
2292.000000	65.207767 
2291.000000	65.204405 
2290.000000	65.204811 
2289.000000	65.207481 
2288.000000	65.211081 
2287.000000	65.214514 
2286.000000	65.217351 
2285.000000	65.219569 
2284.000000	65.221571 
2283.000000	65.223717 
2282.000000	65.226268 
2281.000000	65.229129 
2280.000000	65.231776 
2279.000000	65.233516 
2278.000000	65.233755 
2277.000000	65.232181 
2276.000000	65.229010 
2275.000000	65.224933 
2274.000000	65.220856 
2273.000000	65.217757 
2272.000000	65.216445 
2271.000000	65.217304 
2270.000000	65.220069 
2269.000000	65.224027 
2268.000000	65.228343 
2267.000000	65.232133 
2266.000000	65.234661 
2265.000000	65.235757 
2264.000000	65.235710 
2263.000000	65.235185 
2262.000000	65.235066 
2261.000000	65.236544 
2260.000000	65.240740 
2259.000000	65.248632 
2258.000000	65.260815 
2257.000000	65.277194 
2256.000000	65.297245 
2255.000000	65.319657 
2254.000000	65.342545 
2253.000000	65.363907 
2252.000000	65.381813 
2251.000000	65.394616 
2250.000000	65.401458 
2249.000000	65.402197 
2248.000000	65.397238 
2247.000000	65.387749 
2246.000000	65.374970 
2245.000000	65.360212 
2244.000000	65.344381 
2243.000000	65.328121 
2242.000000	65.311479 
2241.000000	65.294599 
2240.000000	65.277171 
2239.000000	65.259337 
2238.000000	65.241122 
2237.000000	65.222740 
2236.000000	65.204644 
2235.000000	65.187072 
2234.000000	65.170407 
2233.000000	65.154933 
2232.000000	65.141081 
2231.000000	65.129160 
2230.000000	65.119600 
2229.000000	65.112781 
2228.000000	65.109109 
2227.000000	65.108823 
2226.000000	65.112090 
2225.000000	65.119004 
2224.000000	65.129470 
2223.000000	65.142917 
2222.000000	65.158534 
2221.000000	65.175056 
2220.000000	65.190792 
2219.000000	65.203952 
2218.000000	65.212821 
2217.000000	65.216159 
2216.000000	65.213441 
2215.000000	65.205240 
2214.000000	65.192914 
2213.000000	65.178680 
2212.000000	65.165233 
2211.000000	65.155196 
2210.000000	65.150523 
2209.000000	65.152168 
2208.000000	65.160012 
2207.000000	65.172839 
2206.000000	65.188479 
2205.000000	65.204310 
2204.000000	65.217947 
2203.000000	65.227484 
2202.000000	65.231752 
2201.000000	65.230488 
2200.000000	65.224313 
2199.000000	65.214610 
2198.000000	65.203356 
2197.000000	65.192651 
2196.000000	65.184545 
2195.000000	65.180754 
2194.000000	65.182352 
2193.000000	65.189623 
2192.000000	65.201950 
2191.000000	65.218234 
2190.000000	65.236520 
2189.000000	65.254759 
2188.000000	65.270781 
2187.000000	65.282797 
2186.000000	65.289711 
2185.000000	65.291094 
2184.000000	65.287613 
2183.000000	65.280771 
2182.000000	65.272474 
2181.000000	65.265083 
2180.000000	65.260505 
2179.000000	65.259814 
2178.000000	65.263032 
2177.000000	65.269327 
2176.000000	65.276980 
2175.000000	65.283894 
2174.000000	65.288186 
2173.000000	65.288519 
2172.000000	65.284442 
2171.000000	65.276408 
2170.000000	65.265512 
2169.000000	65.253400 
2168.000000	65.241575 
2167.000000	65.231323 
2166.000000	65.223431 
2165.000000	65.218281 
2164.000000	65.215826 
2163.000000	65.215849 
2162.000000	65.218067 
2161.000000	65.222167 
2160.000000	65.227699 
2159.000000	65.234255 
2158.000000	65.241169 
2157.000000	65.247726 
2156.000000	65.253448 
2155.000000	65.258097 
2154.000000	65.261721 
2153.000000	65.264678 
2152.000000	65.267467 
2151.000000	65.270566 
2150.000000	65.274262 
2149.000000	65.278601 
2148.000000	65.283250 
2147.000000	65.287780 
2146.000000	65.291833 
2145.000000	65.295243 
2144.000000	65.298056 
2143.000000	65.300631 
2142.000000	65.303421 
2141.000000	65.306687 
2140.000000	65.310335 
2139.000000	65.314006 
2138.000000	65.316915 
2137.000000	65.318036 
2136.000000	65.316414 
2135.000000	65.311622 
2134.000000	65.303778 
2133.000000	65.293669 
2132.000000	65.282487 
2131.000000	65.271663 
2130.000000	65.262508 
2129.000000	65.256214 
2128.000000	65.253448 
2127.000000	65.254282 
2126.000000	65.258193 
2125.000000	65.264296 
2124.000000	65.271282 
2123.000000	65.277695 
2122.000000	65.282082 
2121.000000	65.283370 
2120.000000	65.280747 
2119.000000	65.274000 
2118.000000	65.263509 
2117.000000	65.250349 
2116.000000	65.236020 
2115.000000	65.222501 
2114.000000	65.211796 
2113.000000	65.205574 
2112.000000	65.205144 
2111.000000	65.210747 
2110.000000	65.221834 
2109.000000	65.236902 
2108.000000	65.253639 
2107.000000	65.269589 
2106.000000	65.282487 
2105.000000	65.290617 
2104.000000	65.293049 
2103.000000	65.289950 
2102.000000	65.282225 
2101.000000	65.271496 
2100.000000	65.259480 
2099.000000	65.247631 
2098.000000	65.236902 
2097.000000	65.227484 
2096.000000	65.219020 
2095.000000	65.210747 
2094.000000	65.201973 
2093.000000	65.192413 
2092.000000	65.182471 
2091.000000	65.173482 
2090.000000	65.167546 
2089.000000	65.166997 
2088.000000	65.173888 
2087.000000	65.189337 
2086.000000	65.212821 
2085.000000	65.242457 
2084.000000	65.274763 
2083.000000	65.305423 
2082.000000	65.330100 
2081.000000	65.345430 
2080.000000	65.349364 
2079.000000	65.341925 
2078.000000	65.324831 
2077.000000	65.301203 
2076.000000	65.274834 
2075.000000	65.249180 
2074.000000	65.226864 
2073.000000	65.209436 
2072.000000	65.197110 
2071.000000	65.189242 
2070.000000	65.184545 
2069.000000	65.181994 
2068.000000	65.180611 
2067.000000	65.179848 
2066.000000	65.179324 
2065.000000	65.178990 
2064.000000	65.178823 
2063.000000	65.178751 
2062.000000	65.178823 
2061.000000	65.178871 
2060.000000	65.178871 
2059.000000	65.178728 
2058.000000	65.178298 
2057.000000	65.177440 
2056.000000	65.175938 
2055.000000	65.173625 
2054.000000	65.170145 
2053.000000	65.165472 
2052.000000	65.160012 
2051.000000	65.154695 
2050.000000	65.150618 
2049.000000	65.149307 
2048.000000	65.152096 
2047.000000	65.160083 
2046.000000	65.173745 
2045.000000	65.192723 
2044.000000	65.215826 
2043.000000	65.241217 
2042.000000	65.266871 
2041.000000	65.290498 
2040.000000	65.309858 
2039.000000	65.323233 
2038.000000	65.329551 
2037.000000	65.328550 
2036.000000	65.320611 
2035.000000	65.307068 
2034.000000	65.289735 
2033.000000	65.270733 
2032.000000	65.251994 
2031.000000	65.235066 
2030.000000	65.220832 
2029.000000	65.209341 
2028.000000	65.200018 
2027.000000	65.191602 
2026.000000	65.183186 
2025.000000	65.174007 
2024.000000	65.164422 
2023.000000	65.155291 
2022.000000	65.148568 
2021.000000	65.146350 
2020.000000	65.150642 
2019.000000	65.162611 
2018.000000	65.182304 
2017.000000	65.208363 
2016.000000	65.238475 
2015.000000	65.269470 
2014.000000	65.298318 
2013.000000	65.322422 
2012.000000	65.340399 
2011.000000	65.351891 
2010.000000	65.357637 
2009.000000	65.359067 
2008.000000	65.357875 
2007.000000	65.355277 
2006.000000	65.352082 
2005.000000	65.348291 
2004.000000	65.343451 
2003.000000	65.336894 
2002.000000	65.328001 
2001.000000	65.316390 
2000.000000	65.302205 
1999.000000	65.286016 
1998.000000	65.268778 
1997.000000	65.251564 
1996.000000	65.235424 
1995.000000	65.221333 
1994.000000	65.210032 
1993.000000	65.202116 
1992.000000	65.198016 
1991.000000	65.198063 
1990.000000	65.202450 
1989.000000	65.211153 
1988.000000	65.223741 
1987.000000	65.239453 
1986.000000	65.257167 
1985.000000	65.275502 
1984.000000	65.292835 
1983.000000	65.307760 
1982.000000	65.319347 
1981.000000	65.327167 
1980.000000	65.331315 
1979.000000	65.332603 
1978.000000	65.332126 
1977.000000	65.331125 
1976.000000	65.330433 
1975.000000	65.330481 
1974.000000	65.331029 
1973.000000	65.331506 
1972.000000	65.331029 
1971.000000	65.329003 
1970.000000	65.324997 
1969.000000	65.319323 
1968.000000	65.312623 
1967.000000	65.305638 
1966.000000	65.299034 
1965.000000	65.293240 
1964.000000	65.288209 
1963.000000	65.283656 
1962.000000	65.279197 
1961.000000	65.274739 
1960.000000	65.270376 
1959.000000	65.266609 
1958.000000	65.264105 
1957.000000	65.263438 
1956.000000	65.264892 
1955.000000	65.268254 
1954.000000	65.272760 
1953.000000	65.277290 
1952.000000	65.280652 
1951.000000	65.281987 
1950.000000	65.280985 
1949.000000	65.277981 
1948.000000	65.274000 
1947.000000	65.270304 
1946.000000	65.268039 
1945.000000	65.267992 
1944.000000	65.270113 
1943.000000	65.273785 
1942.000000	65.277862 
1941.000000	65.281248 
1940.000000	65.283155 
1939.000000	65.283679 
1938.000000	65.283584 
1937.000000	65.284204 
1936.000000	65.287017 
1935.000000	65.293216 
1934.000000	65.303182 
1933.000000	65.316224 
1932.000000	65.330791 
1931.000000	65.344691 
1930.000000	65.355682 
1929.000000	65.361881 
1928.000000	65.362334 
1927.000000	65.357160 
1926.000000	65.347385 
1925.000000	65.334892 
1924.000000	65.321850 
1923.000000	65.310359 
1922.000000	65.301871 
1921.000000	65.297055 
1920.000000	65.295648 
1919.000000	65.296673 
1918.000000	65.298748 
1917.000000	65.300583 
1916.000000	65.301299 
1915.000000	65.300559 
1914.000000	65.298604 
1913.000000	65.295958 
1912.000000	65.293383 
1911.000000	65.291380 
1910.000000	65.290260 
1909.000000	65.290069 
1908.000000	65.290713 
1907.000000	65.292024 
1906.000000	65.293884 
1905.000000	65.296173 
1904.000000	65.298986 
1903.000000	65.302348 
1902.000000	65.306138 
1901.000000	65.310049 
1900.000000	65.313506 
1899.000000	65.315699 
1898.000000	65.315937 
1897.000000	65.313625 
1896.000000	65.308356 
1895.000000	65.300297 
1894.000000	65.289855 
1893.000000	65.277910 
1892.000000	65.265488 
1891.000000	65.253734 
1890.000000	65.243554 
1889.000000	65.235614 
1888.000000	65.230417 
1887.000000	65.228033 
1886.000000	65.228104 
1885.000000	65.230059 
1884.000000	65.233135 
1883.000000	65.236473 
1882.000000	65.239453 
1881.000000	65.241551 
1880.000000	65.242648 
1879.000000	65.242862 
1878.000000	65.242409 
1877.000000	65.241742 
1876.000000	65.241169 
1875.000000	65.240907 
1874.000000	65.240931 
1873.000000	65.240979 
1872.000000	65.240788 
1871.000000	65.239930 
1870.000000	65.238332 
1869.000000	65.236043 
1868.000000	65.233540 
1867.000000	65.231585 
1866.000000	65.231132 
1865.000000	65.233230 
1864.000000	65.238642 
1863.000000	65.247678 
1862.000000	65.260004 
1861.000000	65.274739 
1860.000000	65.290403 
1859.000000	65.305042 
1858.000000	65.316677 
1857.000000	65.323638 
1856.000000	65.324902 
1855.000000	65.320467 
1854.000000	65.311217 
1853.000000	65.298891 
1852.000000	65.285539 
1851.000000	65.273165 
1850.000000	65.263175 
1849.000000	65.256261 
1848.000000	65.252113 
1847.000000	65.249729 
1846.000000	65.247774 
1845.000000	65.244984 
1844.000000	65.240454 
1843.000000	65.234088 
1842.000000	65.226340 
1841.000000	65.218377 
1840.000000	65.211486 
1839.000000	65.207266 
1838.000000	65.206742 
1837.000000	65.210509 
1836.000000	65.218615 
1835.000000	65.230488 
1834.000000	65.245270 
1833.000000	65.261554 
1832.000000	65.277910 
1831.000000	65.292644 
1830.000000	65.304303 
1829.000000	65.311765 
1828.000000	65.314459 
1827.000000	65.312528 
1826.000000	65.306925 
1825.000000	65.299320 
1824.000000	65.291619 
1823.000000	65.285849 
1822.000000	65.283632 
1821.000000	65.285634 
1820.000000	65.291523 
1819.000000	65.300059 
1818.000000	65.309214 
1817.000000	65.316915 
1816.000000	65.321302 
1815.000000	65.321350 
1814.000000	65.316891 
1813.000000	65.308690 
1812.000000	65.298175 
1811.000000	65.286898 
1810.000000	65.276527 
1809.000000	65.268111 
1808.000000	65.262389 
1807.000000	65.259671 
1806.000000	65.259695 
1805.000000	65.262055 
1804.000000	65.266084 
1803.000000	65.271210 
1802.000000	65.276789 
1801.000000	65.282273 
1800.000000	65.287256 
1799.000000	65.291380 
1798.000000	65.294599 
1797.000000	65.297102 
1796.000000	65.299177 
1795.000000	65.301299 
1794.000000	65.303683 
1793.000000	65.306425 
1792.000000	65.309071 
1791.000000	65.310811 
1790.000000	65.310668 
1789.000000	65.307593 
1788.000000	65.300869 
1787.000000	65.290284 
1786.000000	65.276288 
1785.000000	65.260195 
1784.000000	65.243506 
1783.000000	65.228128 
1782.000000	65.215992 
1781.000000	65.208888 
1780.000000	65.207839 
1779.000000	65.213322 
1778.000000	65.225124 
1777.000000	65.242409 
1776.000000	65.263628 
1775.000000	65.286946 
1774.000000	65.310478 
1773.000000	65.332293 
1772.000000	65.350723 
1771.000000	65.364480 
1770.000000	65.372633 
1769.000000	65.374898 
1768.000000	65.371346 
1767.000000	65.362548 
1766.000000	65.349173 
1765.000000	65.332269 
1764.000000	65.312767 
1763.000000	65.291786 
1762.000000	65.270209 
1761.000000	65.248870 
1760.000000	65.228247 
1759.000000	65.208411 
1758.000000	65.189003 
1757.000000	65.169286 
1756.000000	65.148687 
1755.000000	65.126729 
1754.000000	65.103578 
1753.000000	65.079951 
1752.000000	65.057206 
1751.000000	65.036559 
1750.000000	65.019345 
1749.000000	65.006279 
1748.000000	64.997649 
1747.000000	64.993000 
1746.000000	64.991712 
1745.000000	64.992856 
1744.000000	64.995646 
1743.000000	64.999532 
1742.000000	65.004062 
1741.000000	65.008950 
1740.000000	65.013742 
1739.000000	65.017938 
1738.000000	65.020823 
1737.000000	65.021562 
1736.000000	65.019655 
1735.000000	65.014815 
1734.000000	65.007448 
1733.000000	64.998555 
1732.000000	64.989280 
1731.000000	64.980888 
1730.000000	64.974498 
1729.000000	64.971160 
1728.000000	64.971113 
1727.000000	64.974689 
1726.000000	64.981961 
1725.000000	64.992904 
1724.000000	65.007424 
1723.000000	65.025329 
1722.000000	65.046215 
1721.000000	65.069198 
1720.000000	65.092968 
1719.000000	65.115880 
1718.000000	65.136146 
1717.000000	65.152430 
1716.000000	65.163850 
1715.000000	65.170502 
1714.000000	65.173316 
1713.000000	65.173864 
1712.000000	65.174031 
1711.000000	65.175437 
1710.000000	65.179300 
1709.000000	65.186238 
1708.000000	65.195941 
1707.000000	65.207862 
1706.000000	65.221118 
1705.000000	65.234851 
1704.000000	65.248155 
1703.000000	65.260481 
1702.000000	65.271043 
1701.000000	65.279197 
1700.000000	65.283918 
1699.000000	65.284228 
1698.000000	65.279197 
1697.000000	65.268206 
1696.000000	65.251255 
1695.000000	65.229129 
1694.000000	65.203309 
1693.000000	65.176129 
1692.000000	65.149998 
1691.000000	65.127372 
1690.000000	65.110087 
1689.000000	65.099334 
1688.000000	65.095400 
1687.000000	65.097784 
1686.000000	65.105319 
1685.000000	65.116596 
1684.000000	65.130043 
1683.000000	65.144228 
1682.000000	65.157890 
1681.000000	65.170145 
1680.000000	65.180373 
1679.000000	65.188074 
1678.000000	65.193080 
1677.000000	65.195393 
1676.000000	65.195226 
1675.000000	65.192770 
1674.000000	65.188503 
1673.000000	65.182733 
1672.000000	65.175867 
1671.000000	65.168213 
1670.000000	65.160107 
1669.000000	65.152072 
1668.000000	65.144705 
1667.000000	65.138769 
1666.000000	65.135097 
1665.000000	65.134525 
1664.000000	65.137815 
1663.000000	65.145301 
1662.000000	65.156769 
1661.000000	65.171599 
1660.000000	65.188646 
1659.000000	65.206408 
1658.000000	65.223002 
1657.000000	65.236830 
1656.000000	65.246653 
1655.000000	65.251708 
1654.000000	65.251874 
1653.000000	65.247654 
1652.000000	65.239810 
1651.000000	65.229487 
1650.000000	65.217852 
1649.000000	65.206003 
1648.000000	65.194582 
1647.000000	65.184164 
1646.000000	65.174889 
1645.000000	65.166735 
1644.000000	65.159606 
1643.000000	65.153384 
1642.000000	65.148019 
1641.000000	65.143394 
1640.000000	65.139460 
1639.000000	65.136289 
1638.000000	65.134024 
1637.000000	65.132808 
1636.000000	65.133047 
1635.000000	65.135192 
1634.000000	65.139818 
1633.000000	65.147304 
1632.000000	65.157771 
1631.000000	65.170884 
1630.000000	65.185761 
1629.000000	65.200924 
1628.000000	65.214705 
1627.000000	65.225481 
1626.000000	65.231966 
1625.000000	65.233564 
1624.000000	65.230464 
1623.000000	65.223622 
1622.000000	65.214467 
1621.000000	65.204548 
1620.000000	65.195083 
1619.000000	65.186667 
1618.000000	65.179276 
1617.000000	65.171909 
1616.000000	65.163469 
1615.000000	65.152740 
1614.000000	65.139102 
1613.000000	65.122485 
1612.000000	65.103673 
1611.000000	65.083909 
1610.000000	65.064883 
1609.000000	65.048050 
1608.000000	65.034461 
1607.000000	65.024471 
1606.000000	65.017747 
1605.000000	65.013527 
1604.000000	65.010857 
1603.000000	65.008950 
1602.000000	65.007185 
1601.000000	65.005421 
1600.000000	65.004038 
1599.000000	65.003252 
1598.000000	65.003275 
1597.000000	65.004158 
1596.000000	65.005564 
1595.000000	65.007019 
1594.000000	65.007829 
1593.000000	65.007424 
1592.000000	65.005564 
1591.000000	65.002417 
1590.000000	64.998650 
1589.000000	64.995265 
1588.000000	64.993453 
1587.000000	64.994359 
1586.000000	64.998650 
1585.000000	65.006041 
1584.000000	65.015649 
1583.000000	65.025758 
1582.000000	65.034627 
1581.000000	65.040516 
1580.000000	65.042448 
1579.000000	65.040111 
1578.000000	65.033769 
1577.000000	65.023994 
1576.000000	65.011310 
1575.000000	64.996194 
1574.000000	64.979028 
1573.000000	64.960050 
1572.000000	64.939951 
1571.000000	64.919543 
1570.000000	64.899969 
1569.000000	64.882540 
1568.000000	64.868450 
1567.000000	64.858984 
1566.000000	64.855027 
1565.000000	64.857292 
1564.000000	64.865970 
1563.000000	64.880967 
1562.000000	64.901590 
1561.000000	64.926624 
1560.000000	64.954423 
1559.000000	64.983034 
1558.000000	65.010285 
1557.000000	65.034151 
1556.000000	65.053081 
1555.000000	65.066242 
1554.000000	65.073466 
1553.000000	65.075349 
1552.000000	65.073013 
1551.000000	65.067768 
1550.000000	65.060901 
1549.000000	65.053439 
1548.000000	65.045952 
1547.000000	65.038847 
1546.000000	65.032315 
1545.000000	65.026783 
1544.000000	65.022802 
1543.000000	65.021061 
1542.000000	65.022253 
1541.000000	65.026855 
1540.000000	65.034723 
1539.000000	65.045142 
1538.000000	65.056967 
1537.000000	65.068769 
1536.000000	65.079212 
1535.000000	65.087318 
1534.000000	65.092873 
1533.000000	65.096378 
1532.000000	65.098762 
1531.000000	65.101146 
1530.000000	65.104198 
1529.000000	65.107965 
1528.000000	65.111875 
1527.000000	65.114784 
1526.000000	65.115475 
1525.000000	65.113043 
1524.000000	65.107393 
1523.000000	65.099382 
1522.000000	65.090656 
1521.000000	65.083289 
1520.000000	65.079164 
1519.000000	65.079355 
1518.000000	65.083837 
1517.000000	65.091395 
1516.000000	65.099930 
1515.000000	65.106940 
1514.000000	65.110206 
1513.000000	65.108299 
1512.000000	65.101122 
1511.000000	65.089869 
1510.000000	65.076470 
1509.000000	65.063524 
1508.000000	65.053439 
1507.000000	65.048122 
1506.000000	65.048527 
1505.000000	65.054559 
1504.000000	65.065431 
1503.000000	65.079689 
1502.000000	65.095829 
1501.000000	65.112447 
1500.000000	65.128493 
1499.000000	65.143394 
1498.000000	65.156793 
1497.000000	65.168714 
1496.000000	65.179276 
1495.000000	65.188574 
1494.000000	65.196752 
1493.000000	65.204024 
1492.000000	65.210509 
1491.000000	65.216231 
1490.000000	65.220880 
1489.000000	65.224123 
1488.000000	65.225148 
1487.000000	65.223169 
1486.000000	65.217256 
1485.000000	65.206837 
1484.000000	65.191745 
1483.000000	65.172672 
1482.000000	65.150976 
1481.000000	65.128731 
1480.000000	65.108084 
1479.000000	65.091204 
1478.000000	65.079212 
1477.000000	65.072226 
1476.000000	65.069317 
1475.000000	65.068721 
1474.000000	65.068435 
1473.000000	65.066909 
1472.000000	65.063452 
1471.000000	65.058517 
1470.000000	65.053534 
1469.000000	65.050292 
1468.000000	65.050148 
1467.000000	65.053272 
1466.000000	65.058493 
1465.000000	65.063214 
1464.000000	65.064048 
1463.000000	65.057921 
1462.000000	65.043020 
1461.000000	65.019440 
1460.000000	64.989471 
1459.000000	64.956998 
1458.000000	64.926671 
1457.000000	64.902615 
1456.000000	64.887523 
1455.000000	64.882159 
1454.000000	64.885330 
1453.000000	64.894556 
1452.000000	64.906907 
1451.000000	64.919948 
1450.000000	64.932227 
1449.000000	64.943504 
1448.000000	64.954400 
1447.000000	64.965796 
1446.000000	64.978075 
1445.000000	64.990901 
1444.000000	65.003156 
1443.000000	65.013599 
1442.000000	65.021228 
1441.000000	65.026044 
1440.000000	65.029120 
1439.000000	65.032029 
1438.000000	65.036535 
1437.000000	65.043783 
1436.000000	65.053963 
1435.000000	65.066075 
1434.000000	65.078186 
1433.000000	65.088319 
1432.000000	65.094661 
1431.000000	65.096449 
1430.000000	65.093827 
1429.000000	65.088152 
1428.000000	65.081214 
1427.000000	65.074944 
1426.000000	65.070843 
1425.000000	65.069603 
1424.000000	65.071129 
1423.000000	65.074682 
1422.000000	65.079092 
1421.000000	65.083169 
1420.000000	65.085840 
1419.000000	65.086460 
1418.000000	65.084624 
1417.000000	65.080237 
1416.000000	65.073609 
1415.000000	65.065431 
1414.000000	65.056610 
1413.000000	65.048146 
1412.000000	65.041065 
1411.000000	65.036249 
1410.000000	65.034008 
1409.000000	65.034151 
1408.000000	65.036129 
1407.000000	65.038824 
1406.000000	65.041327 
1405.000000	65.042591 
1404.000000	65.042042 
1403.000000	65.039420 
1402.000000	65.034818 
1401.000000	65.028405 
1400.000000	65.020275 
1399.000000	65.010452 
1398.000000	64.998912 
1397.000000	64.985966 
1396.000000	64.972305 
1395.000000	64.959311 
1394.000000	64.948749 
1393.000000	64.942479 
1392.000000	64.941620 
1391.000000	64.946126 
1390.000000	64.954686 
1389.000000	64.964556 
1388.000000	64.972472 
1387.000000	64.975309 
1386.000000	64.971041 
1385.000000	64.959454 
1384.000000	64.942383 
1383.000000	64.923238 
1382.000000	64.906239 
1381.000000	64.895224 
1380.000000	64.892745 
1379.000000	64.899301 
1378.000000	64.913558 
1377.000000	64.932680 
1376.000000	64.953303 
1375.000000	64.972376 
1374.000000	64.987921 
1373.000000	64.999341 
1372.000000	65.007162 
1371.000000	65.012526 
1370.000000	65.016651 
1369.000000	65.020537 
1368.000000	65.024685 
1367.000000	65.029001 
1366.000000	65.033292 
1365.000000	65.037417 
1364.000000	65.041470 
1363.000000	65.046048 
1362.000000	65.051817 
1361.000000	65.059471 
1360.000000	65.069198 
1359.000000	65.080571 
1358.000000	65.092730 
1357.000000	65.104413 
1356.000000	65.114355 
1355.000000	65.121650 
1354.000000	65.125870 
1353.000000	65.127110 
1352.000000	65.125966 
1351.000000	65.122890 
1350.000000	65.118384 
1349.000000	65.112400 
1348.000000	65.104699 
1347.000000	65.094876 
1346.000000	65.082716 
1345.000000	65.068364 
1344.000000	65.052461 
1343.000000	65.036058 
1342.000000	65.020656 
1341.000000	65.007615 
1340.000000	64.997911 
1339.000000	64.991736 
1338.000000	64.988684 
1337.000000	64.987659 
1336.000000	64.987277 
1335.000000	64.986181 
1334.000000	64.983558 
1333.000000	64.979004 
1332.000000	64.972805 
1331.000000	64.965701 
1330.000000	64.958786 
1329.000000	64.953017 
1328.000000	64.949250 
1327.000000	64.947938 
1326.000000	64.949107 
1325.000000	64.952564 
1324.000000	64.957785 
1323.000000	64.964199 
1322.000000	64.971208 
1321.000000	64.978098 
1320.000000	64.984202 
1319.000000	64.988827 
1318.000000	64.991426 
1317.000000	64.991641 
1316.000000	64.989447 
1315.000000	64.985322 
1314.000000	64.979982 
1313.000000	64.974498 
1312.000000	64.969706 
1311.000000	64.966082 
1310.000000	64.963603 
1309.000000	64.961862 
1308.000000	64.960265 
1307.000000	64.958453 
1306.000000	64.956450 
1305.000000	64.954805 
1304.000000	64.954376 
1303.000000	64.956068 
1302.000000	64.960360 
1301.000000	64.967179 
1300.000000	64.975762 
1299.000000	64.984846 
1298.000000	64.993166 
1297.000000	64.999413 
1296.000000	65.003085 
1295.000000	65.004229 
1294.000000	65.003490 
1293.000000	65.001869 
1292.000000	65.000152 
1291.000000	64.998722 
1290.000000	64.997434 
1289.000000	64.995551 
1288.000000	64.992308 
1287.000000	64.987063 
1286.000000	64.979624 
1285.000000	64.970397 
1284.000000	64.960336 
1283.000000	64.950656 
1282.000000	64.942431 
1281.000000	64.936470 
1280.000000	64.933037 
1279.000000	64.931893 
1278.000000	64.932489 
1277.000000	64.934182 
1276.000000	64.936351 
1275.000000	64.938688 
1274.000000	64.941215 
1273.000000	64.944028 
1272.000000	64.947438 
1271.000000	64.951562 
1270.000000	64.956545 
1269.000000	64.962267 
1268.000000	64.968657 
1267.000000	64.975500 
1266.000000	64.982509 
1265.000000	64.989519 
1264.000000	64.996123 
1263.000000	65.001630 
1262.000000	65.005302 
1261.000000	65.006470 
1260.000000	65.004682 
1259.000000	64.999842 
1258.000000	64.992141 
1257.000000	64.982175 
1256.000000	64.970636 
1255.000000	64.958453 
1254.000000	64.946317 
1253.000000	64.934682 
1252.000000	64.923667 
1251.000000	64.913249 
1250.000000	64.903187 
1249.000000	64.893436 
1248.000000	64.884018 
1247.000000	64.875388 
1246.000000	64.868211 
1245.000000	64.863371 
1244.000000	64.861607 
1243.000000	64.863300 
1242.000000	64.868068 
1241.000000	64.874982 
1240.000000	64.882326 
1239.000000	64.888048 
1238.000000	64.890217 
1237.000000	64.887404 
1236.000000	64.878916 
1235.000000	64.865422 
1234.000000	64.848756 
1233.000000	64.831900 
1232.000000	64.818048 
1231.000000	64.810204 
1230.000000	64.810609 
1229.000000	64.820289 
1228.000000	64.838814 
1227.000000	64.864540 
1226.000000	64.894795 
1225.000000	64.926648 
1224.000000	64.957261 
1223.000000	64.984035 
1222.000000	65.005135 
1221.000000	65.019512 
1220.000000	65.026831 
1219.000000	65.027475 
1218.000000	65.022182 
1217.000000	65.012431 
1216.000000	64.999699 
1215.000000	64.985585 
1214.000000	64.970970 
1213.000000	64.956831 
1212.000000	64.943122 
1211.000000	64.929533 
1210.000000	64.915323 
1209.000000	64.899706 
1208.000000	64.882373 
1207.000000	64.863729 
1206.000000	64.845013 
1205.000000	64.827990 
1204.000000	64.814615 
1203.000000	64.806532 
1202.000000	64.804577 
1201.000000	64.808344 
1200.000000	64.816164 
1199.000000	64.825558 
1198.000000	64.833736 
1197.000000	64.838457 
1196.000000	64.838385 
1195.000000	64.833903 
1194.000000	64.826369 
1193.000000	64.818120 
1192.000000	64.811873 
1191.000000	64.809966 
1190.000000	64.813542 
1189.000000	64.822530 
1188.000000	64.835476 
1187.000000	64.850020 
1186.000000	64.863634 
1185.000000	64.873886 
1184.000000	64.879226 
1183.000000	64.878964 
1182.000000	64.873504 
1181.000000	64.864039 
1180.000000	64.852118 
1179.000000	64.839553 
1178.000000	64.827895 
1177.000000	64.818549 
1176.000000	64.812660 
1175.000000	64.811062 
1174.000000	64.814162 
1173.000000	64.821743 
1172.000000	64.832901 
1171.000000	64.845657 
1170.000000	64.857649 
1169.000000	64.866185 
1168.000000	64.869117 
1167.000000	64.865183 
1166.000000	64.854550 
1165.000000	64.839220 
1164.000000	64.822435 
1163.000000	64.808154 
1162.000000	64.800095 
1161.000000	64.800691 
1160.000000	64.810633 
1159.000000	64.828586 
1158.000000	64.851450 
1157.000000	64.874887 
1156.000000	64.894604 
1155.000000	64.907288 
1154.000000	64.911317 
1153.000000	64.906883 
1152.000000	64.895820 
1151.000000	64.881014 
1150.000000	64.865255 
1149.000000	64.850330 
1148.000000	64.836740 
1147.000000	64.823675 
1146.000000	64.809560 
1145.000000	64.792609 
1144.000000	64.771652 
1143.000000	64.746594 
1142.000000	64.718604 
1141.000000	64.689803 
1140.000000	64.662694 
1139.000000	64.639592 
1138.000000	64.622044 
1137.000000	64.610815 
1136.000000	64.605665 
1135.000000	64.605927 
1134.000000	64.610695 
1133.000000	64.619469 
1132.000000	64.631986 
1131.000000	64.648485 
1130.000000	64.668989 
1129.000000	64.693522 
1128.000000	64.721345 
1127.000000	64.751386 
1126.000000	64.782023 
1125.000000	64.811515 
1124.000000	64.838147 
1123.000000	64.860200 
1122.000000	64.876270 
1121.000000	64.885163 
1120.000000	64.886236 
1119.000000	64.879345 
1118.000000	64.864993 
1117.000000	64.844822 
1116.000000	64.821481 
1115.000000	64.798116 
1114.000000	64.778161 
1113.000000	64.764833 
1112.000000	64.760446 
1111.000000	64.766120 
1110.000000	64.781403 
1109.000000	64.804506 
1108.000000	64.832353 
1107.000000	64.861392 
1106.000000	64.887952 
1105.000000	64.908814 
1104.000000	64.921951 
1103.000000	64.926648 
1102.000000	64.923620 
1101.000000	64.914393 
1100.000000	64.901375 
1099.000000	64.887285 
1098.000000	64.874696 
1097.000000	64.865708 
1096.000000	64.861702 
1095.000000	64.863514 
1094.000000	64.871191 
1093.000000	64.884018 
1092.000000	64.900803 
1091.000000	64.919829 
1090.000000	64.939022 
1089.000000	64.956283 
1088.000000	64.969468 
1087.000000	64.976906 
1086.000000	64.977455 
1085.000000	64.971113 
1084.000000	64.958834 
1083.000000	64.942312 
1082.000000	64.924144 
1081.000000	64.906597 
1080.000000	64.891362 
1079.000000	64.878726 
1078.000000	64.868021 
1077.000000	64.857435 
1076.000000	64.845108 
1075.000000	64.829397 
1074.000000	64.809536 
1073.000000	64.786076 
1072.000000	64.760613 
1071.000000	64.735484 
1070.000000	64.712858 
1069.000000	64.694595 
1068.000000	64.681744 
1067.000000	64.674663 
1066.000000	64.672899 
1065.000000	64.675736 
1064.000000	64.682364 
1063.000000	64.692115 
1062.000000	64.704370 
1061.000000	64.718580 
1060.000000	64.734220 
1059.000000	64.750194 
1058.000000	64.765310 
1057.000000	64.778232 
1056.000000	64.788103 
1055.000000	64.794564 
1054.000000	64.798045 
1053.000000	64.799761 
1052.000000	64.801073 
1051.000000	64.803600 
1050.000000	64.807963 
1049.000000	64.813876 
1048.000000	64.819741 
1047.000000	64.823484 
1046.000000	64.822530 
1045.000000	64.814901 
1044.000000	64.799547 
1043.000000	64.777040 
1042.000000	64.749503 
1041.000000	64.719915 
1040.000000	64.691734 
1039.000000	64.668059 
1038.000000	64.650845 
1037.000000	64.640641 
1036.000000	64.636731 
1035.000000	64.637446 
1034.000000	64.640855 
1033.000000	64.645361 
1032.000000	64.649891 
1031.000000	64.654135 
1030.000000	64.658308 
1029.000000	64.662909 
1028.000000	64.668011 
1027.000000	64.673638 
1026.000000	64.679241 
1025.000000	64.684414 
1024.000000	64.689064 
1023.000000	64.693665 
1022.000000	64.699459 
1021.000000	64.707946 
1020.000000	64.720749 
1019.000000	64.738678 
1018.000000	64.761281 
1017.000000	64.786744 
1016.000000	64.812064 
1015.000000	64.833688 
1014.000000	64.848351 
1013.000000	64.853978 
1012.000000	64.850234 
1011.000000	64.838218 
1010.000000	64.820146 
1009.000000	64.798784 
1008.000000	64.776682 
1007.000000	64.755368 
1006.000000	64.735341 
1005.000000	64.716339 
1004.000000	64.697670 
1003.000000	64.678788 
1002.000000	64.660000 
1001.000000	64.642167 
1000.000000	64.627146 
999.000000	 64.617156 
998.000000	 64.614367 
997.000000	 64.619994 
996.000000	 64.634156 
995.000000	 64.655542 
994.000000	 64.681696 
993.000000	 64.709305 
992.000000	 64.735198 
991.000000	 64.756846 
990.000000	 64.772987 
989.000000	 64.783430 
988.000000	 64.789414 
987.000000	 64.793133 
986.000000	 64.796948 
985.000000	 64.803051 
984.000000	 64.812922 
983.000000	 64.827132 
982.000000	 64.845323 
981.000000	 64.866256 
980.000000	 64.888477 
979.000000	 64.910364 
978.000000	 64.930605 
977.000000	 64.948034 
976.000000	 64.961361 
975.000000	 64.969253 
974.000000	 64.970731 
973.000000	 64.965081 
972.000000	 64.952278 
971.000000	 64.932990 
970.000000	 64.909124 
969.000000	 64.882969 
968.000000	 64.857053 
967.000000	 64.833378 
966.000000	 64.813256 
965.000000	 64.796924 
964.000000	 64.783644 
963.000000	 64.771962 
962.000000	 64.760541 
961.000000	 64.748311 
960.000000	 64.734864 
959.000000	 64.720201 
958.000000	 64.704537 
957.000000	 64.688134 
956.000000	 64.671301 
955.000000	 64.653658 
954.000000	 64.634752 
953.000000	 64.614439 
952.000000	 64.593553 
951.000000	 64.573788 
950.000000	 64.557766 
949.000000	 64.548349 
948.000000	 64.548063 
947.000000	 64.558196 
946.000000	 64.578461 
945.000000	 64.606237 
944.000000	 64.638042 
943.000000	 64.669609 
942.000000	 64.697670 
941.000000	 64.720106 
940.000000	 64.737248 
939.000000	 64.751601 
938.000000	 64.766979 
937.000000	 64.787507 
936.000000	 64.815807 
935.000000	 64.852094 
934.000000	 64.893341 
933.000000	 64.933967 
932.000000	 64.966130 
931.000000	 64.981532 
930.000000	 64.973878 
929.000000	 64.940667 
928.000000	 64.883661 
927.000000	 64.809036 
926.000000	 64.726138 
925.000000	 64.645814 
924.000000	 64.578318 
923.000000	 64.531803 
922.000000	 64.510655 
921.000000	 64.515829 
920.000000	 64.545106 
919.000000	 64.594435 
918.000000	 64.658164 
917.000000	 64.731025 
916.000000	 64.808344 
915.000000	 64.886832 
914.000000	 64.964103 
913.000000	 65.037703 
912.000000	 65.105271 
911.000000	 65.162038 
910.000000	 65.201711 
909.000000	 65.215754 
908.000000	 65.195751 
907.000000	 65.133905 
906.000000	 65.026021 
905.000000	 64.872670 
904.000000	 64.680743 
903.000000	 64.463472 
902.000000	 64.239478 
901.000000	 64.029526 
900.000000	 63.853716 
899.000000	 63.728308 
898.000000	 63.663649 
897.000000	 63.661670 
896.000000	 63.717222 
895.000000	 63.819146 
894.000000	 63.953447 
893.000000	 64.104676 
892.000000	 64.259314 
891.000000	 64.405632 
890.000000	 64.536190 
889.000000	 64.645361 
888.000000	 64.731335 
887.000000	 64.794278 
886.000000	 64.836525 
885.000000	 64.862036 
884.000000	 64.875125 
883.000000	 64.880609 
882.000000	 64.881682 
881.000000	 64.880895 
880.000000	 64.877605 
879.000000	 64.869451 
878.000000	 64.852118 
877.000000	 64.821338 
876.000000	 64.773488 
875.000000	 64.707231 
874.000000	 64.624786 
873.000000	 64.531803 
872.000000	 64.435505 
871.000000	 64.343500 
870.000000	 64.262723 
869.000000	 64.198255 
868.000000	 64.152169 
867.000000	 64.123916 
866.000000	 64.111113 
865.000000	 64.110350 
864.000000	 64.117741 
863.000000	 64.129948 
862.000000	 64.143347 
861.000000	 64.155960 
860.000000	 64.167046 
859.000000	 64.177322 
858.000000	 64.187502 
857.000000	 64.198851 
856.000000	 64.212536 
855.000000	 64.228963 
854.000000	 64.247560 
853.000000	 64.267230 
852.000000	 64.286756 
851.000000	 64.305400 
850.000000	 64.323115 
849.000000	 64.341068 
848.000000	 64.361095 
847.000000	 64.385557 
846.000000	 64.416146 
845.000000	 64.452958 
844.000000	 64.493870 
843.000000	 64.534854 
842.000000	 64.570426 
841.000000	 64.595031 
840.000000	 64.604282 
839.000000	 64.596748 
838.000000	 64.574289 
837.000000	 64.541602 
836.000000	 64.505529 
835.000000	 64.473557 
834.000000	 64.451980 
833.000000	 64.445018 
832.000000	 64.453244 
831.000000	 64.474248 
830.000000	 64.502692 
829.000000	 64.532065 
828.000000	 64.555621 
827.000000	 64.568042 
826.000000	 64.566540 
825.000000	 64.551281 
824.000000	 64.525032 
823.000000	 64.492392 
822.000000	 64.458823 
821.000000	 64.429140 
820.000000	 64.406514 
819.000000	 64.391708 
818.000000	 64.383625 
817.000000	 64.379453 
816.000000	 64.375424 
815.000000	 64.368152 
814.000000	 64.355111 
813.000000	 64.335608 
812.000000	 64.310455 
811.000000	 64.282178 
810.000000	 64.254140 
809.000000	 64.229989 
808.000000	 64.212441 
807.000000	 64.202833 
806.000000	 64.200711 
805.000000	 64.204001 
804.000000	 64.209461 
803.000000	 64.214110 
802.000000	 64.216136 
801.000000	 64.215230 
800.000000	 64.212799 
799.000000	 64.211153 
798.000000	 64.212942 
797.000000	 64.219617 
796.000000	 64.230680 
795.000000	 64.243650 
794.000000	 64.254546 
793.000000	 64.259052 
792.000000	 64.253640 
791.000000	 64.236426 
790.000000	 64.208054 
789.000000	 64.171695 
788.000000	 64.132761 
787.000000	 64.097404 
786.000000	 64.071679 
785.000000	 64.060187 
784.000000	 64.065027 
783.000000	 64.085674 
782.000000	 64.118623 
781.000000	 64.158606 
780.000000	 64.198684 
779.000000	 64.231967 
778.000000	 64.252042 
777.000000	 64.254260 
776.000000	 64.235877 
775.000000	 64.196395 
774.000000	 64.137768 
773.000000	 64.064002 
772.000000	 63.981294 
771.000000	 63.897061 
770.000000	 63.819146 
769.000000	 63.754820 
768.000000	 63.709664 
767.000000	 63.686728 
766.000000	 63.685917 
765.000000	 63.704276 
764.000000	 63.736152 
763.000000	 63.774895 
762.000000	 63.813424 
761.000000	 63.846087 
760.000000	 63.869094 
759.000000	 63.881063 
758.000000	 63.882875 
757.000000	 63.876771 
756.000000	 63.865613 
755.000000	 63.851904 
754.000000	 63.837575 
753.000000	 63.823485 
752.000000	 63.810205 
751.000000	 63.797712 
750.000000	 63.786411 
749.000000	 63.776397 
748.000000	 63.767886 
747.000000	 63.760733 
746.000000	 63.754415 
745.000000	 63.748264 
744.000000	 63.741540 
743.000000	 63.734006 
742.000000	 63.726043 
741.000000	 63.718271 
740.000000	 63.711690 
739.000000	 63.707232 
738.000000	 63.705921 
737.000000	 63.708329 
736.000000	 63.714861 
735.000000	 63.725662 
734.000000	 63.740396 
733.000000	 63.758730 
732.000000	 63.779282 
731.000000	 63.800024 
730.000000	 63.817811 
729.000000	 63.829088 
728.000000	 63.830232 
727.000000	 63.817930 
726.000000	 63.790631 
725.000000	 63.749170 
724.000000	 63.696980 
723.000000	 63.640093 
722.000000	 63.585615 
721.000000	 63.540220 
720.000000	 63.508963 
719.000000	 63.494038 
718.000000	 63.494610 
717.000000	 63.507080 
716.000000	 63.526391 
715.000000	 63.547110 
714.000000	 63.564825 
713.000000	 63.576984 
712.000000	 63.582825 
711.000000	 63.583040 
710.000000	 63.579177 
709.000000	 63.572502 
708.000000	 63.563680 
707.000000	 63.551974 
706.000000	 63.535666 
705.000000	 63.512349 
704.000000	 63.480162 
703.000000	 63.438344 
702.000000	 63.387989 
701.000000	 63.332343 
700.000000	 63.276004 
699.000000	 63.225030 
698.000000	 63.185405 
697.000000	 63.162398 
696.000000	 63.159203 
695.000000	 63.176608 
694.000000	 63.212490 
693.000000	 63.262081 
692.000000	 63.318753 
691.000000	 63.374972 
690.000000	 63.423466 
689.000000	 63.458442 
688.000000	 63.476443 
687.000000	 63.476967 
686.000000	 63.462257 
685.000000	 63.436746 
684.000000	 63.406062 
683.000000	 63.376426 
682.000000	 63.353109 
681.000000	 63.339734 
680.000000	 63.337302 
679.000000	 63.344669 
678.000000	 63.358616 
677.000000	 63.374781 
676.000000	 63.388967 
675.000000	 63.398003 
674.000000	 63.400769 
673.000000	 63.398003 
672.000000	 63.392257 
671.000000	 63.386845 
670.000000	 63.384938 
669.000000	 63.388800 
668.000000	 63.398742 
667.000000	 63.413071 
666.000000	 63.428401 
665.000000	 63.440942 
664.000000	 63.447165 
663.000000	 63.444900 
662.000000	 63.433384 
661.000000	 63.413333 
660.000000	 63.386249 
659.000000	 63.353705 
658.000000	 63.316941 
657.000000	 63.276362 
656.000000	 63.232421 
655.000000	 63.185548 
654.000000	 63.137221 
653.000000	 63.089323 
652.000000	 63.044023 
651.000000	 63.003206 
650.000000	 62.967610 
649.000000	 62.937283 
648.000000	 62.910962 
647.000000	 62.887716 
646.000000	 62.866568 
645.000000	 62.847971 
644.000000	 62.833404 
643.000000	 62.825298 
642.000000	 62.825632 
641.000000	 62.835645 
640.000000	 62.854909 
639.000000	 62.881064 
638.000000	 62.909746 
637.000000	 62.935972 
636.000000	 62.955474 
635.000000	 62.965750 
634.000000	 62.966847 
633.000000	 62.961649 
632.000000	 62.955021 
631.000000	 62.952589 
630.000000	 62.958979 
629.000000	 62.976193 
628.000000	 63.003063 
627.000000	 63.035750 
626.000000	 63.068771 
625.000000	 63.096714 
624.000000	 63.115811 
623.000000	 63.125395 
622.000000	 63.127326 
621.000000	 63.125371 
620.000000	 63.123345 
619.000000	 63.124108 
618.000000	 63.128066 
617.000000	 63.133287 
616.000000	 63.135552 
615.000000	 63.130402 
614.000000	 63.113427 
613.000000	 63.082480 
612.000000	 63.037610 
611.000000	 62.981271 
610.000000	 62.918257 
609.000000	 62.854743 
608.000000	 62.797236 
607.000000	 62.751245 
606.000000	 62.720847 
605.000000	 62.708163 
604.000000	 62.713170 
603.000000	 62.733769 
602.000000	 62.766647 
601.000000	 62.807536 
600.000000	 62.851548 
599.000000	 62.894010 
598.000000	 62.930345 
597.000000	 62.957000 
596.000000	 62.971711 
595.000000	 62.973761 
594.000000	 62.964296 
593.000000	 62.945485 
592.000000	 62.920713 
591.000000	 62.892913 
590.000000	 62.864685 
589.000000	 62.836432 
588.000000	 62.807297 
587.000000	 62.774324 
586.000000	 62.734127 
585.000000	 62.683820 
584.000000	 62.622237 
583.000000	 62.551259 
582.000000	 62.475752 
581.000000	 62.402987 
580.000000	 62.340927 
579.000000	 62.296080 
578.000000	 62.272024 
577.000000	 62.268066 
576.000000	 62.279963 
575.000000	 62.301015 
574.000000	 62.324261 
573.000000	 62.344336 
572.000000	 62.358975 
571.000000	 62.369346 
570.000000	 62.379384 
569.000000	 62.393474 
568.000000	 62.414836 
567.000000	 62.444114 
566.000000	 62.478327 
565.000000	 62.511420 
564.000000	 62.535762 
563.000000	 62.544655 
562.000000	 62.533664 
561.000000	 62.502622 
560.000000	 62.455105 
559.000000	 62.397813 
558.000000	 62.338876 
557.000000	 62.285685 
556.000000	 62.243795 
555.000000	 62.215900 
554.000000	 62.201690 
553.000000	 62.198472 
552.000000	 62.201881 
551.000000	 62.207007 
550.000000	 62.209200 
549.000000	 62.205147 
548.000000	 62.193155 
547.000000	 62.173247 
546.000000	 62.147283 
545.000000	 62.117886 
544.000000	 62.087583 
543.000000	 62.057805 
542.000000	 62.029004 
541.000000	 62.000226 
540.000000	 61.970114 
539.000000	 61.937046 
538.000000	 61.900210 
537.000000	 61.859297 
536.000000	 61.814856 
535.000000	 61.767864 
534.000000	 61.719775 
533.000000	 61.671996 
532.000000	 61.626076 
531.000000	 61.583018 
530.000000	 61.543297 
529.000000	 61.506438 
528.000000	 61.471223 
527.000000	 61.435651 
526.000000	 61.397743 
525.000000	 61.356472 
524.000000	 61.312747 
523.000000	 61.269569 
522.000000	 61.231946 
521.000000	 61.206078 
520.000000	 61.198067 
519.000000	 61.212420 
518.000000	 61.250686 
517.000000	 61.310386 
516.000000	 61.385726 
515.000000	 61.468744 
514.000000	 61.550450 
513.000000	 61.622452 
512.000000	 61.678266 
511.000000	 61.714506 
510.000000	 61.731028 
509.000000	 61.731410 
508.000000	 61.720561 
507.000000	 61.703372 
506.000000	 61.683082 
505.000000	 61.661267 
504.000000	 61.636638 
503.000000	 61.606264 
502.000000	 61.566686 
501.000000	 61.515998 
500.000000	 61.454319 
499.000000	 61.384797 
498.000000	 61.311268 
497.000000	 61.238193 
496.000000	 61.169219 
495.000000	 61.108231 
494.000000	 61.059117 
493.000000	 61.027193 
492.000000	 61.019229 
491.000000	 61.042475 
490.000000	 61.103034 
489.000000	 61.202478 
488.000000	 61.336684 
487.000000	 61.492919 
486.000000	 61.652588 
485.000000	 61.790871 
484.000000	 61.882805 
483.000000	 61.905026 
482.000000	 61.842322 
481.000000	 61.688971 
480.000000	 61.451029 
479.000000	 61.146283 
478.000000	 60.802435 
477.000000	 60.452890 
476.000000	 60.131478 
475.000000	 59.868097 
474.000000	 59.684467 
473.000000	 59.591484 
472.000000	 59.588599 
471.000000	 59.665417 
470.000000	 59.804677 
469.000000	 59.983944 
468.000000	 60.179781 
467.000000	 60.371017 
466.000000	 60.541415 
465.000000	 60.678291 
464.000000	 60.774230 
463.000000	 60.826730 
462.000000	 60.837197 
461.000000	 60.810399 
460.000000	 60.752248 
459.000000	 60.671401 
458.000000	 60.574913 
457.000000	 60.470938 
456.000000	 60.363936 
455.000000	 60.256671 
454.000000	 60.148477 
453.000000	 60.037851 
452.000000	 59.923100 
451.000000	 59.803509 
450.000000	 59.681653 
449.000000	 59.563922 
448.000000	 59.457826 
447.000000	 59.369587 
446.000000	 59.302854 
445.000000	 59.257173 
444.000000	 59.224009 
443.000000	 59.188008 
442.000000	 59.131312 
441.000000	 59.037733 
440.000000	 58.896183 
439.000000	 58.704543 
438.000000	 58.470129 
437.000000	 58.209228 
436.000000	 57.944059 
435.000000	 57.698583 
434.000000	 57.490372 
433.000000	 57.331418 
432.000000	 57.226014 
431.000000	 57.173466 
430.000000	 57.167291 
429.000000	 57.201313 
428.000000	 57.269978 
427.000000	 57.371282 
426.000000	 57.502532 
425.000000	 57.662773 
424.000000	 57.847285 
423.000000	 58.051013 
422.000000	 58.266305 
421.000000	 58.485174 
420.000000	 58.698725 
419.000000	 58.901309 
418.000000	 59.090471 
417.000000	 59.268808 
416.000000	 59.440779 
415.000000	 59.610748 
414.000000	 59.777951 
413.000000	 59.931182 
412.000000	 60.048770 
411.000000	 60.111999 
410.000000	 60.103893 
409.000000	 60.008883 
408.000000	 59.819197 
407.000000	 59.548425 
406.000000	 59.220743 
405.000000	 58.866095 
404.000000	 58.513808 
403.000000	 58.184123 
402.000000	 57.890176 
401.000000	 57.641291 
400.000000	 57.443785 
399.000000	 57.288575 
398.000000	 57.182598 
397.000000	 57.162785 
396.000000	 57.260084 
395.000000	 57.481527 
394.000000	 57.812356 
393.000000	 58.214378 
392.000000	 58.615446 
391.000000	 58.927321 
390.000000	 59.061861 
389.000000	 58.965921 
388.000000	 58.651208 
387.000000	 58.211135 
386.000000	 57.818865 
385.000000	 57.693338 
384.000000	 58.039712 
383.000000	 58.995509 
382.000000	 60.600948 
381.000000	 62.762212 
380.000000	 65.269970 
379.000000	 67.814469 
378.000000	 70.089840 
377.000000	 71.784043 
376.000000	 72.695875 
375.000000	 72.657966 
374.000000	 71.593570 
373.000000	 69.438719 
372.000000	 66.188287 
371.000000	 61.844205 
370.000000	 56.432747 

