PE IR       SPECTRUM    SPECTRUM    ASCII       PEDS        1.60        
  -1
C-9AEE~1.ASC
17/05/02
13:01:56.00
17/05/02
13:01:56.00
tln
$C-4040-8_t0025$<tbV0>[12.5,7.0,8.0,0.0,22,1,0]
370.000000
64









2002,4.07    
MIRTGS : RIGHTBACK : INTERNAL 2
MIR : ON : INTERNAL 2
OPTKBR

0.200000
8
8.000000
FILLER
RATIO
SPECTRUM
UNLOCKED 256

DOUBLE
64
COMBINED
1
0
0


1.000000
RATIO


1
0
TRUE
51149
0
LEFT NOT FITTED RIGHT NOT FITTED 0
NONE
NONE
15600
12.000000
4.427000
51148
TRUE
1 0 8 72 0 0 0 0 

15798.010000






#HDR
-1
-1
#GR
CM-1
%T
0.00002384185791015625
0.0
7800.000000
-1.000000
7431
8
79.564881
22.636389
#DATA
7800.000000	78.243732 
7799.000000	78.581166 
7798.000000	78.032827 
7797.000000	76.715564 
7796.000000	74.849843 
7795.000000	72.719502 
7794.000000	70.610737 
7793.000000	68.764328 
7792.000000	67.336773 
7791.000000	66.392302 
7790.000000	65.930938 
7789.000000	65.911388 
7788.000000	66.273236 
7787.000000	66.954779 
7786.000000	67.892909 
7785.000000	69.022917 
7784.000000	70.252752 
7783.000000	71.473813 
7782.000000	72.550368 
7781.000000	73.354768 
7780.000000	73.775744 
7779.000000	73.760771 
7778.000000	73.346209 
7777.000000	72.635412 
7776.000000	71.792578 
7775.000000	70.979714 
7774.000000	70.333790 
7773.000000	69.907426 
7772.000000	69.671654 
7771.000000	69.510364 
7770.000000	69.263291 
7769.000000	68.777370 
7768.000000	67.961597 
7767.000000	66.821813 
7766.000000	65.469932 
7765.000000	64.099526 
7764.000000	62.939977 
7763.000000	62.205004 
7762.000000	62.039828 
7761.000000	62.483596 
7760.000000	63.461208 
7759.000000	64.810967 
7758.000000	66.318511 
7757.000000	67.761516 
7756.000000	68.959116 
7755.000000	69.786572 
7754.000000	70.209646 
7753.000000	70.276284 
7752.000000	70.098114 
7751.000000	69.807386 
7750.000000	69.526624 
7749.000000	69.344973 
7748.000000	69.296193 
7747.000000	69.363188 
7746.000000	69.497346 
7745.000000	69.653558 
7744.000000	69.803261 
7743.000000	69.952225 
7742.000000	70.134115 
7741.000000	70.397806 
7740.000000	70.787358 
7739.000000	71.321296 
7738.000000	71.989417 
7737.000000	72.748017 
7736.000000	73.539280 
7735.000000	74.297809 
7734.000000	74.960875 
7733.000000	75.471401 
7732.000000	75.798940 
7731.000000	75.925111 
7730.000000	75.835490 
7729.000000	75.514984 
7728.000000	74.961972 
7727.000000	74.180483 
7726.000000	73.198175 
7725.000000	72.053337 
7724.000000	70.816588 
7723.000000	69.555401 
7722.000000	68.335962 
7721.000000	67.196273 
7720.000000	66.146945 
7719.000000	65.168070 
7718.000000	64.221215 
7717.000000	63.266515 
7716.000000	62.277674 
7715.000000	61.257672 
7714.000000	60.240983 
7713.000000	59.290575 
7712.000000	58.482527 
7711.000000	57.909560 
7710.000000	57.663631 
7709.000000	57.817649 
7708.000000	58.413505 
7707.000000	59.452414 
7706.000000	60.896873 
7705.000000	62.656116 
7704.000000	64.613890 
7703.000000	66.642689 
7702.000000	68.631458 
7701.000000	70.488548 
7700.000000	72.160434 
7699.000000	73.628807 
7698.000000	74.902081 
7697.000000	76.010799 
7696.000000	76.978445 
7695.000000	77.821850 
7694.000000	78.527235 
7693.000000	79.080462 
7692.000000	79.439735 
7691.000000	79.564881 
7690.000000	79.419779 
7689.000000	79.004144 
7688.000000	78.342723 
7687.000000	77.492880 
7686.000000	76.536893 
7685.000000	75.572061 
7684.000000	74.686861 
7683.000000	73.944735 
7682.000000	73.374795 
7681.000000	72.966599 
7680.000000	72.672963 
7679.000000	72.424435 
7678.000000	72.143387 
7677.000000	71.768999 
7676.000000	71.269822 
7675.000000	70.658087 
7674.000000	69.973683 
7673.000000	69.286489 
7672.000000	68.674850 
7671.000000	68.212366 
7670.000000	67.937588 
7669.000000	67.860770 
7668.000000	67.967605 
7667.000000	68.218922 
7666.000000	68.558311 
7665.000000	68.925142 
7664.000000	69.265723 
7663.000000	69.537568 
7662.000000	69.706988 
7661.000000	69.764184 
7660.000000	69.719696 
7659.000000	69.602227 
7658.000000	69.449830 
7657.000000	69.299983 
7656.000000	69.180798 
7655.000000	69.107031 
7654.000000	69.079971 
7653.000000	69.086790 
7652.000000	69.111037 
7651.000000	69.143557 
7650.000000	69.189071 
7649.000000	69.265365 
7648.000000	69.399785 
7647.000000	69.618940 
7646.000000	69.938611 
7645.000000	70.354080 
7644.000000	70.835900 
7643.000000	71.338772 
7642.000000	71.800613 
7641.000000	72.157406 
7640.000000	72.351431 
7639.000000	72.353458 
7638.000000	72.153401 
7637.000000	71.765255 
7636.000000	71.216940 
7635.000000	70.546913 
7634.000000	69.795966 
7633.000000	69.004893 
7632.000000	68.215918 
7631.000000	67.473077 
7630.000000	66.827678 
7629.000000	66.332721 
7628.000000	66.037654 
7627.000000	65.972900 
7626.000000	66.130757 
7625.000000	66.461873 
7624.000000	66.870045 
7623.000000	67.239618 
7622.000000	67.454957 
7621.000000	67.440867 
7620.000000	67.175269 
7619.000000	66.709041 
7618.000000	66.149878 
7617.000000	65.643072 
7616.000000	65.328598 
7615.000000	65.311479 
7614.000000	65.637850 
7613.000000	66.277790 
7612.000000	67.136597 
7611.000000	68.072223 
7610.000000	68.932914 
7609.000000	69.588041 
7608.000000	69.956111 
7607.000000	70.021486 
7606.000000	69.829392 
7605.000000	69.478464 
7604.000000	69.091916 
7603.000000	68.788456 
7602.000000	68.652296 
7601.000000	68.724966 
7600.000000	68.995642 
7599.000000	69.409346 
7598.000000	69.880700 
7597.000000	70.315980 
7596.000000	70.634269 
7595.000000	70.786786 
7594.000000	70.763039 
7593.000000	70.584917 
7592.000000	70.297598 
7591.000000	69.958424 
7590.000000	69.615459 
7589.000000	69.296479 
7588.000000	69.003605 
7587.000000	68.719768 
7586.000000	68.419742 
7585.000000	68.084502 
7584.000000	67.716360 
7583.000000	67.340373 
7582.000000	67.011404 
7581.000000	66.797327 
7580.000000	66.771984 
7579.000000	66.992378 
7578.000000	67.480468 
7577.000000	68.208742 
7576.000000	69.100046 
7575.000000	70.036149 
7574.000000	70.875644 
7573.000000	71.478629 
7572.000000	71.735310 
7571.000000	71.582937 
7570.000000	71.022963 
7569.000000	70.110964 
7568.000000	68.940353 
7567.000000	67.622184 
7566.000000	66.264414 
7565.000000	64.960122 
7564.000000	63.783836 
7563.000000	62.789869 
7562.000000	62.019515 
7561.000000	61.500978 
7560.000000	61.246919 
7559.000000	61.258888 
7558.000000	61.515069 
7557.000000	61.981558 
7556.000000	62.602972 
7555.000000	63.315868 
7554.000000	64.047789 
7553.000000	64.728689 
7552.000000	65.294051 
7551.000000	65.694952 
7550.000000	65.901589 
7549.000000	65.908789 
7548.000000	65.735793 
7547.000000	65.425848 
7546.000000	65.038394 
7545.000000	64.644742 
7544.000000	64.312958 
7543.000000	64.098000 
7542.000000	64.029431 
7541.000000	64.111590 
7540.000000	64.321279 
7539.000000	64.612412 
7538.000000	64.931011 
7537.000000	65.225100 
7536.000000	65.460491 
7535.000000	65.628409 
7534.000000	65.741658 
7533.000000	65.820455 
7532.000000	65.889191 
7531.000000	65.967988 
7530.000000	66.063547 
7529.000000	66.165852 
7528.000000	66.255950 
7527.000000	66.315579 
7526.000000	66.332411 
7525.000000	66.307592 
7524.000000	66.251802 
7523.000000	66.182208 
7522.000000	66.116023 
7521.000000	66.063642 
7520.000000	66.020250 
7519.000000	65.964913 
7518.000000	65.868663 
7517.000000	65.699934 
7516.000000	65.435910 
7515.000000	65.067982 
7514.000000	64.603328 
7513.000000	64.068651 
7512.000000	63.500356 
7511.000000	62.948894 
7510.000000	62.463331 
7509.000000	62.095713 
7508.000000	61.890101 
7507.000000	61.880898 
7506.000000	62.082695 
7505.000000	62.489748 
7504.000000	63.071227 
7503.000000	63.776063 
7502.000000	64.538431 
7501.000000	65.283370 
7500.000000	65.935611 
7499.000000	66.429209 
7498.000000	66.716051 
7497.000000	66.772532 
7496.000000	66.602110 
7495.000000	66.238451 
7494.000000	65.738391 
7493.000000	65.174794 
7492.000000	64.621686 
7491.000000	64.140415 
7490.000000	63.769483 
7489.000000	63.520312 
7488.000000	63.382458 
7487.000000	63.328528 
7486.000000	63.333368 
7485.000000	63.378024 
7484.000000	63.466572 
7483.000000	63.620829 
7482.000000	63.876581 
7481.000000	64.267945 
7480.000000	64.809989 
7479.000000	65.482711 
7478.000000	66.228938 
7477.000000	66.962575 
7476.000000	67.582869 
7475.000000	67.999267 
7474.000000	68.149685 
7473.000000	68.019747 
7472.000000	67.638516 
7471.000000	67.073512 
7470.000000	66.410636 
7469.000000	65.735721 
7468.000000	65.122961 
7467.000000	64.623713 
7466.000000	64.265775 
7465.000000	64.053320 
7464.000000	63.972735 
7463.000000	63.997817 
7462.000000	64.095830 
7461.000000	64.233827 
7460.000000	64.373850 
7459.000000	64.486336 
7458.000000	64.544105 
7457.000000	64.538073 
7456.000000	64.473176 
7455.000000	64.374566 
7454.000000	64.277791 
7453.000000	64.225292 
7452.000000	64.257168 
7451.000000	64.399147 
7450.000000	64.653992 
7449.000000	65.001583 
7448.000000	65.403842 
7447.000000	65.811967 
7446.000000	66.178154 
7445.000000	66.463994 
7444.000000	66.648364 
7443.000000	66.726541 
7442.000000	66.709041 
7441.000000	66.616797 
7440.000000	66.476488 
7439.000000	66.317844 
7438.000000	66.169905 
7437.000000	66.061234 
7436.000000	66.014313 
7435.000000	66.050124 
7434.000000	66.176009 
7433.000000	66.384983 
7432.000000	66.647696 
7431.000000	66.915941 
7430.000000	67.128539 
7429.000000	67.222690 
7428.000000	67.150592 
7427.000000	66.889357 
7426.000000	66.453051 
7425.000000	65.891313 
7424.000000	65.282464 
7423.000000	64.716076 
7422.000000	64.275670 
7421.000000	64.021587 
7420.000000	63.977909 
7419.000000	64.128756 
7418.000000	64.426136 
7417.000000	64.804363 
7416.000000	65.192341 
7415.000000	65.528440 
7414.000000	65.770173 
7413.000000	65.898346 
7412.000000	65.912508 
7411.000000	65.825796 
7410.000000	65.656590 
7409.000000	65.423583 
7408.000000	65.145874 
7407.000000	64.840388 
7406.000000	64.525246 
7405.000000	64.218187 
7404.000000	63.941907 
7403.000000	63.717746 
7402.000000	63.561916 
7401.000000	63.482379 
7400.000000	63.477563 
7399.000000	63.534808 
7398.000000	63.631510 
7397.000000	63.738417 
7396.000000	63.826584 
7395.000000	63.868021 
7394.000000	63.839387 
7393.000000	63.725209 
7392.000000	63.519787 
7391.000000	63.228964 
7390.000000	62.868452 
7389.000000	62.468647 
7388.000000	62.070536 
7387.000000	61.725378 
7386.000000	61.485838 
7385.000000	61.396288 
7384.000000	61.482191 
7383.000000	61.740970 
7382.000000	62.142658 
7381.000000	62.627553 
7380.000000	63.126349 
7379.000000	63.574361 
7378.000000	63.931989 
7377.000000	64.189529 
7376.000000	64.371538 
7375.000000	64.525008 
7374.000000	64.704895 
7373.000000	64.953780 
7372.000000	65.289759 
7371.000000	65.703082 
7370.000000	66.154980 
7369.000000	66.593861 
7368.000000	66.963076 
7367.000000	67.221665 
7366.000000	67.347216 
7365.000000	67.343688 
7364.000000	67.233514 
7363.000000	67.050600 
7362.000000	66.830921 
7361.000000	66.604590 
7360.000000	66.393613 
7359.000000	66.209244 
7358.000000	66.059589 
7357.000000	65.948009 
7356.000000	65.870046 
7355.000000	65.812659 
7354.000000	65.755844 
7353.000000	65.674281 
7352.000000	65.543055 
7351.000000	65.340995 
7350.000000	65.055942 
7349.000000	64.686036 
7348.000000	64.242959 
7347.000000	63.747334 
7346.000000	63.221597 
7345.000000	62.690615 
7344.000000	62.178635 
7343.000000	61.707997 
7342.000000	61.296820 
7341.000000	60.959649 
7340.000000	60.705757 
7339.000000	60.539174 
7338.000000	60.454916 
7337.000000	60.444903 
7336.000000	60.497498 
7335.000000	60.601091 
7334.000000	60.743665 
7333.000000	60.924744 
7332.000000	61.152505 
7331.000000	61.442947 
7330.000000	61.809778 
7329.000000	62.254023 
7328.000000	62.754917 
7327.000000	63.270092 
7326.000000	63.738465 
7325.000000	64.089822 
7324.000000	64.261364 
7323.000000	64.218831 
7322.000000	63.963484 
7321.000000	63.532471 
7320.000000	62.994575 
7319.000000	62.438631 
7318.000000	61.953759 
7317.000000	61.611461 
7316.000000	61.451792 
7315.000000	61.484718 
7314.000000	61.680912 
7313.000000	61.983346 
7312.000000	62.317490 
7311.000000	62.611556 
7310.000000	62.802314 
7309.000000	62.845444 
7308.000000	62.721920 
7307.000000	62.438201 
7306.000000	62.026476 
7305.000000	61.538314 
7304.000000	61.038303 
7303.000000	60.594367 
7302.000000	60.270833 
7301.000000	60.119152 
7300.000000	60.167407 
7299.000000	60.419011 
7298.000000	60.855126 
7297.000000	61.438918 
7296.000000	62.115168 
7295.000000	62.825417 
7294.000000	63.511633 
7293.000000	64.130735 
7292.000000	64.652395 
7291.000000	65.069341 
7290.000000	65.391039 
7289.000000	65.642786 
7288.000000	65.859103 
7287.000000	66.071605 
7286.000000	66.303753 
7285.000000	66.561865 
7284.000000	66.839671 
7283.000000	67.113971 
7282.000000	67.354631 
7281.000000	67.530846 
7280.000000	67.621040 
7279.000000	67.618680 
7278.000000	67.532920 
7277.000000	67.384028 
7276.000000	67.194318 
7275.000000	66.977334 
7274.000000	66.733098 
7273.000000	66.447687 
7272.000000	66.102504 
7271.000000	65.682816 
7270.000000	65.192937 
7269.000000	64.662528 
7268.000000	64.147305 
7267.000000	63.721513 
7266.000000	63.457846 
7265.000000	63.405871 
7264.000000	63.577795 
7263.000000	63.939929 
7262.000000	64.419341 
7261.000000	64.915084 
7260.000000	65.327930 
7259.000000	65.582394 
7258.000000	65.645337 
7257.000000	65.531754 
7256.000000	65.293288 
7255.000000	64.999771 
7254.000000	64.717197 
7253.000000	64.488792 
7252.000000	64.329814 
7251.000000	64.228534 
7250.000000	64.160394 
7249.000000	64.100193 
7248.000000	64.036560 
7247.000000	63.975000 
7246.000000	63.934087 
7245.000000	63.936495 
7244.000000	63.994550 
7243.000000	64.104819 
7242.000000	64.240503 
7241.000000	64.363622 
7240.000000	64.430022 
7239.000000	64.412760 
7238.000000	64.309859 
7237.000000	64.154291 
7236.000000	64.004850 
7235.000000	63.936996 
7234.000000	64.021086 
7233.000000	64.304161 
7232.000000	64.793181 
7231.000000	65.452694 
7230.000000	66.210985 
7229.000000	66.976428 
7228.000000	67.659449 
7227.000000	68.188452 
7226.000000	68.523740 
7225.000000	68.659973 
7224.000000	68.621540 
7223.000000	68.450307 
7222.000000	68.191766 
7221.000000	67.885088 
7220.000000	67.555212 
7219.000000	67.217421 
7218.000000	66.877818 
7217.000000	66.544032 
7216.000000	66.227388 
7215.000000	65.947151 
7214.000000	65.728235 
7213.000000	65.593457 
7212.000000	65.561366 
7211.000000	65.635323 
7210.000000	65.807342 
7209.000000	66.054177 
7208.000000	66.346263 
7207.000000	66.650533 
7206.000000	66.938495 
7205.000000	67.190194 
7204.000000	67.394113 
7203.000000	67.545342 
7202.000000	67.643570 
7201.000000	67.690467 
7200.000000	67.685365 
7199.000000	67.624568 
7198.000000	67.503571 
7197.000000	67.319536 
7196.000000	67.072582 
7195.000000	66.768598 
7194.000000	66.421341 
7193.000000	66.053032 
7192.000000	65.689539 
7191.000000	65.360403 
7190.000000	65.093374 
7189.000000	64.913916 
7188.000000	64.838814 
7187.000000	64.877367 
7186.000000	65.027141 
7185.000000	65.276837 
7184.000000	65.606307 
7183.000000	65.988731 
7182.000000	66.391491 
7181.000000	66.779470 
7180.000000	67.119765 
7179.000000	67.381072 
7178.000000	67.536592 
7177.000000	67.567396 
7176.000000	67.465972 
7175.000000	67.239475 
7174.000000	66.910791 
7173.000000	66.517972 
7172.000000	66.109490 
7171.000000	65.738606 
7170.000000	65.453386 
7169.000000	65.286469 
7168.000000	65.246534 
7167.000000	65.316176 
7166.000000	65.454316 
7165.000000	65.601062 
7164.000000	65.694355 
7163.000000	65.682864 
7162.000000	65.543127 
7161.000000	65.281152 
7160.000000	64.937973 
7159.000000	64.573192 
7158.000000	64.259028 
7157.000000	64.058613 
7156.000000	64.017844 
7155.000000	64.154338 
7154.000000	64.456605 
7153.000000	64.888858 
7152.000000	65.398573 
7151.000000	65.929007 
7150.000000	66.427588 
7149.000000	66.853404 
7148.000000	67.181372 
7147.000000	67.401361 
7146.000000	67.513942 
7145.000000	67.524695 
7144.000000	67.436408 
7143.000000	67.245864 
7142.000000	66.945528 
7141.000000	66.527581 
7140.000000	65.989184 
7139.000000	65.340018 
7138.000000	64.608311 
7137.000000	63.842368 
7136.000000	63.103389 
7135.000000	62.459492 
7134.000000	61.972832 
7133.000000	61.689949 
7132.000000	61.628293 
7131.000000	61.776781 
7130.000000	62.093925 
7129.000000	62.520551 
7128.000000	62.986564 
7127.000000	63.429236 
7126.000000	63.796854 
7125.000000	64.064145 
7124.000000	64.229345 
7123.000000	64.312458 
7122.000000	64.342212 
7121.000000	64.350938 
7120.000000	64.365315 
7119.000000	64.397740 
7118.000000	64.444923 
7117.000000	64.490580 
7116.000000	64.512395 
7115.000000	64.487409 
7114.000000	64.401435 
7113.000000	64.250540 
7112.000000	64.048147 
7111.000000	63.821506 
7110.000000	63.613057 
7109.000000	63.470506 
7108.000000	63.440799 
7107.000000	63.564205 
7106.000000	63.859844 
7105.000000	64.321017 
7104.000000	64.906883 
7103.000000	65.555500 
7102.000000	66.180801 
7101.000000	66.688966 
7100.000000	66.992664 
7099.000000	67.030048 
7098.000000	66.775918 
7097.000000	66.249394 
7096.000000	65.508961 
7095.000000	64.642453 
7094.000000	63.749623 
7093.000000	62.925934 
7092.000000	62.244224 
7091.000000	61.745929 
7090.000000	61.442661 
7089.000000	61.321973 
7088.000000	61.354804 
7087.000000	61.506056 
7086.000000	61.738586 
7085.000000	62.021446 
7084.000000	62.322783 
7083.000000	62.618899 
7082.000000	62.888121 
7081.000000	63.119244 
7080.000000	63.306760 
7079.000000	63.455748 
7078.000000	63.579225 
7077.000000	63.694596 
7076.000000	63.823366 
7075.000000	63.979363 
7074.000000	64.167165 
7073.000000	64.375996 
7072.000000	64.585161 
7071.000000	64.764666 
7070.000000	64.886808 
7069.000000	64.927649 
7068.000000	64.876556 
7067.000000	64.732670 
7066.000000	64.505624 
7065.000000	64.212560 
7064.000000	63.875889 
7063.000000	63.519263 
7062.000000	63.165402 
7061.000000	62.839961 
7060.000000	62.568235 
7059.000000	62.369704 
7058.000000	62.255811 
7057.000000	62.225937 
7056.000000	62.269878 
7055.000000	62.367177 
7054.000000	62.496471 
7053.000000	62.632870 
7052.000000	62.762117 
7051.000000	62.882447 
7050.000000	63.006234 
7049.000000	63.152909 
7048.000000	63.342046 
7047.000000	63.583970 
7046.000000	63.873815 
7045.000000	64.187955 
7044.000000	64.491438 
7043.000000	64.747858 
7042.000000	64.927387 
7041.000000	65.016126 
7040.000000	65.018296 
7039.000000	64.956116 
7038.000000	64.861035 
7037.000000	64.765357 
7036.000000	64.697623 
7035.000000	64.675688 
7034.000000	64.707541 
7033.000000	64.788866 
7032.000000	64.902663 
7031.000000	65.021824 
7030.000000	65.117645 
7029.000000	65.163731 
7028.000000	65.135979 
7027.000000	65.022063 
7026.000000	64.822840 
7025.000000	64.557099 
7024.000000	64.259862 
7023.000000	63.974928 
7022.000000	63.748693 
7021.000000	63.614726 
7020.000000	63.590216 
7019.000000	63.663530 
7018.000000	63.797998 
7017.000000	63.937163 
7016.000000	64.020109 
7015.000000	63.993620 
7014.000000	63.826608 
7013.000000	63.514423 
7012.000000	63.079142 
7011.000000	62.565803 
7010.000000	62.032079 
7009.000000	61.541438 
7008.000000	61.153221 
7007.000000	60.916972 
7006.000000	60.867071 
7005.000000	61.023592 
7004.000000	61.388063 
7003.000000	61.943554 
7002.000000	62.651610 
7001.000000	63.452386 
7000.000000	64.269018 
6999.000000	65.014481 
6998.000000	65.605545 
6997.000000	65.974497 
6996.000000	66.082954 
6995.000000	65.931820 
6994.000000	65.558624 
6993.000000	65.029478 
6992.000000	64.428853 
6991.000000	63.845109 
6990.000000	63.357973 
6989.000000	63.028860 
6988.000000	62.894487 
6987.000000	62.967586 
6986.000000	63.236165 
6985.000000	63.670468 
6984.000000	64.221572 
6983.000000	64.828205 
6982.000000	65.421676 
6981.000000	65.934967 
6980.000000	66.308140 
6979.000000	66.499447 
6978.000000	66.493129 
6977.000000	66.304349 
6976.000000	65.980052 
6975.000000	65.589618 
6974.000000	65.211749 
6973.000000	64.918589 
6972.000000	64.763259 
6971.000000	64.770102 
6970.000000	64.938473 
6969.000000	65.240120 
6968.000000	65.631437 
6967.000000	66.057729 
6966.000000	66.468596 
6965.000000	66.817927 
6964.000000	67.068505 
6963.000000	67.193818 
6962.000000	67.178559 
6961.000000	67.019033 
6960.000000	66.724920 
6959.000000	66.313147 
6958.000000	65.806889 
6957.000000	65.235757 
6956.000000	64.635920 
6955.000000	64.042425 
6954.000000	63.488554 
6953.000000	63.002371 
6952.000000	62.606883 
6951.000000	62.319374 
6950.000000	62.152218 
6949.000000	62.109088 
6948.000000	62.186264 
6947.000000	62.371420 
6946.000000	62.643551 
6945.000000	62.968325 
6944.000000	63.304448 
6943.000000	63.605737 
6942.000000	63.830494 
6941.000000	63.945555 
6940.000000	63.935279 
6939.000000	63.800978 
6938.000000	63.565897 
6937.000000	63.268470 
6936.000000	62.960481 
6935.000000	62.697196 
6934.000000	62.529373 
6933.000000	62.493872 
6932.000000	62.609624 
6931.000000	62.875223 
6930.000000	63.270616 
6929.000000	63.761329 
6928.000000	64.306950 
6927.000000	64.867019 
6926.000000	65.407133 
6925.000000	65.899538 
6924.000000	66.321516 
6923.000000	66.652441 
6922.000000	66.875457 
6921.000000	66.974973 
6920.000000	66.939854 
6919.000000	66.765046 
6918.000000	66.461420 
6917.000000	66.052937 
6916.000000	65.579533 
6915.000000	65.089631 
6914.000000	64.637351 
6913.000000	64.270210 
6912.000000	64.022827 
6911.000000	63.910055 
6910.000000	63.925671 
6909.000000	64.044952 
6908.000000	64.231705 
6907.000000	64.443850 
6906.000000	64.641284 
6905.000000	64.790368 
6904.000000	64.867210 
6903.000000	64.858651 
6902.000000	64.761209 
6901.000000	64.581513 
6900.000000	64.333677 
6899.000000	64.039349 
6898.000000	63.724040 
6897.000000	63.415288 
6896.000000	63.138675 
6895.000000	62.912750 
6894.000000	62.749075 
6893.000000	62.651252 
6892.000000	62.618947 
6891.000000	62.644624 
6890.000000	62.722682 
6889.000000	62.848329 
6888.000000	63.021707 
6887.000000	63.244247 
6886.000000	63.515925 
6885.000000	63.829302 
6884.000000	64.167380 
6883.000000	64.504384 
6882.000000	64.806151 
6881.000000	65.034937 
6880.000000	65.159082 
6879.000000	65.161490 
6878.000000	65.044164 
6877.000000	64.829730 
6876.000000	64.558649 
6875.000000	64.280986 
6874.000000	64.050340 
6873.000000	63.912725 
6872.000000	63.896656 
6871.000000	64.007067 
6870.000000	64.225864 
6869.000000	64.515280 
6868.000000	64.825272 
6867.000000	65.104961 
6866.000000	65.311098 
6865.000000	65.418910 
6864.000000	65.423369 
6863.000000	65.341567 
6862.000000	65.204119 
6861.000000	65.050220 
6860.000000	64.917945 
6859.000000	64.836812 
6858.000000	64.823150 
6857.000000	64.877605 
6856.000000	64.990186 
6855.000000	65.140485 
6854.000000	65.306639 
6853.000000	65.465164 
6852.000000	65.597224 
6851.000000	65.684866 
6850.000000	65.712618 
6849.000000	65.665221 
6848.000000	65.529274 
6847.000000	65.296125 
6846.000000	64.965248 
6845.000000	64.548230 
6844.000000	64.069557 
6843.000000	63.562655 
6842.000000	63.066864 
6841.000000	62.621545 
6840.000000	62.261486 
6839.000000	62.010025 
6838.000000	61.878871 
6837.000000	61.863255 
6836.000000	61.949372 
6835.000000	62.115740 
6834.000000	62.341260 
6833.000000	62.600898 
6832.000000	62.877202 
6831.000000	63.156342 
6830.000000	63.433098 
6829.000000	63.704872 
6828.000000	63.972282 
6827.000000	64.234519 
6826.000000	64.487600 
6825.000000	64.724516 
6824.000000	64.932250 
6823.000000	65.095210 
6822.000000	65.197110 
6821.000000	65.226602 
6820.000000	65.183401 
6819.000000	65.081119 
6818.000000	64.947652 
6817.000000	64.819717 
6816.000000	64.736938 
6815.000000	64.729833 
6814.000000	64.815115 
6813.000000	64.985871 
6812.000000	65.211081 
6811.000000	65.440177 
6810.000000	65.616869 
6809.000000	65.690803 
6808.000000	65.627741 
6807.000000	65.421271 
6806.000000	65.093588 
6805.000000	64.693379 
6804.000000	64.283037 
6803.000000	63.927054 
6802.000000	63.677167 
6801.000000	63.562965 
6800.000000	63.589382 
6799.000000	63.734173 
6798.000000	63.956975 
6797.000000	64.205193 
6796.000000	64.427137 
6795.000000	64.576411 
6794.000000	64.619684 
6793.000000	64.541792 
6792.000000	64.347219 
6791.000000	64.057040 
6790.000000	63.705706 
6789.000000	63.336324 
6788.000000	62.994551 
6787.000000	62.723970 
6786.000000	62.558555 
6785.000000	62.518668 
6784.000000	62.606978 
6783.000000	62.809157 
6782.000000	63.096380 
6781.000000	63.428449 
6780.000000	63.763856 
6779.000000	64.062070 
6778.000000	64.296221 
6777.000000	64.454960 
6776.000000	64.544463 
6775.000000	64.583492 
6774.000000	64.595985 
6773.000000	64.604425 
6772.000000	64.620375 
6771.000000	64.643955 
6770.000000	64.660334 
6769.000000	64.646816 
6768.000000	64.579844 
6767.000000	64.445233 
6766.000000	64.243078 
6765.000000	63.991570 
6764.000000	63.723897 
6763.000000	63.482856 
6762.000000	63.313031 
6761.000000	63.250541 
6760.000000	63.315010 
6759.000000	63.503551 
6758.000000	63.791203 
6757.000000	64.134168 
6756.000000	64.479851 
6755.000000	64.775538 
6754.000000	64.979052 
6753.000000	65.064597 
6752.000000	65.026998 
6751.000000	64.877939 
6750.000000	64.641427 
6749.000000	64.346480 
6748.000000	64.021253 
6747.000000	63.688802 
6746.000000	63.366746 
6745.000000	63.068079 
6744.000000	62.804913 
6743.000000	62.589406 
6742.000000	62.434959 
6741.000000	62.354135 
6740.000000	62.355685 
6739.000000	62.440013 
6738.000000	62.596368 
6737.000000	62.801599 
6736.000000	63.023042 
6735.000000	63.222742 
6734.000000	63.365030 
6733.000000	63.424134 
6732.000000	63.389444 
6731.000000	63.265275 
6730.000000	63.071370 
6729.000000	62.837338 
6728.000000	62.598276 
6727.000000	62.387609 
6726.000000	62.232589 
6725.000000	62.149953 
6724.000000	62.146091 
6723.000000	62.218832 
6722.000000	62.359237 
6721.000000	62.553501 
6720.000000	62.786746 
6719.000000	63.043761 
6718.000000	63.310599 
6717.000000	63.573837 
6716.000000	63.819432 
6715.000000	64.031553 
6714.000000	64.196276 
6713.000000	64.303517 
6712.000000	64.349818 
6711.000000	64.340090 
6710.000000	64.289855 
6709.000000	64.222574 
6708.000000	64.167189 
6707.000000	64.150357 
6706.000000	64.191627 
6705.000000	64.296460 
6704.000000	64.455914 
6703.000000	64.646553 
6702.000000	64.835834 
6701.000000	64.989566 
6700.000000	65.081119 
6699.000000	65.096664 
6698.000000	65.038776 
6697.000000	64.924192 
6696.000000	64.778208 
6695.000000	64.629101 
6694.000000	64.500045 
6693.000000	64.406943 
6692.000000	64.356923 
6691.000000	64.349079 
6690.000000	64.377641 
6689.000000	64.434885 
6688.000000	64.514756 
6687.000000	64.610838 
6686.000000	64.716315 
6685.000000	64.821720 
6684.000000	64.914464 
6683.000000	64.979028 
6682.000000	64.999699 
6681.000000	64.964771 
6680.000000	64.869880 
6679.000000	64.721274 
6678.000000	64.535045 
6677.000000	64.334678 
6676.000000	64.145755 
6675.000000	63.991308 
6674.000000	63.886284 
6673.000000	63.835668 
6672.000000	63.832736 
6671.000000	63.864564 
6670.000000	63.911271 
6669.000000	63.951134 
6668.000000	63.963866 
6667.000000	63.933944 
6666.000000	63.854146 
6665.000000	63.724613 
6664.000000	63.555693 
6663.000000	63.363265 
6662.000000	63.171339 
6661.000000	63.007044 
6660.000000	62.897682 
6659.000000	62.864995 
6658.000000	62.922167 
6657.000000	63.070392 
6656.000000	63.297271 
6655.000000	63.578534 
6654.000000	63.881182 
6653.000000	64.169716 
6652.000000	64.411282 
6651.000000	64.583325 
6650.000000	64.674162 
6649.000000	64.689064 
6648.000000	64.646148 
6647.000000	64.576959 
6646.000000	64.519000 
6645.000000	64.509844 
6644.000000	64.583802 
6643.000000	64.758515 
6642.000000	65.035152 
6641.000000	65.389490 
6640.000000	65.781092 
6639.000000	66.152405 
6638.000000	66.443014 
6637.000000	66.597819 
6636.000000	66.579008 
6635.000000	66.376638 
6634.000000	66.012024 
6633.000000	65.535092 
6632.000000	65.014290 
6631.000000	64.524483 
6630.000000	64.132070 
6629.000000	63.883113 
6628.000000	63.796067 
6627.000000	63.861513 
6626.000000	64.047598 
6625.000000	64.308738 
6624.000000	64.598321 
6623.000000	64.877176 
6622.000000	65.122580 
6621.000000	65.323352 
6620.000000	65.483641 
6619.000000	65.614891 
6618.000000	65.731382 
6617.000000	65.844106 
6616.000000	65.954995 
6615.000000	66.059851 
6614.000000	66.142988 
6613.000000	66.188406 
6612.000000	66.174840 
6611.000000	66.085362 
6610.000000	65.907073 
6609.000000	65.637254 
6608.000000	65.284132 
6607.000000	64.867663 
6606.000000	64.419198 
6605.000000	63.977432 
6604.000000	63.584160 
6603.000000	63.277316 
6602.000000	63.084793 
6601.000000	63.019275 
6600.000000	63.073587 
6599.000000	63.223052 
6598.000000	63.428711 
6597.000000	63.647341 
6596.000000	63.837981 
6595.000000	63.972878 
6594.000000	64.038491 
6593.000000	64.039850 
6592.000000	63.995337 
6591.000000	63.931441 
6590.000000	63.872313 
6589.000000	63.836026 
6588.000000	63.831162 
6587.000000	63.856220 
6586.000000	63.902974 
6585.000000	63.960766 
6584.000000	64.022088 
6583.000000	64.084982 
6582.000000	64.153432 
6581.000000	64.236354 
6580.000000	64.343404 
6579.000000	64.480209 
6578.000000	64.644622 
6577.000000	64.824724 
6576.000000	64.999771 
6575.000000	65.145254 
6574.000000	65.238094 
6573.000000	65.260529 
6572.000000	65.204644 
6571.000000	65.076017 
6570.000000	64.892101 
6569.000000	64.678812 
6568.000000	64.464759 
6567.000000	64.276647 
6566.000000	64.132905 
6565.000000	64.042973 
6564.000000	64.004397 
6563.000000	64.005684 
6562.000000	64.029431 
6561.000000	64.058327 
6560.000000	64.077544 
6559.000000	64.077162 
6558.000000	64.052629 
6557.000000	64.003300 
6556.000000	63.931179 
6555.000000	63.838791 
6554.000000	63.728356 
6553.000000	63.601088 
6552.000000	63.459897 
6551.000000	63.310384 
6550.000000	63.161134 
6549.000000	63.023042 
6548.000000	62.908411 
6547.000000	62.828373 
6546.000000	62.789273 
6545.000000	62.791347 
6544.000000	62.827301 
6543.000000	62.884831 
6542.000000	62.949085 
6541.000000	63.006424 
6540.000000	63.047909 
6539.000000	63.069748 
6538.000000	63.072443 
6537.000000	63.059449 
6536.000000	63.034367 
6535.000000	62.999916 
6534.000000	62.955331 
6533.000000	62.899947 
6532.000000	62.833094 
6531.000000	62.759709 
6530.000000	62.690043 
6529.000000	62.641501 
6528.000000	62.634062 
6527.000000	62.689185 
6526.000000	62.824034 
6525.000000	63.046169 
6524.000000	63.349914 
6523.000000	63.714838 
6522.000000	64.108133 
6521.000000	64.491057 
6520.000000	64.826273 
6519.000000	65.085268 
6518.000000	65.253329 
6517.000000	65.332984 
6516.000000	65.340399 
6515.000000	65.300536 
6514.000000	65.239262 
6513.000000	65.178751 
6512.000000	65.130877 
6511.000000	65.099883 
6510.000000	65.079760 
6509.000000	65.063357 
6508.000000	65.040230 
6507.000000	65.004563 
6506.000000	64.951562 
6505.000000	64.879679 
6504.000000	64.787459 
6503.000000	64.672279 
6502.000000	64.532041 
6501.000000	64.365315 
6500.000000	64.175987 
6499.000000	63.973569 
6498.000000	63.776230 
6497.000000	63.608074 
6496.000000	63.494110 
6495.000000	63.454198 
6494.000000	63.496422 
6493.000000	63.613653 
6492.000000	63.784337 
6491.000000	63.976979 
6490.000000	64.154744 
6489.000000	64.284920 
6488.000000	64.347624 
6487.000000	64.338922 
6486.000000	64.269661 
6485.000000	64.161396 
6484.000000	64.039373 
6483.000000	63.925909 
6482.000000	63.834691 
6481.000000	63.769650 
6480.000000	63.725829 
6479.000000	63.694953 
6478.000000	63.670897 
6477.000000	63.653779 
6476.000000	63.650298 
6475.000000	63.674473 
6474.000000	63.741827 
6473.000000	63.866710 
6472.000000	64.055609 
6471.000000	64.304947 
6470.000000	64.599347 
6469.000000	64.912915 
6468.000000	65.213179 
6467.000000	65.466189 
6466.000000	65.642809 
6465.000000	65.723586 
6464.000000	65.702533 
6463.000000	65.588283 
6462.000000	65.401864 
6461.000000	65.173411 
6460.000000	64.935588 
6459.000000	64.719152 
6458.000000	64.546751 
6457.000000	64.431810 
6456.000000	64.376759 
6455.000000	64.375567 
6454.000000	64.416956 
6453.000000	64.487242 
6452.000000	64.575481 
6451.000000	64.674544 
6450.000000	64.782047 
6449.000000	64.897918 
6448.000000	65.021467 
6447.000000	65.147972 
6446.000000	65.267324 
6445.000000	65.364623 
6444.000000	65.421438 
6443.000000	65.420031 
6442.000000	65.348505 
6441.000000	65.205073 
6440.000000	64.999961 
6439.000000	64.754438 
6438.000000	64.496612 
6437.000000	64.256048 
6436.000000	64.057254 
6435.000000	63.915848 
6434.000000	63.836073 
6433.000000	63.813066 
6432.000000	63.834500 
6431.000000	63.887572 
6430.000000	63.961315 
6429.000000	64.051294 
6428.000000	64.158630 
6427.000000	64.287757 
6426.000000	64.441132 
6425.000000	64.615249 
6424.000000	64.798808 
6423.000000	64.970588 
6422.000000	65.103578 
6421.000000	65.169405 
6420.000000	65.146160 
6419.000000	65.024352 
6418.000000	64.811420 
6417.000000	64.532136 
6416.000000	64.224982 
6415.000000	63.936328 
6414.000000	63.711547 
6413.000000	63.586521 
6412.000000	63.580513 
6411.000000	63.694453 
6410.000000	63.910627 
6409.000000	64.196300 
6408.000000	64.510512 
6407.000000	64.810872 
6406.000000	65.062618 
6405.000000	65.241360 
6404.000000	65.338850 
6403.000000	65.359473 
6402.000000	65.319991 
6401.000000	65.245246 
6400.000000	65.160942 
6399.000000	65.089011 
6398.000000	65.042328 
6397.000000	65.026330 
6396.000000	65.036249 
6395.000000	65.062499 
6394.000000	65.092349 
6393.000000	65.114951 
6392.000000	65.123677 
6391.000000	65.117812 
6390.000000	65.100598 
6389.000000	65.076851 
6388.000000	65.050482 
6387.000000	65.021467 
6386.000000	64.984679 
6385.000000	64.930438 
6384.000000	64.845943 
6383.000000	64.719915 
6382.000000	64.546728 
6381.000000	64.330887 
6380.000000	64.085888 
6379.000000	63.836574 
6378.000000	63.612461 
6377.000000	63.446617 
6376.000000	63.368105 
6375.000000	63.398003 
6374.000000	63.542604 
6373.000000	63.793230 
6372.000000	64.127254 
6371.000000	64.510488 
6370.000000	64.901757 
6369.000000	65.259766 
6368.000000	65.549015 
6367.000000	65.744733 
6366.000000	65.835332 
6365.000000	65.822339 
6364.000000	65.718317 
6363.000000	65.543508 
6362.000000	65.322303 
6361.000000	65.079116 
6360.000000	64.835739 
6359.000000	64.610838 
6358.000000	64.419722 
6357.000000	64.273786 
6356.000000	64.181518 
6355.000000	64.148712 
6354.000000	64.178323 
6353.000000	64.268255 
6352.000000	64.411544 
6351.000000	64.595317 
6350.000000	64.801692 
6349.000000	65.008139 
6348.000000	65.191149 
6347.000000	65.329551 
6346.000000	65.407276 
6345.000000	65.415644 
6344.000000	65.354514 
6343.000000	65.232610 
6342.000000	65.065193 
6341.000000	64.872837 
6340.000000	64.676499 
6339.000000	64.494991 
6338.000000	64.342808 
6337.000000	64.229846 
6336.000000	64.160108 
6335.000000	64.132642 
6334.000000	64.143276 
6333.000000	64.186549 
6332.000000	64.256048 
6331.000000	64.345932 
6330.000000	64.450359 
6329.000000	64.564657 
6328.000000	64.684367 
6327.000000	64.806008 
6326.000000	64.926028 
6325.000000	65.041375 
6324.000000	65.150117 
6323.000000	65.250229 
6322.000000	65.340995 
6321.000000	65.420103 
6320.000000	65.484929 
6319.000000	65.530252 
6318.000000	65.550541 
6317.000000	65.539908 
6316.000000	65.494251 
6315.000000	65.414071 
6314.000000	65.305924 
6313.000000	65.182995 
6312.000000	65.064287 
6311.000000	64.969635 
6310.000000	64.915728 
6309.000000	64.911842 
6308.000000	64.957809 
6307.000000	65.041637 
6306.000000	65.142226 
6305.000000	65.234565 
6304.000000	65.295791 
6303.000000	65.311026 
6302.000000	65.276765 
6301.000000	65.201044 
6300.000000	65.100502 
6299.000000	64.995741 
6298.000000	64.905071 
6297.000000	64.838671 
6296.000000	64.796853 
6295.000000	64.772629 
6294.000000	64.754271 
6293.000000	64.730095 
6292.000000	64.693236 
6291.000000	64.644408 
6290.000000	64.592552 
6289.000000	64.550256 
6288.000000	64.532947 
6287.000000	64.552927 
6286.000000	64.617466 
6285.000000	64.725422 
6284.000000	64.868617 
6283.000000	65.033149 
6282.000000	65.203475 
6281.000000	65.365529 
6280.000000	65.508055 
6279.000000	65.623664 
6278.000000	65.709137 
6277.000000	65.764093 
6276.000000	65.788698 
6275.000000	65.782237 
6274.000000	65.744113 
6273.000000	65.673208 
6272.000000	65.569519 
6271.000000	65.434694 
6270.000000	65.275025 
6269.000000	65.099906 
6268.000000	64.923048 
6267.000000	64.758419 
6266.000000	64.618825 
6265.000000	64.512372 
6264.000000	64.441084 
6263.000000	64.400649 
6262.000000	64.379858 
6261.000000	64.366769 
6260.000000	64.350914 
6259.000000	64.328360 
6258.000000	64.301609 
6257.000000	64.280366 
6256.000000	64.277148 
6255.000000	64.304924 
6254.000000	64.372038 
6253.000000	64.479947 
6252.000000	64.621973 
6251.000000	64.784359 
6250.000000	64.949727 
6249.000000	65.103054 
6248.000000	65.234470 
6247.000000	65.341496 
6246.000000	65.426898 
6245.000000	65.497589 
6244.000000	65.558528 
6243.000000	65.611720 
6242.000000	65.650844 
6241.000000	65.664267 
6240.000000	65.635061 
6239.000000	65.548920 
6238.000000	65.396595 
6237.000000	65.177798 
6236.000000	64.905595 
6235.000000	64.604449 
6234.000000	64.310002 
6233.000000	64.061260 
6232.000000	63.896226 
6231.000000	63.844037 
6230.000000	63.918304 
6229.000000	64.113521 
6228.000000	64.403653 
6227.000000	64.746427 
6226.000000	65.089464 
6225.000000	65.380454 
6224.000000	65.575194 
6223.000000	65.646195 
6222.000000	65.588164 
6221.000000	65.418362 
6220.000000	65.171670 
6219.000000	64.892339 
6218.000000	64.626169 
6217.000000	64.409327 
6216.000000	64.263534 
6215.000000	64.192080 
6214.000000	64.183950 
6213.000000	64.218068 
6212.000000	64.270710 
6211.000000	64.322948 
6210.000000	64.363384 
6209.000000	64.392328 
6208.000000	64.416909 
6207.000000	64.450120 
6206.000000	64.503097 
6205.000000	64.582514 
6204.000000	64.687180 
6203.000000	64.806652 
6202.000000	64.923238 
6201.000000	65.016031 
6200.000000	65.066695 
6199.000000	65.061640 
6198.000000	64.995384 
6197.000000	64.871501 
6196.000000	64.701724 
6195.000000	64.502716 
6194.000000	64.292788 
6193.000000	64.089107 
6192.000000	63.905167 
6191.000000	63.750100 
6190.000000	63.628649 
6189.000000	63.541340 
6188.000000	63.486528 
6187.000000	63.460540 
6186.000000	63.460302 
6185.000000	63.481068 
6184.000000	63.519692 
6183.000000	63.571619 
6182.000000	63.633370 
6181.000000	63.700246 
6180.000000	63.768458 
6179.000000	63.834142 
6178.000000	63.893866 
6177.000000	63.943934 
6176.000000	63.981580 
6175.000000	64.004945 
6174.000000	64.014625 
6173.000000	64.013695 
6172.000000	64.009618 
6171.000000	64.013290 
6170.000000	64.038801 
6169.000000	64.099884 
6168.000000	64.207148 
6167.000000	64.362716 
6166.000000	64.559841 
6165.000000	64.779496 
6164.000000	64.991855 
6163.000000	65.160775 
6162.000000	65.252852 
6161.000000	65.244126 
6160.000000	65.125536 
6159.000000	64.907073 
6158.000000	64.617919 
6157.000000	64.299535 
6156.000000	63.998484 
6155.000000	63.755011 
6154.000000	63.595700 
6153.000000	63.527870 
6152.000000	63.540863 
6151.000000	63.609647 
6150.000000	63.702869 
6149.000000	63.791465 
6148.000000	63.855409 
6147.000000	63.888001 
6146.000000	63.894963 
6145.000000	63.890624 
6144.000000	63.891935 
6143.000000	63.913083 
6142.000000	63.961553 
6141.000000	64.037919 
6140.000000	64.136862 
6139.000000	64.251160 
6138.000000	64.374256 
6137.000000	64.504337 
6136.000000	64.642357 
6135.000000	64.790749 
6134.000000	64.948797 
6133.000000	65.110754 
6132.000000	65.263295 
6131.000000	65.387463 
6130.000000	65.462064 
6129.000000	65.469789 
6128.000000	65.401959 
6127.000000	65.263152 
6126.000000	65.071392 
6125.000000	64.854812 
6124.000000	64.648342 
6123.000000	64.486098 
6122.000000	64.396595 
6121.000000	64.397072 
6120.000000	64.492368 
6119.000000	64.674472 
6118.000000	64.924669 
6117.000000	65.216732 
6116.000000	65.519571 
6115.000000	65.801453 
6114.000000	66.032862 
6113.000000	66.190481 
6112.000000	66.258263 
6111.000000	66.230893 
6110.000000	66.115617 
6109.000000	65.931177 
6108.000000	65.705895 
6107.000000	65.471625 
6106.000000	65.261888 
6105.000000	65.101861 
6104.000000	65.006518 
6103.000000	64.976167 
6102.000000	64.999413 
6101.000000	65.054726 
6100.000000	65.116643 
6099.000000	65.161919 
6098.000000	65.173959 
6097.000000	65.147376 
6096.000000	65.087056 
6095.000000	65.007138 
6094.000000	64.925098 
6093.000000	64.859509 
6092.000000	64.824461 
6091.000000	64.827275 
6090.000000	64.866423 
6089.000000	64.933276 
6088.000000	65.013527 
6087.000000	65.089368 
6086.000000	65.142345 
6085.000000	65.155243 
6084.000000	65.115571 
6083.000000	65.018534 
6082.000000	64.868116 
6081.000000	64.675402 
6080.000000	64.458060 
6079.000000	64.236998 
6078.000000	64.033699 
6077.000000	63.865971 
6076.000000	63.746953 
6075.000000	63.682842 
6074.000000	63.674879 
6073.000000	63.718867 
6072.000000	63.809013 
6071.000000	63.937687 
6070.000000	64.097833 
6069.000000	64.281654 
6068.000000	64.481616 
6067.000000	64.688396 
6066.000000	64.891982 
6065.000000	65.080833 
6064.000000	65.244483 
6063.000000	65.374231 
6062.000000	65.465641 
6061.000000	65.518569 
6060.000000	65.536189 
6059.000000	65.522980 
6058.000000	65.484571 
6057.000000	65.425515 
6056.000000	65.350103 
6055.000000	65.260672 
6054.000000	65.161180 
6053.000000	65.054726 
6052.000000	64.944839 
6051.000000	64.834260 
6050.000000	64.725995 
6049.000000	64.622306 
6048.000000	64.523410 
6047.000000	64.429855 
6046.000000	64.341831 
6045.000000	64.261531 
6044.000000	64.192008 
6043.000000	64.138364 
6042.000000	64.106011 
6041.000000	64.099955 
6040.000000	64.122724 
6039.000000	64.173316 
6038.000000	64.246082 
6037.000000	64.332032 
6036.000000	64.420127 
6035.000000	64.499497 
6034.000000	64.561295 
6033.000000	64.600276 
6032.000000	64.616012 
6031.000000	64.611220 
6030.000000	64.592027 
6029.000000	64.567899 
6028.000000	64.549374 
6027.000000	64.546322 
6026.000000	64.565825 
6025.000000	64.611911 
6024.000000	64.683556 
6023.000000	64.776229 
6022.000000	64.880847 
6021.000000	64.986133 
6020.000000	65.079951 
6019.000000	65.152168 
6018.000000	65.195775 
6017.000000	65.207052 
6016.000000	65.188193 
6015.000000	65.146231 
6014.000000	65.093755 
6013.000000	65.045952 
6012.000000	65.020060 
6011.000000	65.031671 
6010.000000	65.092253 
6009.000000	65.205645 
6008.000000	65.366387 
6007.000000	65.558719 
6006.000000	65.757584 
6005.000000	65.931749 
6004.000000	66.048765 
6003.000000	66.081500 
6002.000000	66.013574 
6001.000000	65.844035 
6000.000000	65.588116 
5999.000000	65.275216 
5998.000000	64.943742 
5997.000000	64.634275 
5996.000000	64.381647 
5995.000000	64.210152 
5994.000000	64.131498 
5993.000000	64.143347 
5992.000000	64.231371 
5991.000000	64.374065 
5990.000000	64.547610 
5989.000000	64.729952 
5988.000000	64.901709 
5987.000000	65.050601 
5986.000000	65.170049 
5985.000000	65.259027 
5984.000000	65.318942 
5983.000000	65.353274 
5982.000000	65.365576 
5981.000000	65.360021 
5980.000000	65.340805 
5979.000000	65.312385 
5978.000000	65.279483 
5977.000000	65.247726 
5976.000000	65.222334 
5975.000000	65.208482 
5974.000000	65.208268 
5973.000000	65.221500 
5972.000000	65.242838 
5971.000000	65.263390 
5970.000000	65.270495 
5969.000000	65.251588 
5968.000000	65.195488 
5967.000000	65.094804 
5966.000000	64.948558 
5965.000000	64.763593 
5964.000000	64.553070 
5963.000000	64.333462 
5962.000000	64.122533 
5961.000000	63.935899 
5960.000000	63.785266 
5959.000000	63.676834 
5958.000000	63.611912 
5957.000000	63.587307 
5956.000000	63.598370 
5955.000000	63.640308 
5954.000000	63.708400 
5953.000000	63.797926 
5952.000000	63.903284 
5951.000000	64.017772 
5950.000000	64.131641 
5949.000000	64.234328 
5948.000000	64.315700 
5947.000000	64.368915 
5946.000000	64.392137 
5945.000000	64.388608 
5944.000000	64.367127 
5943.000000	64.338278 
5942.000000	64.313340 
5941.000000	64.299821 
5940.000000	64.300131 
5939.000000	64.310860 
5938.000000	64.324736 
5937.000000	64.333271 
5936.000000	64.329552 
5935.000000	64.311790 
5934.000000	64.284324 
5933.000000	64.256715 
5932.000000	64.240741 
5931.000000	64.248085 
5930.000000	64.286756 
5929.000000	64.358019 
5928.000000	64.455199 
5927.000000	64.565324 
5926.000000	64.671301 
5925.000000	64.755272 
5924.000000	64.801931 
5923.000000	64.801001 
5922.000000	64.749503 
5921.000000	64.652490 
5920.000000	64.522385 
5919.000000	64.375877 
5918.000000	64.231109 
5917.000000	64.105582 
5916.000000	64.012098 
5915.000000	63.957738 
5914.000000	63.942551 
5913.000000	63.960886 
5912.000000	64.002776 
5911.000000	64.056038 
5910.000000	64.110183 
5909.000000	64.157104 
5908.000000	64.194297 
5907.000000	64.223265 
5906.000000	64.249825 
5905.000000	64.280867 
5904.000000	64.322519 
5903.000000	64.377593 
5902.000000	64.443373 
5901.000000	64.511227 
5900.000000	64.568877 
5899.000000	64.603137 
5898.000000	64.602661 
5897.000000	64.561057 
5896.000000	64.479327 
5895.000000	64.365768 
5894.000000	64.234161 
5893.000000	64.100956 
5892.000000	63.981580 
5891.000000	63.887619 
5890.000000	63.825774 
5889.000000	63.796520 
5888.000000	63.795351 
5887.000000	63.814425 
5886.000000	63.844347 
5885.000000	63.876891 
5884.000000	63.905382 
5883.000000	63.927102 
5882.000000	63.941717 
5881.000000	63.952732 
5880.000000	63.964605 
5879.000000	63.983750 
5878.000000	64.016175 
5877.000000	64.067292 
5876.000000	64.140415 
5875.000000	64.236402 
5874.000000	64.353156 
5873.000000	64.486026 
5872.000000	64.628100 
5871.000000	64.772057 
5870.000000	64.910101 
5869.000000	65.035939 
5868.000000	65.143394 
5867.000000	65.227270 
5866.000000	65.281820 
5865.000000	65.302228 
5864.000000	65.283799 
5863.000000	65.223932 
5862.000000	65.122604 
5861.000000	64.985370 
5860.000000	64.822077 
5859.000000	64.646482 
5858.000000	64.474725 
5857.000000	64.323377 
5856.000000	64.207053 
5855.000000	64.136028 
5854.000000	64.115071 
5853.000000	64.142560 
5852.000000	64.211726 
5851.000000	64.311981 
5850.000000	64.430642 
5849.000000	64.554357 
5848.000000	64.671421 
5847.000000	64.772796 
5846.000000	64.852023 
5845.000000	64.905214 
5844.000000	64.931797 
5843.000000	64.933848 
5842.000000	64.915513 
5841.000000	64.882254 
5840.000000	64.841008 
5839.000000	64.798831 
5838.000000	64.762187 
5837.000000	64.736342 
5836.000000	64.725685 
5835.000000	64.732813 
5834.000000	64.758348 
5833.000000	64.800715 
5832.000000	64.856004 
5831.000000	64.919161 
5830.000000	64.984774 
5829.000000	65.048146 
5828.000000	65.105485 
5827.000000	65.154981 
5826.000000	65.197420 
5825.000000	65.233659 
5824.000000	65.263295 
5823.000000	65.284514 
5822.000000	65.294289 
5821.000000	65.288472 
5820.000000	65.263438 
5819.000000	65.217399 
5818.000000	65.151500 
5817.000000	65.071368 
5816.000000	64.985632 
5815.000000	64.903950 
5814.000000	64.834547 
5813.000000	64.782166 
5812.000000	64.747309 
5811.000000	64.725041 
5810.000000	64.708232 
5809.000000	64.689779 
5808.000000	64.665985 
5807.000000	64.637064 
5806.000000	64.608716 
5805.000000	64.588475 
5804.000000	64.586019 
5803.000000	64.608430 
5802.000000	64.660668 
5801.000000	64.742732 
5800.000000	64.851379 
5799.000000	64.980530 
5798.000000	65.122151 
5797.000000	65.267777 
5796.000000	65.407752 
5795.000000	65.532064 
5794.000000	65.630197 
5793.000000	65.692162 
5792.000000	65.709996 
5791.000000	65.679407 
5790.000000	65.601587 
5789.000000	65.483021 
5788.000000	65.336918 
5787.000000	65.179514 
5786.000000	65.026783 
5785.000000	64.891624 
5784.000000	64.780879 
5783.000000	64.696550 
5782.000000	64.635872 
5781.000000	64.595985 
5780.000000	64.575266 
5779.000000	64.576816 
5778.000000	64.607167 
5777.000000	64.674949 
5776.000000	64.786314 
5775.000000	64.941644 
5774.000000	65.132403 
5773.000000	65.340781 
5772.000000	65.541434 
5771.000000	65.706992 
5770.000000	65.814161 
5769.000000	65.849161 
5768.000000	65.811085 
5767.000000	65.713334 
5766.000000	65.580749 
5765.000000	65.443468 
5764.000000	65.329813 
5763.000000	65.261054 
5762.000000	65.246319 
5761.000000	65.282487 
5760.000000	65.355062 
5759.000000	65.442657 
5758.000000	65.522456 
5757.000000	65.575766 
5756.000000	65.592718 
5755.000000	65.572237 
5754.000000	65.523052 
5753.000000	65.459322 
5752.000000	65.397620 
5751.000000	65.351843 
5750.000000	65.330004 
5749.000000	65.333890 
5748.000000	65.357518 
5747.000000	65.390753 
5746.000000	65.420198 
5745.000000	65.433812 
5744.000000	65.421819 
5743.000000	65.378952 
5742.000000	65.304541 
5741.000000	65.201973 
5740.000000	65.079164 
5739.000000	64.947390 
5738.000000	64.819431 
5737.000000	64.707875 
5736.000000	64.624667 
5735.000000	64.578962 
5734.000000	64.576053 
5733.000000	64.615893 
5732.000000	64.692139 
5731.000000	64.793252 
5730.000000	64.903903 
5729.000000	65.008330 
5728.000000	65.091705 
5727.000000	65.144348 
5726.000000	65.161991 
5725.000000	65.147662 
5724.000000	65.109753 
5723.000000	65.061020 
5722.000000	65.015435 
5721.000000	64.985537 
5720.000000	64.980292 
5719.000000	65.003371 
5718.000000	65.053820 
5717.000000	65.124821 
5716.000000	65.206384 
5715.000000	65.285396 
5714.000000	65.348768 
5713.000000	65.384674 
5712.000000	65.385079 
5711.000000	65.346789 
5710.000000	65.272617 
5709.000000	65.170907 
5708.000000	65.054678 
5707.000000	64.940357 
5706.000000	64.844965 
5705.000000	64.782738 
5704.000000	64.763021 
5703.000000	64.789271 
5702.000000	64.858269 
5701.000000	64.960217 
5700.000000	65.081715 
5699.000000	65.207719 
5698.000000	65.325164 
5697.000000	65.425252 
5696.000000	65.503454 
5695.000000	65.559291 
5694.000000	65.594124 
5693.000000	65.609550 
5692.000000	65.605688 
5691.000000	65.581369 
5690.000000	65.534472 
5689.000000	65.464305 
5688.000000	65.373039 
5687.000000	65.267491 
5686.000000	65.158057 
5685.000000	65.057587 
5684.000000	64.977836 
5683.000000	64.927601 
5682.000000	64.910864 
5681.000000	64.927458 
5680.000000	64.972734 
5679.000000	65.040755 
5678.000000	65.126657 
5677.000000	65.227794 
5676.000000	65.343928 
5675.000000	65.474796 
5674.000000	65.617442 
5673.000000	65.764832 
5672.000000	65.904402 
5671.000000	66.020846 
5670.000000	66.099095 
5669.000000	66.128420 
5668.000000	66.107034 
5667.000000	66.041994 
5666.000000	65.949201 
5665.000000	65.848612 
5664.000000	65.760564 
5663.000000	65.699553 
5662.000000	65.671849 
5661.000000	65.673565 
5660.000000	65.693140 
5659.000000	65.714168 
5658.000000	65.720653 
5657.000000	65.700864 
5656.000000	65.650367 
5655.000000	65.572309 
5654.000000	65.476584 
5653.000000	65.375566 
5652.000000	65.281796 
5651.000000	65.205144 
5650.000000	65.151333 
5649.000000	65.121102 
5648.000000	65.111446 
5647.000000	65.117645 
5646.000000	65.135121 
5645.000000	65.159249 
5644.000000	65.188694 
5643.000000	65.224432 
5642.000000	65.270042 
5641.000000	65.328192 
5640.000000	65.400719 
5639.000000	65.486788 
5638.000000	65.582227 
5637.000000	65.679693 
5636.000000	65.769600 
5635.000000	65.841770 
5634.000000	65.887832 
5633.000000	65.903377 
5632.000000	65.887212 
5631.000000	65.841293 
5630.000000	65.770411 
5629.000000	65.680480 
5628.000000	65.576577 
5627.000000	65.462088 
5626.000000	65.338635 
5625.000000	65.206933 
5624.000000	65.068507 
5623.000000	64.926528 
5622.000000	64.787244 
5621.000000	64.658331 
5620.000000	64.547109 
5619.000000	64.458918 
5618.000000	64.395070 
5617.000000	64.353346 
5616.000000	64.326620 
5615.000000	64.307117 
5614.000000	64.286375 
5613.000000	64.260864 
5612.000000	64.231824 
5611.000000	64.207148 
5610.000000	64.197564 
5609.000000	64.215922 
5608.000000	64.272451 
5607.000000	64.371991 
5606.000000	64.511394 
5605.000000	64.679265 
5604.000000	64.857387 
5603.000000	65.023922 
5602.000000	65.157675 
5601.000000	65.241479 
5600.000000	65.265965 
5599.000000	65.230417 
5598.000000	65.144062 
5597.000000	65.023589 
5596.000000	64.890742 
5595.000000	64.769530 
5594.000000	64.680767 
5593.000000	64.639496 
5592.000000	64.651155 
5591.000000	64.713478 
5590.000000	64.814329 
5589.000000	64.935350 
5588.000000	65.054845 
5587.000000	65.151691 
5586.000000	65.210413 
5585.000000	65.222525 
5584.000000	65.189862 
5583.000000	65.122199 
5582.000000	65.037107 
5581.000000	64.955306 
5580.000000	64.896869 
5579.000000	64.876770 
5578.000000	64.901757 
5577.000000	64.968776 
5576.000000	65.065598 
5575.000000	65.173363 
5574.000000	65.269494 
5573.000000	65.333127 
5572.000000	65.348339 
5571.000000	65.309000 
5570.000000	65.219378 
5569.000000	65.094232 
5568.000000	64.954972 
5567.000000	64.825367 
5566.000000	64.726901 
5565.000000	64.672994 
5564.000000	64.667963 
5563.000000	64.704585 
5562.000000	64.767432 
5561.000000	64.835834 
5560.000000	64.889359 
5559.000000	64.912414 
5558.000000	64.897608 
5557.000000	64.846801 
5556.000000	64.768648 
5555.000000	64.677238 
5554.000000	64.587497 
5553.000000	64.512372 
5552.000000	64.459681 
5551.000000	64.433646 
5550.000000	64.435291 
5549.000000	64.464330 
5548.000000	64.520239 
5547.000000	64.602208 
5546.000000	64.708590 
5545.000000	64.835333 
5544.000000	64.974808 
5543.000000	65.115189 
5542.000000	65.241384 
5541.000000	65.337657 
5540.000000	65.390563 
5539.000000	65.391707 
5538.000000	65.339970 
5537.000000	65.243649 
5536.000000	65.117311 
5535.000000	64.979481 
5534.000000	64.848351 
5533.000000	64.739346 
5532.000000	64.661335 
5531.000000	64.616394 
5530.000000	64.599275 
5529.000000	64.600014 
5528.000000	64.605998 
5527.000000	64.606046 
5526.000000	64.591455 
5525.000000	64.557766 
5524.000000	64.505720 
5523.000000	64.440774 
5522.000000	64.372253 
5521.000000	64.311528 
5520.000000	64.269757 
5519.000000	64.256167 
5518.000000	64.276409 
5517.000000	64.332008 
5516.000000	64.420557 
5515.000000	64.536261 
5514.000000	64.670705 
5513.000000	64.814400 
5512.000000	64.958357 
5511.000000	65.094447 
5510.000000	65.216088 
5509.000000	65.317630 
5508.000000	65.395450 
5507.000000	65.445351 
5506.000000	65.464162 
5505.000000	65.447902 
5504.000000	65.393733 
5503.000000	65.300655 
5502.000000	65.171504 
5501.000000	65.014004 
5500.000000	64.841270 
5499.000000	64.670777 
5498.000000	64.522004 
5497.000000	64.412927 
5496.000000	64.356541 
5495.000000	64.357542 
5494.000000	64.411544 
5493.000000	64.505696 
5492.000000	64.622068 
5491.000000	64.740967 
5490.000000	64.845800 
5489.000000	64.925861 
5488.000000	64.978122 
5487.000000	65.006589 
5486.000000	65.019392 
5485.000000	65.024781 
5484.000000	65.027904 
5483.000000	65.030169 
5482.000000	65.027427 
5481.000000	65.013313 
5480.000000	64.979434 
5479.000000	64.921045 
5478.000000	64.835929 
5477.000000	64.727091 
5476.000000	64.600539 
5475.000000	64.464020 
5474.000000	64.326143 
5473.000000	64.194750 
5472.000000	64.076423 
5471.000000	63.975644 
5470.000000	63.895630 
5469.000000	63.838481 
5468.000000	63.804674 
5467.000000	63.793301 
5466.000000	63.800835 
5465.000000	63.822460 
5464.000000	63.851475 
5463.000000	63.883042 
5462.000000	63.914179 
5461.000000	63.947248 
5460.000000	63.988208 
5459.000000	64.047122 
5458.000000	64.134502 
5457.000000	64.258217 
5456.000000	64.420366 
5455.000000	64.614677 
5454.000000	64.827084 
5453.000000	65.036416 
5452.000000	65.220403 
5451.000000	65.357112 
5450.000000	65.430855 
5449.000000	65.433263 
5448.000000	65.366196 
5447.000000	65.238595 
5446.000000	65.064954 
5445.000000	64.862322 
5444.000000	64.648222 
5443.000000	64.438581 
5442.000000	64.246797 
5441.000000	64.084100 
5440.000000	63.959765 
5439.000000	63.879823 
5438.000000	63.847613 
5437.000000	63.861918 
5436.000000	63.918614 
5435.000000	64.009642 
5434.000000	64.125728 
5433.000000	64.255928 
5432.000000	64.390683 
5431.000000	64.521622 
5430.000000	64.643359 
5429.000000	64.752435 
5428.000000	64.847493 
5427.000000	64.928126 
5426.000000	64.994168 
5425.000000	65.045237 
5424.000000	65.080547 
5423.000000	65.100526 
5422.000000	65.105605 
5421.000000	65.097212 
5420.000000	65.077042 
5419.000000	65.048003 
5418.000000	65.012383 
5417.000000	64.971971 
5416.000000	64.928030 
5415.000000	64.881777 
5414.000000	64.835095 
5413.000000	64.790916 
5412.000000	64.751434 
5411.000000	64.718699 
5410.000000	64.694786 
5409.000000	64.682340 
5408.000000	64.683103 
5407.000000	64.699125 
5406.000000	64.732313 
5405.000000	64.784431 
5404.000000	64.856743 
5403.000000	64.948415 
5402.000000	65.055370 
5401.000000	65.169906 
5400.000000	65.282750 
5399.000000	65.381956 
5398.000000	65.454959 
5397.000000	65.490508 
5396.000000	65.482139 
5395.000000	65.428042 
5394.000000	65.332508 
5393.000000	65.203976 
5392.000000	65.054059 
5391.000000	64.895844 
5390.000000	64.742684 
5389.000000	64.607310 
5388.000000	64.501166 
5387.000000	64.434480 
5386.000000	64.415597 
5385.000000	64.450001 
5384.000000	64.538979 
5383.000000	64.678621 
5382.000000	64.858889 
5381.000000	65.064167 
5380.000000	65.273976 
5379.000000	65.466046 
5378.000000	65.617942 
5377.000000	65.710711 
5376.000000	65.730834 
5375.000000	65.672969 
5374.000000	65.540003 
5373.000000	65.343022 
5372.000000	65.100526 
5371.000000	64.835882 
5370.000000	64.575839 
5369.000000	64.347600 
5368.000000	64.175462 
5367.000000	64.077830 
5366.000000	64.064359 
5365.000000	64.134883 
5364.000000	64.278054 
5363.000000	64.473176 
5362.000000	64.693474 
5361.000000	64.910626 
5360.000000	65.099048 
5359.000000	65.239930 
5358.000000	65.323758 
5357.000000	65.351009 
5356.000000	65.330386 
5355.000000	65.276074 
5354.000000	65.205097 
5353.000000	65.132784 
5352.000000	65.071201 
5351.000000	65.026640 
5350.000000	65.001869 
5349.000000	64.994978 
5348.000000	65.002512 
5347.000000	65.019297 
5346.000000	65.040683 
5345.000000	65.062522 
5344.000000	65.081024 
5343.000000	65.093350 
5342.000000	65.097093 
5341.000000	65.091037 
5340.000000	65.075397 
5339.000000	65.050530 
5338.000000	65.016436 
5337.000000	64.973711 
5336.000000	64.923882 
5335.000000	64.868140 
5334.000000	64.807248 
5333.000000	64.741158 
5332.000000	64.668869 
5331.000000	64.589643 
5330.000000	64.502882 
5329.000000	64.406967 
5328.000000	64.300751 
5327.000000	64.183950 
5326.000000	64.059162 
5325.000000	63.931059 
5324.000000	63.808250 
5323.000000	63.700652 
5322.000000	63.619375 
5321.000000	63.575887 
5320.000000	63.577270 
5319.000000	63.621115 
5318.000000	63.698244 
5317.000000	63.791513 
5316.000000	63.884091 
5315.000000	63.963270 
5314.000000	64.024567 
5313.000000	64.070558 
5312.000000	64.112710 
5311.000000	64.167475 
5310.000000	64.247989 
5309.000000	64.358615 
5308.000000	64.490222 
5307.000000	64.621019 
5306.000000	64.721322 
5305.000000	64.761352 
5304.000000	64.718580 
5303.000000	64.585590 
5302.000000	64.373707 
5301.000000	64.114260 
5300.000000	63.847899 
5299.000000	63.623070 
5298.000000	63.482880 
5297.000000	63.463354 
5296.000000	63.589620 
5295.000000	63.869094 
5294.000000	64.297437 
5293.000000	64.844727 
5292.000000	65.462493 
5291.000000	66.078019 
5290.000000	66.606545 
5289.000000	66.960072 
5288.000000	67.063832 
5287.000000	66.873407 
5286.000000	66.386985 
5285.000000	65.649724 
5284.000000	64.747977 
5283.000000	63.796830 
5282.000000	62.919521 
5281.000000	62.226653 
5280.000000	61.797213 
5279.000000	61.665511 
5278.000000	61.818552 
5277.000000	62.202763 
5276.000000	62.739181 
5275.000000	63.337254 
5274.000000	63.915443 
5273.000000	64.410805 
5272.000000	64.790415 
5271.000000	65.043807 
5270.000000	65.183663 
5269.000000	65.232634 
5268.000000	65.217852 
5267.000000	65.164303 
5266.000000	65.089392 
5265.000000	65.005493 
5264.000000	64.918589 
5263.000000	64.836478 
5262.000000	64.767146 
5261.000000	64.724373 
5260.000000	64.721608 
5259.000000	64.769959 
5258.000000	64.873504 
5257.000000	65.027141 
5256.000000	65.213608 
5255.000000	65.405750 
5254.000000	65.570068 
5253.000000	65.673470 
5252.000000	65.692114 
5251.000000	65.617251 
5250.000000	65.455055 
5249.000000	65.226244 
5248.000000	64.964032 
5247.000000	64.706277 
5246.000000	64.487576 
5245.000000	64.332580 
5244.000000	64.251518 
5243.000000	64.240121 
5242.000000	64.285612 
5241.000000	64.368724 
5240.000000	64.468479 
5239.000000	64.566683 
5238.000000	64.650273 
5237.000000	64.712190 
5236.000000	64.748692 
5235.000000	64.759445 
5234.000000	64.744067 
5233.000000	64.703655 
5232.000000	64.640092 
5231.000000	64.556956 
5230.000000	64.460015 
5229.000000	64.357376 
5228.000000	64.259338 
5227.000000	64.176154 
5226.000000	64.116573 
5225.000000	64.085292 
5224.000000	64.082264 
5223.000000	64.103507 
5222.000000	64.142227 
5221.000000	64.189934 
5220.000000	64.238548 
5219.000000	64.281415 
5218.000000	64.315271 
5217.000000	64.339303 
5216.000000	64.356064 
5215.000000	64.368867 
5214.000000	64.382266 
5213.000000	64.401268 
5212.000000	64.430141 
5211.000000	64.470911 
5210.000000	64.523530 
5209.000000	64.586162 
5208.000000	64.655303 
5207.000000	64.726781 
5206.000000	64.796042 
5205.000000	64.859032 
5204.000000	64.912581 
5203.000000	64.954924 
5202.000000	64.984583 
5201.000000	65.000462 
5200.000000	65.000557 
5199.000000	64.982485 
5198.000000	64.943790 
5197.000000	64.883160 
5196.000000	64.801955 
5195.000000	64.704704 
5194.000000	64.600133 
5193.000000	64.499378 
5192.000000	64.413309 
5191.000000	64.350724 
5190.000000	64.315390 
5189.000000	64.307141 
5188.000000	64.321517 
5187.000000	64.352560 
5186.000000	64.394092 
5185.000000	64.442276 
5184.000000	64.495968 
5183.000000	64.556169 
5182.000000	64.624142 
5181.000000	64.699125 
5180.000000	64.777112 
5179.000000	64.849519 
5178.000000	64.904475 
5177.000000	64.928841 
5176.000000	64.912152 
5175.000000	64.849114 
5174.000000	64.742040 
5173.000000	64.600753 
5172.000000	64.441180 
5171.000000	64.282679 
5170.000000	64.144587 
5169.000000	64.043235 
5168.000000	63.989210 
5167.000000	63.986730 
5166.000000	64.033198 
5165.000000	64.119458 
5164.000000	64.232158 
5163.000000	64.355635 
5162.000000	64.475417 
5161.000000	64.579606 
5160.000000	64.661097 
5159.000000	64.717221 
5158.000000	64.749431 
5157.000000	64.761543 
5156.000000	64.757895 
5155.000000	64.742159 
5154.000000	64.716339 
5153.000000	64.681863 
5152.000000	64.639592 
5151.000000	64.591526 
5150.000000	64.541172 
5149.000000	64.493942 
5148.000000	64.456653 
5147.000000	64.436221 
5146.000000	64.438223 
5145.000000	64.465403 
5144.000000	64.517283 
5143.000000	64.590358 
5142.000000	64.678597 
5141.000000	64.774632 
5140.000000	64.872193 
5139.000000	64.965748 
5138.000000	65.050506 
5137.000000	65.121817 
5136.000000	65.175580 
5135.000000	65.207266 
5134.000000	65.213108 
5133.000000	65.189766 
5132.000000	65.136504 
5131.000000	65.055084 
5130.000000	64.951467 
5129.000000	64.834737 
5128.000000	64.716124 
5127.000000	64.607381 
5126.000000	64.518928 
5125.000000	64.458489 
5124.000000	64.429569 
5123.000000	64.431715 
5122.000000	64.460921 
5121.000000	64.511275 
5120.000000	64.575934 
5119.000000	64.649271 
5118.000000	64.727663 
5117.000000	64.809393 
5116.000000	64.894056 
5115.000000	64.982342 
5114.000000	65.074467 
5113.000000	65.169286 
5112.000000	65.263462 
5111.000000	65.352344 
5110.000000	65.429830 
5109.000000	65.490007 
5108.000000	65.527367 
5107.000000	65.538954 
5106.000000	65.524291 
5105.000000	65.486073 
5104.000000	65.429830 
5103.000000	65.363812 
5102.000000	65.297055 
5101.000000	65.238809 
5100.000000	65.196061 
5099.000000	65.173125 
5098.000000	65.170240 
5097.000000	65.184688 
5096.000000	65.210318 
5095.000000	65.239143 
5094.000000	65.262889 
5093.000000	65.274667 
5092.000000	65.269279 
5091.000000	65.243840 
5090.000000	65.197896 
5089.000000	65.133094 
5088.000000	65.052843 
5087.000000	64.961910 
5086.000000	64.865612 
5085.000000	64.769840 
5084.000000	64.681839 
5083.000000	64.608645 
5082.000000	64.556431 
5081.000000	64.528942 
5080.000000	64.526462 
5079.000000	64.545273 
5078.000000	64.577031 
5077.000000	64.611482 
5076.000000	64.638042 
5075.000000	64.648914 
5074.000000	64.640021 
5073.000000	64.612460 
5072.000000	64.571118 
5071.000000	64.524340 
5070.000000	64.480948 
5069.000000	64.449596 
5068.000000	64.436411 
5067.000000	64.445114 
5066.000000	64.476490 
5065.000000	64.528846 
5064.000000	64.598321 
5063.000000	64.679288 
5062.000000	64.764714 
5061.000000	64.846134 
5060.000000	64.914703 
5059.000000	64.962315 
5058.000000	64.983272 
5057.000000	64.975714 
5056.000000	64.942145 
5055.000000	64.890265 
5054.000000	64.830303 
5053.000000	64.772820 
5052.000000	64.726018 
5051.000000	64.694571 
5050.000000	64.678764 
5049.000000	64.675235 
5048.000000	64.678692 
5047.000000	64.684844 
5046.000000	64.690399 
5045.000000	64.694333 
5044.000000	64.696884 
5043.000000	64.698505 
5042.000000	64.699220 
5041.000000	64.697575 
5040.000000	64.691376 
5039.000000	64.677929 
5038.000000	64.656162 
5037.000000	64.627432 
5036.000000	64.596176 
5035.000000	64.568877 
5034.000000	64.552545 
5033.000000	64.552664 
5032.000000	64.570713 
5031.000000	64.603686 
5030.000000	64.644527 
5029.000000	64.684295 
5028.000000	64.714241 
5027.000000	64.728879 
5026.000000	64.727187 
5025.000000	64.713811 
5024.000000	64.697551 
5023.000000	64.689326 
5022.000000	64.699149 
5021.000000	64.733386 
5020.000000	64.793586 
5019.000000	64.874768 
5018.000000	64.966917 
5017.000000	65.056395 
5016.000000	65.129446 
5015.000000	65.174508 
5014.000000	65.185284 
5013.000000	65.161132 
5012.000000	65.107035 
5011.000000	65.032029 
5010.000000	64.947080 
5009.000000	64.863133 
5008.000000	64.789009 
5007.000000	64.730453 
5006.000000	64.689874 
5005.000000	64.667296 
5004.000000	64.661216 
5003.000000	64.669060 
5002.000000	64.688706 
5001.000000	64.718222 
5000.000000	64.757251 
4999.000000	64.805388 
4998.000000	64.862608 
4997.000000	64.928126 
4996.000000	64.999842 
4995.000000	65.074443 
4994.000000	65.146589 
4993.000000	65.209650 
4992.000000	65.256309 
4991.000000	65.280461 
4990.000000	65.277624 
4989.000000	65.246152 
4988.000000	65.187931 
4987.000000	65.108704 
4986.000000	65.016722 
4985.000000	64.921760 
4984.000000	64.833569 
4983.000000	64.760851 
4982.000000	64.709520 
4981.000000	64.682769 
4980.000000	64.681077 
4979.000000	64.703440 
4978.000000	64.747714 
4977.000000	64.811706 
4976.000000	64.892935 
4975.000000	64.988780 
4974.000000	65.095949 
4973.000000	65.209960 
4972.000000	65.325236 
4971.000000	65.434265 
4970.000000	65.529155 
4969.000000	65.600800 
4968.000000	65.641665 
4967.000000	65.644979 
4966.000000	65.607762 
4965.000000	65.530014 
4964.000000	65.416455 
4963.000000	65.275144 
4962.000000	65.117597 
4961.000000	64.956498 
4960.000000	64.804577 
4959.000000	64.672279 
4958.000000	64.566898 
4957.000000	64.491558 
4956.000000	64.445400 
4955.000000	64.424014 
4954.000000	64.421224 
4953.000000	64.429950 
4952.000000	64.444065 
4951.000000	64.458990 
4950.000000	64.472675 
4949.000000	64.484262 
4948.000000	64.494323 
4947.000000	64.503049 
4946.000000	64.510393 
4945.000000	64.515447 
4944.000000	64.516735 
4943.000000	64.512443 
4942.000000	64.501595 
4941.000000	64.484882 
4940.000000	64.464759 
4939.000000	64.444875 
4938.000000	64.430046 
4937.000000	64.425039 
4936.000000	64.433217 
4935.000000	64.455676 
4934.000000	64.490532 
4933.000000	64.533305 
4932.000000	64.577794 
4931.000000	64.617681 
4930.000000	64.647531 
4929.000000	64.664053 
4928.000000	64.667344 
4927.000000	64.660835 
4926.000000	64.649987 
4925.000000	64.641308 
4924.000000	64.640998 
4923.000000	64.653110 
4922.000000	64.678978 
4921.000000	64.716339 
4920.000000	64.760780 
4919.000000	64.806032 
4918.000000	64.845824 
4917.000000	64.874553 
4916.000000	64.889073 
4915.000000	64.888262 
4914.000000	64.873170 
4913.000000	64.846253 
4912.000000	64.810776 
4911.000000	64.769840 
4910.000000	64.725971 
4909.000000	64.680981 
4908.000000	64.636564 
4907.000000	64.594054 
4906.000000	64.554882 
4905.000000	64.520645 
4904.000000	64.493131 
4903.000000	64.473748 
4902.000000	64.463210 
4901.000000	64.461064 
4900.000000	64.465999 
4899.000000	64.476442 
4898.000000	64.491224 
4897.000000	64.509391 
4896.000000	64.531064 
4895.000000	64.557409 
4894.000000	64.590287 
4893.000000	64.630746 
4892.000000	64.678597 
4891.000000	64.732074 
4890.000000	64.787650 
4889.000000	64.840245 
4888.000000	64.884686 
4887.000000	64.916777 
4886.000000	64.934420 
4885.000000	64.938259 
4884.000000	64.931535 
4883.000000	64.919304 
4882.000000	64.907479 
4881.000000	64.901638 
4880.000000	64.905691 
4879.000000	64.921593 
4878.000000	64.948892 
4877.000000	64.985299 
4876.000000	65.026736 
4875.000000	65.068173 
4874.000000	65.104103 
4873.000000	65.129160 
4872.000000	65.138220 
4871.000000	65.126872 
4870.000000	65.092301 
4869.000000	65.033435 
4868.000000	64.951229 
4867.000000	64.849114 
4866.000000	64.733123 
4865.000000	64.611411 
4864.000000	64.492869 
4863.000000	64.386582 
4862.000000	64.300251 
4861.000000	64.239573 
4860.000000	64.207506 
4859.000000	64.204120 
4858.000000	64.226269 
4857.000000	64.268517 
4856.000000	64.323687 
4855.000000	64.384055 
4854.000000	64.441490 
4853.000000	64.489150 
4852.000000	64.521622 
4851.000000	64.536046 
4850.000000	64.531731 
4849.000000	64.510798 
4848.000000	64.477610 
4847.000000	64.438152 
4846.000000	64.399266 
4845.000000	64.367938 
4844.000000	64.350438 
4843.000000	64.351344 
4842.000000	64.373373 
4841.000000	64.417266 
4840.000000	64.481639 
4839.000000	64.563345 
4838.000000	64.657330 
4837.000000	64.756870 
4836.000000	64.854145 
4835.000000	64.941263 
4834.000000	65.011334 
4833.000000	65.058732 
4832.000000	65.080881 
4831.000000	65.079045 
4830.000000	65.057945 
4829.000000	65.024781 
4828.000000	64.987945 
4827.000000	64.956140 
4826.000000	64.935564 
4825.000000	64.929270 
4824.000000	64.936280 
4823.000000	64.952421 
4822.000000	64.971423 
4821.000000	64.986872 
4820.000000	64.993500 
4819.000000	64.988565 
4818.000000	64.972090 
4817.000000	64.946866 
4816.000000	64.916896 
4815.000000	64.886784 
4814.000000	64.860463 
4813.000000	64.840292 
4812.000000	64.827370 
4811.000000	64.821290 
4810.000000	64.820814 
4809.000000	64.824604 
4808.000000	64.831209 
4807.000000	64.840006 
4806.000000	64.850950 
4805.000000	64.865040 
4804.000000	64.882707 
4803.000000	64.905047 
4802.000000	64.933013 
4801.000000	64.967083 
4800.000000	65.006852 
4799.000000	65.051007 
4798.000000	65.097141 
4797.000000	65.141820 
4796.000000	65.181040 
4795.000000	65.210747 
4794.000000	65.227651 
4793.000000	65.230011 
4792.000000	65.218162 
4791.000000	65.194606 
4790.000000	65.163588 
4789.000000	65.130400 
4788.000000	65.100312 
4787.000000	65.077900 
4786.000000	65.066051 
4785.000000	65.065646 
4784.000000	65.075588 
4783.000000	65.093135 
4782.000000	65.114665 
4781.000000	65.136623 
4780.000000	65.156078 
4779.000000	65.170931 
4778.000000	65.180230 
4777.000000	65.183949 
4776.000000	65.182614 
4775.000000	65.177035 
4774.000000	65.167641 
4773.000000	65.154647 
4772.000000	65.137720 
4771.000000	65.116405 
4770.000000	65.090131 
4769.000000	65.058875 
4768.000000	65.023303 
4767.000000	64.984917 
4766.000000	64.945888 
4765.000000	64.908671 
4764.000000	64.875078 
4763.000000	64.846158 
4762.000000	64.821743 
4761.000000	64.800786 
4760.000000	64.781355 
4759.000000	64.761900 
4758.000000	64.741492 
4757.000000	64.720916 
4756.000000	64.702105 
4755.000000	64.688563 
4754.000000	64.683938 
4753.000000	64.691376 
4752.000000	64.712405 
4751.000000	64.746403 
4750.000000	64.790320 
4749.000000	64.839315 
4748.000000	64.887785 
4747.000000	64.930367 
4746.000000	64.962935 
4745.000000	64.983081 
4744.000000	64.990448 
4743.000000	64.986467 
4742.000000	64.973855 
4741.000000	64.956641 
4740.000000	64.939355 
4739.000000	64.926719 
4738.000000	64.923000 
4737.000000	64.931225 
4736.000000	64.952731 
4735.000000	64.986872 
4734.000000	65.031051 
4733.000000	65.080690 
4732.000000	65.130090 
4731.000000	65.173411 
4730.000000	65.205764 
4729.000000	65.223765 
4728.000000	65.226244 
4727.000000	65.214538 
4726.000000	65.191864 
4725.000000	65.162587 
4724.000000	65.131402 
4723.000000	65.102624 
4722.000000	65.079212 
4721.000000	65.062904 
4720.000000	65.053534 
4719.000000	65.049648 
4718.000000	65.048456 
4717.000000	65.046787 
4716.000000	65.041089 
4715.000000	65.028309 
4714.000000	65.006828 
4713.000000	64.976835 
4712.000000	64.940571 
4711.000000	64.901757 
4710.000000	64.865231 
4709.000000	64.835906 
4708.000000	64.817738 
4707.000000	64.812874 
4706.000000	64.821124 
4705.000000	64.840531 
4704.000000	64.867520 
4703.000000	64.898538 
4702.000000	64.930725 
4701.000000	64.962697 
4700.000000	64.994430 
4699.000000	65.026974 
4698.000000	65.061306 
4697.000000	65.097522 
4696.000000	65.134024 
4695.000000	65.167427 
4694.000000	65.193176 
4693.000000	65.206360 
4692.000000	65.203809 
4691.000000	65.184092 
4690.000000	65.148234 
4689.000000	65.099453 
4688.000000	65.042805 
4687.000000	64.983534 
4686.000000	64.926457 
4685.000000	64.875054 
4684.000000	64.831566 
4683.000000	64.797282 
4682.000000	64.773297 
4681.000000	64.760804 
4680.000000	64.761376 
4679.000000	64.776372 
4678.000000	64.806413 
4677.000000	64.850258 
4676.000000	64.904594 
4675.000000	64.963865 
4674.000000	65.021085 
4673.000000	65.068793 
4672.000000	65.100860 
4671.000000	65.113830 
4670.000000	65.107870 
4669.000000	65.086531 
4668.000000	65.056490 
4667.000000	65.026116 
4666.000000	65.003442 
4665.000000	64.994668 
4664.000000	65.002393 
4663.000000	65.025544 
4662.000000	65.059256 
4661.000000	65.096354 
4660.000000	65.128779 
4659.000000	65.149807 
4658.000000	65.155243 
4657.000000	65.144419 
4656.000000	65.120005 
4655.000000	65.087389 
4654.000000	65.053462 
4653.000000	65.024971 
4652.000000	65.006542 
4651.000000	64.999842 
4650.000000	65.003776 
4649.000000	65.014672 
4648.000000	65.027642 
4647.000000	65.037560 
4646.000000	65.040731 
4645.000000	65.035295 
4644.000000	65.021419 
4643.000000	65.001106 
4642.000000	64.977002 
4641.000000	64.952111 
4640.000000	64.929056 
4639.000000	64.909458 
4638.000000	64.893722 
4637.000000	64.880919 
4636.000000	64.869308 
4635.000000	64.856576 
4634.000000	64.840745 
4633.000000	64.820480 
4632.000000	64.795637 
4631.000000	64.767479 
4630.000000	64.738726 
4629.000000	64.713644 
4628.000000	64.697313 
4627.000000	64.694356 
4626.000000	64.708089 
4625.000000	64.739394 
4624.000000	64.786648 
4623.000000	64.845442 
4622.000000	64.909839 
4621.000000	64.973306 
4620.000000	65.030074 
4619.000000	65.076422 
4618.000000	65.110421 
4617.000000	65.131831 
4616.000000	65.141367 
4615.000000	65.140104 
4614.000000	65.129113 
4613.000000	65.108990 
4612.000000	65.080571 
4611.000000	65.045785 
4610.000000	65.007376 
4609.000000	64.969277 
4608.000000	64.935755 
4607.000000	64.910960 
4606.000000	64.897322 
4605.000000	64.894890 
4604.000000	64.900994 
4603.000000	64.910960 
4602.000000	64.919447 
4601.000000	64.921927 
4600.000000	64.915847 
4599.000000	64.901399 
4598.000000	64.881205 
4597.000000	64.859938 
4596.000000	64.841842 
4595.000000	64.830350 
4594.000000	64.826822 
4593.000000	64.830994 
4592.000000	64.840888 
4591.000000	64.854407 
4590.000000	64.870333 
4589.000000	64.888787 
4588.000000	64.910840 
4587.000000	64.938473 
4586.000000	64.973115 
4585.000000	65.015172 
4584.000000	65.062713 
4583.000000	65.111947 
4582.000000	65.158033 
4581.000000	65.196108 
4580.000000	65.222740 
4579.000000	65.236234 
4578.000000	65.236949 
4577.000000	65.226888 
4576.000000	65.208697 
4575.000000	65.184092 
4574.000000	65.153264 
4573.000000	65.115118 
4572.000000	65.067982 
4571.000000	65.011167 
4570.000000	64.945745 
4569.000000	64.875721 
4568.000000	64.807248 
4567.000000	64.747762 
4566.000000	64.704084 
4565.000000	64.680314 
4564.000000	64.677214 
4563.000000	64.691543 
4562.000000	64.716935 
4561.000000	64.745402 
4560.000000	64.769196 
4559.000000	64.782238 
4558.000000	64.781546 
4557.000000	64.767289 
4556.000000	64.742779 
4555.000000	64.712905 
4554.000000	64.683389 
4553.000000	64.659237 
4552.000000	64.644670 
4551.000000	64.642381 
4550.000000	64.653396 
4549.000000	64.677095 
4548.000000	64.711570 
4547.000000	64.753723 
4546.000000	64.799213 
4545.000000	64.843440 
4544.000000	64.881634 
4543.000000	64.909863 
4542.000000	64.925742 
4541.000000	64.928412 
4540.000000	64.918184 
4539.000000	64.896845 
4538.000000	64.866757 
4537.000000	64.831471 
4536.000000	64.795136 
4535.000000	64.762759 
4534.000000	64.739608 
4533.000000	64.730739 
4532.000000	64.740419 
4531.000000	64.771103 
4530.000000	64.822483 
4529.000000	64.891338 
4528.000000	64.971780 
4527.000000	65.055632 
4526.000000	65.133547 
4525.000000	65.196132 
4524.000000	65.235710 
4523.000000	65.247607 
4522.000000	65.231251 
4521.000000	65.190339 
4520.000000	65.132284 
4519.000000	65.067315 
4518.000000	65.006017 
4517.000000	64.957809 
4516.000000	64.928293 
4515.000000	64.919233 
4514.000000	64.926934 
4513.000000	64.944434 
4512.000000	64.961862 
4511.000000	64.969468 
4510.000000	64.958953 
4509.000000	64.925169 
4508.000000	64.867234 
4507.000000	64.788126 
4506.000000	64.694476 
4505.000000	64.594769 
4504.000000	64.498233 
4503.000000	64.413213 
4502.000000	64.346289 
4501.000000	64.301323 
4500.000000	64.279389 
4499.000000	64.278888 
4498.000000	64.296245 
4497.000000	64.327025 
4496.000000	64.365839 
4495.000000	64.407229 
4494.000000	64.446711 
4493.000000	64.481449 
4492.000000	64.509510 
4491.000000	64.530420 
4490.000000	64.544820 
4489.000000	64.554286 
4488.000000	64.560890 
4487.000000	64.567017 
4486.000000	64.574551 
4485.000000	64.584970 
4484.000000	64.599847 
4483.000000	64.620089 
4482.000000	64.645719 
4481.000000	64.675998 
4480.000000	64.709854 
4479.000000	64.745616 
4478.000000	64.781522 
4477.000000	64.815163 
4476.000000	64.844369 
4475.000000	64.866089 
4474.000000	64.877223 
4473.000000	64.874243 
4472.000000	64.854454 
4471.000000	64.816045 
4470.000000	64.758801 
4469.000000	64.685130 
4468.000000	64.599776 
4467.000000	64.509010 
4466.000000	64.419937 
4465.000000	64.339113 
4464.000000	64.272141 
4463.000000	64.222908 
4462.000000	64.193916 
4461.000000	64.185547 
4460.000000	64.197373 
4459.000000	64.227819 
4458.000000	64.275050 
4457.000000	64.336371 
4456.000000	64.408707 
4455.000000	64.488077 
4454.000000	64.569377 
4453.000000	64.646029 
4452.000000	64.710783 
4451.000000	64.756894 
4450.000000	64.778542 
4449.000000	64.771461 
4448.000000	64.734816 
4447.000000	64.671969 
4446.000000	64.590263 
4445.000000	64.499902 
4444.000000	64.413261 
4443.000000	64.342594 
4442.000000	64.298057 
4441.000000	64.285707 
4440.000000	64.306020 
4439.000000	64.353942 
4438.000000	64.419937 
4437.000000	64.492654 
4436.000000	64.560341 
4435.000000	64.614367 
4434.000000	64.651656 
4433.000000	64.674115 
4432.000000	64.687490 
4431.000000	64.697957 
4430.000000	64.710974 
4429.000000	64.726662 
4428.000000	64.741253 
4427.000000	64.744448 
4426.000000	64.723706 
4425.000000	64.665508 
4424.000000	64.559626 
4423.000000	64.403462 
4422.000000	64.205360 
4421.000000	63.981485 
4420.000000	63.751745 
4419.000000	63.539409 
4418.000000	63.367128 
4417.000000	63.250017 
4416.000000	63.193368 
4415.000000	63.190484 
4414.000000	63.225746 
4413.000000	63.282227 
4412.000000	63.347244 
4411.000000	63.415288 
4410.000000	63.489484 
4409.000000	63.578271 
4408.000000	63.691496 
4407.000000	63.833832 
4406.000000	64.001178 
4405.000000	64.182043 
4404.000000	64.355015 
4403.000000	64.495611 
4402.000000	64.578175 
4401.000000	64.574861 
4400.000000	64.475893 
4399.000000	64.281082 
4398.000000	64.029216 
4397.000000	63.792395 
4396.000000	63.669395 
4395.000000	63.768482 
4394.000000	64.165973 
4393.000000	64.882922 
4392.000000	65.863108 
4391.000000	66.978263 
4390.000000	68.055343 
4389.000000	68.915057 
4388.000000	69.417595 
4387.000000	69.494843 
4386.000000	69.155502 
4385.000000	68.482446 
4384.000000	67.603898 
4383.000000	66.667509 
4382.000000	65.815091 
4381.000000	65.153741 
4380.000000	64.753222 
4379.000000	64.627432 
4378.000000	64.748930 
4377.000000	65.050315 
4376.000000	65.443301 
4375.000000	65.838003 
4374.000000	66.157460 
4373.000000	66.353940 
4372.000000	66.405534 
4371.000000	66.323947 
4370.000000	66.138386 
4369.000000	65.893936 
4368.000000	65.634346 
4367.000000	65.401363 
4366.000000	65.228438 
4365.000000	65.137457 
4364.000000	65.139269 
4363.000000	65.230774 
4362.000000	65.397953 
4361.000000	65.614676 
4360.000000	65.847277 
4359.000000	66.061449 
4358.000000	66.227316 
4357.000000	66.320514 
4356.000000	66.327047 
4355.000000	66.245102 
4354.000000	66.084909 
4353.000000	65.866947 
4352.000000	65.618085 
4351.000000	65.365004 
4350.000000	65.131831 
4349.000000	64.941358 
4348.000000	64.808559 
4347.000000	64.739918 
4346.000000	64.732694 
4345.000000	64.776563 
4344.000000	64.855766 
4343.000000	64.953160 
4342.000000	65.051460 
4341.000000	65.134239 
4340.000000	65.189552 
4339.000000	65.210127 
4338.000000	65.194296 
4337.000000	65.144944 
4336.000000	65.068054 
4335.000000	64.970970 
4334.000000	64.862275 
4333.000000	64.751100 
4332.000000	64.645934 
4331.000000	64.554572 
4330.000000	64.483594 
4329.000000	64.438676 
4328.000000	64.424681 
4327.000000	64.444923 
4326.000000	64.499163 
4325.000000	64.583539 
4324.000000	64.690756 
4323.000000	64.810109 
4322.000000	64.928364 
4321.000000	65.031409 
4320.000000	65.105533 
4319.000000	65.140461 
4318.000000	65.131425 
4317.000000	65.080094 
4316.000000	64.993953 
4315.000000	64.885973 
4314.000000	64.772558 
4313.000000	64.670634 
4312.000000	64.594650 
4311.000000	64.554357 
4310.000000	64.553594 
4309.000000	64.590525 
4308.000000	64.658641 
4307.000000	64.748263 
4306.000000	64.848113 
4305.000000	64.946269 
4304.000000	65.031409 
4303.000000	65.093755 
4302.000000	65.125823 
4301.000000	65.122628 
4300.000000	65.082383 
4299.000000	65.007376 
4298.000000	64.903473 
4297.000000	64.779567 
4296.000000	64.646315 
4295.000000	64.515399 
4294.000000	64.397597 
4293.000000	64.302110 
4292.000000	64.234995 
4291.000000	64.198589 
4290.000000	64.191770 
4289.000000	64.210677 
4288.000000	64.249539 
4287.000000	64.301037 
4286.000000	64.358425 
4285.000000	64.415526 
4284.000000	64.468264 
4283.000000	64.514160 
4282.000000	64.552712 
4281.000000	64.584708 
4280.000000	64.612197 
4279.000000	64.637351 
4278.000000	64.661574 
4277.000000	64.685153 
4276.000000	64.707207 
4275.000000	64.725804 
4274.000000	64.739370 
4273.000000	64.746689 
4272.000000	64.747858 
4271.000000	64.743757 
4270.000000	64.736008 
4269.000000	64.726161 
4268.000000	64.715313 
4267.000000	64.703989 
4266.000000	64.691567 
4265.000000	64.677190 
4264.000000	64.660906 
4263.000000	64.643311 
4262.000000	64.625644 
4261.000000	64.609789 
4260.000000	64.597988 
4259.000000	64.592075 
4258.000000	64.592838 
4257.000000	64.599657 
4256.000000	64.610385 
4255.000000	64.622640 
4254.000000	64.634370 
4253.000000	64.643883 
4252.000000	64.650297 
4251.000000	64.653635 
4250.000000	64.654374 
4249.000000	64.652919 
4248.000000	64.649486 
4247.000000	64.644265 
4246.000000	64.637947 
4245.000000	64.631724 
4244.000000	64.627623 
4243.000000	64.628171 
4242.000000	64.636373 
4241.000000	64.654660 
4240.000000	64.684748 
4239.000000	64.727210 
4238.000000	64.780974 
4237.000000	64.843702 
4236.000000	64.911055 
4235.000000	64.977431 
4234.000000	65.035915 
4233.000000	65.079927 
4232.000000	65.103149 
4231.000000	65.100812 
4230.000000	65.070605 
4229.000000	65.013623 
4228.000000	64.934325 
4227.000000	64.840245 
4226.000000	64.741110 
4225.000000	64.647364 
4224.000000	64.568471 
4223.000000	64.511442 
4222.000000	64.479494 
4221.000000	64.472174 
4220.000000	64.486026 
4219.000000	64.515876 
4218.000000	64.555478 
4217.000000	64.599299 
4216.000000	64.642357 
4215.000000	64.681410 
4214.000000	64.713811 
4213.000000	64.738464 
4212.000000	64.754819 
4211.000000	64.763569 
4210.000000	64.766049 
4209.000000	64.764571 
4208.000000	64.761948 
4207.000000	64.761209 
4206.000000	64.764976 
4205.000000	64.775300 
4204.000000	64.793324 
4203.000000	64.818811 
4202.000000	64.850068 
4201.000000	64.884543 
4200.000000	64.919281 
4199.000000	64.951038 
4198.000000	64.976811 
4197.000000	64.993977 
4196.000000	65.000581 
4195.000000	64.995646 
4194.000000	64.979314 
4193.000000	64.952611 
4192.000000	64.917778 
4191.000000	64.878606 
4190.000000	64.839982 
4189.000000	64.806723 
4188.000000	64.783191 
4187.000000	64.772701 
4186.000000	64.776468 
4185.000000	64.793634 
4184.000000	64.821052 
4183.000000	64.853882 
4182.000000	64.886379 
4181.000000	64.912962 
4180.000000	64.928984 
4179.000000	64.931535 
4178.000000	64.919590 
4177.000000	64.894008 
4176.000000	64.857053 
4175.000000	64.811921 
4174.000000	64.761829 
4173.000000	64.709901 
4172.000000	64.658832 
4171.000000	64.611053 
4170.000000	64.568805 
4169.000000	64.534807 
4168.000000	64.511728 
4167.000000	64.502668 
4166.000000	64.510774 
4165.000000	64.538741 
4164.000000	64.587521 
4163.000000	64.656114 
4162.000000	64.740586 
4161.000000	64.834642 
4160.000000	64.930009 
4159.000000	65.017628 
4158.000000	65.089392 
4157.000000	65.139365 
4156.000000	65.165042 
4155.000000	65.167355 
4154.000000	65.150451 
4153.000000	65.120530 
4152.000000	65.084695 
4151.000000	65.049624 
4150.000000	65.020871 
4149.000000	65.002036 
4148.000000	64.994859 
4147.000000	64.999103 
4146.000000	65.013170 
4145.000000	65.034341 
4144.000000	65.059566 
4143.000000	65.085434 
4142.000000	65.108513 
4141.000000	65.125870 
4140.000000	65.135216 
4139.000000	65.135049 
4138.000000	65.124869 
4137.000000	65.105319 
4136.000000	65.078258 
4135.000000	65.046358 
4134.000000	65.012955 
4133.000000	64.981460 
4132.000000	64.954733 
4131.000000	64.934849 
4130.000000	64.922451 
4129.000000	64.916729 
4128.000000	64.915680 
4127.000000	64.917063 
4126.000000	64.918351 
4125.000000	64.917111 
4124.000000	64.911818 
4123.000000	64.901876 
4122.000000	64.887976 
4121.000000	64.871883 
4120.000000	64.856529 
4119.000000	64.845323 
4118.000000	64.841938 
4117.000000	64.849162 
4116.000000	64.868068 
4115.000000	64.897322 
4114.000000	64.933085 
4113.000000	64.969921 
4112.000000	65.002155 
4111.000000	65.025472 
4110.000000	65.037918 
4109.000000	65.040421 
4108.000000	65.036773 
4107.000000	65.032386 
4106.000000	65.032863 
4105.000000	65.041756 
4104.000000	65.059638 
4103.000000	65.083193 
4102.000000	65.106940 
4101.000000	65.123629 
4100.000000	65.126562 
4099.000000	65.111494 
4098.000000	65.078091 
4097.000000	65.030074 
4096.000000	64.974617 
4095.000000	64.920592 
4094.000000	64.876532 
4093.000000	64.849019 
4092.000000	64.841294 
4091.000000	64.852643 
4090.000000	64.878654 
4089.000000	64.912080 
4088.000000	64.944529 
4087.000000	64.967894 
4086.000000	64.976167 
4085.000000	64.966201 
4084.000000	64.938664 
4083.000000	64.897227 
4082.000000	64.848756 
4081.000000	64.801764 
4080.000000	64.765143 
4079.000000	64.746570 
4078.000000	64.750766 
4077.000000	64.779162 
4076.000000	64.829087 
4075.000000	64.894556 
4074.000000	64.967417 
4073.000000	65.038800 
4072.000000	65.100574 
4071.000000	65.146780 
4070.000000	65.173888 
4069.000000	65.180850 
4068.000000	65.168905 
4067.000000	65.140795 
4066.000000	65.100622 
4065.000000	65.053296 
4064.000000	65.004515 
4063.000000	64.960241 
4062.000000	64.925885 
4061.000000	64.905571 
4060.000000	64.901542 
4059.000000	64.913725 
4058.000000	64.939355 
4057.000000	64.973926 
4056.000000	65.011239 
4055.000000	65.045452 
4054.000000	65.072202 
4053.000000	65.089750 
4052.000000	65.098810 
4051.000000	65.102481 
4050.000000	65.104818 
4049.000000	65.109682 
4048.000000	65.119576 
4047.000000	65.134477 
4046.000000	65.152287 
4045.000000	65.168976 
4044.000000	65.180277 
4043.000000	65.182471 
4042.000000	65.173768 
4041.000000	65.154480 
4040.000000	65.126967 
4039.000000	65.095520 
4038.000000	65.065073 
4037.000000	65.040349 
4036.000000	65.024685 
4035.000000	65.019464 
4034.000000	65.023565 
4033.000000	65.034317 
4032.000000	65.047812 
4031.000000	65.059685 
4030.000000	65.066003 
4029.000000	65.063929 
4028.000000	65.052437 
4027.000000	65.031957 
4026.000000	65.004587 
4025.000000	64.973330 
4024.000000	64.941835 
4023.000000	64.913797 
4022.000000	64.892411 
4021.000000	64.880061 
4020.000000	64.877963 
4019.000000	64.886045 
4018.000000	64.903020 
4017.000000	64.926409 
4016.000000	64.953136 
4015.000000	64.979982 
4014.000000	65.003991 
4013.000000	65.022754 
4012.000000	65.035319 
4011.000000	65.042090 
4010.000000	65.044784 
4009.000000	65.045952 
4008.000000	65.048408 
4007.000000	65.054631 
4006.000000	65.066146 
4005.000000	65.083098 
4004.000000	65.103745 
4003.000000	65.125131 
4002.000000	65.143680 
4001.000000	65.156483 
4000.000000	65.161561 
3999.000000	65.159034 
3998.000000	65.151095 
3997.000000	65.141534 
3996.000000	65.134620 
3995.000000	65.133905 
3994.000000	65.141534 
3993.000000	65.156793 
3992.000000	65.176653 
3991.000000	65.195727 
3990.000000	65.208196 
3989.000000	65.208673 
3988.000000	65.193581 
3987.000000	65.162205 
3986.000000	65.116596 
3985.000000	65.061235 
3984.000000	65.002179 
3983.000000	64.945435 
3982.000000	64.896225 
3981.000000	64.858341 
3980.000000	64.834070 
3979.000000	64.823961 
3978.000000	64.827561 
3977.000000	64.843726 
3976.000000	64.871191 
3975.000000	64.908146 
3974.000000	64.952492 
3973.000000	65.001749 
3972.000000	65.053224 
3971.000000	65.103530 
3970.000000	65.149402 
3969.000000	65.187788 
3968.000000	65.216445 
3967.000000	65.234446 
3966.000000	65.242028 
3965.000000	65.240740 
3964.000000	65.232801 
3963.000000	65.221095 
3962.000000	65.208196 
3961.000000	65.196013 
3960.000000	65.185618 
3959.000000	65.177130 
3958.000000	65.169978 
3957.000000	65.163135 
3956.000000	65.155339 
3955.000000	65.145635 
3954.000000	65.133261 
3953.000000	65.117883 
3952.000000	65.099573 
3951.000000	65.078854 
3950.000000	65.056180 
3949.000000	65.032505 
3948.000000	65.008687 
3947.000000	64.986109 
3946.000000	64.966440 
3945.000000	64.951920 
3944.000000	64.944314 
3943.000000	64.945316 
3942.000000	64.956068 
3941.000000	64.976787 
3940.000000	65.006232 
3939.000000	65.041995 
3938.000000	65.080952 
3937.000000	65.119504 
3936.000000	65.154099 
3935.000000	65.181827 
3934.000000	65.200662 
3933.000000	65.209913 
3932.000000	65.210175 
3931.000000	65.202903 
3930.000000	65.190124 
3929.000000	65.174293 
3928.000000	65.157890 
3927.000000	65.142941 
3926.000000	65.130639 
3925.000000	65.121626 
3924.000000	65.115571 
3923.000000	65.110945 
3922.000000	65.104937 
3921.000000	65.094590 
3920.000000	65.076875 
3919.000000	65.049147 
3918.000000	65.010023 
3917.000000	64.959859 
3916.000000	64.901185 
3915.000000	64.838075 
3914.000000	64.776229 
3913.000000	64.721202 
3912.000000	64.678597 
3911.000000	64.652466 
3910.000000	64.645457 
3909.000000	64.657545 
3908.000000	64.687108 
3907.000000	64.730834 
3906.000000	64.784431 
3905.000000	64.843010 
3904.000000	64.901876 
3903.000000	64.957094 
3902.000000	65.005564 
3901.000000	65.045523 
3900.000000	65.076780 
3899.000000	65.100598 
3898.000000	65.119910 
3897.000000	65.138411 
3896.000000	65.160393 
3895.000000	65.189170 
3894.000000	65.227127 
3893.000000	65.273952 
3892.000000	65.326905 
3891.000000	65.380382 
3890.000000	65.427565 
3889.000000	65.460944 
3888.000000	65.474438 
3887.000000	65.464544 
3886.000000	65.431547 
3885.000000	65.379309 
3884.000000	65.314674 
3883.000000	65.246200 
3882.000000	65.182614 
3881.000000	65.130996 
3880.000000	65.095710 
3879.000000	65.077781 
3878.000000	65.075492 
3877.000000	65.084934 
3876.000000	65.101265 
3875.000000	65.119552 
3874.000000	65.135717 
3873.000000	65.147352 
3872.000000	65.153837 
3871.000000	65.155482 
3870.000000	65.153336 
3869.000000	65.148901 
3868.000000	65.143704 
3867.000000	65.138864 
3866.000000	65.135073 
3865.000000	65.133118 
3864.000000	65.133285 
3863.000000	65.135788 
3862.000000	65.140151 
3861.000000	65.145564 
3860.000000	65.150570 
3859.000000	65.153336 
3858.000000	65.152263 
3857.000000	65.146136 
3856.000000	65.135002 
3855.000000	65.120172 
3854.000000	65.104031 
3853.000000	65.089631 
3852.000000	65.079927 
3851.000000	65.077233 
3850.000000	65.082001 
3849.000000	65.092635 
3848.000000	65.105986 
3847.000000	65.118169 
3846.000000	65.125298 
3845.000000	65.124678 
3844.000000	65.115332 
3843.000000	65.098071 
3842.000000	65.075397 
3841.000000	65.050625 
3840.000000	65.026736 
3839.000000	65.006160 
3838.000000	64.990139 
3837.000000	64.979219 
3836.000000	64.973378 
3835.000000	64.972424 
3834.000000	64.976525 
3833.000000	64.986157 
3832.000000	65.001845 
3831.000000	65.023827 
3830.000000	65.051341 
3829.000000	65.082812 
3828.000000	65.115618 
3827.000000	65.146780 
3826.000000	65.173602 
3825.000000	65.194272 
3824.000000	65.208196 
3823.000000	65.216112 
3822.000000	65.219616 
3821.000000	65.220475 
3820.000000	65.220093 
3819.000000	65.218973 
3818.000000	65.216684 
3817.000000	65.212130 
3816.000000	65.203857 
3815.000000	65.190887 
3814.000000	65.172719 
3813.000000	65.149950 
3812.000000	65.124082 
3811.000000	65.097284 
3810.000000	65.071892 
3809.000000	65.050077 
3808.000000	65.033507 
3807.000000	65.023088 
3806.000000	65.019345 
3805.000000	65.022158 
3804.000000	65.031170 
3803.000000	65.045690 
3802.000000	65.064787 
3801.000000	65.087175 
3800.000000	65.111112 
3799.000000	65.134406 
3798.000000	65.154433 
3797.000000	65.168428 
3796.000000	65.173816 
3795.000000	65.168762 
3794.000000	65.152382 
3793.000000	65.125322 
3792.000000	65.089917 
3791.000000	65.049910 
3790.000000	65.010046 
3789.000000	64.975118 
3788.000000	64.949131 
3787.000000	64.934325 
3786.000000	64.930963 
3785.000000	64.937138 
3784.000000	64.949059 
3783.000000	64.962244 
3782.000000	64.972305 
3781.000000	64.976596 
3780.000000	64.973926 
3779.000000	64.965724 
3778.000000	64.955139 
3777.000000	64.946508 
3776.000000	64.943790 
3775.000000	64.949798 
3774.000000	64.965534 
3773.000000	64.989590 
3772.000000	65.018773 
3771.000000	65.048646 
3770.000000	65.074515 
3769.000000	65.092301 
3768.000000	65.099525 
3767.000000	65.095472 
3766.000000	65.081286 
3765.000000	65.059757 
3764.000000	65.034508 
3763.000000	65.009427 
3762.000000	64.988255 
3761.000000	64.973640 
3760.000000	64.967274 
3759.000000	64.969515 
3758.000000	64.979887 
3757.000000	64.996838 
3756.000000	65.018701 
3755.000000	65.043735 
3754.000000	65.070724 
3753.000000	65.099143 
3752.000000	65.128874 
3751.000000	65.160083 
3750.000000	65.192484 
3749.000000	65.225100 
3748.000000	65.255761 
3747.000000	65.281462 
3746.000000	65.298795 
3745.000000	65.304827 
3744.000000	65.298175 
3743.000000	65.279722 
3742.000000	65.252947 
3741.000000	65.223336 
3740.000000	65.197372 
3739.000000	65.180897 
3738.000000	65.177679 
3737.000000	65.188384 
3736.000000	65.210080 
3735.000000	65.237116 
3734.000000	65.262508 
3733.000000	65.279746 
3732.000000	65.284466 
3731.000000	65.275549 
3730.000000	65.255212 
3729.000000	65.228295 
3728.000000	65.200495 
3727.000000	65.177369 
3726.000000	65.162563 
3725.000000	65.157294 
3724.000000	65.160107 
3723.000000	65.167641 
3722.000000	65.176177 
3721.000000	65.182256 
3720.000000	65.183687 
3719.000000	65.179896 
3718.000000	65.171813 
3717.000000	65.161252 
3716.000000	65.149998 
3715.000000	65.139675 
3714.000000	65.131282 
3713.000000	65.125250 
3712.000000	65.121507 
3711.000000	65.120005 
3710.000000	65.120744 
3709.000000	65.123748 
3708.000000	65.129089 
3707.000000	65.136456 
3706.000000	65.145206 
3705.000000	65.154337 
3704.000000	65.162515 
3703.000000	65.168595 
3702.000000	65.171384 
3701.000000	65.170192 
3700.000000	65.164589 
3699.000000	65.154623 
3698.000000	65.140438 
3697.000000	65.122270 
3696.000000	65.100288 
3695.000000	65.074825 
3694.000000	65.046906 
3693.000000	65.018177 
3692.000000	64.991021 
3691.000000	64.968323 
3690.000000	64.952945 
3689.000000	64.947080 
3688.000000	64.951467 
3687.000000	64.965105 
3686.000000	64.985179 
3685.000000	65.007734 
3684.000000	65.028429 
3683.000000	65.043735 
3682.000000	65.051841 
3681.000000	65.053081 
3680.000000	65.050005 
3679.000000	65.046215 
3678.000000	65.045547 
3677.000000	65.050435 
3676.000000	65.061306 
3675.000000	65.075922 
3674.000000	65.090179 
3673.000000	65.099024 
3672.000000	65.097975 
3671.000000	65.084409 
3670.000000	65.058612 
3669.000000	65.023779 
3668.000000	64.985299 
3667.000000	64.949703 
3666.000000	64.922928 
3665.000000	64.909291 
3664.000000	64.910507 
3663.000000	64.925599 
3662.000000	64.951467 
3661.000000	64.983725 
3660.000000	65.017724 
3659.000000	65.049624 
3658.000000	65.076971 
3657.000000	65.098953 
3656.000000	65.116000 
3655.000000	65.129399 
3654.000000	65.140461 
3653.000000	65.150523 
3652.000000	65.159988 
3651.000000	65.168881 
3650.000000	65.176391 
3649.000000	65.181589 
3648.000000	65.183424 
3647.000000	65.181398 
3646.000000	65.175437 
3645.000000	65.166139 
3644.000000	65.154409 
3643.000000	65.141654 
3642.000000	65.129184 
3641.000000	65.117907 
3640.000000	65.108132 
3639.000000	65.099668 
3638.000000	65.091800 
3637.000000	65.083694 
3636.000000	65.074872 
3635.000000	65.065288 
3634.000000	65.055441 
3633.000000	65.046358 
3632.000000	65.039134 
3631.000000	65.034770 
3630.000000	65.033602 
3629.000000	65.035223 
3628.000000	65.038228 
3627.000000	65.040802 
3626.000000	65.040922 
3625.000000	65.037369 
3624.000000	65.029740 
3623.000000	65.018820 
3622.000000	65.006422 
3621.000000	64.995145 
3620.000000	64.987587 
3619.000000	64.986014 
3618.000000	64.991903 
3617.000000	65.005373 
3616.000000	65.025568 
3615.000000	65.050196 
3614.000000	65.076398 
3613.000000	65.100979 
3612.000000	65.121054 
3611.000000	65.134429 
3610.000000	65.140008 
3609.000000	65.137934 
3608.000000	65.129446 
3607.000000	65.116596 
3606.000000	65.101790 
3605.000000	65.087366 
3604.000000	65.075325 
3603.000000	65.066671 
3602.000000	65.061569 
3601.000000	65.059566 
3600.000000	65.059876 
3599.000000	65.061664 
3598.000000	65.064239 
3597.000000	65.067195 
3596.000000	65.070462 
3595.000000	65.074062 
3594.000000	65.077996 
3593.000000	65.081667 
3592.000000	65.084576 
3591.000000	65.086102 
3590.000000	65.085840 
3589.000000	65.083765 
3588.000000	65.080332 
3587.000000	65.076375 
3586.000000	65.072774 
3585.000000	65.070247 
3584.000000	65.069222 
3583.000000	65.069580 
3582.000000	65.070939 
3581.000000	65.072798 
3580.000000	65.075135 
3579.000000	65.078449 
3578.000000	65.084028 
3577.000000	65.093421 
3576.000000	65.107917 
3575.000000	65.127897 
3574.000000	65.152525 
3573.000000	65.179371 
3572.000000	65.205144 
3571.000000	65.226054 
3570.000000	65.238714 
3569.000000	65.240859 
3568.000000	65.231895 
3567.000000	65.212798 
3566.000000	65.185976 
3565.000000	65.154647 
3564.000000	65.122199 
3563.000000	65.091681 
3562.000000	65.065312 
3561.000000	65.044403 
3560.000000	65.029621 
3559.000000	65.021276 
3558.000000	65.019369 
3557.000000	65.023922 
3556.000000	65.034770 
3555.000000	65.051627 
3554.000000	65.073657 
3553.000000	65.099835 
3552.000000	65.128493 
3551.000000	65.157437 
3550.000000	65.184020 
3549.000000	65.205121 
3548.000000	65.217638 
3547.000000	65.218734 
3546.000000	65.206575 
3545.000000	65.180802 
3544.000000	65.142917 
3543.000000	65.096449 
3542.000000	65.046191 
3541.000000	64.998006 
3540.000000	64.957237 
3539.000000	64.927959 
3538.000000	64.912104 
3537.000000	64.908909 
3536.000000	64.915609 
3535.000000	64.928102 
3534.000000	64.942145 
3533.000000	64.954280 
3532.000000	64.962768 
3531.000000	64.967703 
3530.000000	64.970493 
3529.000000	64.972662 
3528.000000	64.975309 
3527.000000	64.978265 
3526.000000	64.980602 
3525.000000	64.980888 
3524.000000	64.978194 
3523.000000	64.972662 
3522.000000	64.965581 
3521.000000	64.959168 
3520.000000	64.955902 
3519.000000	64.957642 
3518.000000	64.964842 
3517.000000	64.976429 
3516.000000	64.989638 
3515.000000	65.001392 
3514.000000	65.009117 
3513.000000	65.012001 
3512.000000	65.011000 
3511.000000	65.009284 
3510.000000	65.011239 
3509.000000	65.021276 
3508.000000	65.042805 
3507.000000	65.076613 
3506.000000	65.120530 
3505.000000	65.169405 
3504.000000	65.216660 
3503.000000	65.254950 
3502.000000	65.278172 
3501.000000	65.282726 
3500.000000	65.268468 
3499.000000	65.239095 
3498.000000	65.201568 
3497.000000	65.164899 
3496.000000	65.138125 
3495.000000	65.128874 
3494.000000	65.141463 
3493.000000	65.175986 
3492.000000	65.227818 
3491.000000	65.288829 
3490.000000	65.348410 
3489.000000	65.395355 
3488.000000	65.420317 
3487.000000	65.417385 
3486.000000	65.385627 
3485.000000	65.328907 
3484.000000	65.255594 
3483.000000	65.176820 
3482.000000	65.104484 
3481.000000	65.049052 
3480.000000	65.017724 
3479.000000	65.013599 
3478.000000	65.035295 
3477.000000	65.077614 
3476.000000	65.132856 
3475.000000	65.192484 
3474.000000	65.248632 
3473.000000	65.295147 
3472.000000	65.328574 
3471.000000	65.347814 
3470.000000	65.353751 
3469.000000	65.348148 
3468.000000	65.332937 
3467.000000	65.309309 
3466.000000	65.277934 
3465.000000	65.238785 
3464.000000	65.192055 
3463.000000	65.138316 
3462.000000	65.079641 
3461.000000	65.019416 
3460.000000	64.962339 
3459.000000	64.913392 
3458.000000	64.876914 
3457.000000	64.856052 
3456.000000	64.851737 
3455.000000	64.863061 
3454.000000	64.886760 
3453.000000	64.918613 
3452.000000	64.953756 
3451.000000	64.988160 
3450.000000	65.018916 
3449.000000	65.044784 
3448.000000	65.065765 
3447.000000	65.082979 
3446.000000	65.097761 
3445.000000	65.111041 
3444.000000	65.122842 
3443.000000	65.132164 
3442.000000	65.137267 
3441.000000	65.136122 
3440.000000	65.127182 
3439.000000	65.109944 
3438.000000	65.085554 
3437.000000	65.056324 
3436.000000	65.025901 
3435.000000	64.998292 
3434.000000	64.977335 
3433.000000	64.965581 
3432.000000	64.963650 
3431.000000	64.970803 
3430.000000	64.984416 
3429.000000	65.000629 
3428.000000	65.015292 
3427.000000	65.024733 
3426.000000	65.026569 
3425.000000	65.019774 
3424.000000	65.005183 
3423.000000	64.984798 
3422.000000	64.962005 
3421.000000	64.940476 
3420.000000	64.923787 
3419.000000	64.914536 
3418.000000	64.914441 
3417.000000	64.924097 
3416.000000	64.942741 
3415.000000	64.968585 
3414.000000	64.998888 
3413.000000	65.030646 
3412.000000	65.060639 
3411.000000	65.086245 
3410.000000	65.105772 
3409.000000	65.118885 
3408.000000	65.126395 
3407.000000	65.130209 
3406.000000	65.132808 
3405.000000	65.136551 
3404.000000	65.143513 
3403.000000	65.154647 
3402.000000	65.169835 
3401.000000	65.187644 
3400.000000	65.206289 
3399.000000	65.223240 
3398.000000	65.236210 
3397.000000	65.243244 
3396.000000	65.243148 
3395.000000	65.235185 
3394.000000	65.219235 
3393.000000	65.195918 
3392.000000	65.166306 
3391.000000	65.131974 
3390.000000	65.094923 
3389.000000	65.057706 
3388.000000	65.022945 
3387.000000	64.992952 
3386.000000	64.969229 
3385.000000	64.952468 
3384.000000	64.942312 
3383.000000	64.937639 
3382.000000	64.937019 
3381.000000	64.938712 
3380.000000	64.941620 
3379.000000	64.944911 
3378.000000	64.948415 
3377.000000	64.952111 
3376.000000	64.956092 
3375.000000	64.960289 
3374.000000	64.964509 
3373.000000	64.968323 
3372.000000	64.971065 
3371.000000	64.972400 
3370.000000	64.972162 
3369.000000	64.970588 
3368.000000	64.968276 
3367.000000	64.965963 
3366.000000	64.964580 
3365.000000	64.964866 
3364.000000	64.967536 
3363.000000	64.973235 
3362.000000	64.982628 
3361.000000	64.996242 
3360.000000	65.014386 
3359.000000	65.036964 
3358.000000	65.063309 
3357.000000	65.092182 
3356.000000	65.121483 
3355.000000	65.148830 
3354.000000	65.171837 
3353.000000	65.188407 
3352.000000	65.197014 
3351.000000	65.196776 
3350.000000	65.188097 
3349.000000	65.172100 
3348.000000	65.150547 
3347.000000	65.125489 
3346.000000	65.099167 
3345.000000	65.073585 
3344.000000	65.050578 
3343.000000	65.031456 
3342.000000	65.017175 
3341.000000	65.008258 
3340.000000	65.004920 
3339.000000	65.006661 
3338.000000	65.012502 
3337.000000	65.020608 
3336.000000	65.028572 
3335.000000	65.033626 
3334.000000	65.033006 
3333.000000	65.024518 
3332.000000	65.007424 
3331.000000	64.982461 
3330.000000	64.952278 
3329.000000	64.921140 
3328.000000	64.894294 
3327.000000	64.877057 
3326.000000	64.873576 
3325.000000	64.886260 
3324.000000	64.914965 
3323.000000	64.956855 
3322.000000	65.006971 
3321.000000	65.059232 
3320.000000	65.107464 
3319.000000	65.146470 
3318.000000	65.172886 
3317.000000	65.185260 
3316.000000	65.184235 
3315.000000	65.172100 
3314.000000	65.152072 
3313.000000	65.127563 
3312.000000	65.101742 
3311.000000	65.077257 
3310.000000	65.055871 
3309.000000	65.038561 
3308.000000	65.025568 
3307.000000	65.016746 
3306.000000	65.011739 
3305.000000	65.010237 
3304.000000	65.011787 
3303.000000	65.015935 
3302.000000	65.021944 
3301.000000	65.029168 
3300.000000	65.036559 
3299.000000	65.043306 
3298.000000	65.048527 
3297.000000	65.051722 
3296.000000	65.052962 
3295.000000	65.052819 
3294.000000	65.051937 
3293.000000	65.051078 
3292.000000	65.050911 
3291.000000	65.051817 
3290.000000	65.054011 
3289.000000	65.057158 
3288.000000	65.060734 
3287.000000	65.063881 
3286.000000	65.065717 
3285.000000	65.065336 
3284.000000	65.061950 
3283.000000	65.055084 
3282.000000	65.044593 
3281.000000	65.030860 
3280.000000	65.014743 
3279.000000	64.997458 
3278.000000	64.980363 
3277.000000	64.964771 
3276.000000	64.951872 
3275.000000	64.942669 
3274.000000	64.937901 
3273.000000	64.937925 
3272.000000	64.942955 
3271.000000	64.952969 
3270.000000	64.967870 
3269.000000	64.987134 
3268.000000	65.010046 
3267.000000	65.035820 
3266.000000	65.063357 
3265.000000	65.091419 
3264.000000	65.118432 
3263.000000	65.142965 
3262.000000	65.163660 
3261.000000	65.179395 
3260.000000	65.189385 
3259.000000	65.193343 
3258.000000	65.191316 
3257.000000	65.184044 
3256.000000	65.172719 
3255.000000	65.158581 
3254.000000	65.143156 
3253.000000	65.127873 
3252.000000	65.113949 
3251.000000	65.102028 
3250.000000	65.092563 
3249.000000	65.085458 
3248.000000	65.080356 
3247.000000	65.076565 
3246.000000	65.073299 
3245.000000	65.069675 
3244.000000	65.064787 
3243.000000	65.057659 
3242.000000	65.047383 
3241.000000	65.033388 
3240.000000	65.015387 
3239.000000	64.993977 
3238.000000	64.970040 
3237.000000	64.945387 
3236.000000	64.922285 
3235.000000	64.903235 
3234.000000	64.890241 
3233.000000	64.884757 
3232.000000	64.887237 
3231.000000	64.897060 
3230.000000	64.912486 
3229.000000	64.931321 
3228.000000	64.951086 
3227.000000	64.969658 
3226.000000	64.985728 
3225.000000	64.998769 
3224.000000	65.009236 
3223.000000	65.017962 
3222.000000	65.026068 
3221.000000	65.034437 
3220.000000	65.043497 
3219.000000	65.053391 
3218.000000	65.063667 
3217.000000	65.073633 
3216.000000	65.082383 
3215.000000	65.089416 
3214.000000	65.094327 
3213.000000	65.096879 
3212.000000	65.096902 
3211.000000	65.094447 
3210.000000	65.089368 
3209.000000	65.081453 
3208.000000	65.070629 
3207.000000	65.057158 
3206.000000	65.041947 
3205.000000	65.026545 
3204.000000	65.013122 
3203.000000	65.003967 
3202.000000	65.001106 
3201.000000	65.005803 
3200.000000	65.017795 
3199.000000	65.035223 
3198.000000	65.054869 
3197.000000	65.072894 
3196.000000	65.085291 
3195.000000	65.089058 
3194.000000	65.082907 
3193.000000	65.067911 
3192.000000	65.046811 
3191.000000	65.024089 
3190.000000	65.004515 
3189.000000	64.992690 
3188.000000	64.991736 
3187.000000	65.003013 
3186.000000	65.026068 
3185.000000	65.058636 
3184.000000	65.097594 
3183.000000	65.139126 
3182.000000	65.179324 
3181.000000	65.214538 
3180.000000	65.241789 
3179.000000	65.258741 
3178.000000	65.263867 
3177.000000	65.256619 
3176.000000	65.237545 
3175.000000	65.208101 
3174.000000	65.170693 
3173.000000	65.128469 
3172.000000	65.085005 
3171.000000	65.043735 
3170.000000	65.007400 
3169.000000	64.977693 
3168.000000	64.955258 
3167.000000	64.939713 
3166.000000	64.930129 
3165.000000	64.925050 
3164.000000	64.923357 
3163.000000	64.924311 
3162.000000	64.927959 
3161.000000	64.934587 
3160.000000	64.945197 
3159.000000	64.960312 
3158.000000	64.980387 
3157.000000	65.004968 
3156.000000	65.032696 
3155.000000	65.061426 
3154.000000	65.088486 
3153.000000	65.111255 
3152.000000	65.127587 
3151.000000	65.136361 
3150.000000	65.137887 
3149.000000	65.133643 
3148.000000	65.126132 
3147.000000	65.118265 
3146.000000	65.112566 
3145.000000	65.110540 
3144.000000	65.112137 
3143.000000	65.115499 
3142.000000	65.117812 
3141.000000	65.115952 
3140.000000	65.107536 
3139.000000	65.091586 
3138.000000	65.069270 
3137.000000	65.043425 
3136.000000	65.017867 
3135.000000	64.996480 
3134.000000	64.981937 
3133.000000	64.975500 
3132.000000	64.976501 
3131.000000	64.983105 
3130.000000	64.992737 
3129.000000	65.003490 
3128.000000	65.014410 
3127.000000	65.025973 
3126.000000	65.039634 
3125.000000	65.056872 
3124.000000	65.078449 
3123.000000	65.103650 
3122.000000	65.129852 
3121.000000	65.153479 
3120.000000	65.170621 
3119.000000	65.178346 
3118.000000	65.175271 
3117.000000	65.161967 
3116.000000	65.140914 
3115.000000	65.115618 
3114.000000	65.089941 
3113.000000	65.067243 
3112.000000	65.049529 
3111.000000	65.037822 
3110.000000	65.031838 
3109.000000	65.030574 
3108.000000	65.032625 
3107.000000	65.036845 
3106.000000	65.042376 
3105.000000	65.048432 
3104.000000	65.054678 
3103.000000	65.060687 
3102.000000	65.066099 
3101.000000	65.070772 
3100.000000	65.074324 
3099.000000	65.076613 
3098.000000	65.077018 
3097.000000	65.074896 
3096.000000	65.068984 
3095.000000	65.058040 
3094.000000	65.040969 
3093.000000	65.017580 
3092.000000	64.988732 
3091.000000	64.956569 
3090.000000	64.924359 
3089.000000	64.896059 
3088.000000	64.875316 
3087.000000	64.864993 
3086.000000	64.866304 
3085.000000	64.878726 
3084.000000	64.900159 
3083.000000	64.927291 
3082.000000	64.956235 
3081.000000	64.983129 
3080.000000	65.004968 
3079.000000	65.019798 
3078.000000	65.026712 
3077.000000	65.025734 
3076.000000	65.017580 
3075.000000	65.003561 
3074.000000	64.985466 
3073.000000	64.965391 
3072.000000	64.945864 
3071.000000	64.929246 
3070.000000	64.917540 
3069.000000	64.912056 
3068.000000	64.913225 
3067.000000	64.920306 
3066.000000	64.931535 
3065.000000	64.944505 
3064.000000	64.956688 
3063.000000	64.965939 
3062.000000	64.971041 
3061.000000	64.971923 
3060.000000	64.969539 
3059.000000	64.965677 
3058.000000	64.962339 
3057.000000	64.961338 
3056.000000	64.963722 
3055.000000	64.969658 
3054.000000	64.978289 
3053.000000	64.988183 
3052.000000	64.997625 
3051.000000	65.004944 
3050.000000	65.009021 
3049.000000	65.009260 
3048.000000	65.006089 
3047.000000	65.000510 
3046.000000	64.994215 
3045.000000	64.989018 
3044.000000	64.986610 
3043.000000	64.988327 
3042.000000	64.994692 
3041.000000	65.005397 
3040.000000	65.019249 
3039.000000	65.034437 
3038.000000	65.048861 
3037.000000	65.060567 
3036.000000	65.068101 
3035.000000	65.070843 
3034.000000	65.069127 
3033.000000	65.064144 
3032.000000	65.057706 
3031.000000	65.051651 
3030.000000	65.047526 
3029.000000	65.046191 
3028.000000	65.047812 
3027.000000	65.051746 
3026.000000	65.057182 
3025.000000	65.063047 
3024.000000	65.068721 
3023.000000	65.073776 
3022.000000	65.078139 
3021.000000	65.081882 
3020.000000	65.085077 
3019.000000	65.087461 
3018.000000	65.088272 
3017.000000	65.086507 
3016.000000	65.081262 
3015.000000	65.072107 
3014.000000	65.059375 
3013.000000	65.044426 
3012.000000	65.029406 
3011.000000	65.016937 
3010.000000	65.009522 
3009.000000	65.008902 
3008.000000	65.015840 
3007.000000	65.029501 
3006.000000	65.047860 
3005.000000	65.068030 
3004.000000	65.086984 
3003.000000	65.102124 
3002.000000	65.111851 
3001.000000	65.115761 
3000.000000	65.114688 
2999.000000	65.110111 
2998.000000	65.103745 
2997.000000	65.096926 
2996.000000	65.090298 
2995.000000	65.083789 
2994.000000	65.076637 
2993.000000	65.068101 
2992.000000	65.057659 
2991.000000	65.045499 
2990.000000	65.032482 
2989.000000	65.019941 
2988.000000	65.009284 
2987.000000	65.001606 
2986.000000	64.997196 
2985.000000	64.995551 
2984.000000	64.995312 
2983.000000	64.994835 
2982.000000	64.992713 
2981.000000	64.988183 
2980.000000	64.981532 
2979.000000	64.974021 
2978.000000	64.967560 
2977.000000	64.964127 
2976.000000	64.965176 
2975.000000	64.971065 
2974.000000	64.980840 
2973.000000	64.992499 
2972.000000	65.003204 
2971.000000	65.009856 
2970.000000	65.010190 
2969.000000	65.002989 
2968.000000	64.988565 
2967.000000	64.968705 
2966.000000	64.946341 
2965.000000	64.924907 
2964.000000	64.907598 
2963.000000	64.896535 
2962.000000	64.892292 
2961.000000	64.893770 
2960.000000	64.898729 
2959.000000	64.904284 
2958.000000	64.907884 
2957.000000	64.907884 
2956.000000	64.903926 
2955.000000	64.897155 
2954.000000	64.889669 
2953.000000	64.883971 
2952.000000	64.882016 
2951.000000	64.884781 
2950.000000	64.891648 
2949.000000	64.900851 
2948.000000	64.909768 
2947.000000	64.915657 
2946.000000	64.916324 
2945.000000	64.910769 
2944.000000	64.899301 
2943.000000	64.883470 
2942.000000	64.865851 
2941.000000	64.849042 
2940.000000	64.835739 
2939.000000	64.827799 
2938.000000	64.826321 
2937.000000	64.831495 
2936.000000	64.842295 
2935.000000	64.856934 
2934.000000	64.872884 
2933.000000	64.887356 
2932.000000	64.897370 
2931.000000	64.899992 
2930.000000	64.893102 
2929.000000	64.875626 
2928.000000	64.848256 
2927.000000	64.813375 
2926.000000	64.774894 
2925.000000	64.737462 
2924.000000	64.705681 
2923.000000	64.683008 
2922.000000	64.671206 
2921.000000	64.669823 
2920.000000	64.676809 
2919.000000	64.688801 
2918.000000	64.702129 
2917.000000	64.713525 
2916.000000	64.720582 
2915.000000	64.722442 
2914.000000	64.719104 
2913.000000	64.712190 
2912.000000	64.703845 
2911.000000	64.696955 
2910.000000	64.694309 
2909.000000	64.698338 
2908.000000	64.710545 
2907.000000	64.731168 
2906.000000	64.759206 
2905.000000	64.792108 
2904.000000	64.826345 
2903.000000	64.857792 
2902.000000	64.882612 
2901.000000	64.898085 
2900.000000	64.902973 
2899.000000	64.898157 
2898.000000	64.885950 
2897.000000	64.869570 
2896.000000	64.852356 
2895.000000	64.836907 
2894.000000	64.824724 
2893.000000	64.816331 
2892.000000	64.811325 
2891.000000	64.809107 
2890.000000	64.809226 
2889.000000	64.811468 
2888.000000	64.815998 
2887.000000	64.822912 
2886.000000	64.832353 
2885.000000	64.843821 
2884.000000	64.856600 
2883.000000	64.869403 
2882.000000	64.881181 
2881.000000	64.891314 
2880.000000	64.899969 
2879.000000	64.908170 
2878.000000	64.917516 
2877.000000	64.929556 
2876.000000	64.945578 
2875.000000	64.965796 
2874.000000	64.989495 
2873.000000	65.014791 
2872.000000	65.039229 
2871.000000	65.059828 
2870.000000	65.073823 
2869.000000	65.078997 
2868.000000	65.073966 
2867.000000	65.058565 
2866.000000	65.033817 
2865.000000	65.002036 
2864.000000	64.966702 
2863.000000	64.931726 
2862.000000	64.901185 
2861.000000	64.878392 
2860.000000	64.865684 
2859.000000	64.863777 
2858.000000	64.871859 
2857.000000	64.887809 
2856.000000	64.908409 
2855.000000	64.930510 
2854.000000	64.951419 
2853.000000	64.969635 
2852.000000	64.984703 
2851.000000	64.997458 
2850.000000	65.009403 
2849.000000	65.021991 
2848.000000	65.036106 
2847.000000	65.051865 
2846.000000	65.068435 
2845.000000	65.084385 
2844.000000	65.097904 
2843.000000	65.107512 
2842.000000	65.112304 
2841.000000	65.112257 
2840.000000	65.108060 
2839.000000	65.101003 
2838.000000	65.092730 
2837.000000	65.084600 
2836.000000	65.077805 
2835.000000	65.073108 
2834.000000	65.070605 
2833.000000	65.070390 
2832.000000	65.072131 
2831.000000	65.075469 
2830.000000	65.079832 
2829.000000	65.084671 
2828.000000	65.089297 
2827.000000	65.092897 
2826.000000	65.094733 
2825.000000	65.094089 
2824.000000	65.090751 
2823.000000	65.084862 
2822.000000	65.077257 
2821.000000	65.069007 
2820.000000	65.061521 
2819.000000	65.056228 
2818.000000	65.054059 
2817.000000	65.055513 
2816.000000	65.060400 
2815.000000	65.067958 
2814.000000	65.077114 
2813.000000	65.086412 
2812.000000	65.094661 
2811.000000	65.100812 
2810.000000	65.104079 
2809.000000	65.104103 
2808.000000	65.100884 
2807.000000	65.094709 
2806.000000	65.086150 
2805.000000	65.076041 
2804.000000	65.065431 
2803.000000	65.055489 
2802.000000	65.047430 
2801.000000	65.042257 
2800.000000	65.040564 
2799.000000	65.042567 
2798.000000	65.047740 
2797.000000	65.055108 
2796.000000	65.063309 
2795.000000	65.071082 
2794.000000	65.077376 
2793.000000	65.081667 
2792.000000	65.084195 
2791.000000	65.085792 
2790.000000	65.087795 
2789.000000	65.091586 
2788.000000	65.098381 
2787.000000	65.108680 
2786.000000	65.122246 
2785.000000	65.138173 
2784.000000	65.155100 
2783.000000	65.171360 
2782.000000	65.185499 
2781.000000	65.196585 
2780.000000	65.204143 
2779.000000	65.208387 
2778.000000	65.209722 
2777.000000	65.208697 
2776.000000	65.205645 
2775.000000	65.200567 
2774.000000	65.193414 
2773.000000	65.184307 
2772.000000	65.173768 
2771.000000	65.162754 
2770.000000	65.152621 
2769.000000	65.144968 
2768.000000	65.141153 
2767.000000	65.141987 
2766.000000	65.147471 
2765.000000	65.156602 
2764.000000	65.167665 
2763.000000	65.178298 
2762.000000	65.186166 
2761.000000	65.189313 
2760.000000	65.186429 
2759.000000	65.177130 
2758.000000	65.161895 
2757.000000	65.142107 
2756.000000	65.119719 
2755.000000	65.096998 
2754.000000	65.076327 
2753.000000	65.059614 
2752.000000	65.048217 
2751.000000	65.042591 
2750.000000	65.042328 
2749.000000	65.046167 
2748.000000	65.052056 
2747.000000	65.058159 
2746.000000	65.063095 
2745.000000	65.066385 
2744.000000	65.068364 
2743.000000	65.070104 
2742.000000	65.072846 
2741.000000	65.077662 
2740.000000	65.084910 
2739.000000	65.094065 
2738.000000	65.103936 
2737.000000	65.113210 
2736.000000	65.120673 
2735.000000	65.125751 
2734.000000	65.128612 
2733.000000	65.130352 
2732.000000	65.132594 
2731.000000	65.136766 
2730.000000	65.143990 
2729.000000	65.154552 
2728.000000	65.167832 
2727.000000	65.182971 
2726.000000	65.198421 
2725.000000	65.212893 
2724.000000	65.225219 
2723.000000	65.234732 
2722.000000	65.240812 
2721.000000	65.243196 
2720.000000	65.241575 
2719.000000	65.235638 
2718.000000	65.225315 
2717.000000	65.210771 
2716.000000	65.192723 
2715.000000	65.172648 
2714.000000	65.152454 
2713.000000	65.134596 
2712.000000	65.121531 
2711.000000	65.115451 
2710.000000	65.117835 
2709.000000	65.129113 
2708.000000	65.148830 
2707.000000	65.175390 
2706.000000	65.206718 
2705.000000	65.239858 
2704.000000	65.271568 
2703.000000	65.298461 
2702.000000	65.317416 
2701.000000	65.325760 
2700.000000	65.322017 
2699.000000	65.305924 
2698.000000	65.278983 
2697.000000	65.244030 
2696.000000	65.205192 
2695.000000	65.166974 
2694.000000	65.133666 
2693.000000	65.108466 
2692.000000	65.092945 
2691.000000	65.086841 
2690.000000	65.088200 
2689.000000	65.094065 
2688.000000	65.101242 
2687.000000	65.107154 
2686.000000	65.110397 
2685.000000	65.110969 
2684.000000	65.110278 
2683.000000	65.110373 
2682.000000	65.113496 
2681.000000	65.121150 
2680.000000	65.133881 
2679.000000	65.151023 
2678.000000	65.170574 
2677.000000	65.190100 
2676.000000	65.207052 
2675.000000	65.219187 
2674.000000	65.225195 
2673.000000	65.224885 
2672.000000	65.219092 
2671.000000	65.209460 
2670.000000	65.198135 
2669.000000	65.187501 
2668.000000	65.179538 
2667.000000	65.175771 
2666.000000	65.176677 
2665.000000	65.181684 
2664.000000	65.189242 
2663.000000	65.197372 
2662.000000	65.203928 
2661.000000	65.206837 
2660.000000	65.204906 
2659.000000	65.197849 
2658.000000	65.186238 
2657.000000	65.171408 
2656.000000	65.154933 
2655.000000	65.138173 
2654.000000	65.122056 
2653.000000	65.107083 
2652.000000	65.093088 
2651.000000	65.079712 
2650.000000	65.066695 
2649.000000	65.054154 
2648.000000	65.042471 
2647.000000	65.032672 
2646.000000	65.025854 
2645.000000	65.023326 
2644.000000	65.025591 
2643.000000	65.033149 
2642.000000	65.045690 
2641.000000	65.062832 
2640.000000	65.083813 
2639.000000	65.107893 
2638.000000	65.134215 
2637.000000	65.161776 
2636.000000	65.189456 
2635.000000	65.215754 
2634.000000	65.238714 
2633.000000	65.256261 
2632.000000	65.266489 
2631.000000	65.267825 
2630.000000	65.259623 
2629.000000	65.242481 
2628.000000	65.218114 
2627.000000	65.189385 
2626.000000	65.159606 
2625.000000	65.132427 
2624.000000	65.110588 
2623.000000	65.095877 
2622.000000	65.088605 
2621.000000	65.087652 
2620.000000	65.091085 
2619.000000	65.096449 
2618.000000	65.101552 
2617.000000	65.104746 
2616.000000	65.105533 
2615.000000	65.104293 
2614.000000	65.102124 
2613.000000	65.100431 
2612.000000	65.100383 
2611.000000	65.102553 
2610.000000	65.107011 
2609.000000	65.113186 
2608.000000	65.120363 
2607.000000	65.127849 
2606.000000	65.135264 
2605.000000	65.142631 
2604.000000	65.150237 
2603.000000	65.158486 
2602.000000	65.167737 
2601.000000	65.177798 
2600.000000	65.188360 
2599.000000	65.198516 
2598.000000	65.207505 
2597.000000	65.214252 
2596.000000	65.217804 
2595.000000	65.217185 
2594.000000	65.211796 
2593.000000	65.201210 
2592.000000	65.185332 
2591.000000	65.164566 
2590.000000	65.139865 
2589.000000	65.113019 
2588.000000	65.086317 
2587.000000	65.062451 
2586.000000	65.044069 
2585.000000	65.033459 
2584.000000	65.031909 
2583.000000	65.039610 
2582.000000	65.055322 
2581.000000	65.077066 
2580.000000	65.102148 
2579.000000	65.127825 
2578.000000	65.151596 
2577.000000	65.171670 
2576.000000	65.187025 
2575.000000	65.197134 
2574.000000	65.202045 
2573.000000	65.202260 
2572.000000	65.198636 
2571.000000	65.192174 
2570.000000	65.184187 
2569.000000	65.176010 
2568.000000	65.168857 
2567.000000	65.163874 
2566.000000	65.161800 
2565.000000	65.162968 
2564.000000	65.167236 
2563.000000	65.174007 
2562.000000	65.182447 
2561.000000	65.191411 
2560.000000	65.199995 
2559.000000	65.207362 
2558.000000	65.212893 
2557.000000	65.216159 
2556.000000	65.216827 
2555.000000	65.214729 
2554.000000	65.209555 
2553.000000	65.201091 
2552.000000	65.189242 
2551.000000	65.174269 
2550.000000	65.157103 
2549.000000	65.139198 
2548.000000	65.122437 
2547.000000	65.108823 
2546.000000	65.100193 
2545.000000	65.097713 
2544.000000	65.101480 
2543.000000	65.110635 
2542.000000	65.123510 
2541.000000	65.138196 
2540.000000	65.152692 
2539.000000	65.165376 
2538.000000	65.175151 
2537.000000	65.181708 
2536.000000	65.185117 
2535.000000	65.185880 
2534.000000	65.184807 
2533.000000	65.182828 
2532.000000	65.180969 
2531.000000	65.180110 
2530.000000	65.180897 
2529.000000	65.183568 
2528.000000	65.187978 
2527.000000	65.193581 
2526.000000	65.199422 
2525.000000	65.204167 
2524.000000	65.206527 
2523.000000	65.205430 
2522.000000	65.200138 
2521.000000	65.190649 
2520.000000	65.177607 
2519.000000	65.162539 
2518.000000	65.147399 
2517.000000	65.134286 
2516.000000	65.124773 
2515.000000	65.119719 
2514.000000	65.118885 
2513.000000	65.120840 
2512.000000	65.123653 
2511.000000	65.125179 
2510.000000	65.123844 
2509.000000	65.119051 
2508.000000	65.111494 
2507.000000	65.102958 
2506.000000	65.096020 
2505.000000	65.093183 
2504.000000	65.096259 
2503.000000	65.105772 
2502.000000	65.120697 
2501.000000	65.138888 
2500.000000	65.157389 
2499.000000	65.173268 
2498.000000	65.184354 
2497.000000	65.189695 
2496.000000	65.189647 
2495.000000	65.185499 
2494.000000	65.178942 
2493.000000	65.171384 
2492.000000	65.163707 
2491.000000	65.155720 
2490.000000	65.146589 
2489.000000	65.134954 
2488.000000	65.119695 
2487.000000	65.100550 
2486.000000	65.078210 
2485.000000	65.054631 
2484.000000	65.032672 
2483.000000	65.015673 
2482.000000	65.006422 
2481.000000	65.006875 
2480.000000	65.017580 
2479.000000	65.037536 
2478.000000	65.064287 
2477.000000	65.094637 
2476.000000	65.125107 
2475.000000	65.152692 
2474.000000	65.175271 
2473.000000	65.191817 
2472.000000	65.202307 
2471.000000	65.207576 
2470.000000	65.208625 
2469.000000	65.206360 
2468.000000	65.201282 
2467.000000	65.193510 
2466.000000	65.182876 
2465.000000	65.169405 
2464.000000	65.153288 
2463.000000	65.135526 
2462.000000	65.117454 
2461.000000	65.100646 
2460.000000	65.086531 
2459.000000	65.075993 
2458.000000	65.069222 
2457.000000	65.065813 
2456.000000	65.064859 
2455.000000	65.065383 
2454.000000	65.066719 
2453.000000	65.068531 
2452.000000	65.071058 
2451.000000	65.074825 
2450.000000	65.080332 
2449.000000	65.087771 
2448.000000	65.096879 
2447.000000	65.106725 
2446.000000	65.116214 
2445.000000	65.124368 
2444.000000	65.130496 
2443.000000	65.134501 
2442.000000	65.137076 
2441.000000	65.139412 
2440.000000	65.142869 
2439.000000	65.148544 
2438.000000	65.157103 
2437.000000	65.168571 
2436.000000	65.182352 
2435.000000	65.197396 
2434.000000	65.212559 
2433.000000	65.226721 
2432.000000	65.239334 
2431.000000	65.250110 
2430.000000	65.258932 
2429.000000	65.265798 
2428.000000	65.270757 
2427.000000	65.273618 
2426.000000	65.273928 
2425.000000	65.271306 
2424.000000	65.265417 
2423.000000	65.256309 
2422.000000	65.244579 
2421.000000	65.231084 
2420.000000	65.217256 
2419.000000	65.204381 
2418.000000	65.193700 
2417.000000	65.186095 
2416.000000	65.181660 
2415.000000	65.179824 
2414.000000	65.179491 
2413.000000	65.179133 
2412.000000	65.177035 
2411.000000	65.171885 
2410.000000	65.163040 
2409.000000	65.150547 
2408.000000	65.135264 
2407.000000	65.118741 
2406.000000	65.102791 
2405.000000	65.089273 
2404.000000	65.079784 
2403.000000	65.075373 
2402.000000	65.076351 
2401.000000	65.082287 
2400.000000	65.092110 
2399.000000	65.104293 
2398.000000	65.117144 
2397.000000	65.128946 
2396.000000	65.138554 
2395.000000	65.145230 
2394.000000	65.149092 
2393.000000	65.150690 
2392.000000	65.151071 
2391.000000	65.151190 
2390.000000	65.152072 
2389.000000	65.154170 
2388.000000	65.157485 
2387.000000	65.161395 
2386.000000	65.165138 
2385.000000	65.167760 
2384.000000	65.168619 
2383.000000	65.167498 
2382.000000	65.164542 
2381.000000	65.160441 
2380.000000	65.155982 
2379.000000	65.152001 
2378.000000	65.149188 
2377.000000	65.147781 
2376.000000	65.147757 
2375.000000	65.148663 
2374.000000	65.149998 
2373.000000	65.151286 
2372.000000	65.152263 
2371.000000	65.152978 
2370.000000	65.153527 
2369.000000	65.154290 
2368.000000	65.155649 
2367.000000	65.157866 
2366.000000	65.161132 
2365.000000	65.165495 
2364.000000	65.170979 
2363.000000	65.177536 
2362.000000	65.185070 
2361.000000	65.193271 
2360.000000	65.201711 
2359.000000	65.209627 
2358.000000	65.216159 
2357.000000	65.220355 
2356.000000	65.221309 
2355.000000	65.218687 
2354.000000	65.212416 
2353.000000	65.203189 
2352.000000	65.192055 
2351.000000	65.180349 
2350.000000	65.169334 
2349.000000	65.159988 
2348.000000	65.152764 
2347.000000	65.147614 
2346.000000	65.144348 
2345.000000	65.142512 
2344.000000	65.141916 
2343.000000	65.142655 
2342.000000	65.145134 
2341.000000	65.149641 
2340.000000	65.156388 
2339.000000	65.165162 
2338.000000	65.175032 
2337.000000	65.184617 
2336.000000	65.192341 
2335.000000	65.196704 
2334.000000	65.196776 
2333.000000	65.192317 
2332.000000	65.183949 
2331.000000	65.172958 
2330.000000	65.161108 
2329.000000	65.150189 
2328.000000	65.141487 
2327.000000	65.135741 
2326.000000	65.133070 
2325.000000	65.132832 
2324.000000	65.134143 
2323.000000	65.136075 
2322.000000	65.137863 
2321.000000	65.139126 
2320.000000	65.139627 
2319.000000	65.139746 
2318.000000	65.139889 
2317.000000	65.140652 
2316.000000	65.142488 
2315.000000	65.145993 
2314.000000	65.151643 
2313.000000	65.159869 
2312.000000	65.170884 
2311.000000	65.184807 
2310.000000	65.201520 
2309.000000	65.220475 
2308.000000	65.240716 
2307.000000	65.261030 
2306.000000	65.279936 
2305.000000	65.295886 
2304.000000	65.307402 
2303.000000	65.313482 
2302.000000	65.313458 
2301.000000	65.307378 
2300.000000	65.295648 
2299.000000	65.279269 
2298.000000	65.259432 
2297.000000	65.237641 
2296.000000	65.215420 
2295.000000	65.194272 
2294.000000	65.175390 
2293.000000	65.159749 
2292.000000	65.148043 
2291.000000	65.140438 
2290.000000	65.136766 
2289.000000	65.136194 
2288.000000	65.137648 
2287.000000	65.139770 
2286.000000	65.141129 
2285.000000	65.140414 
2284.000000	65.136814 
2283.000000	65.129971 
2282.000000	65.120148 
2281.000000	65.108251 
2280.000000	65.095520 
2279.000000	65.083527 
2278.000000	65.073704 
2277.000000	65.067148 
2276.000000	65.064644 
2275.000000	65.066504 
2274.000000	65.072488 
2273.000000	65.081906 
2272.000000	65.093970 
2271.000000	65.107822 
2270.000000	65.122509 
2269.000000	65.137219 
2268.000000	65.151166 
2267.000000	65.163516 
2266.000000	65.173625 
2265.000000	65.180850 
2264.000000	65.184712 
2263.000000	65.184950 
2262.000000	65.181899 
2261.000000	65.176296 
2260.000000	65.169453 
2259.000000	65.162920 
2258.000000	65.158557 
2257.000000	65.157985 
2256.000000	65.162467 
2255.000000	65.172505 
2254.000000	65.187740 
2253.000000	65.206766 
2252.000000	65.227413 
2251.000000	65.247201 
2250.000000	65.263438 
2249.000000	65.273880 
2248.000000	65.276932 
2247.000000	65.271973 
2246.000000	65.259456 
2245.000000	65.240812 
2244.000000	65.217781 
2243.000000	65.192532 
2242.000000	65.167140 
2241.000000	65.143442 
2240.000000	65.122604 
2239.000000	65.105342 
2238.000000	65.091872 
2237.000000	65.082001 
2236.000000	65.075397 
2235.000000	65.071463 
2234.000000	65.069746 
2233.000000	65.069627 
2232.000000	65.070581 
2231.000000	65.072011 
2230.000000	65.073275 
2229.000000	65.073752 
2228.000000	65.073013 
2227.000000	65.070867 
2226.000000	65.067553 
2225.000000	65.063738 
2224.000000	65.060615 
2223.000000	65.059375 
2222.000000	65.061473 
2221.000000	65.067815 
2220.000000	65.078711 
2219.000000	65.093588 
2218.000000	65.111041 
2217.000000	65.129041 
2216.000000	65.145349 
2215.000000	65.157866 
2214.000000	65.165376 
2213.000000	65.167784 
2212.000000	65.166163 
2211.000000	65.162420 
2210.000000	65.158891 
2209.000000	65.157699 
2208.000000	65.160417 
2207.000000	65.167617 
2206.000000	65.178656 
2205.000000	65.192031 
2204.000000	65.205812 
2203.000000	65.217995 
2202.000000	65.226936 
2201.000000	65.231680 
2200.000000	65.231943 
2199.000000	65.227961 
2198.000000	65.220308 
2197.000000	65.209746 
2196.000000	65.197038 
2195.000000	65.182924 
2194.000000	65.168094 
2193.000000	65.153288 
2192.000000	65.139389 
2191.000000	65.126919 
2190.000000	65.116429 
2189.000000	65.107917 
2188.000000	65.101242 
2187.000000	65.096187 
2186.000000	65.092563 
2185.000000	65.090274 
2184.000000	65.089464 
2183.000000	65.090489 
2182.000000	65.093827 
2181.000000	65.099620 
2180.000000	65.107941 
2179.000000	65.118455 
2178.000000	65.130615 
2177.000000	65.143680 
2176.000000	65.156626 
2175.000000	65.168547 
2174.000000	65.178561 
2173.000000	65.186023 
2172.000000	65.190672 
2171.000000	65.192484 
2170.000000	65.191864 
2169.000000	65.189266 
2168.000000	65.185284 
2167.000000	65.180301 
2166.000000	65.174579 
2165.000000	65.168285 
2164.000000	65.161538 
2163.000000	65.154600 
2162.000000	65.148019 
2161.000000	65.142536 
2160.000000	65.139174 
2159.000000	65.139007 
2158.000000	65.142822 
2157.000000	65.151071 
2156.000000	65.163516 
2155.000000	65.179252 
2154.000000	65.196681 
2153.000000	65.213990 
2152.000000	65.229392 
2151.000000	65.241575 
2150.000000	65.249800 
2149.000000	65.254211 
2148.000000	65.255713 
2147.000000	65.255784 
2146.000000	65.255975 
2145.000000	65.257716 
2144.000000	65.261840 
2143.000000	65.268564 
2142.000000	65.277194 
2141.000000	65.286397 
2140.000000	65.294265 
2139.000000	65.298914 
2138.000000	65.298771 
2137.000000	65.292787 
2136.000000	65.280866 
2135.000000	65.263795 
2134.000000	65.243101 
2133.000000	65.220808 
2132.000000	65.199017 
2131.000000	65.179610 
2130.000000	65.163969 
2129.000000	65.152883 
2128.000000	65.146589 
2127.000000	65.144634 
2126.000000	65.146207 
2125.000000	65.150356 
2124.000000	65.155982 
2123.000000	65.162110 
2122.000000	65.168023 
2121.000000	65.173339 
2120.000000	65.178012 
2119.000000	65.182280 
2118.000000	65.186595 
2117.000000	65.191459 
2116.000000	65.197396 
2115.000000	65.204572 
2114.000000	65.212965 
2113.000000	65.221929 
2112.000000	65.230655 
2111.000000	65.237903 
2110.000000	65.242505 
2109.000000	65.243387 
2108.000000	65.239858 
2107.000000	65.231680 
2106.000000	65.219068 
2105.000000	65.202593 
2104.000000	65.183305 
2103.000000	65.162515 
2102.000000	65.141701 
2101.000000	65.122509 
2100.000000	65.106368 
2099.000000	65.094661 
2098.000000	65.088486 
2097.000000	65.088605 
2096.000000	65.095257 
2095.000000	65.108394 
2094.000000	65.127658 
2093.000000	65.152287 
2092.000000	65.181064 
2091.000000	65.212297 
2090.000000	65.243887 
2089.000000	65.273284 
2088.000000	65.297913 
2087.000000	65.315175 
2086.000000	65.323424 
2085.000000	65.322065 
2084.000000	65.311884 
2083.000000	65.295338 
2082.000000	65.276026 
2081.000000	65.258193 
2080.000000	65.245795 
2079.000000	65.241765 
2078.000000	65.246963 
2077.000000	65.260577 
2076.000000	65.279674 
2075.000000	65.300321 
2074.000000	65.318179 
2073.000000	65.329790 
2072.000000	65.332841 
2071.000000	65.326499 
2070.000000	65.311408 
2069.000000	65.289235 
2068.000000	65.262317 
2067.000000	65.232920 
2066.000000	65.203118 
2065.000000	65.174627 
2064.000000	65.148639 
2063.000000	65.126252 
2062.000000	65.108227 
2061.000000	65.095162 
2060.000000	65.087461 
2059.000000	65.085363 
2058.000000	65.088343 
2057.000000	65.095686 
2056.000000	65.106153 
2055.000000	65.118885 
2054.000000	65.132927 
2053.000000	65.147781 
2052.000000	65.163302 
2051.000000	65.179681 
2050.000000	65.197110 
2049.000000	65.215539 
2048.000000	65.234518 
2047.000000	65.253138 
2046.000000	65.270256 
2045.000000	65.284538 
2044.000000	65.295076 
2043.000000	65.301322 
2042.000000	65.303540 
2041.000000	65.302610 
2040.000000	65.299916 
2039.000000	65.296816 
2038.000000	65.294599 
2037.000000	65.293955 
2036.000000	65.294647 
2035.000000	65.295958 
2034.000000	65.296649 
2033.000000	65.295362 
2032.000000	65.290832 
2031.000000	65.282320 
2030.000000	65.269875 
2029.000000	65.253996 
2028.000000	65.235757 
2027.000000	65.216398 
2026.000000	65.197324 
2025.000000	65.179586 
2024.000000	65.164065 
2023.000000	65.151095 
2022.000000	65.140843 
2021.000000	65.133404 
2020.000000	65.128731 
2019.000000	65.126729 
2018.000000	65.127396 
2017.000000	65.130734 
2016.000000	65.136623 
2015.000000	65.144634 
2014.000000	65.154147 
2013.000000	65.164256 
2012.000000	65.173840 
2011.000000	65.181756 
2010.000000	65.187025 
2009.000000	65.189099 
2008.000000	65.188026 
2007.000000	65.184354 
2006.000000	65.179157 
2005.000000	65.173912 
2004.000000	65.170001 
2003.000000	65.168619 
2002.000000	65.170311 
2001.000000	65.174984 
2000.000000	65.181851 
1999.000000	65.189743 
1998.000000	65.197348 
1997.000000	65.203547 
1996.000000	65.207815 
1995.000000	65.210056 
1994.000000	65.210628 
1993.000000	65.210199 
1992.000000	65.209484 
1991.000000	65.209150 
1990.000000	65.209436 
1989.000000	65.210270 
1988.000000	65.211510 
1987.000000	65.212702 
1986.000000	65.213465 
1985.000000	65.213537 
1984.000000	65.212655 
1983.000000	65.210747 
1982.000000	65.207767 
1981.000000	65.203547 
1980.000000	65.197849 
1979.000000	65.190601 
1978.000000	65.181946 
1977.000000	65.172123 
1976.000000	65.161657 
1975.000000	65.151429 
1974.000000	65.142369 
1973.000000	65.135312 
1972.000000	65.131163 
1971.000000	65.130257 
1970.000000	65.132951 
1969.000000	65.139102 
1968.000000	65.148377 
1967.000000	65.160274 
1966.000000	65.174341 
1965.000000	65.190029 
1964.000000	65.206837 
1963.000000	65.224146 
1962.000000	65.241456 
1961.000000	65.258169 
1960.000000	65.273547 
1959.000000	65.286612 
1958.000000	65.296339 
1957.000000	65.301680 
1956.000000	65.301847 
1955.000000	65.296316 
1954.000000	65.285062 
1953.000000	65.268588 
1952.000000	65.248107 
1951.000000	65.225219 
1950.000000	65.202021 
1949.000000	65.180659 
1948.000000	65.163040 
1947.000000	65.150785 
1946.000000	65.144848 
1945.000000	65.145468 
1944.000000	65.152072 
1943.000000	65.163826 
1942.000000	65.179276 
1941.000000	65.197110 
1940.000000	65.216231 
1939.000000	65.235829 
1938.000000	65.255403 
1937.000000	65.274691 
1936.000000	65.293478 
1935.000000	65.311193 
1934.000000	65.326905 
1933.000000	65.339207 
1932.000000	65.346574 
1931.000000	65.347480 
1930.000000	65.341019 
1929.000000	65.327215 
1928.000000	65.307140 
1927.000000	65.283131 
1926.000000	65.258193 
1925.000000	65.235614 
1924.000000	65.218305 
1923.000000	65.208077 
1922.000000	65.205359 
1921.000000	65.209221 
1920.000000	65.217471 
1919.000000	65.227365 
1918.000000	65.236186 
1917.000000	65.241885 
1916.000000	65.243530 
1915.000000	65.241312 
1914.000000	65.236401 
1913.000000	65.230560 
1912.000000	65.225410 
1911.000000	65.222096 
1910.000000	65.220904 
1909.000000	65.221357 
1908.000000	65.222287 
1907.000000	65.222454 
1906.000000	65.220952 
1905.000000	65.217709 
1904.000000	65.213561 
1903.000000	65.210008 
1902.000000	65.208840 
1901.000000	65.211582 
1900.000000	65.219020 
1899.000000	65.230798 
1898.000000	65.245437 
1897.000000	65.260457 
1896.000000	65.273213 
1895.000000	65.281200 
1894.000000	65.282630 
1893.000000	65.276885 
1892.000000	65.264606 
1891.000000	65.247583 
1890.000000	65.228319 
1889.000000	65.209484 
1888.000000	65.193629 
1887.000000	65.182709 
1886.000000	65.178132 
1885.000000	65.180277 
1884.000000	65.188789 
1883.000000	65.202546 
1882.000000	65.219998 
1881.000000	65.239167 
1880.000000	65.258073 
1879.000000	65.274834 
1878.000000	65.288281 
1877.000000	65.297865 
1876.000000	65.303683 
1875.000000	65.306472 
1874.000000	65.307235 
1873.000000	65.307092 
1872.000000	65.306949 
1871.000000	65.307259 
1870.000000	65.308094 
1869.000000	65.309286 
1868.000000	65.310502 
1867.000000	65.311455 
1866.000000	65.312004 
1865.000000	65.312290 
1864.000000	65.312218 
1863.000000	65.311980 
1862.000000	65.311384 
1861.000000	65.310096 
1860.000000	65.307545 
1859.000000	65.303301 
1858.000000	65.297150 
1857.000000	65.289258 
1856.000000	65.280055 
1855.000000	65.270280 
1854.000000	65.260672 
1853.000000	65.251874 
1852.000000	65.244364 
1851.000000	65.238380 
1850.000000	65.234065 
1849.000000	65.231323 
1848.000000	65.230369 
1847.000000	65.231513 
1846.000000	65.235137 
1845.000000	65.241503 
1844.000000	65.250730 
1843.000000	65.262508 
1842.000000	65.275835 
1841.000000	65.289187 
1840.000000	65.300679 
1839.000000	65.308237 
1838.000000	65.310072 
1837.000000	65.305042 
1836.000000	65.292811 
1835.000000	65.274047 
1834.000000	65.250372 
1833.000000	65.224337 
1832.000000	65.198755 
1831.000000	65.176582 
1830.000000	65.160322 
1829.000000	65.151643 
1828.000000	65.151166 
1827.000000	65.158200 
1826.000000	65.171027 
1825.000000	65.186929 
1824.000000	65.202832 
1823.000000	65.215611 
1822.000000	65.222668 
1821.000000	65.222406 
1820.000000	65.214323 
1819.000000	65.198898 
1818.000000	65.177989 
1817.000000	65.154051 
1816.000000	65.130043 
1815.000000	65.108728 
1814.000000	65.092539 
1813.000000	65.083122 
1812.000000	65.081477 
1811.000000	65.087485 
1810.000000	65.100502 
1809.000000	65.119242 
1808.000000	65.142083 
1807.000000	65.167069 
1806.000000	65.192341 
1805.000000	65.215992 
1804.000000	65.236496 
1803.000000	65.252518 
1802.000000	65.263104 
1801.000000	65.267777 
1800.000000	65.266585 
1799.000000	65.260362 
1798.000000	65.250396 
1797.000000	65.238380 
1796.000000	65.226221 
1795.000000	65.215682 
1794.000000	65.208125 
1793.000000	65.204167 
1792.000000	65.203714 
1791.000000	65.205883 
1790.000000	65.209412 
1789.000000	65.212655 
1788.000000	65.214276 
1787.000000	65.213203 
1786.000000	65.208983 
1785.000000	65.201520 
1784.000000	65.191078 
1783.000000	65.178227 
1782.000000	65.163397 
1781.000000	65.147113 
1780.000000	65.129876 
1779.000000	65.112447 
1778.000000	65.096068 
1777.000000	65.082240 
1776.000000	65.072512 
1775.000000	65.068268 
1774.000000	65.070343 
1773.000000	65.078401 
1772.000000	65.090942 
1771.000000	65.105485 
1770.000000	65.119075 
1769.000000	65.128779 
1768.000000	65.132474 
1767.000000	65.129303 
1766.000000	65.119767 
1765.000000	65.105581 
1764.000000	65.089249 
1763.000000	65.073466 
1762.000000	65.060472 
1761.000000	65.051555 
1760.000000	65.047001 
1759.000000	65.046191 
1758.000000	65.047931 
1757.000000	65.050959 
1756.000000	65.053987 
1755.000000	65.056276 
1754.000000	65.057182 
1753.000000	65.056538 
1752.000000	65.054154 
1751.000000	65.049862 
1750.000000	65.043473 
1749.000000	65.034985 
1748.000000	65.024566 
1747.000000	65.012717 
1746.000000	65.000128 
1745.000000	64.987874 
1744.000000	64.976763 
1743.000000	64.967274 
1742.000000	64.959192 
1741.000000	64.951896 
1740.000000	64.944171 
1739.000000	64.934778 
1738.000000	64.922714 
1737.000000	64.907622 
1736.000000	64.890027 
1735.000000	64.871263 
1734.000000	64.853310 
1733.000000	64.838457 
1732.000000	64.828586 
1731.000000	64.825296 
1730.000000	64.829134 
1729.000000	64.840078 
1728.000000	64.857077 
1727.000000	64.878582 
1726.000000	64.902710 
1725.000000	64.927625 
1724.000000	64.951777 
1723.000000	64.974188 
1722.000000	64.994311 
1721.000000	65.012240 
1720.000000	65.028500 
1719.000000	65.043878 
1718.000000	65.059280 
1717.000000	65.075278 
1716.000000	65.091919 
1715.000000	65.108585 
1714.000000	65.124130 
1713.000000	65.136837 
1712.000000	65.144801 
1711.000000	65.146422 
1710.000000	65.140891 
1709.000000	65.128540 
1708.000000	65.111160 
1707.000000	65.091562 
1706.000000	65.073323 
1705.000000	65.060257 
1704.000000	65.055346 
1703.000000	65.060353 
1702.000000	65.075111 
1701.000000	65.097618 
1700.000000	65.124225 
1699.000000	65.150427 
1698.000000	65.171742 
1697.000000	65.184497 
1696.000000	65.186715 
1695.000000	65.178275 
1694.000000	65.161204 
1693.000000	65.138959 
1692.000000	65.115833 
1691.000000	65.095853 
1690.000000	65.082168 
1689.000000	65.076255 
1688.000000	65.077686 
1687.000000	65.084338 
1686.000000	65.092873 
1685.000000	65.099573 
1684.000000	65.100955 
1683.000000	65.094804 
1682.000000	65.080547 
1681.000000	65.059447 
1680.000000	65.034151 
1679.000000	65.008258 
1678.000000	64.985370 
1677.000000	64.968657 
1676.000000	64.959979 
1675.000000	64.959955 
1674.000000	64.967632 
1673.000000	64.981293 
1672.000000	64.998674 
1671.000000	65.017676 
1670.000000	65.036416 
1669.000000	65.053796 
1668.000000	65.069127 
1667.000000	65.082216 
1666.000000	65.093135 
1665.000000	65.101861 
1664.000000	65.108251 
1663.000000	65.112113 
1662.000000	65.113139 
1661.000000	65.111207 
1660.000000	65.106606 
1659.000000	65.099716 
1658.000000	65.091156 
1657.000000	65.081715 
1656.000000	65.072131 
1655.000000	65.062856 
1654.000000	65.054011 
1653.000000	65.045452 
1652.000000	65.036940 
1651.000000	65.028309 
1650.000000	65.019655 
1649.000000	65.011358 
1648.000000	65.004086 
1647.000000	64.998459 
1646.000000	64.995169 
1645.000000	64.994454 
1644.000000	64.996242 
1643.000000	65.000104 
1642.000000	65.005278 
1641.000000	65.011072 
1640.000000	65.016841 
1639.000000	65.022492 
1638.000000	65.028166 
1637.000000	65.034222 
1636.000000	65.041017 
1635.000000	65.048742 
1634.000000	65.057182 
1633.000000	65.065956 
1632.000000	65.074467 
1631.000000	65.082168 
1630.000000	65.088820 
1629.000000	65.094470 
1628.000000	65.099430 
1627.000000	65.103816 
1626.000000	65.107679 
1625.000000	65.110683 
1624.000000	65.112113 
1623.000000	65.111231 
1622.000000	65.107417 
1621.000000	65.100359 
1620.000000	65.090322 
1619.000000	65.078282 
1618.000000	65.065598 
1617.000000	65.053868 
1616.000000	65.044426 
1615.000000	65.038108 
1614.000000	65.035057 
1613.000000	65.034866 
1612.000000	65.036725 
1611.000000	65.039634 
1610.000000	65.042734 
1609.000000	65.045547 
1608.000000	65.048050 
1607.000000	65.050578 
1606.000000	65.053534 
1605.000000	65.057349 
1604.000000	65.062212 
1603.000000	65.068054 
1602.000000	65.074372 
1601.000000	65.080332 
1600.000000	65.084981 
1599.000000	65.087246 
1598.000000	65.086412 
1597.000000	65.081977 
1596.000000	65.074062 
1595.000000	65.063238 
1594.000000	65.050840 
1593.000000	65.038418 
1592.000000	65.027666 
1591.000000	65.020203 
1590.000000	65.017104 
1589.000000	65.018653 
1588.000000	65.024185 
1587.000000	65.032124 
1586.000000	65.040183 
1585.000000	65.045833 
1584.000000	65.046715 
1583.000000	65.041255 
1582.000000	65.028834 
1581.000000	65.010118 
1580.000000	64.986824 
1579.000000	64.961457 
1578.000000	64.936542 
1577.000000	64.914464 
1576.000000	64.896869 
1575.000000	64.884543 
1574.000000	64.877367 
1573.000000	64.874815 
1572.000000	64.876031 
1571.000000	64.880466 
1570.000000	64.887762 
1569.000000	64.898228 
1568.000000	64.912104 
1567.000000	64.929533 
1566.000000	64.950251 
1565.000000	64.973282 
1564.000000	64.997029 
1563.000000	65.019273 
1562.000000	65.037703 
1561.000000	65.050029 
1560.000000	65.054965 
1559.000000	65.051984 
1558.000000	65.041708 
1557.000000	65.025544 
1556.000000	65.005373 
1555.000000	64.983296 
1554.000000	64.961290 
1553.000000	64.940929 
1552.000000	64.923477 
1551.000000	64.909768 
1550.000000	64.900517 
1549.000000	64.896345 
1548.000000	64.897632 
1547.000000	64.904236 
1546.000000	64.915299 
1545.000000	64.929437 
1544.000000	64.944672 
1543.000000	64.958667 
1542.000000	64.969396 
1541.000000	64.975452 
1540.000000	64.976525 
1539.000000	64.973592 
1538.000000	64.968538 
1537.000000	64.963650 
1536.000000	64.960885 
1535.000000	64.961338 
1534.000000	64.964652 
1533.000000	64.969348 
1532.000000	64.972901 
1531.000000	64.972734 
1530.000000	64.966940 
1529.000000	64.954996 
1528.000000	64.937973 
1527.000000	64.918255 
1526.000000	64.899277 
1525.000000	64.884543 
1524.000000	64.876914 
1523.000000	64.878034 
1522.000000	64.888143 
1521.000000	64.906167 
1520.000000	64.930081 
1519.000000	64.957213 
1518.000000	64.984798 
1517.000000	65.010333 
1516.000000	65.031623 
1515.000000	65.047049 
1514.000000	65.055370 
1513.000000	65.056276 
1512.000000	65.050077 
1511.000000	65.038132 
1510.000000	65.022611 
1509.000000	65.006041 
1508.000000	64.991164 
1507.000000	64.980316 
1506.000000	64.974856 
1505.000000	64.975047 
1504.000000	64.980077 
1503.000000	64.988279 
1502.000000	64.997673 
1501.000000	65.006661 
1500.000000	65.014290 
1499.000000	65.020418 
1498.000000	65.025568 
1497.000000	65.030717 
1496.000000	65.036845 
1495.000000	65.044355 
1494.000000	65.053129 
1493.000000	65.062665 
1492.000000	65.072393 
1491.000000	65.081858 
1490.000000	65.090775 
1489.000000	65.099358 
1488.000000	65.107583 
1487.000000	65.115165 
1486.000000	65.121293 
1485.000000	65.124845 
1484.000000	65.124583 
1483.000000	65.119504 
1482.000000	65.109229 
1481.000000	65.094447 
1480.000000	65.076804 
1479.000000	65.058803 
1478.000000	65.042996 
1477.000000	65.031433 
1476.000000	65.025043 
1475.000000	65.023541 
1474.000000	65.025234 
1473.000000	65.027499 
1472.000000	65.027666 
1471.000000	65.023422 
1470.000000	65.013694 
1469.000000	64.998674 
1468.000000	64.979791 
1467.000000	64.959263 
1466.000000	64.939308 
1465.000000	64.921903 
1464.000000	64.908099 
1463.000000	64.898180 
1462.000000	64.891767 
1461.000000	64.887952 
1460.000000	64.885926 
1459.000000	64.885115 
1458.000000	64.885210 
1457.000000	64.886260 
1456.000000	64.888191 
1455.000000	64.891195 
1454.000000	64.895129 
1453.000000	64.900016 
1452.000000	64.905786 
1451.000000	64.912509 
1450.000000	64.920353 
1449.000000	64.929437 
1448.000000	64.939904 
1447.000000	64.951467 
1446.000000	64.963507 
1445.000000	64.975190 
1444.000000	64.985466 
1443.000000	64.993739 
1442.000000	64.999818 
1441.000000	65.004444 
1440.000000	65.008831 
1439.000000	65.014576 
1438.000000	65.022993 
1437.000000	65.034818 
1436.000000	65.049719 
1435.000000	65.066432 
1434.000000	65.082931 
1433.000000	65.097117 
1432.000000	65.107154 
1431.000000	65.112304 
1430.000000	65.112829 
1429.000000	65.110325 
1428.000000	65.106940 
1427.000000	65.105247 
1426.000000	65.107345 
1425.000000	65.114331 
1424.000000	65.126037 
1423.000000	65.141105 
1422.000000	65.157103 
1421.000000	65.171265 
1420.000000	65.180850 
1419.000000	65.184020 
1418.000000	65.180039 
1417.000000	65.169310 
1416.000000	65.153360 
1415.000000	65.134549 
1414.000000	65.115475 
1413.000000	65.098285 
1412.000000	65.084481 
1411.000000	65.074467 
1410.000000	65.067672 
1409.000000	65.062618 
1408.000000	65.057539 
1407.000000	65.050721 
1406.000000	65.040850 
1405.000000	65.027618 
1404.000000	65.011262 
1403.000000	64.993000 
1402.000000	64.974188 
1401.000000	64.956498 
1400.000000	64.941263 
1399.000000	64.929389 
1398.000000	64.921355 
1397.000000	64.917159 
1396.000000	64.916610 
1395.000000	64.919304 
1394.000000	64.924764 
1393.000000	64.932441 
1392.000000	64.941716 
1391.000000	64.951658 
1390.000000	64.961147 
1389.000000	64.968991 
1388.000000	64.974188 
1387.000000	64.975976 
1386.000000	64.974045 
1385.000000	64.968752 
1384.000000	64.961004 
1383.000000	64.952111 
1382.000000	64.943552 
1381.000000	64.936757 
1380.000000	64.932918 
1379.000000	64.932775 
1378.000000	64.936780 
1377.000000	64.944934 
1376.000000	64.957118 
1375.000000	64.973139 
1374.000000	64.992547 
1373.000000	65.014839 
1372.000000	65.039062 
1371.000000	65.064120 
1370.000000	65.088295 
1369.000000	65.109491 
1368.000000	65.125513 
1367.000000	65.134477 
1366.000000	65.134954 
1365.000000	65.126585 
1364.000000	65.110111 
1363.000000	65.087366 
1362.000000	65.060949 
1361.000000	65.033817 
1360.000000	65.008664 
1359.000000	64.987468 
1358.000000	64.971256 
1357.000000	64.959907 
1356.000000	64.952421 
1355.000000	64.947414 
1354.000000	64.943337 
1353.000000	64.939165 
1352.000000	64.934301 
1351.000000	64.928889 
1350.000000	64.923477 
1349.000000	64.918828 
1348.000000	64.915537 
1347.000000	64.914083 
1346.000000	64.914679 
1345.000000	64.917397 
1344.000000	64.922118 
1343.000000	64.928627 
1342.000000	64.936780 
1341.000000	64.946174 
1340.000000	64.956259 
1339.000000	64.966177 
1338.000000	64.974951 
1337.000000	64.981698 
1336.000000	64.985466 
1335.000000	64.986014 
1334.000000	64.983487 
1333.000000	64.978766 
1332.000000	64.973187 
1331.000000	64.968132 
1330.000000	64.964795 
1329.000000	64.964032 
1328.000000	64.966011 
1327.000000	64.970326 
1326.000000	64.976096 
1325.000000	64.982390 
1324.000000	64.988231 
1323.000000	64.992737 
1322.000000	64.995169 
1321.000000	64.994955 
1320.000000	64.991784 
1319.000000	64.985322 
1318.000000	64.975619 
1317.000000	64.962935 
1316.000000	64.948034 
1315.000000	64.932036 
1314.000000	64.916253 
1313.000000	64.902186 
1312.000000	64.891099 
1311.000000	64.883780 
1310.000000	64.880299 
1309.000000	64.879918 
1308.000000	64.881587 
1307.000000	64.883923 
1306.000000	64.885711 
1305.000000	64.886188 
1304.000000	64.885115 
1303.000000	64.883017 
1302.000000	64.880585 
1301.000000	64.878821 
1300.000000	64.878439 
1299.000000	64.879870 
1298.000000	64.883255 
1297.000000	64.888334 
1296.000000	64.894509 
1295.000000	64.901185 
1294.000000	64.907789 
1293.000000	64.913868 
1292.000000	64.919090 
1291.000000	64.923310 
1290.000000	64.926433 
1289.000000	64.928317 
1288.000000	64.928793 
1287.000000	64.927721 
1286.000000	64.924931 
1285.000000	64.920520 
1284.000000	64.914536 
1283.000000	64.907360 
1282.000000	64.899444 
1281.000000	64.891576 
1280.000000	64.884638 
1279.000000	64.879345 
1278.000000	64.876556 
1277.000000	64.876675 
1276.000000	64.880061 
1275.000000	64.886641 
1274.000000	64.896035 
1273.000000	64.907598 
1272.000000	64.920616 
1271.000000	64.934182 
1270.000000	64.947605 
1269.000000	64.960169 
1268.000000	64.971327 
1267.000000	64.980721 
1266.000000	64.988088 
1265.000000	64.993381 
1264.000000	64.996600 
1263.000000	64.997935 
1262.000000	64.997386 
1261.000000	64.995193 
1260.000000	64.991331 
1259.000000	64.985871 
1258.000000	64.978766 
1257.000000	64.969849 
1256.000000	64.959001 
1255.000000	64.946198 
1254.000000	64.931416 
1253.000000	64.914941 
1252.000000	64.897179 
1251.000000	64.879012 
1250.000000	64.861345 
1249.000000	64.845561 
1248.000000	64.832973 
1247.000000	64.824843 
1246.000000	64.822149 
1245.000000	64.825224 
1244.000000	64.833831 
1243.000000	64.846897 
1242.000000	64.862608 
1241.000000	64.878964 
1240.000000	64.893579 
1239.000000	64.904689 
1238.000000	64.911174 
1237.000000	64.913010 
1236.000000	64.911079 
1235.000000	64.906954 
1234.000000	64.902663 
1233.000000	64.899897 
1232.000000	64.899778 
1231.000000	64.902472 
1230.000000	64.907145 
1229.000000	64.912199 
1228.000000	64.915895 
1227.000000	64.916491 
1226.000000	64.912986 
1225.000000	64.905166 
1224.000000	64.893841 
1223.000000	64.880394 
1222.000000	64.866733 
1221.000000	64.854621 
1220.000000	64.845514 
1219.000000	64.840149 
1218.000000	64.838433 
1217.000000	64.839935 
1216.000000	64.843726 
1215.000000	64.848661 
1214.000000	64.853763 
1213.000000	64.858150 
1212.000000	64.861273 
1211.000000	64.863014 
1210.000000	64.863491 
1209.000000	64.862871 
1208.000000	64.861488 
1207.000000	64.859962 
1206.000000	64.858698 
1205.000000	64.858198 
1204.000000	64.858722 
1203.000000	64.860367 
1202.000000	64.862918 
1201.000000	64.865732 
1200.000000	64.867949 
1199.000000	64.868593 
1198.000000	64.866662 
1197.000000	64.861631 
1196.000000	64.853692 
1195.000000	64.843988 
1194.000000	64.834380 
1193.000000	64.827132 
1192.000000	64.824771 
1191.000000	64.829206 
1190.000000	64.841485 
1189.000000	64.861154 
1188.000000	64.886379 
1187.000000	64.913964 
1186.000000	64.940237 
1185.000000	64.961409 
1184.000000	64.974403 
1183.000000	64.977240 
1182.000000	64.969611 
1181.000000	64.952659 
1180.000000	64.928746 
1179.000000	64.900755 
1178.000000	64.871859 
1177.000000	64.844679 
1176.000000	64.821314 
1175.000000	64.802837 
1174.000000	64.789581 
1173.000000	64.780998 
1172.000000	64.776086 
1171.000000	64.773297 
1170.000000	64.770889 
1169.000000	64.767050 
1168.000000	64.760231 
1167.000000	64.749312 
1166.000000	64.733839 
1165.000000	64.714241 
1164.000000	64.692068 
1163.000000	64.669489 
1162.000000	64.649391 
1161.000000	64.634418 
1160.000000	64.626479 
1159.000000	64.626526 
1158.000000	64.634156 
1157.000000	64.647769 
1156.000000	64.664959 
1155.000000	64.682912 
1154.000000	64.699220 
1153.000000	64.712142 
1152.000000	64.720869 
1151.000000	64.725399 
1150.000000	64.726305 
1149.000000	64.724063 
1148.000000	64.719104 
1147.000000	64.711380 
1146.000000	64.700436 
1145.000000	64.685750 
1144.000000	64.667367 
1143.000000	64.646291 
1142.000000	64.624524 
1141.000000	64.604926 
1140.000000	64.590907 
1139.000000	64.585661 
1138.000000	64.591264 
1137.000000	64.608120 
1136.000000	64.634799 
1135.000000	64.668250 
1134.000000	64.704179 
1133.000000	64.738273 
1132.000000	64.766860 
1131.000000	64.787697 
1130.000000	64.800333 
1129.000000	64.805722 
1128.000000	64.805912 
1127.000000	64.803075 
1126.000000	64.798974 
1125.000000	64.794254 
1124.000000	64.788508 
1123.000000	64.780664 
1122.000000	64.769721 
1121.000000	64.755272 
1120.000000	64.738154 
1119.000000	64.720463 
1118.000000	64.705395 
1117.000000	64.696288 
1116.000000	64.695930 
1115.000000	64.705801 
1114.000000	64.725804 
1113.000000	64.753842 
1112.000000	64.786648 
1111.000000	64.820098 
1110.000000	64.850640 
1109.000000	64.875650 
1108.000000	64.893913 
1107.000000	64.905643 
1106.000000	64.911961 
1105.000000	64.914631 
1104.000000	64.915347 
1103.000000	64.915561 
1102.000000	64.915823 
1101.000000	64.916110 
1100.000000	64.916014 
1099.000000	64.915251 
1098.000000	64.913511 
1097.000000	64.910936 
1096.000000	64.907741 
1095.000000	64.904117 
1094.000000	64.899802 
1093.000000	64.894223 
1092.000000	64.886021 
1091.000000	64.873337 
1090.000000	64.854407 
1089.000000	64.827799 
1088.000000	64.793205 
1087.000000	64.751839 
1086.000000	64.706373 
1085.000000	64.661121 
1084.000000	64.621019 
1083.000000	64.591073 
1082.000000	64.575147 
1081.000000	64.575076 
1080.000000	64.590382 
1079.000000	64.617753 
1078.000000	64.651679 
1077.000000	64.685416 
1076.000000	64.712405 
1075.000000	64.727663 
1074.000000	64.728450 
1073.000000	64.715147 
1072.000000	64.690852 
1071.000000	64.660930 
1070.000000	64.631533 
1069.000000	64.608120 
1068.000000	64.594197 
1067.000000	64.590692 
1066.000000	64.596152 
1065.000000	64.607048 
1064.000000	64.619040 
1063.000000	64.628124 
1062.000000	64.631938 
1061.000000	64.630055 
1060.000000	64.624309 
1059.000000	64.617705 
1058.000000	64.613842 
1057.000000	64.615345 
1056.000000	64.623284 
1055.000000	64.636874 
1054.000000	64.653444 
1053.000000	64.669394 
1052.000000	64.680910 
1051.000000	64.685344 
1050.000000	64.681529 
1049.000000	64.670038 
1048.000000	64.653110 
1047.000000	64.634132 
1046.000000	64.616775 
1045.000000	64.604401 
1044.000000	64.599394 
1043.000000	64.603042 
1042.000000	64.615297 
1041.000000	64.635181 
1040.000000	64.660763 
1039.000000	64.689493 
1038.000000	64.718174 
1037.000000	64.743471 
1036.000000	64.761996 
1035.000000	64.771151 
1034.000000	64.769506 
1033.000000	64.757013 
1032.000000	64.735364 
1031.000000	64.707398 
1030.000000	64.676618 
1029.000000	64.646577 
1028.000000	64.619708 
1027.000000	64.597582 
1026.000000	64.580583 
1025.000000	64.568614 
1024.000000	64.561533 
1023.000000	64.559841 
1022.000000	64.564609 
1021.000000	64.577507 
1020.000000	64.599967 
1019.000000	64.632487 
1018.000000	64.673924 
1017.000000	64.721083 
1016.000000	64.768719 
1015.000000	64.810752 
1014.000000	64.841270 
1013.000000	64.856195 
1012.000000	64.854025 
1011.000000	64.836239 
1010.000000	64.806938 
1009.000000	64.771962 
1008.000000	64.737296 
1007.000000	64.707756 
1006.000000	64.685845 
1005.000000	64.671754 
1004.000000	64.663386 
1003.000000	64.657545 
1002.000000	64.651036 
1001.000000	64.641857 
1000.000000	64.630103 
999.000000	 64.617729 
998.000000	 64.608478 
997.000000	 64.606356 
996.000000	 64.614486 
995.000000	 64.633965 
994.000000	 64.663052 
993.000000	 64.697575 
992.000000	 64.731264 
991.000000	 64.757490 
990.000000	 64.770221 
989.000000	 64.765596 
988.000000	 64.742994 
987.000000	 64.705252 
986.000000	 64.658188 
985.000000	 64.609384 
984.000000	 64.566850 
983.000000	 64.537358 
982.000000	 64.525389 
981.000000	 64.532494 
980.000000	 64.557147 
979.000000	 64.595246 
978.000000	 64.641189 
977.000000	 64.688873 
976.000000	 64.732456 
975.000000	 64.767551 
974.000000	 64.791297 
973.000000	 64.803338 
972.000000	 64.805340 
971.000000	 64.800453 
970.000000	 64.792799 
969.000000	 64.785623 
968.000000	 64.781141 
967.000000	 64.778971 
966.000000	 64.777135 
965.000000	 64.771795 
964.000000	 64.758896 
963.000000	 64.735627 
962.000000	 64.701485 
961.000000	 64.659118 
960.000000	 64.614129 
959.000000	 64.574146 
958.000000	 64.547014 
957.000000	 64.538908 
956.000000	 64.552831 
955.000000	 64.587903 
954.000000	 64.639258 
953.000000	 64.698910 
952.000000	 64.757251 
951.000000	 64.805293 
950.000000	 64.836120 
949.000000	 64.845967 
948.000000	 64.834690 
947.000000	 64.804744 
946.000000	 64.760732 
945.000000	 64.708542 
944.000000	 64.654254 
943.000000	 64.602875 
942.000000	 64.558219 
941.000000	 64.523220 
940.000000	 64.499497 
939.000000	 64.488005 
938.000000	 64.488363 
937.000000	 64.499330 
936.000000	 64.518976 
935.000000	 64.544510 
934.000000	 64.573621 
933.000000	 64.604544 
932.000000	 64.636349 
931.000000	 64.668679 
930.000000	 64.702177 
929.000000	 64.737749 
928.000000	 64.775848 
927.000000	 64.815425 
926.000000	 64.854121 
925.000000	 64.887928 
924.000000	 64.912414 
923.000000	 64.922857 
922.000000	 64.915680 
921.000000	 64.888405 
920.000000	 64.840817 
919.000000	 64.774584 
918.000000	 64.693212 
917.000000	 64.601874 
916.000000	 64.506602 
915.000000	 64.414596 
914.000000	 64.333415 
913.000000	 64.270567 
912.000000	 64.232897 
911.000000	 64.224290 
910.000000	 64.244794 
909.000000	 64.289093 
908.000000	 64.347338 
907.000000	 64.405322 
906.000000	 64.447188 
905.000000	 64.458107 
904.000000	 64.427518 
903.000000	 64.352345 
902.000000	 64.238119 
901.000000	 64.098119 
900.000000	 63.950872 
899.000000	 63.816308 
898.000000	 63.711690 
897.000000	 63.647985 
896.000000	 63.627886 
895.000000	 63.646245 
894.000000	 63.691663 
893.000000	 63.749551 
892.000000	 63.805985 
891.000000	 63.849425 
890.000000	 63.874506 
889.000000	 63.880395 
888.000000	 63.872742 
887.000000	 63.859772 
886.000000	 63.852024 
885.000000	 63.859272 
884.000000	 63.887810 
883.000000	 63.938951 
882.000000	 64.008212 
881.000000	 64.086985 
880.000000	 64.162611 
879.000000	 64.221477 
878.000000	 64.251661 
877.000000	 64.245724 
876.000000	 64.202904 
875.000000	 64.129590 
874.000000	 64.038515 
873.000000	 63.945889 
872.000000	 63.867712 
871.000000	 63.816285 
870.000000	 63.797831 
869.000000	 63.811421 
868.000000	 63.849949 
867.000000	 63.902568 
866.000000	 63.957810 
865.000000	 64.006924 
864.000000	 64.044475 
863.000000	 64.070534 
862.000000	 64.088273 
861.000000	 64.104342 
860.000000	 64.125919 
859.000000	 64.159202 
858.000000	 64.207553 
857.000000	 64.270329 
856.000000	 64.343094 
855.000000	 64.418196 
854.000000	 64.486789 
853.000000	 64.540505 
852.000000	 64.573597 
851.000000	 64.583754 
850.000000	 64.572811 
849.000000	 64.546632 
848.000000	 64.513683 
847.000000	 64.483118 
846.000000	 64.462089 
845.000000	 64.454889 
844.000000	 64.461421 
843.000000	 64.477801 
842.000000	 64.497327 
841.000000	 64.512681 
840.000000	 64.518213 
839.000000	 64.511108 
838.000000	 64.492774 
837.000000	 64.467549 
836.000000	 64.442467 
835.000000	 64.424109 
834.000000	 64.418601 
833.000000	 64.429974 
832.000000	 64.459323 
831.000000	 64.504837 
830.000000	 64.561748 
829.000000	 64.623546 
828.000000	 64.682388 
827.000000	 64.730429 
826.000000	 64.760828 
825.000000	 64.768767 
824.000000	 64.752221 
823.000000	 64.712166 
822.000000	 64.652752 
821.000000	 64.580178 
820.000000	 64.501881 
819.000000	 64.424681 
818.000000	 64.353942 
817.000000	 64.292430 
816.000000	 64.240336 
815.000000	 64.195919 
814.000000	 64.156389 
813.000000	 64.119434 
812.000000	 64.083623 
811.000000	 64.049601 
810.000000	 64.019465 
809.000000	 63.996243 
808.000000	 63.981866 
807.000000	 63.977217 
806.000000	 63.980984 
805.000000	 63.990497 
804.000000	 64.001560 
803.000000	 64.010953 
802.000000	 64.016938 
801.000000	 64.020156 
800.000000	 64.023208 
799.000000	 64.029860 
798.000000	 64.043807 
797.000000	 64.066934 
796.000000	 64.098381 
795.000000	 64.135003 
794.000000	 64.171981 
793.000000	 64.204287 
792.000000	 64.227771 
791.000000	 64.240050 
790.000000	 64.240622 
789.000000	 64.231109 
788.000000	 64.214205 
787.000000	 64.192342 
786.000000	 64.167284 
785.000000	 64.140224 
784.000000	 64.111304 
783.000000	 64.080286 
782.000000	 64.046525 
781.000000	 64.010524 
780.000000	 63.972806 
779.000000	 63.934683 
778.000000	 63.897180 
777.000000	 63.860964 
776.000000	 63.826036 
775.000000	 63.791942 
774.000000	 63.758015 
773.000000	 63.723397 
772.000000	 63.688063 
771.000000	 63.653039 
770.000000	 63.620090 
769.000000	 63.591408 
768.000000	 63.569164 
767.000000	 63.555073 
766.000000	 63.549852 
765.000000	 63.553428 
764.000000	 63.564825 
763.000000	 63.582706 
762.000000	 63.605499 
761.000000	 63.631868 
760.000000	 63.660693 
759.000000	 63.691091 
758.000000	 63.721990 
757.000000	 63.751912 
756.000000	 63.779091 
755.000000	 63.801145 
754.000000	 63.816189 
753.000000	 63.821935 
752.000000	 63.816428 
751.000000	 63.797593 
750.000000	 63.764810 
749.000000	 63.717770 
748.000000	 63.657069 
747.000000	 63.584709 
746.000000	 63.504242 
745.000000	 63.421082 
744.000000	 63.341903 
743.000000	 63.274478 
742.000000	 63.226461 
741.000000	 63.204312 
740.000000	 63.211846 
739.000000	 63.248872 
738.000000	 63.311219 
737.000000	 63.390684 
736.000000	 63.476610 
735.000000	 63.557004 
734.000000	 63.621234 
733.000000	 63.661861 
732.000000	 63.676500 
731.000000	 63.666868 
730.000000	 63.639426 
729.000000	 63.603353 
728.000000	 63.568878 
727.000000	 63.544869 
726.000000	 63.537502 
725.000000	 63.549494 
724.000000	 63.579368 
723.000000	 63.623237 
722.000000	 63.674569 
721.000000	 63.726186 
720.000000	 63.771057 
719.000000	 63.803815 
718.000000	 63.821077 
717.000000	 63.821625 
716.000000	 63.806581 
715.000000	 63.778614 
714.000000	 63.740992 
713.000000	 63.696479 
712.000000	 63.647460 
711.000000	 63.594985 
710.000000	 63.538885 
709.000000	 63.477706 
708.000000	 63.409733 
707.000000	 63.333845 
706.000000	 63.250160 
705.000000	 63.161182 
704.000000	 63.070416 
703.000000	 62.983536 
702.000000	 62.906789 
701.000000	 62.846922 
700.000000	 62.808609 
699.000000	 62.795162 
698.000000	 62.807059 
697.000000	 62.842464 
696.000000	 62.896728 
695.000000	 62.963461 
694.000000	 63.034844 
693.000000	 63.103246 
692.000000	 63.161659 
691.000000	 63.205647 
690.000000	 63.233494 
689.000000	 63.246536 
688.000000	 63.248515 
687.000000	 63.244271 
686.000000	 63.238430 
685.000000	 63.234138 
684.000000	 63.232183 
683.000000	 63.231158 
682.000000	 63.227772 
681.000000	 63.218712 
680.000000	 63.201260 
679.000000	 63.174510 
678.000000	 63.139557 
677.000000	 63.099622 
676.000000	 63.059091 
675.000000	 63.022398 
674.000000	 62.992739 
673.000000	 62.971735 
672.000000	 62.958812 
671.000000	 62.951207 
670.000000	 62.945485 
669.000000	 62.938570 
668.000000	 62.928915 
667.000000	 62.916874 
666.000000	 62.904882 
665.000000	 62.896537 
664.000000	 62.895750 
663.000000	 62.905359 
662.000000	 62.925648 
661.000000	 62.953925 
660.000000	 62.985229 
659.000000	 63.013219 
658.000000	 63.031578 
657.000000	 63.035464 
656.000000	 63.022613 
655.000000	 62.993669 
654.000000	 62.951993 
653.000000	 62.902760 
652.000000	 62.851333 
651.000000	 62.802314 
650.000000	 62.758731 
649.000000	 62.722277 
648.000000	 62.693452 
647.000000	 62.672686 
646.000000	 62.660765 
645.000000	 62.659382 
644.000000	 62.670397 
643.000000	 62.695670 
642.000000	 62.735867 
641.000000	 62.789583 
640.000000	 62.852764 
639.000000	 62.918996 
638.000000	 62.980413 
637.000000	 63.028812 
636.000000	 63.057184 
635.000000	 63.061165 
634.000000	 63.040065 
633.000000	 62.997484 
632.000000	 62.940716 
631.000000	 62.879300 
630.000000	 62.822914 
629.000000	 62.780189 
628.000000	 62.756514 
627.000000	 62.753391 
626.000000	 62.767696 
625.000000	 62.793445 
624.000000	 62.822651 
623.000000	 62.847089 
622.000000	 62.860536 
621.000000	 62.859606 
620.000000	 62.844800 
619.000000	 62.819600 
618.000000	 62.790203 
617.000000	 62.762928 
616.000000	 62.743902 
615.000000	 62.737154 
614.000000	 62.744641 
613.000000	 62.766265 
612.000000	 62.799668 
611.000000	 62.841343 
610.000000	 62.885975 
609.000000	 62.927436 
608.000000	 62.958574 
607.000000	 62.972259 
606.000000	 62.962627 
605.000000	 62.926173 
604.000000	 62.862753 
603.000000	 62.775564 
602.000000	 62.670898 
601.000000	 62.557196 
600.000000	 62.443590 
599.000000	 62.338614 
598.000000	 62.249040 
597.000000	 62.179040 
596.000000	 62.130379 
595.000000	 62.102675 
594.000000	 62.093591 
593.000000	 62.099933 
592.000000	 62.117290 
591.000000	 62.141871 
590.000000	 62.170457 
589.000000	 62.201070 
588.000000	 62.231492 
587.000000	 62.260270 
586.000000	 62.285566 
585.000000	 62.305855 
584.000000	 62.319231 
583.000000	 62.324452 
582.000000	 62.321376 
581.000000	 62.310814 
580.000000	 62.294769 
579.000000	 62.275075 
578.000000	 62.253308 
577.000000	 62.230229 
576.000000	 62.206172 
575.000000	 62.181830 
574.000000	 62.158441 
573.000000	 62.138676 
572.000000	 62.125587 
571.000000	 62.121891 
570.000000	 62.128376 
569.000000	 62.143945 
568.000000	 62.164330 
567.000000	 62.183260 
566.000000	 62.193179 
565.000000	 62.187671 
564.000000	 62.161731 
563.000000	 62.113714 
562.000000	 62.044668 
561.000000	 61.958479 
560.000000	 61.860799 
559.000000	 61.758279 
558.000000	 61.657595 
557.000000	 61.564540 
556.000000	 61.484289 
555.000000	 61.421203 
554.000000	 61.378788 
553.000000	 61.359214 
552.000000	 61.362767 
551.000000	 61.387443 
550.000000	 61.428189 
549.000000	 61.477804 
548.000000	 61.527943 
547.000000	 61.570811 
546.000000	 61.600518 
545.000000	 61.613869 
544.000000	 61.610555 
543.000000	 61.592459 
542.000000	 61.563062 
541.000000	 61.525940 
540.000000	 61.484313 
539.000000	 61.439847 
538.000000	 61.393690 
537.000000	 61.345791 
536.000000	 61.295890 
535.000000	 61.244344 
534.000000	 61.192464 
533.000000	 61.143231 
532.000000	 61.100649 
531.000000	 61.069273 
530.000000	 61.053085 
529.000000	 61.053848 
528.000000	 61.070084 
527.000000	 61.097097 
526.000000	 61.127710 
525.000000	 61.153483 
524.000000	 61.166501 
523.000000	 61.161661 
522.000000	 61.137700 
521.000000	 61.097049 
520.000000	 61.045432 
519.000000	 60.990214 
518.000000	 60.938692 
517.000000	 60.896682 
516.000000	 60.867285 
515.000000	 60.850477 
514.000000	 60.843682 
513.000000	 60.842728 
512.000000	 60.843563 
511.000000	 60.842609 
510.000000	 60.838747 
509.000000	 60.833692 
508.000000	 60.830950 
507.000000	 60.834336 
506.000000	 60.846519 
505.000000	 60.867953 
504.000000	 60.895824 
503.000000	 60.924434 
502.000000	 60.946774 
501.000000	 60.956668 
500.000000	 60.950732 
499.000000	 60.929536 
498.000000	 60.897374 
497.000000	 60.861158 
496.000000	 60.828709 
495.000000	 60.806608 
494.000000	 60.798716 
493.000000	 60.804986 
492.000000	 60.822677 
491.000000	 60.845994 
490.000000	 60.868287 
489.000000	 60.882425 
488.000000	 60.883164 
487.000000	 60.866451 
486.000000	 60.830712 
485.000000	 60.775017 
484.000000	 60.699367 
483.000000	 60.603380 
482.000000	 60.486721 
481.000000	 60.349869 
480.000000	 60.194921 
479.000000	 60.026955 
478.000000	 59.854006 
477.000000	 59.687519 
476.000000	 59.540748 
475.000000	 59.426307 
474.000000	 59.353590 
473.000000	 59.326434 
472.000000	 59.342122 
471.000000	 59.392166 
470.000000	 59.464716 
469.000000	 59.545850 
468.000000	 59.623599 
467.000000	 59.691715 
466.000000	 59.749841 
465.000000	 59.801793 
464.000000	 59.852123 
463.000000	 59.903597 
462.000000	 59.953761 
461.000000	 59.993648 
460.000000	 60.010194 
459.000000	 59.990620 
458.000000	 59.926748 
457.000000	 59.819412 
456.000000	 59.679627 
455.000000	 59.526681 
454.000000	 59.385967 
453.000000	 59.283423 
452.000000	 59.240198 
451.000000	 59.266924 
450.000000	 59.362792 
449.000000	 59.516382 
448.000000	 59.706354 
447.000000	 59.905862 
446.000000	 60.085415 
445.000000	 60.217785 
444.000000	 60.281991 
443.000000	 60.265851 
442.000000	 60.164690 
441.000000	 59.981322 
440.000000	 59.728288 
439.000000	 59.424352 
438.000000	 59.090900 
437.000000	 58.748602 
436.000000	 58.419489 
435.000000	 58.122181 
434.000000	 57.865524 
433.000000	 57.654690 
432.000000	 57.494044 
431.000000	 57.389736 
430.000000	 57.344341 
429.000000	 57.364106 
428.000000	 57.452917 
427.000000	 57.615065 
426.000000	 57.850813 
425.000000	 58.152770 
424.000000	 58.502626 
423.000000	 58.869862 
422.000000	 59.214949 
421.000000	 59.491872 
420.000000	 59.657049 
419.000000	 59.670805 
418.000000	 59.505391 
417.000000	 59.152054 
416.000000	 58.623290 
415.000000	 57.952356 
414.000000	 57.184529 
413.000000	 56.378817 
412.000000	 55.587244 
411.000000	 54.844570 
410.000000	 54.155659 
409.000000	 53.504943 
408.000000	 52.858161 
407.000000	 52.159762 
406.000000	 51.371502 
405.000000	 50.482821 
404.000000	 49.537849 
403.000000	 48.614239 
402.000000	 47.832989 
401.000000	 47.329473 
400.000000	 47.216224 
399.000000	 47.551250 
398.000000	 48.303198 
397.000000	 49.344158 
396.000000	 50.473070 
395.000000	 51.460218 
394.000000	 52.088856 
393.000000	 52.197694 
392.000000	 51.747226 
391.000000	 50.826525 
390.000000	 49.601936 
389.000000	 48.263812 
388.000000	 46.992564 
387.000000	 45.897078 
386.000000	 44.985127 
385.000000	 44.155883 
384.000000	 43.260455 
383.000000	 42.127990 
382.000000	 40.624213 
381.000000	 38.690018 
380.000000	 36.343264 
379.000000	 33.702731 
378.000000	 30.978012 
377.000000	 28.416824 
376.000000	 26.215243 
375.000000	 24.519968 
374.000000	 23.377585 
373.000000	 22.783184 
372.000000	 22.636389 
371.000000	 22.896432 
370.000000	 23.585987 

