PE IR       SPECTRUM    SPECTRUM    ASCII       PEDS        1.60        
  -1
C-4709~1.ASC
17/03/27
23:44:24.00
17/03/27
23:44:24.00
tln
$C-4040-8_t0112$<tbV0>[10.4,13.0,8.0,0.0,27,1,0]
370.000000
64









2002,4.07    
MIRTGS : RIGHTBACK : INTERNAL 2
MIR : ON : INTERNAL 2
OPTKBR

0.200000
8
8.000000
FILLER
RATIO
SPECTRUM
UNLOCKED 256

DOUBLE
64
COMBINED
1
0
0


1.000000
RATIO


1
0
TRUE
51149
0
LEFT NOT FITTED RIGHT NOT FITTED 0
NONE
NONE
15600
12.000000
4.427000
51148
TRUE
1 0 8 72 0 0 0 0 

15798.010000






#HDR
-1
-1
#GR
CM-1
%T
0.00002384185791015625
0.0
5000.000000
-1.000000
4631
8
68.990898
22.788166
#DATA
5000.000000	64.680027 
4999.000000	64.725041 
4998.000000	64.751935 
4997.000000	64.752578 
4996.000000	64.724278 
4995.000000	64.669752 
4994.000000	64.597725 
4993.000000	64.520215 
4992.000000	64.451217 
4991.000000	64.403510 
4990.000000	64.385914 
4989.000000	64.402341 
4988.000000	64.449739 
4987.000000	64.519166 
4986.000000	64.597654 
4985.000000	64.671611 
4984.000000	64.728832 
4983.000000	64.760875 
4982.000000	64.764833 
4981.000000	64.743328 
4980.000000	64.703607 
4979.000000	64.654827 
4978.000000	64.606142 
4977.000000	64.563393 
4976.000000	64.528918 
4975.000000	64.499950 
4974.000000	64.470553 
4973.000000	64.432787 
4972.000000	64.379763 
4971.000000	64.307451 
4970.000000	64.215517 
4969.000000	64.108967 
4968.000000	63.996076 
4967.000000	63.888883 
4966.000000	63.798761 
4965.000000	63.737511 
4964.000000	63.713669 
4963.000000	63.733482 
4962.000000	63.799262 
4961.000000	63.910007 
4960.000000	64.060735 
4959.000000	64.243268 
4958.000000	64.446306 
4957.000000	64.655542 
4956.000000	64.854454 
4955.000000	65.025925 
4954.000000	65.154147 
4953.000000	65.227389 
4952.000000	65.239381 
4951.000000	65.191507 
4950.000000	65.091705 
4949.000000	64.953279 
4948.000000	64.791965 
4947.000000	64.624834 
4946.000000	64.466905 
4945.000000	64.329910 
4944.000000	64.221119 
4943.000000	64.144372 
4942.000000	64.100289 
4941.000000	64.086937 
4940.000000	64.101338 
4939.000000	64.138770 
4938.000000	64.195299 
4937.000000	64.266228 
4936.000000	64.348149 
4935.000000	64.437246 
4934.000000	64.530539 
4933.000000	64.624261 
4932.000000	64.714932 
4931.000000	64.798974 
4930.000000	64.872574 
4929.000000	64.932060 
4928.000000	64.974093 
4927.000000	64.996552 
4926.000000	65.000510 
4925.000000	64.990234 
4924.000000	64.972352 
4923.000000	64.954519 
4922.000000	64.945435 
4921.000000	64.951562 
4920.000000	64.975833 
4919.000000	65.015864 
4918.000000	65.065693 
4917.000000	65.115666 
4916.000000	65.155243 
4915.000000	65.175080 
4914.000000	65.168595 
4913.000000	65.134406 
4912.000000	65.075492 
4911.000000	65.000724 
4910.000000	64.922547 
4909.000000	64.855837 
4908.000000	64.814829 
4907.000000	64.810967 
4906.000000	64.850711 
4905.000000	64.934062 
4904.000000	65.054416 
4903.000000	65.198230 
4902.000000	65.346908 
4901.000000	65.479350 
4900.000000	65.575218 
4899.000000	65.617609 
4898.000000	65.596032 
4897.000000	65.508818 
4896.000000	65.362572 
4895.000000	65.171265 
4894.000000	64.952540 
4893.000000	64.726638 
4892.000000	64.510726 
4891.000000	64.317870 
4890.000000	64.153456 
4889.000000	64.016985 
4888.000000	63.902139 
4887.000000	63.799047 
4886.000000	63.698863 
4885.000000	63.594388 
4884.000000	63.486266 
4883.000000	63.380980 
4882.000000	63.292527 
4881.000000	63.236522 
4880.000000	63.228869 
4879.000000	63.279795 
4878.000000	63.391733 
4877.000000	63.556957 
4876.000000	63.760113 
4875.000000	63.980841 
4874.000000	64.198350 
4873.000000	64.395809 
4872.000000	64.564275 
4871.000000	64.703297 
4870.000000	64.819192 
4869.000000	64.921474 
4868.000000	65.019249 
4867.000000	65.117073 
4866.000000	65.214085 
4865.000000	65.303492 
4864.000000	65.376114 
4863.000000	65.422415 
4862.000000	65.439057 
4861.000000	65.427422 
4860.000000	65.394997 
4859.000000	65.352296 
4858.000000	65.311670 
4857.000000	65.282344 
4856.000000	65.268063 
4855.000000	65.266633 
4854.000000	65.271854 
4853.000000	65.274763 
4852.000000	65.267395 
4851.000000	65.244269 
4850.000000	65.204334 
4849.000000	65.149974 
4848.000000	65.086364 
4847.000000	65.018773 
4846.000000	64.951252 
4845.000000	64.886450 
4844.000000	64.825224 
4843.000000	64.767503 
4842.000000	64.712476 
4841.000000	64.660596 
4840.000000	64.612960 
4839.000000	64.570045 
4838.000000	64.532041 
4837.000000	64.497661 
4836.000000	64.465546 
4835.000000	64.432954 
4834.000000	64.399075 
4833.000000	64.365100 
4832.000000	64.335107 
4831.000000	64.314889 
4830.000000	64.310503 
4829.000000	64.326310 
4828.000000	64.362478 
4827.000000	64.413976 
4826.000000	64.471030 
4825.000000	64.521002 
4824.000000	64.552140 
4823.000000	64.556527 
4822.000000	64.532709 
4821.000000	64.486122 
4820.000000	64.428472 
4819.000000	64.374756 
4818.000000	64.339280 
4817.000000	64.332246 
4816.000000	64.357519 
4815.000000	64.412093 
4814.000000	64.487409 
4813.000000	64.571738 
4812.000000	64.654207 
4811.000000	64.726376 
4810.000000	64.783859 
4809.000000	64.825892 
4808.000000	64.854359 
4807.000000	64.871788 
4806.000000	64.879536 
4805.000000	64.877104 
4804.000000	64.862489 
4803.000000	64.833021 
4802.000000	64.787292 
4801.000000	64.726400 
4800.000000	64.655160 
4799.000000	64.581632 
4798.000000	64.515852 
4797.000000	64.467883 
4796.000000	64.445471 
4795.000000	64.452672 
4794.000000	64.488935 
4793.000000	64.548730 
4792.000000	64.622735 
4791.000000	64.699506 
4790.000000	64.768028 
4789.000000	64.819002 
4788.000000	64.847016 
4787.000000	64.851260 
4786.000000	64.835882 
4785.000000	64.808654 
4784.000000	64.779138 
4783.000000	64.756298 
4782.000000	64.746236 
4781.000000	64.751291 
4780.000000	64.769220 
4779.000000	64.794945 
4778.000000	64.821338 
4777.000000	64.841747 
4776.000000	64.851474 
4775.000000	64.848828 
4774.000000	64.835333 
4773.000000	64.814972 
4772.000000	64.792752 
4771.000000	64.773035 
4770.000000	64.758419 
4769.000000	64.748978 
4768.000000	64.742302 
4767.000000	64.734458 
4766.000000	64.721274 
4765.000000	64.699792 
4764.000000	64.669251 
4763.000000	64.631652 
4762.000000	64.590764 
4761.000000	64.551734 
4760.000000	64.519906 
4759.000000	64.500045 
4758.000000	64.494419 
4757.000000	64.503240 
4756.000000	64.524674 
4755.000000	64.555740 
4754.000000	64.592599 
4753.000000	64.631962 
4752.000000	64.671063 
4751.000000	64.708423 
4750.000000	64.743542 
4749.000000	64.776611 
4748.000000	64.807462 
4747.000000	64.835739 
4746.000000	64.860677 
4745.000000	64.881324 
4744.000000	64.896893 
4743.000000	64.906787 
4742.000000	64.910960 
4741.000000	64.909029 
4740.000000	64.900255 
4739.000000	64.883279 
4738.000000	64.856219 
4737.000000	64.817380 
4736.000000	64.765548 
4735.000000	64.701366 
4734.000000	64.627504 
4733.000000	64.548277 
4732.000000	64.469528 
4731.000000	64.397668 
4730.000000	64.338946 
4729.000000	64.297771 
4728.000000	64.276981 
4727.000000	64.276528 
4726.000000	64.294886 
4725.000000	64.329218 
4724.000000	64.376187 
4723.000000	64.431548 
4722.000000	64.491319 
4721.000000	64.551544 
4720.000000	64.608645 
4719.000000	64.658665 
4718.000000	64.698505 
4717.000000	64.726281 
4716.000000	64.741349 
4715.000000	64.744281 
4714.000000	64.736342 
4713.000000	64.719295 
4712.000000	64.695072 
4711.000000	64.665961 
4710.000000	64.634871 
4709.000000	64.605474 
4708.000000	64.583063 
4707.000000	64.573383 
4706.000000	64.581751 
4705.000000	64.611005 
4704.000000	64.661169 
4703.000000	64.727377 
4702.000000	64.800262 
4701.000000	64.866876 
4700.000000	64.913654 
4699.000000	64.928841 
4698.000000	64.905023 
4697.000000	64.841032 
4696.000000	64.742922 
4695.000000	64.622449 
4694.000000	64.494538 
4693.000000	64.374208 
4692.000000	64.273333 
4691.000000	64.199113 
4690.000000	64.153623 
4689.000000	64.134263 
4688.000000	64.135479 
4687.000000	64.150977 
4686.000000	64.175558 
4685.000000	64.205908 
4684.000000	64.241051 
4683.000000	64.281296 
4682.000000	64.327549 
4681.000000	64.379930 
4680.000000	64.437127 
4679.000000	64.496040 
4678.000000	64.552330 
4677.000000	64.601755 
4676.000000	64.641094 
4675.000000	64.669561 
4674.000000	64.688420 
4673.000000	64.701151 
4672.000000	64.711570 
4671.000000	64.723157 
4670.000000	64.737415 
4669.000000	64.753413 
4668.000000	64.767694 
4667.000000	64.775776 
4666.000000	64.773225 
4665.000000	64.757394 
4664.000000	64.728236 
4663.000000	64.688515 
4662.000000	64.643979 
4661.000000	64.602351 
4660.000000	64.571881 
4659.000000	64.559626 
4658.000000	64.570641 
4657.000000	64.606952 
4656.000000	64.667272 
4655.000000	64.746975 
4654.000000	64.838719 
4653.000000	64.933276 
4652.000000	65.020895 
4651.000000	65.092349 
4650.000000	65.140008 
4649.000000	65.158629 
4648.000000	65.146756 
4647.000000	65.106105 
4646.000000	65.041756 
4645.000000	64.960861 
4644.000000	64.872217 
4643.000000	64.784479 
4642.000000	64.705395 
4641.000000	64.640593 
4640.000000	64.593672 
4639.000000	64.565968 
4638.000000	64.556860 
4637.000000	64.564156 
4636.000000	64.584350 
4635.000000	64.613413 
4634.000000	64.646935 
4633.000000	64.681029 
4632.000000	64.712500 
4631.000000	64.739227 
4630.000000	64.760112 
4629.000000	64.774775 
4628.000000	64.783382 
4627.000000	64.786410 
4626.000000	64.784359 
4625.000000	64.777660 
4624.000000	64.766216 
4623.000000	64.750170 
4622.000000	64.729142 
4621.000000	64.703249 
4620.000000	64.672732 
4619.000000	64.637970 
4618.000000	64.600157 
4617.000000	64.561057 
4616.000000	64.523339 
4615.000000	64.490151 
4614.000000	64.464831 
4613.000000	64.449834 
4612.000000	64.446902 
4611.000000	64.456844 
4610.000000	64.478754 
4609.000000	64.509701 
4608.000000	64.545655 
4607.000000	64.582157 
4606.000000	64.615154 
4605.000000	64.641571 
4604.000000	64.660096 
4603.000000	64.671134 
4602.000000	64.676666 
4601.000000	64.679574 
4600.000000	64.682579 
4599.000000	64.687728 
4598.000000	64.696550 
4597.000000	64.709210 
4596.000000	64.724993 
4595.000000	64.741730 
4594.000000	64.756441 
4593.000000	64.766001 
4592.000000	64.767718 
4591.000000	64.760804 
4590.000000	64.746356 
4589.000000	64.728546 
4588.000000	64.713811 
4587.000000	64.709997 
4586.000000	64.724254 
4585.000000	64.761567 
4584.000000	64.823317 
4583.000000	64.906382 
4582.000000	65.003538 
4581.000000	65.105009 
4580.000000	65.200591 
4579.000000	65.281128 
4578.000000	65.340018 
4577.000000	65.374422 
4576.000000	65.385079 
4575.000000	65.374422 
4574.000000	65.345311 
4573.000000	65.300202 
4572.000000	65.240836 
4571.000000	65.169119 
4570.000000	65.087628 
4569.000000	65.001082 
4568.000000	64.916181 
4567.000000	64.841532 
4566.000000	64.786076 
4565.000000	64.757132 
4564.000000	64.758753 
4563.000000	64.790534 
4562.000000	64.847636 
4561.000000	64.920473 
4560.000000	64.998030 
4559.000000	65.069580 
4558.000000	65.127897 
4557.000000	65.169072 
4556.000000	65.195512 
4555.000000	65.214443 
4554.000000	65.236949 
4553.000000	65.274310 
4552.000000	65.336632 
4551.000000	65.429878 
4550.000000	65.554261 
4549.000000	65.703415 
4548.000000	65.864849 
4547.000000	66.021919 
4546.000000	66.156888 
4545.000000	66.254258 
4544.000000	66.303968 
4543.000000	66.303372 
4542.000000	66.258502 
4541.000000	66.181635 
4540.000000	66.089606 
4539.000000	65.997934 
4538.000000	65.920209 
4537.000000	65.862059 
4536.000000	65.822672 
4535.000000	65.793395 
4534.000000	65.762686 
4533.000000	65.717887 
4532.000000	65.649914 
4531.000000	65.555310 
4530.000000	65.437150 
4529.000000	65.304899 
4528.000000	65.171575 
4527.000000	65.051126 
4526.000000	64.954495 
4525.000000	64.889550 
4524.000000	64.859580 
4523.000000	64.863753 
4522.000000	64.897918 
4521.000000	64.956283 
4520.000000	65.032625 
4519.000000	65.119695 
4518.000000	65.210151 
4517.000000	65.297079 
4516.000000	65.374350 
4515.000000	65.435767 
4514.000000	65.476369 
4513.000000	65.493321 
4512.000000	65.486240 
4511.000000	65.458083 
4510.000000	65.414309 
4509.000000	65.362119 
4508.000000	65.309166 
4507.000000	65.263628 
4506.000000	65.231227 
4505.000000	65.214538 
4504.000000	65.213108 
4503.000000	65.224075 
4502.000000	65.243339 
4501.000000	65.266513 
4500.000000	65.290307 
4499.000000	65.312910 
4498.000000	65.332865 
4497.000000	65.348577 
4496.000000	65.358018 
4495.000000	65.358543 
4494.000000	65.346717 
4493.000000	65.319156 
4492.000000	65.273523 
4491.000000	65.209627 
4490.000000	65.130043 
4489.000000	65.040779 
4488.000000	64.949369 
4487.000000	64.865589 
4486.000000	64.800071 
4485.000000	64.763188 
4484.000000	64.762473 
4483.000000	64.801335 
4482.000000	64.878821 
4481.000000	64.988112 
4480.000000	65.116930 
4479.000000	65.249419 
4478.000000	65.368175 
4477.000000	65.458416 
4476.000000	65.509724 
4475.000000	65.520143 
4474.000000	65.495777 
4473.000000	65.450763 
4472.000000	65.403747 
4471.000000	65.372753 
4470.000000	65.370488 
4469.000000	65.401053 
4468.000000	65.458774 
4467.000000	65.529775 
4466.000000	65.595316 
4465.000000	65.638256 
4464.000000	65.646505 
4463.000000	65.614700 
4462.000000	65.545248 
4461.000000	65.447402 
4460.000000	65.334749 
4459.000000	65.221381 
4458.000000	65.118741 
4457.000000	65.034794 
4456.000000	64.971256 
4455.000000	64.924025 
4454.000000	64.885568 
4453.000000	64.847087 
4452.000000	64.803194 
4451.000000	64.753556 
4450.000000	64.704370 
4449.000000	64.666104 
4448.000000	64.650249 
4447.000000	64.665007 
4446.000000	64.711689 
4445.000000	64.782166 
4444.000000	64.865541 
4443.000000	64.951705 
4442.000000	65.032911 
4441.000000	65.106582 
4440.000000	65.178227 
4439.000000	65.259575 
4438.000000	65.362334 
4437.000000	65.495538 
4436.000000	65.662789 
4435.000000	65.859699 
4434.000000	66.078329 
4433.000000	66.304254 
4432.000000	66.515779 
4431.000000	66.690421 
4430.000000	66.812396 
4429.000000	66.873979 
4428.000000	66.879010 
4427.000000	66.840338 
4426.000000	66.771984 
4425.000000	66.692781 
4424.000000	66.630291 
4423.000000	66.603207 
4422.000000	66.621065 
4421.000000	66.671800 
4420.000000	66.726160 
4419.000000	66.736960 
4418.000000	66.651272 
4417.000000	66.425347 
4416.000000	66.036820 
4415.000000	65.493226 
4414.000000	64.833450 
4413.000000	64.099216 
4412.000000	63.340330 
4411.000000	62.596392 
4410.000000	61.917567 
4409.000000	61.376571 
4408.000000	61.065673 
4407.000000	61.107516 
4406.000000	61.596536 
4405.000000	62.570738 
4404.000000	63.962054 
4403.000000	65.589070 
4402.000000	67.175412 
4401.000000	68.406534 
4400.000000	68.990898 
4399.000000	68.740630 
4398.000000	67.603754 
4397.000000	65.677070 
4396.000000	63.193702 
4395.000000	60.464262 
4394.000000	57.838916 
4393.000000	55.639100 
4392.000000	54.112911 
4391.000000	53.401541 
4390.000000	53.518080 
4389.000000	54.362535 
4388.000000	55.743527 
4387.000000	57.429146 
4386.000000	59.196662 
4385.000000	60.877060 
4384.000000	62.366652 
4383.000000	63.635516 
4382.000000	64.693379 
4381.000000	65.576767 
4380.000000	66.314363 
4379.000000	66.920065 
4378.000000	67.398858 
4377.000000	67.740702 
4376.000000	67.960715 
4375.000000	68.070816 
4374.000000	68.100500 
4373.000000	68.072032 
4372.000000	68.004751 
4371.000000	67.905354 
4370.000000	67.776679 
4369.000000	67.614626 
4368.000000	67.420077 
4367.000000	67.195320 
4366.000000	66.949272 
4365.000000	66.694855 
4364.000000	66.449236 
4363.000000	66.224694 
4362.000000	66.025757 
4361.000000	65.855646 
4360.000000	65.716409 
4359.000000	65.604829 
4358.000000	65.515565 
4357.000000	65.440392 
4356.000000	65.372347 
4355.000000	65.312218 
4354.000000	65.267062 
4353.000000	65.239572 
4352.000000	65.232086 
4351.000000	65.248131 
4350.000000	65.288877 
4349.000000	65.348291 
4348.000000	65.416479 
4347.000000	65.482711 
4346.000000	65.535998 
4345.000000	65.565681 
4344.000000	65.565848 
4343.000000	65.536761 
4342.000000	65.484666 
4341.000000	65.420532 
4340.000000	65.356707 
4339.000000	65.303587 
4338.000000	65.267539 
4337.000000	65.250062 
4336.000000	65.246748 
4335.000000	65.249037 
4334.000000	65.247726 
4333.000000	65.235829 
4332.000000	65.209007 
4331.000000	65.167498 
4330.000000	65.115880 
4329.000000	65.062594 
4328.000000	65.017080 
4327.000000	64.988398 
4326.000000	64.983439 
4325.000000	65.005040 
4324.000000	65.051460 
4323.000000	65.115952 
4322.000000	65.188717 
4321.000000	65.258336 
4320.000000	65.313863 
4319.000000	65.347242 
4318.000000	65.354394 
4317.000000	65.336060 
4316.000000	65.297222 
4315.000000	65.246224 
4314.000000	65.192699 
4313.000000	65.145969 
4312.000000	65.113520 
4311.000000	65.099620 
4310.000000	65.105247 
4309.000000	65.127539 
4308.000000	65.160989 
4307.000000	65.198588 
4306.000000	65.233612 
4305.000000	65.260601 
4304.000000	65.276408 
4303.000000	65.280485 
4302.000000	65.274572 
4301.000000	65.262103 
4300.000000	65.247249 
4299.000000	65.233445 
4298.000000	65.222716 
4297.000000	65.215682 
4296.000000	65.211486 
4295.000000	65.208601 
4294.000000	65.205454 
4293.000000	65.200996 
4292.000000	65.195608 
4291.000000	65.190505 
4290.000000	65.188026 
4289.000000	65.190172 
4288.000000	65.198588 
4287.000000	65.213513 
4286.000000	65.233850 
4285.000000	65.257191 
4284.000000	65.280437 
4283.000000	65.300703 
4282.000000	65.315437 
4281.000000	65.322852 
4280.000000	65.322184 
4279.000000	65.313458 
4278.000000	65.297007 
4277.000000	65.272974 
4276.000000	65.241169 
4275.000000	65.200924 
4274.000000	65.151524 
4273.000000	65.092706 
4272.000000	65.025043 
4271.000000	64.950561 
4270.000000	64.873027 
4269.000000	64.798331 
4268.000000	64.732694 
4267.000000	64.683461 
4266.000000	64.656782 
4265.000000	64.657711 
4264.000000	64.688014 
4263.000000	64.746499 
4262.000000	64.828538 
4261.000000	64.926838 
4260.000000	65.032076 
4259.000000	65.134572 
4258.000000	65.225386 
4257.000000	65.298080 
4256.000000	65.349268 
4255.000000	65.378761 
4254.000000	65.388870 
4253.000000	65.383958 
4252.000000	65.369081 
4251.000000	65.349221 
4250.000000	65.328025 
4249.000000	65.307998 
4248.000000	65.289759 
4247.000000	65.272474 
4246.000000	65.253996 
4245.000000	65.232205 
4244.000000	65.205097 
4243.000000	65.171718 
4242.000000	65.132308 
4241.000000	65.088176 
4240.000000	65.041828 
4239.000000	64.995884 
4238.000000	64.953446 
4237.000000	64.916729 
4236.000000	64.888215 
4235.000000	64.869761 
4234.000000	64.863300 
4233.000000	64.870238 
4232.000000	64.891505 
4231.000000	64.927053 
4230.000000	64.975285 
4229.000000	65.032458 
4228.000000	65.093111 
4227.000000	65.150761 
4226.000000	65.198636 
4225.000000	65.230965 
4224.000000	65.244531 
4223.000000	65.239453 
4222.000000	65.219163 
4221.000000	65.189266 
4220.000000	65.157318 
4219.000000	65.130090 
4218.000000	65.112137 
4217.000000	65.104579 
4216.000000	65.105557 
4215.000000	65.110039 
4214.000000	65.112423 
4213.000000	65.107154 
4212.000000	65.090441 
4211.000000	65.061140 
4210.000000	65.020871 
4209.000000	64.973998 
4208.000000	64.926171 
4207.000000	64.883780 
4206.000000	64.851927 
4205.000000	64.834165 
4204.000000	64.831519 
4203.000000	64.843177 
4202.000000	64.866852 
4201.000000	64.900040 
4200.000000	64.940285 
4199.000000	64.984846 
4198.000000	65.029883 
4197.000000	65.069079 
4196.000000	65.093398 
4195.000000	65.091633 
4194.000000	65.053153 
4193.000000	64.970517 
4192.000000	64.842605 
4191.000000	64.677000 
4190.000000	64.489078 
4189.000000	64.300107 
4188.000000	64.132404 
4187.000000	64.005327 
4186.000000	63.930583 
4185.000000	63.909626 
4184.000000	63.934469 
4183.000000	63.989400 
4182.000000	64.056372 
4181.000000	64.119005 
4180.000000	64.166569 
4179.000000	64.195346 
4178.000000	64.207816 
4177.000000	64.209342 
4176.000000	64.206123 
4175.000000	64.201855 
4174.000000	64.197659 
4173.000000	64.191937 
4172.000000	64.183187 
4171.000000	64.171457 
4170.000000	64.158964 
4169.000000	64.150214 
4168.000000	64.150762 
4167.000000	64.165592 
4166.000000	64.197134 
4165.000000	64.244723 
4164.000000	64.304184 
4163.000000	64.369106 
4162.000000	64.432215 
4161.000000	64.487051 
4160.000000	64.529871 
4159.000000	64.559388 
4158.000000	64.576315 
4157.000000	64.582920 
4156.000000	64.582109 
4155.000000	64.576768 
4154.000000	64.568972 
4153.000000	64.560675 
4152.000000	64.554095 
4151.000000	64.551877 
4150.000000	64.557623 
4149.000000	64.574646 
4148.000000	64.605188 
4147.000000	64.650321 
4146.000000	64.709401 
4145.000000	64.779639 
4144.000000	64.856362 
4143.000000	64.933824 
4142.000000	65.005874 
4141.000000	65.066981 
4140.000000	65.112614 
4139.000000	65.140151 
4138.000000	65.148758 
4137.000000	65.139460 
4136.000000	65.114951 
4135.000000	65.079307 
4134.000000	65.037345 
4133.000000	64.994859 
4132.000000	64.956855 
4131.000000	64.928030 
4130.000000	64.910745 
4129.000000	64.905571 
4128.000000	64.910101 
4127.000000	64.919996 
4126.000000	64.929175 
4125.000000	64.931321 
4124.000000	64.921164 
4123.000000	64.895653 
4122.000000	64.854693 
4121.000000	64.800977 
4120.000000	64.739251 
4119.000000	64.675259 
4118.000000	64.614176 
4117.000000	64.559650 
4116.000000	64.513421 
4115.000000	64.475679 
4114.000000	64.445114 
4113.000000	64.420294 
4112.000000	64.400362 
4111.000000	64.385628 
4110.000000	64.377093 
4109.000000	64.376640 
4108.000000	64.385700 
4107.000000	64.405679 
4106.000000	64.435958 
4105.000000	64.475083 
4104.000000	64.520120 
4103.000000	64.567565 
4102.000000	64.614009 
4101.000000	64.656400 
4100.000000	64.692378 
4099.000000	64.720487 
4098.000000	64.740300 
4097.000000	64.752173 
4096.000000	64.756965 
4095.000000	64.756178 
4094.000000	64.751625 
4093.000000	64.745211 
4092.000000	64.738488 
4091.000000	64.732718 
4090.000000	64.728975 
4089.000000	64.727616 
4088.000000	64.728832 
4087.000000	64.732575 
4086.000000	64.738893 
4085.000000	64.747786 
4084.000000	64.759278 
4083.000000	64.773511 
4082.000000	64.790582 
4081.000000	64.810252 
4080.000000	64.831924 
4079.000000	64.854574 
4078.000000	64.876818 
4077.000000	64.897608 
4076.000000	64.915871 
4075.000000	64.930772 
4074.000000	64.941883 
4073.000000	64.949631 
4072.000000	64.954638 
4071.000000	64.957714 
4070.000000	64.960169 
4069.000000	64.963603 
4068.000000	64.969658 
4067.000000	64.979743 
4066.000000	64.994215 
4065.000000	65.012264 
4064.000000	65.031719 
4063.000000	65.049457 
4062.000000	65.061759 
4061.000000	65.065312 
4060.000000	65.058016 
4059.000000	65.039825 
4058.000000	65.013074 
4057.000000	64.981746 
4056.000000	64.951157 
4055.000000	64.925909 
4054.000000	64.909267 
4053.000000	64.901590 
4052.000000	64.900350 
4051.000000	64.900588 
4050.000000	64.896512 
4049.000000	64.882683 
4048.000000	64.855217 
4047.000000	64.813399 
4046.000000	64.759612 
4045.000000	64.699149 
4044.000000	64.638614 
4043.000000	64.585638 
4042.000000	64.547109 
4041.000000	64.528489 
4040.000000	64.532566 
4039.000000	64.559268 
4038.000000	64.605593 
4037.000000	64.666008 
4036.000000	64.733552 
4035.000000	64.800572 
4034.000000	64.860153 
4033.000000	64.906835 
4032.000000	64.937591 
4031.000000	64.952039 
4030.000000	64.951753 
4029.000000	64.940357 
4028.000000	64.921855 
4027.000000	64.899897 
4026.000000	64.876723 
4025.000000	64.853525 
4024.000000	64.829707 
4023.000000	64.803862 
4022.000000	64.774250 
4021.000000	64.740157 
4020.000000	64.702081 
4019.000000	64.661645 
4018.000000	64.621949 
4017.000000	64.586544 
4016.000000	64.559125 
4015.000000	64.542722 
4014.000000	64.539217 
4013.000000	64.549112 
4012.000000	64.571356 
4011.000000	64.603352 
4010.000000	64.641809 
4009.000000	64.683151 
4008.000000	64.723992 
4007.000000	64.761567 
4006.000000	64.794015 
4005.000000	64.820456 
4004.000000	64.841222 
4003.000000	64.857268 
4002.000000	64.869832 
4001.000000	64.880084 
4000.000000	64.889073 
3999.000000	64.897537 
3998.000000	64.906048 
3997.000000	64.914679 
3996.000000	64.923334 
3995.000000	64.931726 
3994.000000	64.939665 
3993.000000	64.946722 
3992.000000	64.952325 
3991.000000	64.955973 
3990.000000	64.957237 
3989.000000	64.956188 
3988.000000	64.953470 
3987.000000	64.950871 
3986.000000	64.950990 
3985.000000	64.957046 
3984.000000	64.972257 
3983.000000	64.998912 
3982.000000	65.037608 
3981.000000	65.086603 
3980.000000	65.141606 
3979.000000	65.196275 
3978.000000	65.243268 
3977.000000	65.275812 
3976.000000	65.289235 
3975.000000	65.281867 
3974.000000	65.255737 
3973.000000	65.216517 
3972.000000	65.172004 
3971.000000	65.130615 
3970.000000	65.099048 
3969.000000	65.081286 
3968.000000	65.077352 
3967.000000	65.083813 
3966.000000	65.095067 
3965.000000	65.104937 
3964.000000	65.108704 
3963.000000	65.104031 
3962.000000	65.091800 
3961.000000	65.075230 
3960.000000	65.059018 
3959.000000	65.047526 
3958.000000	65.043973 
3957.000000	65.049409 
3956.000000	65.062999 
3955.000000	65.082120 
3954.000000	65.103602 
3953.000000	65.124297 
3952.000000	65.141582 
3951.000000	65.153717 
3950.000000	65.159797 
3949.000000	65.159368 
3948.000000	65.151953 
3947.000000	65.137410 
3946.000000	65.116238 
3945.000000	65.089559 
3944.000000	65.059709 
3943.000000	65.029573 
3942.000000	65.002632 
3941.000000	64.981818 
3940.000000	64.969205 
3939.000000	64.965295 
3938.000000	64.968872 
3937.000000	64.977502 
3936.000000	64.988327 
3935.000000	64.998555 
3934.000000	65.006113 
3933.000000	65.010380 
3932.000000	65.011930 
3931.000000	65.012383 
3930.000000	65.013575 
3929.000000	65.016818 
3928.000000	65.022325 
3927.000000	65.028667 
3926.000000	65.033125 
3925.000000	65.032434 
3924.000000	65.023589 
3923.000000	65.004992 
3922.000000	64.977240 
3921.000000	64.943289 
3920.000000	64.907717 
3919.000000	64.875936 
3918.000000	64.852619 
3917.000000	64.840793 
3916.000000	64.840841 
3915.000000	64.850592 
3914.000000	64.866042 
3913.000000	64.882087 
3912.000000	64.894819 
3911.000000	64.902043 
3910.000000	64.904427 
3909.000000	64.904999 
3908.000000	64.908146 
3907.000000	64.918041 
3906.000000	64.937305 
3905.000000	64.966034 
3904.000000	65.001463 
3903.000000	65.038537 
3902.000000	65.071249 
3901.000000	65.094137 
3900.000000	65.103626 
3899.000000	65.099072 
3898.000000	65.082597 
3897.000000	65.058875 
3896.000000	65.034174 
3895.000000	65.014719 
3894.000000	65.005707 
3893.000000	65.009665 
3892.000000	65.026473 
3891.000000	65.052700 
3890.000000	65.083241 
3889.000000	65.111851 
3888.000000	65.132498 
3887.000000	65.140676 
3886.000000	65.134382 
3885.000000	65.114521 
3884.000000	65.084528 
3883.000000	65.049886 
3882.000000	65.016698 
3881.000000	64.990806 
3880.000000	64.976572 
3879.000000	64.976024 
3878.000000	64.988708 
3877.000000	65.011668 
3876.000000	65.040326 
3875.000000	65.069127 
3874.000000	65.092730 
3873.000000	65.106558 
3872.000000	65.107607 
3871.000000	65.094614 
3870.000000	65.068292 
3869.000000	65.031433 
3868.000000	64.988493 
3867.000000	64.944696 
3866.000000	64.905309 
3865.000000	64.874839 
3864.000000	64.856076 
3863.000000	64.850115 
3862.000000	64.856243 
3861.000000	64.872193 
3860.000000	64.894819 
3859.000000	64.920759 
3858.000000	64.946937 
3857.000000	64.970970 
3856.000000	64.991331 
3855.000000	65.007114 
3854.000000	65.018200 
3853.000000	65.024852 
3852.000000	65.028119 
3851.000000	65.029406 
3850.000000	65.030479 
3849.000000	65.033268 
3848.000000	65.039467 
3847.000000	65.049958 
3846.000000	65.064406 
3845.000000	65.080785 
3844.000000	65.095615 
3843.000000	65.104651 
3842.000000	65.104174 
3841.000000	65.092206 
3840.000000	65.069150 
3839.000000	65.038037 
3838.000000	65.004253 
3837.000000	64.974212 
3836.000000	64.953970 
3835.000000	64.947772 
3834.000000	64.956998 
3833.000000	64.980101 
3832.000000	65.012979 
3831.000000	65.050101 
3830.000000	65.085983 
3829.000000	65.116357 
3828.000000	65.139150 
3827.000000	65.154647 
3826.000000	65.164875 
3825.000000	65.172863 
3824.000000	65.181350 
3823.000000	65.192151 
3822.000000	65.205502 
3821.000000	65.220260 
3820.000000	65.234160 
3819.000000	65.244245 
3818.000000	65.247440 
3817.000000	65.241503 
3816.000000	65.225124 
3815.000000	65.198302 
3814.000000	65.162420 
3813.000000	65.119695 
3812.000000	65.072846 
3811.000000	65.024852 
3810.000000	64.978551 
3809.000000	64.936161 
3808.000000	64.899897 
3807.000000	64.871525 
3806.000000	64.853119 
3805.000000	64.846277 
3804.000000	64.852571 
3803.000000	64.872622 
3802.000000	64.906096 
3801.000000	64.950990 
3800.000000	65.003991 
3799.000000	65.060377 
3798.000000	65.114927 
3797.000000	65.162587 
3796.000000	65.199780 
3795.000000	65.225005 
3794.000000	65.239024 
3793.000000	65.244460 
3792.000000	65.244913 
3791.000000	65.243721 
3790.000000	65.243005 
3789.000000	65.243101 
3788.000000	65.242743 
3787.000000	65.239334 
3786.000000	65.230250 
3785.000000	65.213370 
3784.000000	65.188145 
3783.000000	65.155673 
3782.000000	65.118575 
3781.000000	65.080809 
3780.000000	65.046334 
3779.000000	65.019130 
3778.000000	65.002131 
3777.000000	64.997172 
3776.000000	65.004420 
3775.000000	65.022778 
3774.000000	65.050125 
3773.000000	65.083193 
3772.000000	65.118145 
3771.000000	65.150856 
3770.000000	65.177106 
3769.000000	65.193557 
3768.000000	65.198040 
3767.000000	65.189981 
3766.000000	65.170192 
3765.000000	65.141201 
3764.000000	65.106439 
3763.000000	65.069723 
3762.000000	65.034294 
3761.000000	65.002536 
3760.000000	64.975428 
3759.000000	64.952802 
3758.000000	64.933729 
3757.000000	64.916682 
3756.000000	64.900684 
3755.000000	64.884996 
3754.000000	64.870429 
3753.000000	64.858508 
3752.000000	64.851737 
3751.000000	64.852380 
3750.000000	64.862227 
3749.000000	64.881467 
3748.000000	64.908790 
3747.000000	64.941430 
3746.000000	64.975476 
3745.000000	65.006828 
3744.000000	65.031766 
3743.000000	65.047717 
3742.000000	65.053343 
3741.000000	65.048718 
3740.000000	65.035033 
3739.000000	65.014410 
3738.000000	64.989614 
3737.000000	64.963650 
3736.000000	64.939665 
3735.000000	64.920210 
3734.000000	64.907288 
3733.000000	64.901614 
3732.000000	64.902877 
3731.000000	64.909601 
3730.000000	64.919257 
3729.000000	64.929342 
3728.000000	64.937353 
3727.000000	64.941978 
3726.000000	64.943265 
3725.000000	64.942526 
3724.000000	64.942145 
3723.000000	64.944481 
3722.000000	64.951372 
3721.000000	64.963126 
3720.000000	64.978504 
3719.000000	64.995288 
3718.000000	65.010881 
3717.000000	65.023183 
3716.000000	65.031218 
3715.000000	65.035319 
3714.000000	65.036749 
3713.000000	65.037059 
3712.000000	65.037584 
3711.000000	65.038609 
3710.000000	65.039348 
3709.000000	65.038299 
3708.000000	65.033555 
3707.000000	65.023636 
3706.000000	65.007901 
3705.000000	64.987206 
3704.000000	64.963579 
3703.000000	64.939641 
3702.000000	64.918231 
3701.000000	64.901447 
3700.000000	64.890623 
3699.000000	64.885687 
3698.000000	64.885616 
3697.000000	64.888691 
3696.000000	64.893054 
3695.000000	64.897060 
3694.000000	64.899563 
3693.000000	64.899921 
3692.000000	64.898395 
3691.000000	64.895796 
3690.000000	64.893460 
3689.000000	64.892673 
3688.000000	64.894604 
3687.000000	64.899921 
3686.000000	64.908432 
3685.000000	64.919257 
3684.000000	64.930891 
3683.000000	64.941787 
3682.000000	64.950323 
3681.000000	64.955186 
3680.000000	64.955568 
3679.000000	64.951562 
3678.000000	64.943885 
3677.000000	64.934349 
3676.000000	64.925575 
3675.000000	64.920783 
3674.000000	64.923262 
3673.000000	64.935326 
3672.000000	64.957904 
3671.000000	64.989948 
3670.000000	65.028476 
3669.000000	65.069007 
3668.000000	65.106177 
3667.000000	65.134716 
3666.000000	65.150928 
3665.000000	65.153074 
3664.000000	65.141820 
3663.000000	65.119719 
3662.000000	65.090608 
3661.000000	65.058183 
3660.000000	65.025305 
3659.000000	64.993405 
3658.000000	64.962673 
3657.000000	64.932703 
3656.000000	64.903163 
3655.000000	64.874553 
3654.000000	64.848375 
3653.000000	64.826416 
3652.000000	64.810681 
3651.000000	64.801907 
3650.000000	64.800000 
3649.000000	64.803576 
3648.000000	64.811134 
3647.000000	64.820885 
3646.000000	64.832234 
3645.000000	64.845705 
3644.000000	64.862704 
3643.000000	64.884948 
3642.000000	64.913558 
3641.000000	64.948391 
3640.000000	64.987516 
3639.000000	65.027451 
3638.000000	65.063810 
3637.000000	65.092515 
3636.000000	65.110778 
3635.000000	65.117764 
3634.000000	65.114712 
3633.000000	65.104508 
3632.000000	65.090823 
3631.000000	65.077042 
3630.000000	65.065503 
3629.000000	65.057134 
3628.000000	65.051817 
3627.000000	65.048933 
3626.000000	65.047669 
3625.000000	65.047335 
3624.000000	65.047955 
3623.000000	65.049791 
3622.000000	65.053176 
3621.000000	65.057849 
3620.000000	65.062713 
3619.000000	65.066099 
3618.000000	65.065741 
3617.000000	65.059852 
3616.000000	65.047454 
3615.000000	65.029263 
3614.000000	65.007829 
3613.000000	64.986658 
3612.000000	64.969611 
3611.000000	64.959573 
3610.000000	64.957571 
3609.000000	64.962482 
3608.000000	64.971089 
3607.000000	64.979529 
3606.000000	64.984679 
3605.000000	64.985132 
3604.000000	64.981627 
3603.000000	64.976763 
3602.000000	64.974379 
3601.000000	64.977884 
3600.000000	64.989328 
3599.000000	65.008354 
3598.000000	65.032410 
3597.000000	65.057682 
3596.000000	65.079855 
3595.000000	65.095710 
3594.000000	65.103435 
3593.000000	65.103745 
3592.000000	65.098667 
3591.000000	65.090870 
3590.000000	65.082645 
3589.000000	65.075039 
3588.000000	65.067815 
3587.000000	65.059852 
3586.000000	65.049672 
3585.000000	65.036392 
3584.000000	65.019631 
3583.000000	65.000009 
3582.000000	64.978694 
3581.000000	64.957189 
3580.000000	64.936947 
3579.000000	64.919161 
3578.000000	64.904618 
3577.000000	64.893531 
3576.000000	64.886021 
3575.000000	64.882111 
3574.000000	64.881515 
3573.000000	64.884018 
3572.000000	64.889621 
3571.000000	64.898729 
3570.000000	64.911723 
3569.000000	64.929175 
3568.000000	64.951682 
3567.000000	64.979147 
3566.000000	65.010905 
3565.000000	65.045022 
3564.000000	65.078210 
3563.000000	65.106439 
3562.000000	65.125322 
3561.000000	65.131640 
3560.000000	65.124225 
3559.000000	65.104484 
3558.000000	65.076732 
3557.000000	65.046787 
3556.000000	65.020751 
3555.000000	65.003132 
3554.000000	64.996170 
3553.000000	64.998340 
3552.000000	65.005183 
3551.000000	65.010333 
3550.000000	65.007472 
3549.000000	64.991784 
3548.000000	64.961385 
3547.000000	64.917683 
3546.000000	64.865207 
3545.000000	64.810085 
3544.000000	64.759063 
3543.000000	64.717459 
3542.000000	64.688992 
3541.000000	64.675474 
3540.000000	64.676928 
3539.000000	64.692211 
3538.000000	64.719152 
3537.000000	64.754867 
3536.000000	64.796090 
3535.000000	64.838624 
3534.000000	64.878845 
3533.000000	64.913201 
3532.000000	64.939761 
3531.000000	64.957833 
3530.000000	64.968919 
3529.000000	64.976000 
3528.000000	64.983034 
3527.000000	64.993762 
3526.000000	65.010690 
3525.000000	65.034127 
3524.000000	65.062141 
3523.000000	65.090918 
3522.000000	65.115857 
3521.000000	65.132570 
3520.000000	65.138292 
3519.000000	65.132212 
3518.000000	65.115451 
3517.000000	65.090775 
3516.000000	65.061450 
3515.000000	65.031075 
3514.000000	65.002703 
3513.000000	64.978742 
3512.000000	64.961504 
3511.000000	64.952349 
3510.000000	64.951968 
3509.000000	64.960122 
3508.000000	64.975619 
3507.000000	64.996504 
3506.000000	65.020251 
3505.000000	65.044260 
3504.000000	65.065813 
3503.000000	65.083003 
3502.000000	65.094828 
3501.000000	65.101408 
3500.000000	65.103554 
3499.000000	65.102291 
3498.000000	65.098309 
3497.000000	65.091776 
3496.000000	65.082216 
3495.000000	65.068960 
3494.000000	65.051436 
3493.000000	65.029788 
3492.000000	65.005064 
3491.000000	64.979243 
3490.000000	64.955329 
3489.000000	64.936232 
3488.000000	64.924788 
3487.000000	64.923501 
3486.000000	64.934039 
3485.000000	64.956831 
3484.000000	64.990711 
3483.000000	65.032839 
3482.000000	65.078616 
3481.000000	65.122056 
3480.000000	65.157151 
3479.000000	65.178418 
3478.000000	65.182971 
3477.000000	65.170478 
3476.000000	65.144777 
3475.000000	65.112853 
3474.000000	65.083646 
3473.000000	65.066313 
3472.000000	65.067529 
3471.000000	65.089797 
3470.000000	65.130519 
3469.000000	65.182423 
3468.000000	65.235066 
3467.000000	65.277338 
3466.000000	65.300178 
3465.000000	65.298485 
3464.000000	65.271949 
3463.000000	65.224909 
3462.000000	65.164852 
3461.000000	65.100526 
3460.000000	65.039610 
3459.000000	64.987468 
3458.000000	64.946556 
3457.000000	64.916396 
3456.000000	64.894819 
3455.000000	64.878749 
3454.000000	64.865612 
3453.000000	64.853978 
3452.000000	64.843654 
3451.000000	64.835572 
3450.000000	64.830327 
3449.000000	64.828848 
3448.000000	64.831447 
3447.000000	64.838218 
3446.000000	64.848470 
3445.000000	64.861559 
3444.000000	64.876866 
3443.000000	64.893770 
3442.000000	64.911556 
3441.000000	64.929223 
3440.000000	64.945411 
3439.000000	64.958620 
3438.000000	64.967536 
3437.000000	64.971327 
3436.000000	64.970445 
3435.000000	64.966154 
3434.000000	64.960861 
3433.000000	64.957547 
3432.000000	64.958834 
3431.000000	64.966607 
3430.000000	64.981007 
3429.000000	65.000152 
3428.000000	65.020465 
3427.000000	65.037941 
3426.000000	65.048551 
3425.000000	65.049147 
3424.000000	65.038466 
3423.000000	65.017366 
3422.000000	64.988517 
3421.000000	64.955496 
3420.000000	64.922356 
3419.000000	64.892625 
3418.000000	64.868760 
3417.000000	64.851856 
3416.000000	64.841914 
3415.000000	64.838075 
3414.000000	64.839053 
3413.000000	64.843368 
3412.000000	64.849519 
3411.000000	64.856028 
3410.000000	64.861321 
3409.000000	64.863848 
3408.000000	64.862108 
3407.000000	64.855098 
3406.000000	64.842724 
3405.000000	64.825797 
3404.000000	64.806294 
3403.000000	64.786958 
3402.000000	64.770674 
3401.000000	64.760065 
3400.000000	64.756751 
3399.000000	64.761495 
3398.000000	64.773702 
3397.000000	64.792227 
3396.000000	64.815449 
3395.000000	64.842009 
3394.000000	64.870786 
3393.000000	64.900994 
3392.000000	64.931917 
3391.000000	64.962744 
3390.000000	64.992427 
3389.000000	65.019702 
3388.000000	65.043115 
3387.000000	65.061354 
3386.000000	65.073585 
3385.000000	65.079903 
3384.000000	65.081286 
3383.000000	65.079450 
3382.000000	65.076351 
3381.000000	65.073776 
3380.000000	65.072846 
3379.000000	65.073680 
3378.000000	65.076017 
3377.000000	65.078735 
3376.000000	65.081071 
3375.000000	65.082788 
3374.000000	65.084481 
3373.000000	65.087413 
3372.000000	65.093016 
3371.000000	65.102577 
3370.000000	65.116071 
3369.000000	65.132236 
3368.000000	65.148091 
3367.000000	65.159606 
3366.000000	65.162372 
3365.000000	65.153002 
3364.000000	65.129733 
3363.000000	65.093398 
3362.000000	65.047359 
3361.000000	64.997076 
3360.000000	64.948773 
3359.000000	64.908289 
3358.000000	64.879798 
3357.000000	64.865112 
3356.000000	64.863586 
3355.000000	64.872312 
3354.000000	64.887046 
3353.000000	64.903092 
3352.000000	64.916276 
3351.000000	64.923930 
3350.000000	64.924550 
3349.000000	64.918327 
3348.000000	64.906358 
3347.000000	64.890670 
3346.000000	64.873552 
3345.000000	64.857220 
3344.000000	64.843606 
3343.000000	64.834070 
3342.000000	64.829421 
3341.000000	64.830017 
3340.000000	64.835786 
3339.000000	64.846348 
3338.000000	64.860916 
3337.000000	64.879131 
3336.000000	64.901018 
3335.000000	64.927053 
3334.000000	64.957737 
3333.000000	64.993429 
3332.000000	65.033578 
3331.000000	65.076589 
3330.000000	65.119314 
3329.000000	65.157461 
3328.000000	65.186095 
3327.000000	65.200996 
3326.000000	65.199613 
3325.000000	65.181827 
3324.000000	65.150284 
3323.000000	65.110421 
3322.000000	65.069270 
3321.000000	65.034294 
3320.000000	65.011286 
3319.000000	65.003943 
3318.000000	65.011906 
3317.000000	65.031743 
3316.000000	65.056848 
3315.000000	65.079665 
3314.000000	65.092992 
3313.000000	65.091466 
3312.000000	65.072846 
3311.000000	65.038108 
3310.000000	64.991164 
3309.000000	64.937973 
3308.000000	64.884972 
3307.000000	64.837908 
3306.000000	64.801073 
3305.000000	64.776825 
3304.000000	64.765405 
3303.000000	64.765453 
3302.000000	64.774727 
3301.000000	64.790844 
3300.000000	64.810967 
3299.000000	64.833307 
3298.000000	64.856386 
3297.000000	64.879894 
3296.000000	64.903497 
3295.000000	64.927458 
3294.000000	64.951944 
3293.000000	64.977240 
3292.000000	65.003395 
3291.000000	65.029954 
3290.000000	65.055871 
3289.000000	65.079474 
3288.000000	65.098953 
3287.000000	65.112352 
3286.000000	65.118122 
3285.000000	65.115213 
3284.000000	65.103673 
3283.000000	65.084505 
3282.000000	65.059804 
3281.000000	65.032434 
3280.000000	65.005707 
3279.000000	64.982604 
3278.000000	64.965415 
3277.000000	64.955568 
3276.000000	64.953112 
3275.000000	64.956641 
3274.000000	64.963674 
3273.000000	64.970946 
3272.000000	64.975619 
3271.000000	64.975476 
3270.000000	64.970064 
3269.000000	64.960336 
3268.000000	64.949107 
3267.000000	64.940214 
3266.000000	64.937543 
3265.000000	64.944005 
3264.000000	64.960432 
3263.000000	64.985561 
3262.000000	65.015387 
3261.000000	65.044307 
3260.000000	65.066170 
3259.000000	65.075850 
3258.000000	65.070414 
3257.000000	65.049743 
3256.000000	65.016698 
3255.000000	64.976406 
3254.000000	64.935231 
3253.000000	64.899182 
3252.000000	64.872717 
3251.000000	64.857816 
3250.000000	64.854049 
3249.000000	64.858889 
3248.000000	64.868378 
3247.000000	64.878439 
3246.000000	64.885711 
3245.000000	64.888596 
3244.000000	64.887332 
3243.000000	64.883875 
3242.000000	64.881014 
3241.000000	64.881396 
3240.000000	64.886617 
3239.000000	64.896559 
3238.000000	64.909529 
3237.000000	64.922189 
3236.000000	64.930391 
3235.000000	64.930224 
3234.000000	64.919281 
3233.000000	64.896988 
3232.000000	64.864873 
3231.000000	64.826416 
3230.000000	64.786577 
3229.000000	64.750742 
3228.000000	64.723587 
3227.000000	64.708423 
3226.000000	64.706587 
3225.000000	64.717435 
3224.000000	64.738273 
3223.000000	64.765119 
3222.000000	64.793229 
3221.000000	64.817571 
3220.000000	64.833784 
3219.000000	64.838528 
3218.000000	64.830493 
3217.000000	64.810299 
3216.000000	64.780831 
3215.000000	64.746522 
3214.000000	64.712786 
3213.000000	64.685153 
3212.000000	64.668345 
3211.000000	64.665269 
3210.000000	64.676952 
3209.000000	64.702272 
3208.000000	64.738821 
3207.000000	64.783096 
3206.000000	64.831995 
3205.000000	64.883160 
3204.000000	64.935040 
3203.000000	64.986872 
3202.000000	65.037989 
3201.000000	65.087270 
3200.000000	65.132665 
3199.000000	65.171360 
3198.000000	65.200161 
3197.000000	65.216040 
3196.000000	65.217638 
3195.000000	65.205264 
3194.000000	65.181350 
3193.000000	65.149688 
3192.000000	65.114903 
3191.000000	65.081405 
3190.000000	65.052580 
3189.000000	65.030241 
3188.000000	65.014505 
3187.000000	65.004134 
3186.000000	64.997363 
3185.000000	64.992356 
3184.000000	64.987683 
3183.000000	64.982652 
3182.000000	64.976811 
3181.000000	64.970207 
3180.000000	64.962577 
3179.000000	64.953899 
3178.000000	64.944291 
3177.000000	64.934062 
3176.000000	64.923858 
3175.000000	64.914727 
3174.000000	64.907884 
3173.000000	64.904379 
3172.000000	64.904665 
3171.000000	64.908838 
3170.000000	64.916563 
3169.000000	64.927124 
3168.000000	64.939641 
3167.000000	64.953398 
3166.000000	64.967608 
3165.000000	64.981770 
3164.000000	64.995074 
3163.000000	65.006566 
3162.000000	65.015029 
3161.000000	65.019130 
3160.000000	65.017843 
3159.000000	65.010666 
3158.000000	64.997887 
3157.000000	64.980959 
3156.000000	64.961910 
3155.000000	64.943146 
3154.000000	64.926838 
3153.000000	64.914441 
3152.000000	64.906477 
3151.000000	64.902448 
3150.000000	64.901137 
3149.000000	64.901113 
3148.000000	64.901304 
3147.000000	64.901399 
3146.000000	64.901781 
3145.000000	64.903402 
3144.000000	64.907550 
3143.000000	64.915490 
3142.000000	64.927983 
3141.000000	64.945054 
3140.000000	64.965891 
3139.000000	64.989042 
3138.000000	65.012884 
3137.000000	65.035247 
3136.000000	65.054035 
3135.000000	65.066933 
3134.000000	65.072250 
3133.000000	65.068626 
3132.000000	65.055394 
3131.000000	65.033125 
3130.000000	65.003538 
3129.000000	64.969635 
3128.000000	64.935541 
3127.000000	64.905428 
3126.000000	64.883279 
3125.000000	64.871096 
3124.000000	64.868879 
3123.000000	64.874124 
3122.000000	64.882254 
3121.000000	64.887642 
3120.000000	64.885139 
3119.000000	64.871144 
3118.000000	64.844870 
3117.000000	64.808440 
3116.000000	64.766788 
3115.000000	64.726281 
3114.000000	64.693880 
3113.000000	64.675426 
3112.000000	64.674878 
3111.000000	64.693570 
3110.000000	64.729928 
3109.000000	64.780402 
3108.000000	64.839863 
3107.000000	64.902305 
3106.000000	64.961957 
3105.000000	65.013813 
3104.000000	65.054011 
3103.000000	65.080237 
3102.000000	65.091776 
3101.000000	65.089368 
3100.000000	65.075087 
3099.000000	65.052270 
3098.000000	65.024518 
3097.000000	64.995336 
3096.000000	64.967727 
3095.000000	64.944195 
3094.000000	64.926433 
3093.000000	64.915466 
3092.000000	64.911913 
3091.000000	64.916205 
3090.000000	64.928507 
3089.000000	64.948463 
3088.000000	64.975047 
3087.000000	65.006208 
3086.000000	65.038728 
3085.000000	65.068721 
3084.000000	65.091824 
3083.000000	65.104246 
3082.000000	65.103387 
3081.000000	65.088582 
3080.000000	65.061497 
3079.000000	65.025973 
3078.000000	64.987373 
3077.000000	64.951610 
3076.000000	64.923858 
3075.000000	64.907693 
3074.000000	64.904880 
3073.000000	64.914774 
3072.000000	64.934754 
3071.000000	64.960908 
3070.000000	64.988827 
3069.000000	65.014672 
3068.000000	65.035367 
3067.000000	65.049314 
3066.000000	65.055990 
3065.000000	65.056276 
3064.000000	65.051674 
3063.000000	65.044140 
3062.000000	65.035581 
3061.000000	65.027618 
3060.000000	65.021276 
3059.000000	65.017151 
3058.000000	65.015244 
3057.000000	65.015268 
3056.000000	65.016555 
3055.000000	65.018558 
3054.000000	65.020656 
3053.000000	65.022444 
3052.000000	65.023660 
3051.000000	65.024137 
3050.000000	65.024089 
3049.000000	65.023326 
3048.000000	65.021872 
3047.000000	65.019488 
3046.000000	65.016365 
3045.000000	65.012764 
3044.000000	65.009784 
3043.000000	65.008997 
3042.000000	65.012383 
3041.000000	65.021777 
3040.000000	65.038323 
3039.000000	65.061879 
3038.000000	65.090584 
3037.000000	65.120887 
3036.000000	65.148138 
3035.000000	65.167546 
3034.000000	65.175390 
3033.000000	65.169787 
3032.000000	65.151548 
3031.000000	65.123748 
3030.000000	65.091443 
3029.000000	65.060114 
3028.000000	65.034651 
3027.000000	65.017771 
3026.000000	65.009975 
3025.000000	65.009331 
3024.000000	65.012693 
3023.000000	65.016365 
3022.000000	65.017533 
3021.000000	65.014648 
3020.000000	65.007901 
3019.000000	64.998626 
3018.000000	64.988493 
3017.000000	64.978981 
3016.000000	64.970827 
3015.000000	64.963936 
3014.000000	64.957451 
3013.000000	64.950871 
3012.000000	64.944338 
3011.000000	64.939045 
3010.000000	64.937186 
3009.000000	64.941430 
3008.000000	64.954304 
3007.000000	64.977049 
3006.000000	65.009164 
3005.000000	65.048456 
3004.000000	65.091228 
3003.000000	65.133166 
3002.000000	65.170216 
3001.000000	65.199589 
3000.000000	65.219879 
2999.000000	65.231561 
2998.000000	65.236282 
2997.000000	65.236377 
2996.000000	65.233826 
2995.000000	65.230035 
2994.000000	65.225076 
2993.000000	65.218234 
2992.000000	65.207839 
2991.000000	65.192198 
2990.000000	65.170073 
2989.000000	65.141391 
2988.000000	65.107202 
2987.000000	65.069699 
2986.000000	65.031814 
2985.000000	64.996600 
2984.000000	64.966940 
2983.000000	64.944934 
2982.000000	64.931917 
2981.000000	64.928340 
2980.000000	64.933681 
2979.000000	64.946794 
2978.000000	64.966082 
2977.000000	64.989709 
2976.000000	65.015506 
2975.000000	65.041232 
2974.000000	65.064787 
2973.000000	65.084195 
2972.000000	65.097761 
2971.000000	65.104126 
2970.000000	65.102553 
2969.000000	65.092611 
2968.000000	65.074539 
2967.000000	65.049099 
2966.000000	65.017533 
2965.000000	64.981722 
2964.000000	64.944028 
2963.000000	64.907336 
2962.000000	64.874792 
2961.000000	64.849495 
2960.000000	64.834165 
2959.000000	64.830613 
2958.000000	64.839339 
2957.000000	64.859342 
2956.000000	64.887905 
2955.000000	64.921045 
2954.000000	64.954113 
2953.000000	64.982509 
2952.000000	65.002441 
2951.000000	65.011739 
2950.000000	65.010094 
2949.000000	64.998984 
2948.000000	64.981341 
2947.000000	64.961171 
2946.000000	64.942598 
2945.000000	64.929175 
2944.000000	64.922976 
2943.000000	64.924860 
2942.000000	64.933824 
2941.000000	64.947938 
2940.000000	64.964342 
2939.000000	64.980053 
2938.000000	64.992308 
2937.000000	64.999151 
2936.000000	64.999389 
2935.000000	64.992642 
2934.000000	64.979386 
2933.000000	64.960479 
2932.000000	64.936995 
2931.000000	64.909934 
2930.000000	64.880323 
2929.000000	64.849185 
2928.000000	64.817571 
2927.000000	64.786291 
2926.000000	64.756155 
2925.000000	64.727735 
2924.000000	64.701151 
2923.000000	64.676094 
2922.000000	64.651703 
2921.000000	64.627194 
2920.000000	64.601850 
2919.000000	64.576172 
2918.000000	64.551305 
2917.000000	64.529490 
2916.000000	64.513468 
2915.000000	64.505887 
2914.000000	64.508581 
2913.000000	64.522171 
2912.000000	64.545345 
2911.000000	64.575290 
2910.000000	64.608097 
2909.000000	64.639639 
2908.000000	64.666557 
2907.000000	64.686989 
2906.000000	64.700818 
2905.000000	64.709758 
2904.000000	64.716434 
2903.000000	64.723992 
2902.000000	64.735054 
2901.000000	64.751029 
2900.000000	64.771747 
2899.000000	64.795827 
2898.000000	64.820909 
2897.000000	64.844298 
2896.000000	64.863562 
2895.000000	64.877295 
2894.000000	64.885187 
2893.000000	64.888072 
2892.000000	64.887714 
2891.000000	64.886474 
2890.000000	64.886784 
2889.000000	64.890646 
2888.000000	64.899396 
2887.000000	64.913487 
2886.000000	64.932155 
2885.000000	64.953994 
2884.000000	64.976882 
2883.000000	64.998722 
2882.000000	65.017771 
2881.000000	65.033006 
2880.000000	65.044498 
2879.000000	65.053200 
2878.000000	65.060949 
2877.000000	65.069890 
2876.000000	65.081644 
2875.000000	65.096592 
2874.000000	65.113663 
2873.000000	65.130496 
2872.000000	65.143609 
2871.000000	65.149426 
2870.000000	65.145516 
2869.000000	65.130925 
2868.000000	65.107178 
2867.000000	65.077233 
2866.000000	65.045285 
2865.000000	65.015292 
2864.000000	64.990115 
2863.000000	64.970898 
2862.000000	64.956879 
2861.000000	64.946031 
2860.000000	64.936041 
2859.000000	64.925312 
2858.000000	64.913702 
2857.000000	64.902830 
2856.000000	64.895296 
2855.000000	64.893770 
2854.000000	64.899754 
2853.000000	64.912724 
2852.000000	64.929842 
2851.000000	64.946722 
2850.000000	64.958286 
2849.000000	64.960432 
2848.000000	64.951038 
2847.000000	64.930224 
2846.000000	64.900588 
2845.000000	64.866113 
2844.000000	64.831447 
2843.000000	64.801025 
2842.000000	64.778542 
2841.000000	64.766168 
2840.000000	64.764833 
2839.000000	64.774060 
2838.000000	64.792418 
2837.000000	64.817881 
2836.000000	64.848089 
2835.000000	64.880514 
2834.000000	64.912843 
2833.000000	64.942860 
2832.000000	64.969038 
2831.000000	64.989995 
2830.000000	65.005183 
2829.000000	65.014767 
2828.000000	65.019583 
2827.000000	65.020799 
2826.000000	65.019869 
2825.000000	65.018200 
2824.000000	65.017127 
2823.000000	65.017557 
2822.000000	65.019989 
2821.000000	65.024232 
2820.000000	65.029335 
2819.000000	65.033864 
2818.000000	65.035986 
2817.000000	65.034008 
2816.000000	65.027022 
2815.000000	65.015029 
2814.000000	64.999389 
2813.000000	64.982342 
2812.000000	64.966511 
2811.000000	64.954304 
2810.000000	64.947080 
2809.000000	64.945149 
2808.000000	64.947676 
2807.000000	64.953112 
2806.000000	64.959549 
2805.000000	64.965367 
2804.000000	64.969921 
2803.000000	64.973378 
2802.000000	64.976358 
2801.000000	64.979600 
2800.000000	64.983558 
2799.000000	64.988017 
2798.000000	64.991855 
2797.000000	64.993619 
2796.000000	64.991950 
2795.000000	64.986371 
2794.000000	64.977622 
2793.000000	64.967679 
2792.000000	64.959406 
2791.000000	64.955759 
2790.000000	64.959192 
2789.000000	64.970684 
2788.000000	64.989352 
2787.000000	65.012693 
2786.000000	65.036964 
2785.000000	65.057873 
2784.000000	65.071582 
2783.000000	65.075492 
2782.000000	65.068674 
2781.000000	65.052103 
2780.000000	65.028071 
2779.000000	64.999651 
2778.000000	64.970111 
2777.000000	64.942121 
2776.000000	64.917588 
2775.000000	64.897322 
2774.000000	64.881634 
2773.000000	64.870667 
2772.000000	64.864611 
2771.000000	64.863848 
2770.000000	64.868998 
2769.000000	64.880633 
2768.000000	64.898705 
2767.000000	64.922356 
2766.000000	64.949703 
2765.000000	64.978027 
2764.000000	65.004348 
2763.000000	65.026068 
2762.000000	65.041351 
2761.000000	65.049695 
2760.000000	65.051960 
2759.000000	65.050029 
2758.000000	65.046167 
2757.000000	65.042233 
2756.000000	65.039324 
2755.000000	65.037298 
2754.000000	65.035176 
2753.000000	65.031170 
2752.000000	65.023803 
2751.000000	65.011811 
2750.000000	64.994955 
2749.000000	64.973759 
2748.000000	64.949536 
2747.000000	64.924049 
2746.000000	64.898920 
2745.000000	64.875531 
2744.000000	64.854907 
2743.000000	64.837837 
2742.000000	64.824938 
2741.000000	64.817047 
2740.000000	64.815092 
2739.000000	64.820122 
2738.000000	64.833021 
2737.000000	64.853954 
2736.000000	64.881896 
2735.000000	64.914727 
2734.000000	64.949250 
2733.000000	64.981389 
2732.000000	65.007424 
2731.000000	65.024542 
2730.000000	65.031647 
2729.000000	65.029478 
2728.000000	65.020585 
2727.000000	65.008902 
2726.000000	64.998602 
2725.000000	64.993238 
2724.000000	64.994955 
2723.000000	65.004134 
2722.000000	65.019130 
2721.000000	65.037250 
2720.000000	65.055108 
2719.000000	65.069508 
2718.000000	65.078282 
2717.000000	65.080690 
2716.000000	65.077257 
2715.000000	65.069389 
2714.000000	65.059089 
2713.000000	65.048360 
2712.000000	65.038776 
2711.000000	65.031337 
2710.000000	65.026545 
2709.000000	65.024518 
2708.000000	65.024995 
2707.000000	65.027689 
2706.000000	65.032219 
2705.000000	65.038156 
2704.000000	65.045142 
2703.000000	65.052723 
2702.000000	65.060186 
2701.000000	65.066576 
2700.000000	65.070843 
2699.000000	65.071845 
2698.000000	65.068578 
2697.000000	65.060639 
2696.000000	65.048241 
2695.000000	65.032720 
2694.000000	65.016007 
2693.000000	65.000677 
2692.000000	64.989352 
2691.000000	64.984130 
2690.000000	64.986109 
2689.000000	64.995408 
2688.000000	65.010952 
2687.000000	65.030884 
2686.000000	65.052819 
2685.000000	65.074801 
2684.000000	65.095353 
2683.000000	65.113830 
2682.000000	65.130305 
2681.000000	65.145015 
2680.000000	65.158033 
2679.000000	65.169095 
2678.000000	65.177488 
2677.000000	65.182280 
2676.000000	65.182638 
2675.000000	65.178537 
2674.000000	65.170669 
2673.000000	65.160393 
2672.000000	65.149426 
2671.000000	65.139341 
2670.000000	65.131115 
2669.000000	65.124750 
2668.000000	65.119290 
2667.000000	65.112996 
2666.000000	65.103864 
2665.000000	65.090274 
2664.000000	65.071344 
2663.000000	65.047383 
2662.000000	65.019869 
2661.000000	64.991116 
2660.000000	64.963960 
2659.000000	64.941191 
2658.000000	64.925146 
2657.000000	64.917445 
2656.000000	64.918613 
2655.000000	64.928340 
2654.000000	64.945507 
2653.000000	64.968347 
2652.000000	64.994740 
2651.000000	65.022492 
2650.000000	65.049767 
2649.000000	65.075159 
2648.000000	65.097951 
2647.000000	65.117764 
2646.000000	65.134525 
2645.000000	65.147924 
2644.000000	65.157818 
2643.000000	65.163326 
2642.000000	65.163540 
2641.000000	65.157389 
2640.000000	65.144300 
2639.000000	65.124440 
2638.000000	65.098929 
2637.000000	65.069866 
2636.000000	65.040326 
2635.000000	65.013432 
2634.000000	64.992165 
2633.000000	64.978408 
2632.000000	64.972901 
2631.000000	64.974904 
2630.000000	64.982724 
2629.000000	64.994025 
2628.000000	65.006399 
2627.000000	65.018010 
2626.000000	65.027952 
2625.000000	65.036106 
2624.000000	65.043115 
2623.000000	65.050101 
2622.000000	65.058302 
2621.000000	65.068531 
2620.000000	65.080928 
2619.000000	65.095353 
2618.000000	65.111041 
2617.000000	65.127062 
2616.000000	65.142154 
2615.000000	65.155410 
2614.000000	65.165972 
2613.000000	65.173292 
2612.000000	65.177130 
2611.000000	65.177273 
2610.000000	65.173864 
2609.000000	65.167331 
2608.000000	65.158319 
2607.000000	65.147590 
2606.000000	65.136146 
2605.000000	65.125083 
2604.000000	65.115284 
2603.000000	65.107297 
2602.000000	65.101146 
2601.000000	65.096449 
2600.000000	65.092253 
2599.000000	65.087342 
2598.000000	65.080308 
2597.000000	65.070152 
2596.000000	65.056228 
2595.000000	65.038514 
2594.000000	65.017604 
2593.000000	64.994692 
2592.000000	64.971280 
2591.000000	64.949083 
2590.000000	64.929628 
2589.000000	64.914321 
2588.000000	64.904189 
2587.000000	64.899921 
2586.000000	64.901852 
2585.000000	64.909863 
2584.000000	64.923381 
2583.000000	64.941287 
2582.000000	64.962029 
2581.000000	64.983439 
2580.000000	65.002965 
2579.000000	65.018033 
2578.000000	65.026426 
2577.000000	65.026926 
2576.000000	65.019488 
2575.000000	65.005302 
2574.000000	64.986777 
2573.000000	64.966821 
2572.000000	64.948272 
2571.000000	64.933371 
2570.000000	64.923763 
2569.000000	64.920186 
2568.000000	64.922666 
2567.000000	64.930915 
2566.000000	64.944410 
2565.000000	64.962553 
2564.000000	64.984679 
2563.000000	65.009856 
2562.000000	65.037107 
2561.000000	65.065217 
2560.000000	65.092968 
2559.000000	65.119218 
2558.000000	65.143179 
2557.000000	65.164351 
2556.000000	65.182471 
2555.000000	65.197515 
2554.000000	65.209197 
2553.000000	65.216970 
2552.000000	65.219688 
2551.000000	65.216183 
2550.000000	65.205502 
2549.000000	65.187549 
2548.000000	65.163421 
2547.000000	65.135407 
2546.000000	65.106725 
2545.000000	65.081071 
2544.000000	65.061759 
2543.000000	65.051054 
2542.000000	65.049672 
2541.000000	65.056705 
2540.000000	65.070009 
2539.000000	65.086531 
2538.000000	65.102720 
2537.000000	65.115427 
2536.000000	65.122151 
2535.000000	65.121889 
2534.000000	65.114998 
2533.000000	65.103268 
2532.000000	65.089154 
2531.000000	65.075397 
2530.000000	65.064501 
2529.000000	65.057992 
2528.000000	65.056276 
2527.000000	65.058612 
2526.000000	65.063714 
2525.000000	65.069603 
2524.000000	65.074372 
2523.000000	65.076327 
2522.000000	65.074610 
2521.000000	65.068960 
2520.000000	65.060067 
2519.000000	65.049362 
2518.000000	65.039157 
2517.000000	65.032076 
2516.000000	65.030837 
2515.000000	65.037512 
2514.000000	65.052843 
2513.000000	65.076494 
2512.000000	65.106272 
2511.000000	65.138602 
2510.000000	65.168833 
2509.000000	65.192317 
2508.000000	65.205216 
2507.000000	65.205192 
2506.000000	65.191936 
2505.000000	65.167236 
2504.000000	65.134429 
2503.000000	65.097522 
2502.000000	65.060329 
2501.000000	65.025830 
2500.000000	64.995455 
2499.000000	64.969205 
2498.000000	64.946126 
2497.000000	64.925122 
2496.000000	64.905381 
2495.000000	64.887166 
2494.000000	64.871621 
2493.000000	64.860749 
2492.000000	64.856410 
2491.000000	64.860224 
2490.000000	64.872527 
2489.000000	64.892625 
2488.000000	64.918708 
2487.000000	64.948558 
2486.000000	64.979934 
2485.000000	65.011024 
2484.000000	65.040898 
2483.000000	65.069127 
2482.000000	65.095710 
2481.000000	65.120506 
2480.000000	65.142798 
2479.000000	65.161442 
2478.000000	65.174770 
2477.000000	65.181398 
2476.000000	65.180706 
2475.000000	65.173053 
2474.000000	65.160107 
2473.000000	65.144085 
2472.000000	65.127372 
2471.000000	65.111899 
2470.000000	65.098929 
2469.000000	65.088748 
2468.000000	65.080976 
2467.000000	65.075278 
2466.000000	65.071582 
2465.000000	65.070033 
2464.000000	65.070962 
2463.000000	65.074825 
2462.000000	65.081548 
2461.000000	65.090346 
2460.000000	65.099716 
2459.000000	65.107536 
2458.000000	65.111780 
2457.000000	65.110850 
2456.000000	65.104126 
2455.000000	65.092134 
2454.000000	65.076589 
2453.000000	65.060067 
2452.000000	65.045356 
2451.000000	65.034627 
2450.000000	65.029168 
2449.000000	65.029239 
2448.000000	65.034222 
2447.000000	65.042996 
2446.000000	65.053939 
2445.000000	65.065503 
2444.000000	65.076565 
2443.000000	65.086579 
2442.000000	65.095710 
2441.000000	65.104699 
2440.000000	65.114450 
2439.000000	65.125727 
2438.000000	65.138792 
2437.000000	65.153288 
2436.000000	65.168333 
2435.000000	65.182709 
2434.000000	65.195631 
2433.000000	65.206432 
2432.000000	65.215229 
2431.000000	65.221977 
2430.000000	65.226387 
2429.000000	65.227532 
2428.000000	65.223622 
2427.000000	65.212845 
2426.000000	65.193605 
2425.000000	65.166139 
2424.000000	65.132474 
2423.000000	65.097546 
2422.000000	65.068268 
2421.000000	65.052342 
2420.000000	65.056419 
2419.000000	65.083813 
2418.000000	65.133142 
2417.000000	65.197873 
2416.000000	65.267467 
2415.000000	65.329647 
2414.000000	65.373253 
2413.000000	65.390801 
2412.000000	65.380048 
2411.000000	65.344309 
2410.000000	65.291380 
2409.000000	65.231370 
2408.000000	65.174293 
2407.000000	65.128159 
2406.000000	65.097069 
2405.000000	65.081596 
2404.000000	65.078616 
2403.000000	65.083456 
2402.000000	65.090417 
2401.000000	65.094661 
2400.000000	65.093040 
2399.000000	65.084290 
2398.000000	65.069603 
2397.000000	65.050911 
2396.000000	65.031480 
2395.000000	65.014743 
2394.000000	65.003991 
2393.000000	65.001797 
2392.000000	65.009260 
2391.000000	65.025973 
2390.000000	65.049672 
2389.000000	65.076947 
2388.000000	65.103626 
2387.000000	65.125823 
2386.000000	65.140581 
2385.000000	65.146613 
2384.000000	65.144562 
2383.000000	65.136575 
2382.000000	65.125560 
2381.000000	65.114331 
2380.000000	65.105009 
2379.000000	65.098094 
2378.000000	65.092992 
2377.000000	65.087580 
2376.000000	65.079140 
2375.000000	65.064907 
2374.000000	65.043497 
2373.000000	65.015149 
2372.000000	64.981603 
2371.000000	64.946341 
2370.000000	64.913344 
2369.000000	64.886856 
2368.000000	64.870262 
2367.000000	64.865565 
2366.000000	64.872908 
2365.000000	64.890766 
2364.000000	64.916157 
2363.000000	64.945220 
2362.000000	64.974117 
2361.000000	64.999294 
2360.000000	65.018296 
2359.000000	65.029740 
2358.000000	65.033483 
2357.000000	65.030741 
2356.000000	65.023636 
2355.000000	65.014696 
2354.000000	65.006566 
2353.000000	65.001845 
2352.000000	65.002560 
2351.000000	65.010046 
2350.000000	65.024733 
2349.000000	65.046095 
2348.000000	65.072703 
2347.000000	65.102434 
2346.000000	65.132880 
2345.000000	65.161323 
2344.000000	65.185594 
2343.000000	65.204143 
2342.000000	65.216374 
2341.000000	65.222549 
2340.000000	65.223956 
2339.000000	65.222549 
2338.000000	65.220499 
2337.000000	65.219664 
2336.000000	65.221214 
2335.000000	65.225505 
2334.000000	65.231609 
2333.000000	65.237402 
2332.000000	65.240192 
2331.000000	65.237140 
2330.000000	65.226101 
2329.000000	65.206098 
2328.000000	65.177631 
2327.000000	65.142655 
2326.000000	65.104341 
2325.000000	65.066456 
2324.000000	65.032362 
2323.000000	65.004849 
2322.000000	64.985585 
2321.000000	64.975142 
2320.000000	64.972758 
2319.000000	64.977097 
2318.000000	64.986419 
2317.000000	64.999127 
2316.000000	65.013623 
2315.000000	65.028858 
2314.000000	65.043973 
2313.000000	65.058708 
2312.000000	65.072703 
2311.000000	65.086054 
2310.000000	65.098929 
2309.000000	65.111851 
2308.000000	65.125298 
2307.000000	65.139436 
2306.000000	65.153908 
2305.000000	65.167903 
2304.000000	65.180063 
2303.000000	65.188837 
2302.000000	65.192508 
2301.000000	65.190100 
2300.000000	65.181183 
2299.000000	65.166211 
2298.000000	65.146279 
2297.000000	65.123176 
2296.000000	65.098810 
2295.000000	65.074968 
2294.000000	65.052986 
2293.000000	65.033936 
2292.000000	65.018367 
2291.000000	65.006613 
2290.000000	64.998817 
2289.000000	64.994931 
2288.000000	64.994907 
2287.000000	64.998698 
2286.000000	65.006065 
2285.000000	65.016365 
2284.000000	65.029072 
2283.000000	65.043616 
2282.000000	65.059566 
2281.000000	65.076565 
2280.000000	65.094280 
2279.000000	65.112280 
2278.000000	65.129995 
2277.000000	65.146565 
2276.000000	65.161132 
2275.000000	65.172767 
2274.000000	65.180897 
2273.000000	65.185427 
2272.000000	65.186905 
2271.000000	65.186500 
2270.000000	65.185737 
2269.000000	65.186023 
2268.000000	65.188479 
2267.000000	65.193247 
2266.000000	65.199756 
2265.000000	65.206170 
2264.000000	65.210175 
2263.000000	65.209317 
2262.000000	65.201783 
2261.000000	65.186595 
2260.000000	65.164136 
2259.000000	65.136194 
2258.000000	65.105605 
2257.000000	65.075850 
2256.000000	65.050458 
2255.000000	65.032219 
2254.000000	65.022683 
2253.000000	65.022063 
2252.000000	65.029239 
2251.000000	65.041875 
2250.000000	65.057086 
2249.000000	65.072083 
2248.000000	65.084648 
2247.000000	65.093255 
2246.000000	65.097451 
2245.000000	65.097403 
2244.000000	65.094017 
2243.000000	65.087962 
2242.000000	65.080070 
2241.000000	65.070867 
2240.000000	65.060877 
2239.000000	65.050697 
2238.000000	65.041065 
2237.000000	65.033006 
2236.000000	65.027761 
2235.000000	65.026569 
2234.000000	65.030193 
2233.000000	65.038633 
2232.000000	65.050840 
2231.000000	65.065050 
2230.000000	65.078878 
2229.000000	65.090036 
2228.000000	65.096735 
2227.000000	65.098190 
2226.000000	65.094637 
2225.000000	65.087318 
2224.000000	65.078163 
2223.000000	65.069246 
2222.000000	65.062260 
2221.000000	65.058231 
2220.000000	65.057492 
2219.000000	65.059518 
2218.000000	65.063548 
2217.000000	65.068578 
2216.000000	65.073728 
2215.000000	65.078592 
2214.000000	65.083003 
2213.000000	65.087437 
2212.000000	65.092325 
2211.000000	65.098404 
2210.000000	65.106129 
2209.000000	65.115928 
2208.000000	65.127921 
2207.000000	65.141844 
2206.000000	65.157198 
2205.000000	65.172934 
2204.000000	65.187883 
2203.000000	65.200686 
2202.000000	65.210247 
2201.000000	65.215778 
2200.000000	65.216851 
2199.000000	65.213727 
2198.000000	65.207147 
2197.000000	65.198397 
2196.000000	65.188741 
2195.000000	65.179467 
2194.000000	65.171432 
2193.000000	65.165019 
2192.000000	65.159988 
2191.000000	65.155696 
2190.000000	65.151214 
2189.000000	65.145492 
2188.000000	65.137863 
2187.000000	65.128087 
2186.000000	65.116500 
2185.000000	65.103960 
2184.000000	65.091705 
2183.000000	65.081143 
2182.000000	65.073466 
2181.000000	65.069437 
2180.000000	65.068984 
2179.000000	65.071082 
2178.000000	65.074014 
2177.000000	65.075635 
2176.000000	65.073966 
2175.000000	65.067720 
2174.000000	65.056800 
2173.000000	65.042519 
2172.000000	65.027427 
2171.000000	65.014863 
2170.000000	65.008306 
2169.000000	65.010142 
2168.000000	65.021061 
2167.000000	65.039706 
2166.000000	65.062665 
2165.000000	65.085363 
2164.000000	65.102910 
2163.000000	65.111446 
2162.000000	65.108942 
2161.000000	65.095973 
2160.000000	65.075254 
2159.000000	65.051126 
2158.000000	65.028595 
2157.000000	65.012073 
2156.000000	65.004467 
2155.000000	65.006613 
2154.000000	65.017414 
2153.000000	65.034055 
2152.000000	65.053176 
2151.000000	65.071296 
2150.000000	65.086030 
2149.000000	65.096116 
2148.000000	65.101480 
2147.000000	65.103030 
2146.000000	65.102076 
2145.000000	65.100193 
2144.000000	65.098571 
2143.000000	65.097999 
2142.000000	65.098690 
2141.000000	65.100240 
2140.000000	65.101838 
2139.000000	65.102505 
2138.000000	65.101242 
2137.000000	65.097618 
2136.000000	65.091753 
2135.000000	65.084338 
2134.000000	65.076422 
2133.000000	65.069031 
2132.000000	65.063023 
2131.000000	65.058684 
2130.000000	65.055942 
2129.000000	65.054345 
2128.000000	65.053558 
2127.000000	65.053462 
2126.000000	65.054082 
2125.000000	65.055751 
2124.000000	65.058946 
2123.000000	65.064072 
2122.000000	65.071463 
2121.000000	65.081334 
2120.000000	65.093612 
2119.000000	65.107893 
2118.000000	65.123844 
2117.000000	65.141201 
2116.000000	65.159368 
2115.000000	65.177273 
2114.000000	65.193605 
2113.000000	65.206742 
2112.000000	65.214776 
2111.000000	65.216231 
2110.000000	65.210771 
2109.000000	65.199279 
2108.000000	65.184140 
2107.000000	65.168452 
2106.000000	65.155363 
2105.000000	65.147280 
2104.000000	65.145301 
2103.000000	65.149116 
2102.000000	65.156769 
2101.000000	65.165781 
2100.000000	65.174007 
2099.000000	65.179872 
2098.000000	65.182471 
2097.000000	65.181803 
2096.000000	65.178537 
2095.000000	65.172815 
2094.000000	65.163636 
2093.000000	65.149021 
2092.000000	65.126419 
2091.000000	65.093350 
2090.000000	65.048217 
2089.000000	64.991021 
2088.000000	64.923596 
2087.000000	64.849209 
2086.000000	64.772272 
2085.000000	64.697003 
2084.000000	64.627552 
2083.000000	64.567065 
2082.000000	64.518332 
2081.000000	64.482998 
2080.000000	64.462471 
2079.000000	64.457416 
2078.000000	64.468312 
2077.000000	64.494061 
2076.000000	64.533877 
2075.000000	64.585685 
2074.000000	64.648151 
2073.000000	64.719057 
2072.000000	64.797282 
2071.000000	64.881825 
2070.000000	64.972043 
2069.000000	65.066623 
2068.000000	65.162944 
2067.000000	65.256619 
2066.000000	65.341353 
2065.000000	65.409994 
2064.000000	65.455627 
2063.000000	65.473127 
2062.000000	65.461230 
2061.000000	65.422654 
2060.000000	65.364122 
2059.000000	65.294766 
2058.000000	65.224909 
2057.000000	65.163898 
2056.000000	65.118455 
2055.000000	65.091514 
2054.000000	65.082883 
2053.000000	65.088796 
2052.000000	65.103769 
2051.000000	65.121436 
2050.000000	65.136122 
2049.000000	65.143847 
2048.000000	65.142488 
2047.000000	65.132069 
2046.000000	65.113806 
2045.000000	65.090203 
2044.000000	65.064096 
2043.000000	65.038347 
2042.000000	65.015101 
2041.000000	64.996147 
2040.000000	64.982771 
2039.000000	64.975690 
2038.000000	64.975047 
2037.000000	64.980721 
2036.000000	64.992475 
2035.000000	65.009522 
2034.000000	65.030455 
2033.000000	65.053343 
2032.000000	65.075945 
2031.000000	65.095567 
2030.000000	65.109682 
2029.000000	65.116453 
2028.000000	65.115332 
2027.000000	65.107321 
2026.000000	65.094876 
2025.000000	65.081167 
2024.000000	65.069508 
2023.000000	65.062928 
2022.000000	65.063118 
2021.000000	65.070199 
2020.000000	65.082359 
2019.000000	65.096616 
2018.000000	65.109419 
2017.000000	65.117573 
2016.000000	65.119147 
2015.000000	65.113782 
2014.000000	65.103101 
2013.000000	65.090060 
2012.000000	65.078377 
2011.000000	65.071558 
2010.000000	65.071821 
2009.000000	65.079355 
2008.000000	65.092563 
2007.000000	65.108013 
2006.000000	65.121340 
2005.000000	65.128278 
2004.000000	65.125751 
2003.000000	65.112590 
2002.000000	65.089893 
2001.000000	65.060877 
2000.000000	65.029954 
1999.000000	65.001916 
1998.000000	64.980769 
1997.000000	64.968991 
1996.000000	64.967060 
1995.000000	64.973402 
1994.000000	64.985179 
1993.000000	64.998793 
1992.000000	65.010881 
1991.000000	65.019202 
1990.000000	65.022897 
1989.000000	65.022683 
1988.000000	65.020155 
1987.000000	65.017580 
1986.000000	65.016889 
1985.000000	65.019559 
1984.000000	65.026092 
1983.000000	65.036153 
1982.000000	65.048837 
1981.000000	65.062928 
1980.000000	65.077257 
1979.000000	65.090727 
1978.000000	65.102362 
1977.000000	65.111279 
1976.000000	65.116667 
1975.000000	65.118098 
1974.000000	65.115594 
1973.000000	65.109777 
1972.000000	65.101528 
1971.000000	65.092754 
1970.000000	65.085244 
1969.000000	65.080761 
1968.000000	65.080142 
1967.000000	65.083122 
1966.000000	65.088462 
1965.000000	65.094017 
1964.000000	65.097594 
1963.000000	65.097451 
1962.000000	65.093183 
1961.000000	65.085649 
1960.000000	65.076875 
1959.000000	65.069389 
1958.000000	65.065360 
1957.000000	65.066146 
1956.000000	65.071678 
1955.000000	65.080523 
1954.000000	65.090394 
1953.000000	65.098881 
1952.000000	65.104007 
1951.000000	65.104603 
1950.000000	65.100669 
1949.000000	65.092897 
1948.000000	65.082454 
1947.000000	65.070414 
1946.000000	65.057253 
1945.000000	65.042924 
1944.000000	65.027022 
1943.000000	65.009093 
1942.000000	64.989089 
1941.000000	64.967656 
1940.000000	64.946079 
1939.000000	64.926505 
1938.000000	64.910936 
1937.000000	64.901518 
1936.000000	64.899873 
1935.000000	64.907026 
1934.000000	64.922976 
1933.000000	64.946961 
1932.000000	64.977431 
1931.000000	65.012168 
1930.000000	65.048623 
1929.000000	65.084052 
1928.000000	65.115928 
1927.000000	65.142202 
1926.000000	65.161681 
1925.000000	65.174126 
1924.000000	65.180468 
1923.000000	65.182495 
1922.000000	65.182542 
1921.000000	65.183305 
1920.000000	65.186715 
1919.000000	65.194106 
1918.000000	65.205430 
1917.000000	65.219497 
1916.000000	65.233993 
1915.000000	65.246295 
1914.000000	65.253639 
1913.000000	65.253925 
1912.000000	65.245842 
1911.000000	65.229558 
1910.000000	65.206360 
1909.000000	65.178465 
1908.000000	65.148711 
1907.000000	65.120148 
1906.000000	65.095353 
1905.000000	65.076088 
1904.000000	65.063142 
1903.000000	65.056109 
1902.000000	65.053486 
1901.000000	65.053153 
1900.000000	65.052413 
1899.000000	65.048789 
1898.000000	65.040564 
1897.000000	65.027165 
1896.000000	65.008950 
1895.000000	64.987468 
1894.000000	64.965176 
1893.000000	64.944887 
1892.000000	64.929008 
1891.000000	64.919281 
1890.000000	64.916515 
1889.000000	64.920520 
1888.000000	64.930319 
1887.000000	64.944601 
1886.000000	64.962005 
1885.000000	64.981532 
1884.000000	65.002632 
1883.000000	65.024876 
1882.000000	65.047597 
1881.000000	65.069794 
1880.000000	65.090036 
1879.000000	65.106701 
1878.000000	65.118122 
1877.000000	65.123558 
1876.000000	65.123081 
1875.000000	65.117692 
1874.000000	65.108990 
1873.000000	65.098881 
1872.000000	65.088987 
1871.000000	65.080165 
1870.000000	65.072083 
1869.000000	65.063667 
1868.000000	65.053367 
1867.000000	65.039753 
1866.000000	65.022134 
1865.000000	65.001010 
1864.000000	64.978146 
1863.000000	64.955902 
1862.000000	64.937257 
1861.000000	64.924740 
1860.000000	64.920353 
1859.000000	64.924955 
1858.000000	64.938282 
1857.000000	64.958977 
1856.000000	64.984774 
1855.000000	65.012907 
1854.000000	65.040516 
1853.000000	65.064787 
1852.000000	65.083742 
1851.000000	65.096402 
1850.000000	65.102910 
1849.000000	65.104293 
1848.000000	65.102219 
1847.000000	65.098500 
1846.000000	65.094494 
1845.000000	65.090823 
1844.000000	65.087699 
1843.000000	65.084600 
1842.000000	65.081024 
1841.000000	65.076732 
1840.000000	65.072131 
1839.000000	65.068364 
1838.000000	65.067124 
1837.000000	65.070199 
1836.000000	65.078926 
1835.000000	65.093493 
1834.000000	65.112948 
1833.000000	65.134906 
1832.000000	65.156221 
1831.000000	65.173554 
1830.000000	65.184307 
1829.000000	65.187072 
1828.000000	65.181827 
1827.000000	65.170073 
1826.000000	65.154242 
1825.000000	65.137338 
1824.000000	65.122032 
1823.000000	65.110111 
1822.000000	65.102005 
1821.000000	65.096950 
1820.000000	65.093255 
1819.000000	65.088868 
1818.000000	65.081858 
1817.000000	65.071201 
1816.000000	65.057039 
1815.000000	65.040540 
1814.000000	65.023493 
1813.000000	65.007638 
1812.000000	64.994311 
1811.000000	64.983725 
1810.000000	64.975643 
1809.000000	64.969086 
1808.000000	64.963364 
1807.000000	64.958119 
1806.000000	64.953970 
1805.000000	64.952254 
1804.000000	64.954733 
1803.000000	64.963006 
1802.000000	64.977765 
1801.000000	64.998507 
1800.000000	65.023398 
1799.000000	65.049290 
1798.000000	65.072631 
1797.000000	65.090155 
1796.000000	65.099596 
1795.000000	65.100145 
1794.000000	65.092444 
1793.000000	65.078353 
1792.000000	65.060687 
1791.000000	65.042400 
1790.000000	65.026330 
1789.000000	65.014362 
1788.000000	65.007805 
1787.000000	65.006780 
1786.000000	65.010452 
1785.000000	65.017104 
1784.000000	65.024495 
1783.000000	65.030455 
1782.000000	65.033197 
1781.000000	65.031766 
1780.000000	65.026283 
1779.000000	65.017795 
1778.000000	65.008187 
1777.000000	64.999365 
1776.000000	64.993023 
1775.000000	64.989948 
1774.000000	64.990067 
1773.000000	64.992284 
1772.000000	64.994788 
1771.000000	64.995741 
1770.000000	64.993977 
1769.000000	64.989137 
1768.000000	64.981889 
1767.000000	64.973831 
1766.000000	64.967060 
1765.000000	64.963388 
1764.000000	64.963889 
1763.000000	64.968848 
1762.000000	64.977550 
1761.000000	64.988708 
1760.000000	65.000796 
1759.000000	65.012264 
1758.000000	65.022063 
1757.000000	65.029811 
1756.000000	65.035724 
1755.000000	65.040063 
1754.000000	65.043091 
1753.000000	65.045046 
1752.000000	65.045666 
1751.000000	65.044331 
1750.000000	65.040183 
1749.000000	65.032696 
1748.000000	65.021252 
1747.000000	65.005636 
1746.000000	64.985799 
1745.000000	64.962315 
1744.000000	64.935827 
1743.000000	64.907169 
1742.000000	64.877271 
1741.000000	64.847087 
1740.000000	64.817404 
1739.000000	64.788889 
1738.000000	64.761853 
1737.000000	64.736938 
1736.000000	64.714646 
1735.000000	64.696097 
1734.000000	64.682435 
1733.000000	64.675498 
1732.000000	64.677286 
1731.000000	64.690041 
1730.000000	64.715003 
1729.000000	64.752626 
1728.000000	64.801788 
1727.000000	64.860010 
1726.000000	64.923286 
1725.000000	64.987254 
1724.000000	65.047717 
1723.000000	65.101408 
1722.000000	65.146493 
1721.000000	65.182447 
1720.000000	65.209627 
1719.000000	65.228819 
1718.000000	65.240859 
1717.000000	65.246105 
1716.000000	65.244603 
1715.000000	65.236306 
1714.000000	65.221738 
1713.000000	65.202021 
1712.000000	65.178847 
1711.000000	65.154552 
1710.000000	65.131497 
1709.000000	65.111184 
1708.000000	65.094065 
1707.000000	65.079236 
1706.000000	65.064978 
1705.000000	65.049409 
1704.000000	65.031433 
1703.000000	65.011119 
1702.000000	64.989757 
1701.000000	64.969563 
1700.000000	64.953160 
1699.000000	64.942145 
1698.000000	64.937114 
1697.000000	64.937400 
1696.000000	64.941167 
1695.000000	64.945650 
1694.000000	64.948391 
1693.000000	64.948034 
1692.000000	64.944171 
1691.000000	64.937543 
1690.000000	64.929819 
1689.000000	64.923071 
1688.000000	64.919209 
1687.000000	64.919352 
1686.000000	64.923810 
1685.000000	64.932060 
1684.000000	64.943099 
1683.000000	64.955615 
1682.000000	64.967846 
1681.000000	64.978146 
1680.000000	64.984965 
1679.000000	64.987230 
1678.000000	64.984512 
1677.000000	64.977359 
1676.000000	64.967250 
1675.000000	64.956307 
1674.000000	64.946842 
1673.000000	64.940714 
1672.000000	64.939141 
1671.000000	64.941716 
1670.000000	64.946699 
1669.000000	64.951062 
1668.000000	64.951658 
1667.000000	64.945387 
1666.000000	64.930272 
1665.000000	64.905905 
1664.000000	64.873766 
1663.000000	64.836978 
1662.000000	64.799666 
1661.000000	64.766359 
1660.000000	64.740848 
1659.000000	64.726042 
1658.000000	64.723372 
1657.000000	64.732718 
1656.000000	64.752364 
1655.000000	64.779186 
1654.000000	64.809250 
1653.000000	64.837956 
1652.000000	64.861202 
1651.000000	64.875793 
1650.000000	64.880394 
1649.000000	64.875364 
1648.000000	64.863109 
1647.000000	64.847326 
1646.000000	64.832496 
1645.000000	64.822983 
1644.000000	64.822220 
1643.000000	64.832234 
1642.000000	64.853072 
1641.000000	64.883208 
1640.000000	64.919400 
1639.000000	64.957427 
1638.000000	64.992690 
1637.000000	65.020871 
1636.000000	65.038657 
1635.000000	65.044069 
1634.000000	65.036869 
1633.000000	65.018510 
1632.000000	64.991807 
1631.000000	64.960360 
1630.000000	64.928293 
1629.000000	64.899325 
1628.000000	64.876127 
1627.000000	64.859580 
1626.000000	64.849281 
1625.000000	64.843463 
1624.000000	64.839553 
1623.000000	64.835190 
1622.000000	64.828443 
1621.000000	64.818596 
1620.000000	64.806246 
1619.000000	64.793086 
1618.000000	64.781236 
1617.000000	64.772820 
1616.000000	64.769172 
1615.000000	64.770460 
1614.000000	64.775705 
1613.000000	64.782834 
1612.000000	64.789342 
1611.000000	64.792847 
1610.000000	64.791750 
1609.000000	64.785838 
1608.000000	64.776277 
1607.000000	64.765477 
1606.000000	64.756298 
1605.000000	64.751863 
1604.000000	64.754533 
1603.000000	64.765572 
1602.000000	64.784646 
1601.000000	64.810085 
1600.000000	64.839100 
1599.000000	64.868521 
1598.000000	64.895510 
1597.000000	64.917707 
1596.000000	64.933896 
1595.000000	64.944124 
1594.000000	64.949274 
1593.000000	64.950847 
1592.000000	64.950323 
1591.000000	64.948987 
1590.000000	64.947605 
1589.000000	64.946293 
1588.000000	64.944815 
1587.000000	64.942932 
1586.000000	64.940309 
1585.000000	64.937186 
1584.000000	64.933848 
1583.000000	64.930820 
1582.000000	64.928388 
1581.000000	64.926457 
1580.000000	64.924192 
1579.000000	64.920210 
1578.000000	64.912772 
1577.000000	64.900541 
1576.000000	64.882755 
1575.000000	64.859771 
1574.000000	64.833331 
1573.000000	64.806151 
1572.000000	64.781451 
1571.000000	64.762520 
1570.000000	64.751815 
1569.000000	64.750790 
1568.000000	64.759111 
1567.000000	64.775133 
1566.000000	64.796161 
1565.000000	64.818882 
1564.000000	64.840292 
1563.000000	64.858007 
1562.000000	64.870715 
1561.000000	64.878249 
1560.000000	64.881253 
1559.000000	64.880895 
1558.000000	64.878201 
1557.000000	64.873838 
1556.000000	64.867973 
1555.000000	64.860391 
1554.000000	64.850997 
1553.000000	64.839863 
1552.000000	64.827680 
1551.000000	64.815735 
1550.000000	64.805674 
1549.000000	64.799165 
1548.000000	64.797234 
1547.000000	64.799904 
1546.000000	64.806199 
1545.000000	64.814090 
1544.000000	64.821290 
1543.000000	64.825367 
1542.000000	64.825034 
1541.000000	64.820146 
1540.000000	64.812254 
1539.000000	64.803910 
1538.000000	64.798474 
1537.000000	64.799165 
1536.000000	64.808225 
1535.000000	64.826440 
1534.000000	64.852547 
1533.000000	64.883685 
1532.000000	64.915680 
1531.000000	64.943957 
1530.000000	64.964222 
1529.000000	64.973211 
1528.000000	64.969253 
1527.000000	64.952611 
1526.000000	64.925146 
1525.000000	64.889979 
1524.000000	64.850854 
1523.000000	64.811515 
1522.000000	64.775514 
1521.000000	64.745402 
1520.000000	64.722847 
1519.000000	64.708566 
1518.000000	64.702439 
1517.000000	64.703822 
1516.000000	64.711594 
1515.000000	64.724516 
1514.000000	64.741158 
1513.000000	64.760327 
1512.000000	64.780664 
1511.000000	64.801216 
1510.000000	64.820885 
1509.000000	64.838957 
1508.000000	64.854741 
1507.000000	64.867806 
1506.000000	64.877986 
1505.000000	64.884948 
1504.000000	64.888501 
1503.000000	64.888262 
1502.000000	64.884042 
1501.000000	64.875817 
1500.000000	64.863801 
1499.000000	64.848756 
1498.000000	64.831662 
1497.000000	64.813876 
1496.000000	64.796710 
1495.000000	64.781379 
1494.000000	64.768767 
1493.000000	64.759182 
1492.000000	64.752840 
1491.000000	64.749550 
1490.000000	64.749431 
1489.000000	64.752507 
1488.000000	64.759254 
1487.000000	64.770054 
1486.000000	64.785313 
1485.000000	64.805102 
1484.000000	64.829039 
1483.000000	64.855790 
1482.000000	64.883518 
1481.000000	64.910125 
1480.000000	64.933609 
1479.000000	64.952206 
1478.000000	64.964962 
1477.000000	64.971971 
1476.000000	64.974069 
1475.000000	64.972496 
1474.000000	64.968681 
1473.000000	64.963912 
1472.000000	64.958763 
1471.000000	64.953398 
1470.000000	64.947509 
1469.000000	64.940571 
1468.000000	64.932489 
1467.000000	64.923477 
1466.000000	64.914393 
1465.000000	64.906239 
1464.000000	64.900159 
1463.000000	64.896845 
1462.000000	64.895987 
1461.000000	64.896321 
1460.000000	64.895629 
1459.000000	64.891624 
1458.000000	64.882016 
1457.000000	64.865422 
1456.000000	64.841890 
1455.000000	64.812612 
1454.000000	64.779782 
1453.000000	64.746046 
1452.000000	64.713740 
1451.000000	64.684557 
1450.000000	64.659309 
1449.000000	64.637851 
1448.000000	64.619350 
1447.000000	64.603066 
1446.000000	64.588618 
1445.000000	64.576363 
1444.000000	64.567232 
1443.000000	64.562654 
1442.000000	64.564204 
1441.000000	64.573168 
1440.000000	64.589929 
1439.000000	64.613747 
1438.000000	64.643001 
1437.000000	64.675283 
1436.000000	64.708280 
1435.000000	64.739584 
1434.000000	64.767646 
1433.000000	64.791798 
1432.000000	64.812469 
1431.000000	64.830803 
1430.000000	64.848279 
1429.000000	64.866518 
1428.000000	64.886426 
1427.000000	64.908051 
1426.000000	64.930081 
1425.000000	64.950752 
1424.000000	64.967155 
1423.000000	64.976382 
1422.000000	64.975714 
1421.000000	64.963555 
1420.000000	64.939546 
1419.000000	64.904737 
1418.000000	64.861559 
1417.000000	64.813685 
1416.000000	64.765620 
1415.000000	64.722180 
1414.000000	64.687871 
1413.000000	64.666438 
1412.000000	64.660239 
1411.000000	64.670085 
1410.000000	64.694881 
1409.000000	64.731740 
1408.000000	64.776301 
1407.000000	64.823389 
1406.000000	64.867401 
1405.000000	64.903497 
1404.000000	64.928126 
1403.000000	64.939594 
1402.000000	64.938211 
1401.000000	64.926052 
1400.000000	64.906716 
1399.000000	64.884090 
1398.000000	64.861941 
1397.000000	64.842796 
1396.000000	64.827775 
1395.000000	64.816188 
1394.000000	64.806365 
1393.000000	64.795947 
1392.000000	64.782762 
1391.000000	64.765381 
1390.000000	64.743685 
1389.000000	64.718723 
1388.000000	64.692640 
1387.000000	64.667940 
1386.000000	64.647150 
1385.000000	64.632201 
1384.000000	64.624071 
1383.000000	64.623045 
1382.000000	64.628648 
1381.000000	64.640092 
1380.000000	64.656329 
1379.000000	64.676117 
1378.000000	64.698004 
1377.000000	64.720129 
1376.000000	64.740705 
1375.000000	64.757251 
1374.000000	64.768218 
1373.000000	64.772796 
1372.000000	64.771652 
1371.000000	64.766883 
1370.000000	64.761471 
1369.000000	64.758634 
1368.000000	64.760851 
1367.000000	64.769506 
1366.000000	64.784240 
1365.000000	64.803051 
1364.000000	64.823198 
1363.000000	64.841818 
1362.000000	64.856767 
1361.000000	64.866948 
1360.000000	64.872550 
1359.000000	64.874696 
1358.000000	64.874577 
1357.000000	64.873027 
1356.000000	64.869976 
1355.000000	64.864635 
1354.000000	64.855766 
1353.000000	64.842200 
1352.000000	64.823794 
1351.000000	64.801526 
1350.000000	64.777660 
1349.000000	64.755320 
1348.000000	64.737510 
1347.000000	64.726829 
1346.000000	64.724731 
1345.000000	64.731359 
1344.000000	64.745402 
1343.000000	64.764642 
1342.000000	64.786386 
1341.000000	64.808058 
1340.000000	64.827513 
1339.000000	64.843297 
1338.000000	64.854717 
1337.000000	64.861488 
1336.000000	64.863729 
1335.000000	64.861989 
1334.000000	64.857101 
1333.000000	64.850068 
1332.000000	64.842104 
1331.000000	64.834594 
1330.000000	64.828753 
1329.000000	64.825725 
1328.000000	64.826011 
1327.000000	64.829635 
1326.000000	64.835977 
1325.000000	64.843893 
1324.000000	64.852070 
1323.000000	64.859247 
1322.000000	64.864325 
1321.000000	64.866805 
1320.000000	64.866590 
1319.000000	64.864206 
1318.000000	64.860582 
1317.000000	64.856696 
1316.000000	64.853310 
1315.000000	64.850783 
1314.000000	64.848804 
1313.000000	64.846658 
1312.000000	64.843130 
1311.000000	64.836907 
1310.000000	64.826798 
1309.000000	64.812088 
1308.000000	64.792799 
1307.000000	64.769983 
1306.000000	64.745545 
1305.000000	64.722084 
1304.000000	64.702630 
1303.000000	64.689946 
1302.000000	64.686179 
1301.000000	64.691853 
1300.000000	64.706015 
1299.000000	64.725732 
1298.000000	64.746809 
1297.000000	64.764213 
1296.000000	64.773368 
1295.000000	64.770865 
1294.000000	64.755344 
1293.000000	64.727997 
1292.000000	64.692401 
1291.000000	64.653873 
1290.000000	64.618468 
1289.000000	64.591789 
1288.000000	64.577817 
1287.000000	64.578390 
1286.000000	64.592862 
1285.000000	64.618682 
1284.000000	64.651942 
1283.000000	64.688324 
1282.000000	64.723944 
1281.000000	64.755582 
1280.000000	64.780974 
1279.000000	64.798641 
1278.000000	64.807796 
1277.000000	64.808177 
1276.000000	64.799833 
1275.000000	64.783477 
1274.000000	64.760184 
1273.000000	64.731764 
1272.000000	64.700388 
1271.000000	64.668679 
1270.000000	64.639210 
1269.000000	64.614224 
1268.000000	64.595389 
1267.000000	64.583373 
1266.000000	64.578199 
1265.000000	64.579391 
1264.000000	64.586043 
1263.000000	64.597153 
1262.000000	64.611506 
1261.000000	64.627599 
1260.000000	64.644002 
1259.000000	64.659237 
1258.000000	64.672040 
1257.000000	64.681506 
1256.000000	64.687395 
1255.000000	64.690041 
1254.000000	64.690232 
1253.000000	64.688777 
1252.000000	64.686322 
1251.000000	64.682960 
1250.000000	64.678430 
1249.000000	64.672255 
1248.000000	64.664030 
1247.000000	64.653754 
1246.000000	64.642143 
1245.000000	64.630222 
1244.000000	64.619612 
1243.000000	64.611721 
1242.000000	64.607405 
1241.000000	64.606666 
1240.000000	64.608716 
1239.000000	64.612436 
1238.000000	64.616537 
1237.000000	64.620494 
1236.000000	64.624643 
1235.000000	64.630055 
1234.000000	64.638185 
1233.000000	64.650011 
1232.000000	64.665770 
1231.000000	64.684486 
1230.000000	64.704179 
1229.000000	64.722061 
1228.000000	64.735412 
1227.000000	64.742302 
1226.000000	64.742112 
1225.000000	64.735865 
1224.000000	64.725971 
1223.000000	64.715981 
1222.000000	64.709711 
1221.000000	64.710068 
1220.000000	64.718627 
1219.000000	64.734983 
1218.000000	64.756917 
1217.000000	64.781093 
1216.000000	64.803791 
1215.000000	64.821863 
1214.000000	64.833593 
1213.000000	64.838862 
1212.000000	64.839267 
1211.000000	64.837551 
1210.000000	64.836621 
1209.000000	64.838838 
1208.000000	64.844965 
1207.000000	64.854025 
1206.000000	64.863538 
1205.000000	64.870285 
1204.000000	64.871406 
1203.000000	64.865350 
1202.000000	64.852213 
1201.000000	64.833784 
1200.000000	64.812803 
1199.000000	64.791989 
1198.000000	64.773225 
1197.000000	64.757013 
1196.000000	64.742827 
1195.000000	64.729261 
1194.000000	64.715242 
1193.000000	64.700245 
1192.000000	64.684629 
1191.000000	64.669704 
1190.000000	64.656901 
1189.000000	64.647316 
1188.000000	64.641046 
1187.000000	64.637112 
1186.000000	64.633536 
1185.000000	64.628314 
1184.000000	64.620184 
1183.000000	64.609122 
1182.000000	64.596557 
1181.000000	64.585065 
1180.000000	64.577460 
1179.000000	64.576053 
1178.000000	64.581584 
1177.000000	64.593362 
1176.000000	64.609384 
1175.000000	64.627122 
1174.000000	64.644098 
1173.000000	64.658641 
1172.000000	64.670157 
1171.000000	64.679145 
1170.000000	64.686965 
1169.000000	64.695096 
1168.000000	64.704704 
1167.000000	64.716315 
1166.000000	64.729690 
1165.000000	64.743781 
1164.000000	64.757061 
1163.000000	64.768171 
1162.000000	64.775705 
1161.000000	64.778947 
1160.000000	64.777493 
1159.000000	64.771699 
1158.000000	64.762520 
1157.000000	64.751291 
1156.000000	64.739608 
1155.000000	64.728975 
1154.000000	64.720082 
1153.000000	64.712882 
1152.000000	64.706277 
1151.000000	64.698386 
1150.000000	64.687323 
1149.000000	64.671778 
1148.000000	64.651727 
1147.000000	64.628815 
1146.000000	64.606237 
1145.000000	64.588117 
1144.000000	64.578318 
1143.000000	64.579558 
1142.000000	64.592576 
1141.000000	64.615821 
1140.000000	64.645719 
1139.000000	64.677453 
1138.000000	64.706063 
1137.000000	64.727687 
1136.000000	64.740324 
1135.000000	64.744114 
1134.000000	64.740443 
1133.000000	64.731669 
1132.000000	64.720106 
1131.000000	64.707422 
1130.000000	64.694309 
1129.000000	64.680671 
1128.000000	64.666199 
1127.000000	64.650964 
1126.000000	64.636039 
1125.000000	64.623260 
1124.000000	64.614796 
1123.000000	64.612340 
1122.000000	64.616489 
1121.000000	64.626193 
1120.000000	64.638900 
1119.000000	64.650869 
1118.000000	64.658236 
1117.000000	64.658188 
1116.000000	64.649915 
1115.000000	64.634704 
1114.000000	64.616060 
1113.000000	64.598703 
1112.000000	64.587783 
1111.000000	64.587616 
1110.000000	64.601063 
1109.000000	64.628911 
1108.000000	64.669728 
1107.000000	64.720273 
1106.000000	64.775562 
1105.000000	64.829945 
1104.000000	64.877057 
1103.000000	64.911055 
1102.000000	64.926719 
1101.000000	64.920330 
1100.000000	64.890646 
1099.000000	64.839124 
1098.000000	64.770627 
1097.000000	64.692711 
1096.000000	64.615201 
1095.000000	64.548707 
1094.000000	64.502644 
1093.000000	64.483404 
1092.000000	64.493155 
1091.000000	64.529514 
1090.000000	64.585423 
1089.000000	64.651131 
1088.000000	64.715862 
1087.000000	64.770483 
1086.000000	64.808940 
1085.000000	64.829492 
1084.000000	64.834427 
1083.000000	64.829039 
1082.000000	64.820241 
1081.000000	64.814066 
1080.000000	64.814233 
1079.000000	64.821052 
1078.000000	64.832687 
1077.000000	64.844655 
1076.000000	64.852333 
1075.000000	64.851403 
1074.000000	64.839887 
1073.000000	64.817714 
1072.000000	64.786815 
1071.000000	64.749860 
1070.000000	64.709258 
1069.000000	64.666438 
1068.000000	64.621520 
1067.000000	64.573669 
1066.000000	64.521908 
1065.000000	64.466047 
1064.000000	64.407587 
1063.000000	64.349746 
1062.000000	64.297533 
1061.000000	64.256572 
1060.000000	64.232587 
1059.000000	64.229106 
1058.000000	64.247608 
1057.000000	64.287233 
1056.000000	64.345383 
1055.000000	64.417648 
1054.000000	64.499163 
1053.000000	64.585280 
1052.000000	64.672183 
1051.000000	64.756846 
1050.000000	64.836859 
1049.000000	64.909720 
1048.000000	64.972925 
1047.000000	65.024089 
1046.000000	65.060877 
1045.000000	65.081715 
1044.000000	65.085864 
1043.000000	65.074443 
1042.000000	65.049457 
1041.000000	65.013980 
1040.000000	64.971446 
1039.000000	64.925360 
1038.000000	64.878296 
1037.000000	64.831352 
1036.000000	64.784598 
1035.000000	64.737010 
1034.000000	64.686846 
1033.000000	64.632391 
1032.000000	64.572310 
1031.000000	64.507126 
1030.000000	64.438676 
1029.000000	64.371418 
1028.000000	64.310836 
1027.000000	64.263677 
1026.000000	64.236259 
1025.000000	64.233326 
1024.000000	64.256596 
1023.000000	64.303994 
1022.000000	64.369559 
1021.000000	64.444518 
1020.000000	64.517855 
1019.000000	64.579892 
1018.000000	64.623665 
1017.000000	64.646863 
1016.000000	64.651632 
1015.000000	64.643931 
1014.000000	64.631557 
1013.000000	64.621949 
1012.000000	64.620137 
1011.000000	64.627361 
1010.000000	64.640545 
1009.000000	64.654135 
1008.000000	64.661478 
1007.000000	64.656400 
1006.000000	64.635252 
1005.000000	64.597916 
1004.000000	64.548206 
1003.000000	64.492225 
1002.000000	64.438056 
1001.000000	64.393329 
1000.000000	64.364504 
999.000000	 64.355564 
998.000000	 64.367699 
997.000000	 64.399743 
996.000000	 64.447975 
995.000000	 64.506816 
994.000000	 64.569830 
993.000000	 64.630317 
992.000000	 64.682912 
991.000000	 64.724063 
990.000000	 64.752769 
989.000000	 64.769959 
988.000000	 64.778661 
987.000000	 64.782977 
986.000000	 64.786791 
985.000000	 64.792871 
984.000000	 64.802503 
983.000000	 64.815330 
982.000000	 64.829897 
981.000000	 64.843916 
980.000000	 64.855456 
979.000000	 64.862966 
978.000000	 64.865922 
977.000000	 64.864611 
976.000000	 64.859604 
975.000000	 64.851784 
974.000000	 64.841628 
973.000000	 64.829635 
972.000000	 64.816260 
971.000000	 64.802193 
970.000000	 64.788722 
969.000000	 64.777183 
968.000000	 64.768981 
967.000000	 64.764571 
966.000000	 64.763355 
965.000000	 64.763593 
964.000000	 64.762616 
963.000000	 64.757490 
962.000000	 64.745640 
961.000000	 64.725852 
960.000000	 64.698696 
959.000000	 64.666342 
958.000000	 64.632177 
957.000000	 64.599895 
956.000000	 64.572763 
955.000000	 64.552879 
954.000000	 64.540743 
953.000000	 64.535498 
952.000000	 64.535593 
951.000000	 64.539432 
950.000000	 64.545512 
949.000000	 64.553141 
948.000000	 64.561891 
947.000000	 64.571475 
946.000000	 64.581155 
945.000000	 64.589452 
944.000000	 64.594602 
943.000000	 64.594483 
942.000000	 64.587640 
941.000000	 64.573550 
940.000000	 64.553499 
939.000000	 64.530444 
938.000000	 64.508891 
937.000000	 64.493513 
936.000000	 64.488482 
935.000000	 64.496350 
934.000000	 64.517402 
933.000000	 64.549517 
932.000000	 64.588499 
931.000000	 64.628911 
930.000000	 64.665412 
929.000000	 64.693784 
928.000000	 64.711833 
927.000000	 64.719533 
926.000000	 64.718818 
925.000000	 64.712929 
924.000000	 64.705777 
923.000000	 64.700698 
922.000000	 64.699864 
921.000000	 64.703559 
920.000000	 64.710712 
919.000000	 64.719104 
918.000000	 64.726400 
917.000000	 64.730691 
916.000000	 64.730978 
915.000000	 64.728045 
914.000000	 64.724135 
913.000000	 64.722418 
912.000000	 64.725971 
911.000000	 64.736652 
910.000000	 64.754438 
909.000000	 64.776611 
908.000000	 64.798569 
907.000000	 64.813804 
906.000000	 64.815878 
905.000000	 64.799666 
904.000000	 64.763188 
903.000000	 64.708542 
902.000000	 64.642095 
901.000000	 64.573359 
900.000000	 64.513182 
899.000000	 64.471459 
898.000000	 64.454913 
897.000000	 64.465785 
896.000000	 64.501166 
895.000000	 64.554333 
894.000000	 64.615559 
893.000000	 64.674377 
892.000000	 64.721202 
891.000000	 64.749050 
890.000000	 64.754343 
889.000000	 64.736151 
888.000000	 64.696907 
887.000000	 64.641332 
886.000000	 64.576148 
885.000000	 64.509057 
884.000000	 64.447951 
883.000000	 64.400339 
882.000000	 64.371776 
881.000000	 64.365625 
880.000000	 64.381194 
879.000000	 64.413905 
878.000000	 64.455914 
877.000000	 64.497828 
876.000000	 64.531517 
875.000000	 64.552021 
874.000000	 64.559435 
873.000000	 64.558243 
872.000000	 64.555716 
871.000000	 64.558815 
870.000000	 64.572167 
869.000000	 64.595222 
868.000000	 64.622426 
867.000000	 64.643573 
866.000000	 64.647173 
865.000000	 64.623165 
864.000000	 64.566230 
863.000000	 64.477658 
862.000000	 64.364957 
861.000000	 64.241719 
860.000000	 64.124202 
859.000000	 64.028668 
858.000000	 63.967442 
857.000000	 63.947129 
856.000000	 63.967275 
855.000000	 64.021086 
854.000000	 64.097785 
853.000000	 64.184141 
852.000000	 64.267253 
851.000000	 64.337253 
850.000000	 64.388728 
849.000000	 64.421510 
848.000000	 64.439678 
847.000000	 64.450478 
846.000000	 64.461517 
845.000000	 64.479470 
844.000000	 64.506912 
843.000000	 64.542698 
842.000000	 64.580869 
841.000000	 64.613151 
840.000000	 64.630031 
839.000000	 64.623928 
838.000000	 64.590644 
837.000000	 64.530730 
836.000000	 64.449620 
835.000000	 64.356255 
834.000000	 64.262223 
833.000000	 64.179134 
832.000000	 64.117479 
831.000000	 64.084196 
830.000000	 64.083266 
829.000000	 64.115047 
828.000000	 64.177322 
827.000000	 64.265751 
826.000000	 64.374566 
825.000000	 64.496731 
824.000000	 64.624285 
823.000000	 64.748382 
822.000000	 64.860510 
821.000000	 64.953064 
820.000000	 65.019869 
819.000000	 65.056991 
818.000000	 65.063738 
817.000000	 65.042114 
816.000000	 64.997220 
815.000000	 64.935708 
814.000000	 64.865899 
813.000000	 64.795255 
812.000000	 64.730572 
811.000000	 64.675593 
810.000000	 64.631891 
809.000000	 64.597654 
808.000000	 64.569497 
807.000000	 64.542889 
806.000000	 64.513802 
805.000000	 64.479589 
804.000000	 64.439535 
803.000000	 64.394712 
802.000000	 64.347290 
801.000000	 64.300060 
800.000000	 64.255213 
799.000000	 64.214205 
798.000000	 64.177703 
797.000000	 64.145731 
796.000000	 64.117908 
795.000000	 64.095067 
794.000000	 64.079475 
793.000000	 64.073443 
792.000000	 64.078497 
791.000000	 64.094829 
790.000000	 64.120030 
789.000000	 64.148688 
788.000000	 64.173603 
787.000000	 64.187550 
786.000000	 64.185118 
785.000000	 64.164471 
784.000000	 64.127588 
783.000000	 64.079594 
782.000000	 64.027571 
781.000000	 63.979315 
780.000000	 63.941025 
779.000000	 63.915610 
778.000000	 63.902854 
777.000000	 63.900613 
776.000000	 63.904786 
775.000000	 63.910603 
774.000000	 63.913583 
773.000000	 63.910579 
772.000000	 63.898515 
771.000000	 63.874506 
770.000000	 63.836026 
769.000000	 63.781523 
768.000000	 63.711762 
767.000000	 63.630390 
766.000000	 63.544344 
765.000000	 63.462758 
764.000000	 63.394856 
763.000000	 63.347983 
762.000000	 63.324975 
761.000000	 63.324379 
760.000000	 63.340592 
759.000000	 63.366603 
758.000000	 63.395047 
757.000000	 63.421821 
756.000000	 63.446164 
755.000000	 63.472056 
754.000000	 63.505148 
753.000000	 63.552498 
752.000000	 63.618540 
751.000000	 63.704943 
750.000000	 63.808870 
749.000000	 63.923931 
748.000000	 64.041590 
747.000000	 64.152526 
746.000000	 64.248943 
745.000000	 64.323997 
744.000000	 64.373016 
743.000000	 64.392876 
742.000000	 64.382433 
741.000000	 64.342641 
740.000000	 64.276456 
739.000000	 64.189839 
738.000000	 64.090752 
737.000000	 63.988089 
736.000000	 63.890075 
735.000000	 63.802981 
734.000000	 63.730645 
733.000000	 63.673853 
732.000000	 63.631749 
731.000000	 63.602066 
730.000000	 63.583254 
729.000000	 63.575029 
728.000000	 63.578486 
727.000000	 63.595151 
726.000000	 63.625979 
725.000000	 63.669729 
724.000000	 63.722443 
723.000000	 63.776445 
722.000000	 63.823056 
721.000000	 63.854098 
720.000000	 63.864541 
719.000000	 63.853645 
718.000000	 63.825869 
717.000000	 63.790011 
716.000000	 63.756680 
715.000000	 63.735222 
714.000000	 63.732290 
713.000000	 63.749670 
712.000000	 63.783788 
711.000000	 63.826346 
710.000000	 63.866162 
709.000000	 63.891696 
708.000000	 63.893675 
707.000000	 63.867378 
706.000000	 63.813161 
705.000000	 63.736820 
704.000000	 63.648509 
703.000000	 63.560318 
702.000000	 63.483262 
701.000000	 63.425469 
700.000000	 63.391089 
699.000000	 63.379549 
698.000000	 63.386273 
697.000000	 63.404107 
696.000000	 63.425350 
695.000000	 63.443636 
694.000000	 63.455033 
693.000000	 63.458442 
692.000000	 63.454747 
691.000000	 63.445639 
690.000000	 63.432312 
689.000000	 63.414478 
688.000000	 63.390159 
687.000000	 63.356566 
686.000000	 63.311171 
685.000000	 63.253283 
684.000000	 63.184785 
683.000000	 63.109874 
682.000000	 63.034915 
681.000000	 62.966799 
680.000000	 62.912392 
679.000000	 62.877058 
678.000000	 62.864327 
677.000000	 62.875008 
676.000000	 62.907695 
675.000000	 62.958979 
674.000000	 63.024187 
673.000000	 63.097357 
672.000000	 63.172316 
671.000000	 63.242411 
670.000000	 63.302087 
669.000000	 63.347196 
668.000000	 63.375616 
667.000000	 63.387060 
666.000000	 63.383674 
665.000000	 63.370037 
664.000000	 63.351559 
663.000000	 63.333630 
662.000000	 63.320517 
661.000000	 63.314723 
660.000000	 63.316702 
659.000000	 63.324952 
658.000000	 63.337016 
657.000000	 63.349914 
656.000000	 63.361048 
655.000000	 63.368391 
654.000000	 63.371086 
653.000000	 63.368654 
652.000000	 63.360810 
651.000000	 63.346743 
650.000000	 63.325381 
649.000000	 63.295722 
648.000000	 63.256883 
647.000000	 63.209581 
646.000000	 63.155746 
645.000000	 63.100361 
644.000000	 63.050889 
643.000000	 63.016581 
642.000000	 63.006043 
641.000000	 63.026213 
640.000000	 63.080453 
639.000000	 63.166904 
638.000000	 63.278102 
637.000000	 63.401603 
636.000000	 63.521909 
635.000000	 63.623046 
634.000000	 63.691544 
633.000000	 63.718986 
632.000000	 63.703584 
631.000000	 63.650560 
630.000000	 63.570928 
629.000000	 63.479495 
628.000000	 63.391613 
627.000000	 63.320970 
626.000000	 63.276147 
625.000000	 63.260459 
624.000000	 63.270020 
623.000000	 63.296866 
622.000000	 63.328862 
621.000000	 63.353276 
620.000000	 63.358807 
619.000000	 63.337206 
618.000000	 63.285875 
617.000000	 63.206911 
616.000000	 63.108491 
615.000000	 63.001799 
614.000000	 62.900710 
613.000000	 62.818861 
612.000000	 62.767195 
611.000000	 62.752318 
610.000000	 62.774372 
609.000000	 62.827444 
608.000000	 62.899851 
607.000000	 62.976741 
606.000000	 63.042974 
605.000000	 63.086557 
604.000000	 63.100552 
603.000000	 63.084697 
602.000000	 63.044714 
601.000000	 62.990927 
600.000000	 62.935733 
599.000000	 62.890386 
598.000000	 62.863159 
597.000000	 62.857174 
596.000000	 62.871360 
595.000000	 62.900114 
594.000000	 62.935757 
593.000000	 62.969470 
592.000000	 62.993955 
591.000000	 63.004159 
590.000000	 62.997913 
589.000000	 62.975811 
588.000000	 62.940311 
587.000000	 62.895274 
586.000000	 62.844467 
585.000000	 62.791585 
584.000000	 62.739944 
583.000000	 62.691903 
582.000000	 62.649202 
581.000000	 62.613487 
580.000000	 62.586736 
579.000000	 62.571525 
578.000000	 62.570691 
577.000000	 62.586736 
576.000000	 62.621092 
575.000000	 62.673020 
574.000000	 62.738966 
573.000000	 62.812662 
572.000000	 62.885499 
571.000000	 62.947630 
570.000000	 62.989759 
569.000000	 63.005113 
568.000000	 62.990856 
567.000000	 62.949013 
566.000000	 62.885856 
565.000000	 62.810754 
564.000000	 62.734103 
563.000000	 62.665820 
562.000000	 62.613439 
561.000000	 62.580561 
560.000000	 62.567853 
559.000000	 62.574291 
558.000000	 62.596964 
557.000000	 62.632513 
556.000000	 62.676715 
555.000000	 62.724733 
554.000000	 62.771153 
553.000000	 62.810301 
552.000000	 62.837648 
551.000000	 62.851095 
550.000000	 62.852311 
549.000000	 62.846827 
548.000000	 62.843489 
547.000000	 62.851500 
546.000000	 62.879419 
545.000000	 62.930583 
544.000000	 63.002061 
543.000000	 63.082957 
542.000000	 63.156914 
541.000000	 63.204669 
540.000000	 63.210272 
539.000000	 63.163185 
538.000000	 63.061523 
537.000000	 62.911891 
536.000000	 62.728619 
535.000000	 62.529897 
534.000000	 62.333607 
533.000000	 62.155055 
532.000000	 62.004947 
531.000000	 61.888408 
530.000000	 61.806058 
529.000000	 61.754417 
528.000000	 61.728119 
527.000000	 61.720800 
526.000000	 61.726832 
525.000000	 61.742639 
524.000000	 61.767268 
523.000000	 61.802268 
522.000000	 61.850810 
521.000000	 61.916637 
520.000000	 62.001180 
519.000000	 62.103509 
518.000000	 62.216854 
517.000000	 62.329101 
516.000000	 62.422752 
515.000000	 62.478947 
514.000000	 62.480258 
513.000000	 62.416124 
512.000000	 62.284636 
511.000000	 62.095189 
510.000000	 61.865568 
509.000000	 61.619853 
508.000000	 61.382555 
507.000000	 61.174201 
506.000000	 61.008048 
505.000000	 60.888981 
504.000000	 60.814547 
503.000000	 60.777878 
502.000000	 60.769677 
501.000000	 60.780763 
500.000000	 60.805368 
499.000000	 60.842061 
498.000000	 60.892009 
497.000000	 60.957741 
496.000000	 61.042189 
495.000000	 61.146712 
494.000000	 61.269593 
493.000000	 61.405301 
492.000000	 61.546611 
491.000000	 61.683678 
490.000000	 61.806058 
489.000000	 61.902618 
488.000000	 61.963272 
487.000000	 61.979889 
486.000000	 61.950445 
485.000000	 61.876392 
484.000000	 61.763453 
483.000000	 61.619472 
482.000000	 61.454892 
481.000000	 61.280727 
480.000000	 61.106681 
479.000000	 60.944104 
478.000000	 60.805416 
477.000000	 60.705375 
476.000000	 60.658884 
475.000000	 60.679244 
474.000000	 60.774707 
473.000000	 60.946607 
472.000000	 61.187839 
471.000000	 61.485147 
470.000000	 61.820650 
469.000000	 62.175488 
468.000000	 62.531137 
467.000000	 62.872457 
466.000000	 63.184952 
465.000000	 63.456726 
464.000000	 63.672590 
463.000000	 63.816881 
462.000000	 63.869643 
461.000000	 63.813996 
460.000000	 63.635754 
459.000000	 63.333010 
458.000000	 62.914872 
457.000000	 62.408733 
456.000000	 61.851716 
455.000000	 61.288428 
454.000000	 60.761904 
453.000000	 60.307526 
452.000000	 59.948801 
451.000000	 59.695625 
450.000000	 59.544563 
449.000000	 59.481430 
448.000000	 59.485721 
447.000000	 59.534835 
446.000000	 59.608292 
445.000000	 59.689974 
444.000000	 59.770941 
443.000000	 59.848165 
442.000000	 59.923982 
441.000000	 60.001993 
440.000000	 60.084390 
439.000000	 60.169005 
438.000000	 60.244703 
437.000000	 60.295438 
436.000000	 60.310578 
435.000000	 60.286259 
434.000000	 60.218691 
433.000000	 60.114836 
432.000000	 60.000824 
431.000000	 59.908223 
430.000000	 59.868931 
429.000000	 59.901213 
428.000000	 59.999942 
427.000000	 60.139656 
426.000000	 60.287332 
425.000000	 60.400247 
424.000000	 60.433459 
423.000000	 60.359787 
422.000000	 60.176944 
421.000000	 59.913301 
420.000000	 59.623384 
419.000000	 59.371733 
418.000000	 59.214210 
417.000000	 59.200501 
416.000000	 59.358453 
415.000000	 59.673309 
414.000000	 60.081911 
413.000000	 60.513591 
412.000000	 60.871338 
411.000000	 61.062216 
410.000000	 60.980272 
409.000000	 60.486531 
408.000000	 59.461784 
407.000000	 57.826733 
406.000000	 55.611920 
405.000000	 52.954506 
404.000000	 50.135731 
403.000000	 47.527599 
402.000000	 45.550680 
401.000000	 44.594788 
400.000000	 44.911980 
399.000000	 46.541833 
398.000000	 49.289250 
397.000000	 52.754545 
396.000000	 56.403160 
395.000000	 59.682059 
394.000000	 62.091231 
393.000000	 63.275074 
392.000000	 63.026309 
391.000000	 61.305856 
390.000000	 58.165597 
389.000000	 53.755545 
388.000000	 48.302674 
387.000000	 42.161893 
386.000000	 35.830569 
385.000000	 29.964041 
384.000000	 25.356221 
383.000000	 22.788166 
382.000000	 22.932100 
381.000000	 26.085114 
380.000000	 32.043409 
379.000000	 40.033483 
378.000000	 48.798918 
377.000000	 56.856489 
376.000000	 62.704515 
375.000000	 65.286135 
374.000000	 64.204835 
373.000000	 59.865999 
372.000000	 53.391838 
371.000000	 46.280336 
370.000000	 40.015411 

