PE IR       SPECTRUM    SPECTRUM    ASCII       PEDS        1.60        
  -1
C-9BE0~1.ASC
17/03/27
18:32:22.00
17/03/27
18:32:22.00
tln
$C-4040-8_t0049$<tbV0>[2.6,-2.6,8.0,0.0,27,1,0]
370.000000
64









2002,4.07    
MIRTGS : RIGHTBACK : INTERNAL 2
MIR : ON : INTERNAL 2
OPTKBR

0.200000
8
8.000000
FILLER
RATIO
SPECTRUM
UNLOCKED 256

DOUBLE
64
COMBINED
1
0
0


1.000000
RATIO


1
0
TRUE
51149
0
LEFT NOT FITTED RIGHT NOT FITTED 0
NONE
NONE
15600
12.000000
4.427000
51148
TRUE
1 0 8 72 0 0 0 0 

15798.010000






#HDR
-1
-1
#GR
CM-1
%T
0.00002384185791015625
0.0
5000.000000
-1.000000
4631
8
75.547432
21.758699
#DATA
5000.000000	64.035892 
4999.000000	64.112448 
4998.000000	64.189910 
4997.000000	64.255356 
4996.000000	64.300632 
4995.000000	64.323973 
4994.000000	64.330816 
4993.000000	64.331984 
4992.000000	64.340233 
4991.000000	64.365935 
4990.000000	64.414167 
4989.000000	64.483475 
4988.000000	64.565610 
4987.000000	64.647984 
4986.000000	64.717411 
4985.000000	64.764213 
4984.000000	64.784121 
4983.000000	64.779233 
4982.000000	64.756369 
4981.000000	64.724636 
4980.000000	64.692258 
4979.000000	64.664030 
4978.000000	64.640688 
4977.000000	64.618921 
4976.000000	64.594340 
4975.000000	64.562106 
4974.000000	64.520549 
4973.000000	64.469552 
4972.000000	64.410400 
4971.000000	64.344668 
4970.000000	64.271950 
4969.000000	64.192199 
4968.000000	64.104652 
4967.000000	64.012026 
4966.000000	63.919425 
4965.000000	63.837480 
4964.000000	63.780570 
4963.000000	63.764238 
4962.000000	63.800692 
4961.000000	63.894557 
4960.000000	64.040064 
4959.000000	64.220881 
4958.000000	64.412474 
4957.000000	64.587187 
4956.000000	64.720058 
4955.000000	64.794683 
4954.000000	64.806461 
4953.000000	64.762520 
4952.000000	64.679694 
4951.000000	64.579296 
4950.000000	64.482426 
4949.000000	64.406061 
4948.000000	64.359617 
4947.000000	64.346361 
4946.000000	64.361906 
4945.000000	64.397883 
4944.000000	64.442753 
4943.000000	64.485383 
4942.000000	64.516210 
4941.000000	64.528512 
4940.000000	64.519691 
4939.000000	64.489698 
4938.000000	64.442896 
4937.000000	64.385461 
4936.000000	64.326500 
4935.000000	64.276218 
4934.000000	64.244914 
4933.000000	64.241147 
4932.000000	64.270162 
4931.000000	64.332866 
4930.000000	64.425110 
4929.000000	64.538288 
4928.000000	64.659905 
4927.000000	64.775705 
4926.000000	64.871835 
4925.000000	64.937543 
4924.000000	64.966487 
4923.000000	64.958405 
4922.000000	64.919233 
4921.000000	64.859175 
4920.000000	64.791560 
4919.000000	64.728283 
4918.000000	64.677858 
4917.000000	64.642405 
4916.000000	64.618277 
4915.000000	64.597463 
4914.000000	64.571714 
4913.000000	64.534974 
4912.000000	64.485216 
4911.000000	64.426422 
4910.000000	64.367938 
4909.000000	64.321064 
4908.000000	64.295339 
4907.000000	64.295434 
4906.000000	64.318919 
4905.000000	64.357089 
4904.000000	64.397239 
4903.000000	64.426469 
4902.000000	64.435648 
4901.000000	64.423131 
4900.000000	64.395427 
4899.000000	64.366126 
4898.000000	64.351892 
4897.000000	64.367556 
4896.000000	64.420437 
4895.000000	64.509367 
4894.000000	64.621615 
4893.000000	64.737296 
4892.000000	64.830541 
4891.000000	64.877176 
4890.000000	64.857530 
4889.000000	64.762520 
4888.000000	64.593720 
4887.000000	64.362430 
4886.000000	64.088749 
4885.000000	63.797163 
4884.000000	63.514137 
4883.000000	63.263320 
4882.000000	63.064432 
4881.000000	62.930703 
4880.000000	62.869310 
4879.000000	62.881064 
4878.000000	62.960457 
4877.000000	63.096094 
4876.000000	63.271594 
4875.000000	63.466835 
4874.000000	63.659906 
4873.000000	63.829398 
4872.000000	63.956952 
4871.000000	64.029836 
4870.000000	64.042806 
4869.000000	63.999009 
4868.000000	63.908910 
4867.000000	63.788533 
4866.000000	63.657402 
4865.000000	63.535022 
4864.000000	63.438439 
4863.000000	63.379311 
4862.000000	63.364386 
4861.000000	63.393139 
4860.000000	63.459968 
4859.000000	63.553667 
4858.000000	63.660383 
4857.000000	63.764357 
4856.000000	63.849449 
4855.000000	63.902258 
4854.000000	63.913726 
4853.000000	63.880944 
4852.000000	63.806533 
4851.000000	63.700795 
4850.000000	63.579916 
4849.000000	63.463425 
4848.000000	63.370680 
4847.000000	63.317966 
4846.000000	63.315320 
4845.000000	63.365316 
4844.000000	63.462662 
4843.000000	63.594484 
4842.000000	63.743281 
4841.000000	63.890361 
4840.000000	64.019846 
4839.000000	64.119577 
4838.000000	64.184260 
4837.000000	64.214730 
4836.000000	64.217710 
4835.000000	64.203786 
4834.000000	64.184570 
4833.000000	64.170026 
4832.000000	64.166641 
4831.000000	64.177751 
4830.000000	64.202451 
4829.000000	64.237499 
4828.000000	64.277768 
4827.000000	64.318490 
4826.000000	64.356064 
4825.000000	64.389228 
4824.000000	64.418077 
4823.000000	64.443302 
4822.000000	64.465260 
4821.000000	64.483332 
4820.000000	64.495158 
4819.000000	64.497041 
4818.000000	64.484477 
4817.000000	64.453601 
4816.000000	64.402842 
4815.000000	64.334201 
4814.000000	64.253258 
4813.000000	64.169478 
4812.000000	64.094018 
4811.000000	64.038634 
4810.000000	64.013433 
4809.000000	64.024639 
4808.000000	64.072823 
4807.000000	64.152741 
4806.000000	64.254879 
4805.000000	64.366126 
4804.000000	64.472126 
4803.000000	64.559650 
4802.000000	64.618778 
4801.000000	64.644265 
4800.000000	64.635968 
4799.000000	64.598488 
4798.000000	64.539885 
4797.000000	64.469814 
4796.000000	64.397978 
4795.000000	64.332294 
4794.000000	64.277982 
4793.000000	64.237141 
4792.000000	64.209437 
4791.000000	64.192771 
4790.000000	64.184808 
4789.000000	64.183735 
4788.000000	64.189124 
4787.000000	64.201569 
4786.000000	64.222145 
4785.000000	64.251470 
4784.000000	64.288830 
4783.000000	64.331340 
4782.000000	64.373970 
4781.000000	64.409971 
4780.000000	64.432358 
4779.000000	64.435458 
4778.000000	64.416480 
4777.000000	64.376282 
4776.000000	64.319682 
4775.000000	64.254879 
4774.000000	64.191508 
4773.000000	64.138674 
4772.000000	64.103031 
4771.000000	64.087724 
4770.000000	64.091396 
4769.000000	64.108800 
4768.000000	64.132356 
4767.000000	64.154314 
4766.000000	64.168834 
4765.000000	64.173603 
4764.000000	64.170813 
4763.000000	64.166355 
4762.000000	64.168381 
4761.000000	64.184331 
4760.000000	64.218926 
4759.000000	64.271235 
4758.000000	64.334964 
4757.000000	64.398598 
4756.000000	64.448189 
4755.000000	64.470291 
4754.000000	64.455628 
4753.000000	64.401412 
4752.000000	64.312100 
4751.000000	64.198946 
4750.000000	64.077520 
4749.000000	63.964438 
4748.000000	63.873553 
4747.000000	63.813495 
4746.000000	63.786530 
4745.000000	63.788437 
4744.000000	63.810300 
4743.000000	63.841199 
4742.000000	63.871288 
4741.000000	63.893079 
4740.000000	63.902497 
4739.000000	63.898873 
4738.000000	63.884019 
4737.000000	63.860607 
4736.000000	63.830947 
4735.000000	63.796472 
4734.000000	63.757705 
4733.000000	63.715386 
4732.000000	63.670825 
4731.000000	63.626790 
4730.000000	63.587546 
4729.000000	63.558220 
4728.000000	63.544249 
4727.000000	63.549184 
4726.000000	63.575077 
4725.000000	63.620877 
4724.000000	63.683915 
4723.000000	63.759112 
4722.000000	63.841533 
4721.000000	63.926458 
4720.000000	64.010667 
4719.000000	64.092183 
4718.000000	64.170074 
4717.000000	64.243745 
4716.000000	64.312720 
4715.000000	64.376139 
4714.000000	64.432787 
4713.000000	64.480972 
4712.000000	64.519524 
4711.000000	64.547920 
4710.000000	64.566111 
4709.000000	64.574289 
4708.000000	64.573001 
4707.000000	64.562678 
4706.000000	64.543700 
4705.000000	64.516305 
4704.000000	64.481258 
4703.000000	64.439916 
4702.000000	64.394688 
4701.000000	64.348602 
4700.000000	64.305210 
4699.000000	64.267253 
4698.000000	64.237022 
4697.000000	64.214825 
4696.000000	64.199185 
4695.000000	64.186882 
4694.000000	64.173769 
4693.000000	64.155912 
4692.000000	64.130306 
4691.000000	64.096236 
4690.000000	64.055633 
4689.000000	64.012670 
4688.000000	63.972687 
4687.000000	63.941931 
4686.000000	63.926172 
4685.000000	63.929033 
4684.000000	63.951277 
4683.000000	63.990807 
4682.000000	64.042925 
4681.000000	64.101099 
4680.000000	64.157795 
4679.000000	64.205908 
4678.000000	64.239287 
4677.000000	64.254045 
4676.000000	64.248347 
4675.000000	64.222240 
4674.000000	64.177417 
4673.000000	64.117145 
4672.000000	64.046072 
4671.000000	63.970017 
4670.000000	63.895773 
4669.000000	63.830924 
4668.000000	63.782501 
4667.000000	63.755941 
4666.000000	63.754248 
4665.000000	63.777303 
4664.000000	63.821434 
4663.000000	63.879656 
4662.000000	63.942861 
4661.000000	64.001154 
4660.000000	64.045310 
4659.000000	64.068436 
4658.000000	64.067292 
4657.000000	64.042782 
4656.000000	64.000320 
4655.000000	63.948822 
4654.000000	63.899087 
4653.000000	63.861656 
4652.000000	63.845205 
4651.000000	63.854146 
4650.000000	63.888120 
4649.000000	63.941359 
4648.000000	64.004302 
4647.000000	64.065670 
4646.000000	64.114260 
4645.000000	64.142489 
4644.000000	64.147305 
4643.000000	64.131617 
4642.000000	64.102935 
4641.000000	64.071440 
4640.000000	64.046978 
4639.000000	64.036870 
4638.000000	64.044284 
4637.000000	64.068126 
4636.000000	64.103913 
4635.000000	64.145493 
4634.000000	64.187145 
4633.000000	64.224052 
4632.000000	64.253067 
4631.000000	64.272427 
4630.000000	64.281296 
4629.000000	64.279127 
4628.000000	64.265251 
4627.000000	64.239168 
4626.000000	64.200758 
4625.000000	64.151334 
4624.000000	64.093828 
4623.000000	64.032959 
4622.000000	63.974523 
4621.000000	63.924479 
4620.000000	63.888001 
4619.000000	63.868021 
4618.000000	63.865137 
4617.000000	63.877415 
4616.000000	63.900947 
4615.000000	63.930559 
4614.000000	63.960623 
4613.000000	63.985586 
4612.000000	64.001297 
4611.000000	64.004850 
4610.000000	63.996267 
4609.000000	63.977837 
4608.000000	63.954806 
4607.000000	63.934016 
4606.000000	63.922834 
4605.000000	63.927197 
4604.000000	63.950109 
4603.000000	63.990592 
4602.000000	64.043879 
4601.000000	64.101648 
4600.000000	64.153790 
4599.000000	64.190077 
4598.000000	64.202332 
4597.000000	64.186263 
4596.000000	64.141845 
4595.000000	64.074158 
4594.000000	63.991379 
4593.000000	63.904356 
4592.000000	63.824152 
4591.000000	63.760948 
4590.000000	63.722300 
4589.000000	63.712382 
4588.000000	63.731980 
4587.000000	63.778018 
4586.000000	63.844203 
4585.000000	63.922119 
4584.000000	64.002370 
4583.000000	64.076542 
4582.000000	64.137911 
4581.000000	64.182639 
4580.000000	64.209675 
4579.000000	64.220142 
4578.000000	64.216303 
4577.000000	64.200568 
4576.000000	64.174604 
4575.000000	64.139294 
4574.000000	64.094877 
4573.000000	64.041948 
4572.000000	63.981890 
4571.000000	63.917779 
4570.000000	63.854146 
4569.000000	63.796401 
4568.000000	63.749718 
4567.000000	63.717937 
4566.000000	63.703060 
4565.000000	63.704061 
4564.000000	63.718271 
4563.000000	63.741207 
4562.000000	63.769078 
4561.000000	63.799071 
4560.000000	63.830709 
4559.000000	63.865041 
4558.000000	63.904309 
4557.000000	63.950395 
4556.000000	64.003634 
4555.000000	64.061903 
4554.000000	64.120459 
4553.000000	64.172792 
4552.000000	64.211702 
4551.000000	64.231109 
4550.000000	64.227509 
4549.000000	64.200782 
4548.000000	64.154243 
4547.000000	64.093708 
4546.000000	64.026665 
4545.000000	63.960456 
4544.000000	63.900232 
4543.000000	63.848853 
4542.000000	63.807344 
4541.000000	63.775444 
4540.000000	63.752961 
4539.000000	63.740348 
4538.000000	63.739228 
4537.000000	63.751196 
4536.000000	63.776612 
4535.000000	63.813996 
4534.000000	63.858580 
4533.000000	63.904428 
4532.000000	63.945102 
4531.000000	63.975977 
4530.000000	63.994884 
4529.000000	64.003396 
4528.000000	64.006590 
4527.000000	64.010858 
4526.000000	64.022064 
4525.000000	64.043831 
4524.000000	64.076590 
4523.000000	64.117622 
4522.000000	64.161992 
4521.000000	64.205360 
4520.000000	64.245223 
4519.000000	64.282202 
4518.000000	64.319348 
4517.000000	64.360332 
4516.000000	64.407992 
4515.000000	64.462494 
4514.000000	64.520835 
4513.000000	64.577746 
4512.000000	64.626264 
4511.000000	64.661550 
4510.000000	64.679908 
4509.000000	64.680385 
4508.000000	64.663290 
4507.000000	64.630532 
4506.000000	64.584040 
4505.000000	64.525866 
4504.000000	64.457678 
4503.000000	64.381527 
4502.000000	64.299845 
4501.000000	64.216351 
4500.000000	64.135336 
4499.000000	64.061689 
4498.000000	63.999533 
4497.000000	63.951802 
4496.000000	63.919162 
4495.000000	63.900327 
4494.000000	63.892841 
4493.000000	63.894104 
4492.000000	63.902044 
4491.000000	63.915801 
4490.000000	63.935470 
4489.000000	63.962149 
4488.000000	63.995790 
4487.000000	64.036011 
4486.000000	64.081764 
4485.000000	64.131331 
4484.000000	64.182758 
4483.000000	64.233422 
4482.000000	64.280414 
4481.000000	64.320278 
4480.000000	64.349412 
4479.000000	64.364814 
4478.000000	64.365267 
4477.000000	64.351725 
4476.000000	64.327669 
4475.000000	64.298272 
4474.000000	64.269733 
4473.000000	64.248156 
4472.000000	64.238572 
4471.000000	64.243865 
4470.000000	64.264178 
4469.000000	64.297437 
4468.000000	64.339637 
4467.000000	64.385175 
4466.000000	64.427781 
4465.000000	64.461803 
4464.000000	64.483189 
4463.000000	64.489483 
4462.000000	64.480662 
4461.000000	64.459013 
4460.000000	64.428591 
4459.000000	64.394950 
4458.000000	64.363169 
4457.000000	64.338016 
4456.000000	64.321279 
4455.000000	64.312100 
4454.000000	64.306664 
4453.000000	64.299035 
4452.000000	64.283657 
4451.000000	64.257311 
4450.000000	64.220404 
4449.000000	64.177012 
4448.000000	64.133954 
4447.000000	64.098906 
4446.000000	64.078283 
4445.000000	64.075136 
4444.000000	64.089202 
4443.000000	64.117050 
4442.000000	64.153575 
4441.000000	64.193630 
4440.000000	64.233160 
4439.000000	64.270305 
4438.000000	64.305114 
4437.000000	64.339399 
4436.000000	64.375400 
4435.000000	64.415335 
4434.000000	64.460349 
4433.000000	64.510178 
4432.000000	64.563846 
4431.000000	64.618873 
4430.000000	64.672470 
4429.000000	64.720678 
4428.000000	64.759469 
4427.000000	64.784598 
4426.000000	64.792656 
4425.000000	64.781475 
4424.000000	64.750695 
4423.000000	64.702606 
4422.000000	64.642214 
4421.000000	64.576625 
4420.000000	64.514040 
4419.000000	64.461660 
4418.000000	64.424586 
4417.000000	64.404153 
4416.000000	64.398074 
4415.000000	64.401364 
4414.000000	64.408540 
4413.000000	64.415884 
4412.000000	64.422488 
4411.000000	64.430880 
4410.000000	64.445161 
4409.000000	64.469623 
4408.000000	64.505839 
4407.000000	64.550113 
4406.000000	64.594435 
4405.000000	64.628386 
4404.000000	64.642167 
4403.000000	64.629220 
4402.000000	64.589023 
4401.000000	64.528560 
4400.000000	64.460086 
4399.000000	64.398670 
4398.000000	64.357066 
4397.000000	64.343500 
4396.000000	64.357352 
4395.000000	64.386129 
4394.000000	64.416098 
4393.000000	64.438843 
4392.000000	64.449572 
4391.000000	64.447736 
4390.000000	64.439535 
4389.000000	64.435696 
4388.000000	64.444231 
4387.000000	64.467597 
4386.000000	64.503622 
4385.000000	64.544010 
4384.000000	64.585304 
4383.000000	64.624714 
4382.000000	64.647245 
4381.000000	64.633870 
4380.000000	64.572548 
4379.000000	64.460277 
4378.000000	64.300704 
4377.000000	64.109063 
4376.000000	63.913702 
4375.000000	63.744974 
4374.000000	63.636589 
4373.000000	63.600635 
4372.000000	63.635683 
4371.000000	63.698887 
4370.000000	63.718438 
4369.000000	63.596343 
4368.000000	63.233113 
4367.000000	62.554693 
4366.000000	61.540555 
4365.000000	60.225868 
4364.000000	58.704090 
4363.000000	57.093739 
4362.000000	55.524754 
4361.000000	54.116010 
4360.000000	52.977085 
4359.000000	52.237939 
4358.000000	52.043890 
4357.000000	52.554249 
4356.000000	53.896403 
4355.000000	56.113052 
4354.000000	59.122991 
4353.000000	62.681031 
4352.000000	66.423058 
4351.000000	69.919371 
4350.000000	72.767591 
4349.000000	74.683856 
4348.000000	75.547432 
4347.000000	75.426125 
4346.000000	74.533009 
4345.000000	73.179531 
4344.000000	71.678328 
4343.000000	70.285868 
4342.000000	69.145584 
4341.000000	68.300247 
4340.000000	67.694973 
4339.000000	67.241382 
4338.000000	66.849827 
4337.000000	66.481685 
4336.000000	66.137051 
4335.000000	65.853238 
4334.000000	65.667605 
4333.000000	65.597748 
4332.000000	65.628933 
4331.000000	65.715456 
4330.000000	65.803766 
4329.000000	65.845417 
4328.000000	65.813851 
4327.000000	65.708470 
4326.000000	65.548372 
4325.000000	65.365743 
4324.000000	65.194511 
4323.000000	65.059494 
4322.000000	64.960861 
4321.000000	64.883041 
4320.000000	64.810705 
4319.000000	64.726400 
4318.000000	64.614892 
4317.000000	64.472293 
4316.000000	64.311456 
4315.000000	64.152455 
4314.000000	64.014005 
4313.000000	63.910865 
4312.000000	63.845348 
4311.000000	63.816499 
4310.000000	63.823032 
4309.000000	63.858008 
4308.000000	63.910508 
4307.000000	63.968706 
4306.000000	64.022135 
4305.000000	64.062523 
4304.000000	64.085626 
4303.000000	64.093303 
4302.000000	64.091897 
4301.000000	64.088773 
4300.000000	64.090061 
4299.000000	64.098906 
4298.000000	64.113759 
4297.000000	64.129948 
4296.000000	64.140033 
4295.000000	64.136815 
4294.000000	64.115118 
4293.000000	64.072680 
4292.000000	64.012408 
4291.000000	63.941502 
4290.000000	63.870811 
4289.000000	63.811326 
4288.000000	63.773560 
4287.000000	63.764667 
4286.000000	63.788223 
4285.000000	63.843321 
4284.000000	63.925623 
4283.000000	64.028477 
4282.000000	64.143157 
4281.000000	64.259982 
4280.000000	64.369249 
4279.000000	64.462327 
4278.000000	64.532208 
4277.000000	64.574122 
4276.000000	64.586281 
4275.000000	64.569592 
4274.000000	64.528250 
4273.000000	64.468002 
4272.000000	64.396262 
4271.000000	64.319825 
4270.000000	64.245009 
4269.000000	64.175987 
4268.000000	64.115357 
4267.000000	64.063811 
4266.000000	64.020872 
4265.000000	63.985633 
4264.000000	63.957190 
4263.000000	63.935756 
4262.000000	63.922214 
4261.000000	63.918137 
4260.000000	63.924598 
4259.000000	63.941955 
4258.000000	63.968992 
4257.000000	64.003109 
4256.000000	64.040207 
4255.000000	64.075922 
4254.000000	64.106202 
4253.000000	64.127969 
4252.000000	64.139723 
4251.000000	64.141201 
4250.000000	64.133310 
4249.000000	64.117336 
4248.000000	64.094471 
4247.000000	64.066052 
4246.000000	64.033174 
4245.000000	63.997292 
4244.000000	63.960099 
4243.000000	63.924098 
4242.000000	63.891959 
4241.000000	63.866567 
4240.000000	63.850212 
4239.000000	63.843917 
4238.000000	63.847112 
4237.000000	63.857984 
4236.000000	63.873267 
4235.000000	63.888478 
4234.000000	63.899087 
4233.000000	63.901281 
4232.000000	63.892555 
4231.000000	63.872456 
4230.000000	63.842439 
4229.000000	63.805413 
4228.000000	63.765954 
4227.000000	63.729453 
4226.000000	63.701105 
4225.000000	63.685417 
4224.000000	63.685846 
4223.000000	63.704133 
4222.000000	63.739657 
4221.000000	63.789081 
4220.000000	63.846731 
4219.000000	63.905215 
4218.000000	63.956022 
4217.000000	63.991761 
4216.000000	64.006757 
4215.000000	63.999414 
4214.000000	63.972425 
4213.000000	63.932776 
4212.000000	63.890528 
4211.000000	63.856196 
4210.000000	63.839030 
4209.000000	63.843655 
4208.000000	63.869714 
4207.000000	63.910746 
4206.000000	63.956332 
4205.000000	63.993835 
4204.000000	64.011359 
4203.000000	64.000892 
4202.000000	63.960337 
4201.000000	63.892984 
4200.000000	63.806462 
4199.000000	63.710951 
4198.000000	63.616681 
4197.000000	63.530731 
4196.000000	63.456249 
4195.000000	63.392758 
4194.000000	63.337922 
4193.000000	63.289451 
4192.000000	63.247156 
4191.000000	63.213753 
4190.000000	63.194346 
4189.000000	63.194513 
4188.000000	63.217949 
4187.000000	63.263273 
4186.000000	63.324213 
4185.000000	63.389372 
4184.000000	63.445401 
4183.000000	63.479113 
4182.000000	63.482189 
4181.000000	63.452839 
4180.000000	63.398003 
4179.000000	63.331031 
4178.000000	63.270282 
4177.000000	63.234257 
4176.000000	63.238215 
4175.000000	63.290405 
4174.000000	63.391113 
4173.000000	63.532304 
4172.000000	63.699793 
4171.000000	63.876104 
4170.000000	64.043974 
4169.000000	64.189362 
4168.000000	64.302778 
4167.000000	64.380455 
4166.000000	64.423394 
4165.000000	64.436078 
4164.000000	64.425420 
4163.000000	64.397931 
4162.000000	64.359712 
4161.000000	64.314270 
4160.000000	64.264965 
4159.000000	64.213085 
4158.000000	64.160060 
4157.000000	64.106750 
4156.000000	64.054799 
4155.000000	64.005923 
4154.000000	63.961744 
4153.000000	63.923573 
4152.000000	63.891863 
4151.000000	63.866710 
4150.000000	63.847875 
4149.000000	63.834786 
4148.000000	63.826441 
4147.000000	63.821411 
4146.000000	63.817572 
4145.000000	63.811969 
4144.000000	63.800835 
4143.000000	63.780188 
4142.000000	63.746547 
4141.000000	63.697338 
4140.000000	63.632130 
4139.000000	63.553690 
4138.000000	63.467907 
4137.000000	63.382411 
4136.000000	63.306093 
4135.000000	63.247632 
4134.000000	63.213801 
4133.000000	63.208103 
4132.000000	63.230299 
4131.000000	63.276028 
4130.000000	63.338160 
4129.000000	63.408017 
4128.000000	63.477134 
4127.000000	63.538169 
4126.000000	63.586664 
4125.000000	63.620567 
4124.000000	63.640379 
4123.000000	63.647913 
4122.000000	63.645815 
4121.000000	63.636493 
4120.000000	63.621807 
4119.000000	63.603138 
4118.000000	63.581562 
4117.000000	63.558363 
4116.000000	63.534879 
4115.000000	63.512611 
4114.000000	63.493227 
4113.000000	63.478446 
4112.000000	63.469576 
4111.000000	63.467741 
4110.000000	63.473534 
4109.000000	63.487410 
4108.000000	63.508987 
4107.000000	63.537788 
4106.000000	63.573193 
4105.000000	63.614273 
4104.000000	63.659691 
4103.000000	63.707542 
4102.000000	63.755583 
4101.000000	63.800644 
4100.000000	63.839077 
4099.000000	63.866734 
4098.000000	63.879513 
4097.000000	63.874220 
4096.000000	63.849353 
4095.000000	63.805699 
4094.000000	63.746428 
4093.000000	63.677716 
4092.000000	63.607835 
4091.000000	63.545989 
4090.000000	63.500571 
4089.000000	63.477325 
4088.000000	63.478159 
4087.000000	63.500785 
4086.000000	63.539648 
4085.000000	63.587045 
4084.000000	63.635683 
4083.000000	63.679766 
4082.000000	63.716554 
4081.000000	63.746142 
4080.000000	63.771009 
4079.000000	63.794207 
4078.000000	63.818240 
4077.000000	63.844060 
4076.000000	63.870429 
4075.000000	63.894462 
4074.000000	63.911914 
4073.000000	63.919234 
4072.000000	63.913488 
4071.000000	63.893890 
4070.000000	63.861131 
4069.000000	63.817477 
4068.000000	63.766241 
4067.000000	63.711142 
4066.000000	63.656520 
4065.000000	63.606739 
4064.000000	63.566517 
4063.000000	63.540267 
4062.000000	63.531231 
4061.000000	63.540625 
4060.000000	63.567256 
4059.000000	63.607406 
4058.000000	63.655185 
4057.000000	63.703513 
4056.000000	63.745474 
4055.000000	63.775539 
4054.000000	63.790583 
4053.000000	63.790082 
4052.000000	63.775897 
4051.000000	63.751435 
4050.000000	63.720846 
4049.000000	63.688063 
4048.000000	63.656139 
4047.000000	63.626885 
4046.000000	63.601255 
4045.000000	63.579487 
4044.000000	63.562083 
4043.000000	63.549757 
4042.000000	63.543486 
4041.000000	63.544368 
4040.000000	63.553094 
4039.000000	63.569998 
4038.000000	63.594484 
4037.000000	63.625311 
4036.000000	63.660335 
4035.000000	63.696885 
4034.000000	63.732028 
4033.000000	63.763022 
4032.000000	63.787364 
4031.000000	63.803362 
4030.000000	63.810253 
4029.000000	63.808178 
4028.000000	63.798213 
4027.000000	63.782167 
4026.000000	63.762450 
4025.000000	63.741803 
4024.000000	63.723039 
4023.000000	63.709092 
4022.000000	63.702392 
4021.000000	63.705229 
4020.000000	63.718795 
4019.000000	63.743305 
4018.000000	63.777637 
4017.000000	63.819479 
4016.000000	63.865327 
4015.000000	63.910675 
4014.000000	63.950634 
4013.000000	63.980698 
4012.000000	63.997054 
4011.000000	63.997340 
4010.000000	63.980984 
4009.000000	63.949251 
4008.000000	63.905334 
4007.000000	63.853669 
4006.000000	63.799381 
4005.000000	63.747525 
4004.000000	63.702678 
4003.000000	63.668251 
4002.000000	63.645887 
4001.000000	63.636136 
4000.000000	63.638472 
3999.000000	63.652205 
3998.000000	63.675808 
3997.000000	63.708114 
3996.000000	63.747859 
3995.000000	63.793969 
3994.000000	63.844585 
3993.000000	63.897418 
3992.000000	63.949370 
3991.000000	63.996839 
3990.000000	64.036130 
3989.000000	64.064073 
3988.000000	64.078617 
3987.000000	64.079403 
3986.000000	64.068007 
3985.000000	64.047622 
3984.000000	64.022517 
3983.000000	63.997268 
3982.000000	63.975620 
3981.000000	63.960218 
3980.000000	63.951778 
3979.000000	63.949346 
3978.000000	63.950347 
3977.000000	63.951206 
3976.000000	63.948178 
3975.000000	63.938212 
3974.000000	63.919568 
3973.000000	63.891816 
3972.000000	63.856244 
3971.000000	63.815236 
3970.000000	63.772320 
3969.000000	63.730883 
3968.000000	63.694071 
3967.000000	63.664007 
3966.000000	63.642096 
3965.000000	63.629007 
3964.000000	63.624811 
3963.000000	63.628864 
3962.000000	63.640427 
3961.000000	63.658571 
3960.000000	63.682079 
3959.000000	63.708877 
3958.000000	63.736605 
3957.000000	63.762545 
3956.000000	63.783669 
3955.000000	63.796901 
3954.000000	63.799953 
3953.000000	63.791775 
3952.000000	63.772916 
3951.000000	63.745784 
3950.000000	63.714504 
3949.000000	63.684296 
3948.000000	63.660788 
3947.000000	63.648748 
3946.000000	63.651299 
3945.000000	63.668870 
3944.000000	63.699412 
3943.000000	63.738489 
3942.000000	63.779973 
3941.000000	63.817548 
3940.000000	63.845777 
3939.000000	63.861250 
3938.000000	63.862943 
3937.000000	63.852190 
3936.000000	63.832354 
3935.000000	63.807272 
3934.000000	63.780379 
3933.000000	63.753819 
3932.000000	63.728284 
3931.000000	63.703131 
3930.000000	63.677072 
3929.000000	63.648843 
3928.000000	63.618040 
3927.000000	63.585042 
3926.000000	63.551378 
3925.000000	63.518762 
3924.000000	63.489317 
3923.000000	63.464641 
3922.000000	63.446187 
3921.000000	63.434910 
3920.000000	63.431549 
3919.000000	63.436436 
3918.000000	63.449478 
3917.000000	63.470125 
3916.000000	63.496947 
3915.000000	63.527607 
3914.000000	63.558840 
3913.000000	63.586592 
3912.000000	63.607025 
3911.000000	63.617348 
3910.000000	63.616418 
3909.000000	63.604831 
3908.000000	63.585233 
3907.000000	63.561701 
3906.000000	63.538837 
3905.000000	63.520860 
3904.000000	63.510847 
3903.000000	63.510155 
3902.000000	63.518571 
3901.000000	63.534688 
3900.000000	63.556361 
3899.000000	63.581418 
3898.000000	63.608121 
3897.000000	63.635659 
3896.000000	63.663697 
3895.000000	63.692641 
3894.000000	63.722920 
3893.000000	63.754487 
3892.000000	63.786745 
3891.000000	63.817787 
3890.000000	63.845467 
3889.000000	63.866424 
3888.000000	63.877391 
3887.000000	63.875246 
3886.000000	63.857913 
3885.000000	63.825082 
3884.000000	63.778591 
3883.000000	63.722610 
3882.000000	63.662886 
3881.000000	63.606429 
3880.000000	63.560271 
3879.000000	63.530135 
3878.000000	63.519620 
3877.000000	63.529014 
3876.000000	63.555526 
3875.000000	63.593864 
3874.000000	63.637280 
3873.000000	63.679027 
3872.000000	63.713598 
3871.000000	63.737654 
3870.000000	63.750290 
3869.000000	63.752603 
3868.000000	63.746953 
3867.000000	63.735914 
3866.000000	63.721704 
3865.000000	63.706588 
3864.000000	63.691973 
3863.000000	63.678956 
3862.000000	63.667869 
3861.000000	63.659048 
3860.000000	63.651919 
3859.000000	63.645553 
3858.000000	63.638567 
3857.000000	63.629364 
3856.000000	63.617014 
3855.000000	63.601136 
3854.000000	63.582921 
3853.000000	63.564920 
3852.000000	63.550615 
3851.000000	63.543725 
3850.000000	63.547158 
3849.000000	63.562345 
3848.000000	63.588833 
3847.000000	63.624358 
3846.000000	63.665699 
3845.000000	63.709115 
3844.000000	63.751721 
3843.000000	63.790941 
3842.000000	63.824558 
3841.000000	63.849735 
3840.000000	63.863158 
3839.000000	63.861203 
3838.000000	63.840556 
3837.000000	63.799428 
3836.000000	63.738965 
3835.000000	63.663387 
3834.000000	63.580322 
3833.000000	63.499259 
3832.000000	63.430500 
3831.000000	63.382029 
3830.000000	63.358473 
3829.000000	63.359069 
3828.000000	63.378286 
3827.000000	63.406467 
3826.000000	63.432240 
3825.000000	63.445115 
3824.000000	63.437891 
3823.000000	63.408684 
3822.000000	63.361144 
3821.000000	63.303661 
3820.000000	63.247394 
3819.000000	63.204312 
3818.000000	63.184452 
3817.000000	63.194084 
3816.000000	63.234233 
3815.000000	63.301229 
3814.000000	63.387203 
3813.000000	63.481950 
3812.000000	63.574695 
3811.000000	63.656163 
3810.000000	63.719654 
3809.000000	63.761782 
3808.000000	63.782358 
3807.000000	63.783240 
3806.000000	63.767981 
3805.000000	63.741040 
3804.000000	63.706970 
3803.000000	63.670277 
3802.000000	63.634967 
3801.000000	63.605141 
3800.000000	63.583683 
3799.000000	63.572549 
3798.000000	63.571763 
3797.000000	63.579821 
3796.000000	63.593077 
3795.000000	63.606691 
3794.000000	63.615012 
3793.000000	63.613200 
3792.000000	63.598132 
3791.000000	63.569450 
3790.000000	63.529682 
3789.000000	63.484001 
3788.000000	63.439226 
3787.000000	63.402581 
3786.000000	63.380050 
3785.000000	63.375377 
3784.000000	63.389730 
3783.000000	63.421154 
3782.000000	63.465332 
3781.000000	63.516092 
3780.000000	63.567209 
3779.000000	63.612675 
3778.000000	63.647413 
3777.000000	63.668131 
3776.000000	63.673496 
3775.000000	63.664293 
3774.000000	63.642764 
3773.000000	63.612580 
3772.000000	63.578224 
3771.000000	63.544559 
3770.000000	63.516139 
3769.000000	63.496875 
3768.000000	63.489532 
3767.000000	63.495230 
3766.000000	63.513469 
3765.000000	63.541531 
3764.000000	63.575148 
3763.000000	63.609004 
3762.000000	63.638067 
3761.000000	63.658022 
3760.000000	63.666534 
3759.000000	63.663434 
3758.000000	63.650774 
3757.000000	63.631987 
3756.000000	63.611173 
3755.000000	63.592028 
3754.000000	63.577008 
3753.000000	63.567304 
3752.000000	63.562440 
3751.000000	63.560986 
3750.000000	63.560795 
3749.000000	63.560009 
3748.000000	63.556909 
3747.000000	63.550186 
3746.000000	63.538789 
3745.000000	63.522076 
3744.000000	63.499760 
3743.000000	63.472032 
3742.000000	63.440346 
3741.000000	63.407325 
3740.000000	63.377428 
3739.000000	63.356041 
3738.000000	63.348555 
3737.000000	63.359212 
3736.000000	63.389706 
3735.000000	63.438296 
3734.000000	63.500046 
3733.000000	63.567280 
3732.000000	63.630890 
3731.000000	63.681793 
3730.000000	63.713192 
3729.000000	63.721132 
3728.000000	63.705492 
3727.000000	63.669538 
3726.000000	63.619065 
3725.000000	63.560986 
3724.000000	63.502454 
3723.000000	63.448977 
3722.000000	63.404273 
3721.000000	63.369989 
3720.000000	63.346385 
3719.000000	63.332962 
3718.000000	63.329100 
3717.000000	63.334703 
3716.000000	63.349890 
3715.000000	63.374781 
3714.000000	63.408732 
3713.000000	63.449788 
3712.000000	63.494181 
3711.000000	63.536596 
3710.000000	63.570523 
3709.000000	63.589787 
3708.000000	63.589501 
3707.000000	63.567376 
3706.000000	63.524222 
3705.000000	63.464212 
3704.000000	63.394236 
3703.000000	63.322687 
3702.000000	63.258218 
3701.000000	63.207578 
3700.000000	63.175296 
3699.000000	63.163375 
3698.000000	63.171148 
3697.000000	63.195514 
3696.000000	63.232254 
3695.000000	63.276648 
3694.000000	63.324546 
3693.000000	63.372278 
3692.000000	63.417553 
3691.000000	63.458704 
3690.000000	63.494729 
3689.000000	63.524937 
3688.000000	63.548421 
3687.000000	63.564062 
3686.000000	63.570618 
3685.000000	63.567185 
3684.000000	63.553881 
3683.000000	63.532018 
3682.000000	63.504385 
3681.000000	63.474392 
3680.000000	63.445949 
3679.000000	63.421988 
3678.000000	63.404202 
3677.000000	63.391971 
3676.000000	63.382768 
3675.000000	63.372778 
3674.000000	63.357782 
3673.000000	63.334870 
3672.000000	63.302683 
3671.000000	63.262653 
3670.000000	63.218665 
3669.000000	63.176250 
3668.000000	63.140845 
3667.000000	63.117074 
3666.000000	63.107299 
3665.000000	63.111639 
3664.000000	63.128232 
3663.000000	63.153529 
3662.000000	63.183259 
3661.000000	63.213109 
3660.000000	63.239598 
3659.000000	63.259935 
3658.000000	63.272333 
3657.000000	63.276052 
3656.000000	63.271307 
3655.000000	63.259196 
3654.000000	63.241505 
3653.000000	63.220334 
3652.000000	63.198018 
3651.000000	63.176727 
3650.000000	63.158297 
3649.000000	63.143968 
3648.000000	63.134741 
3647.000000	63.130903 
3646.000000	63.132882 
3645.000000	63.141012 
3644.000000	63.155508 
3643.000000	63.176536 
3642.000000	63.203573 
3641.000000	63.234925 
3640.000000	63.267612 
3639.000000	63.297867 
3638.000000	63.321447 
3637.000000	63.334655 
3636.000000	63.335466 
3635.000000	63.324117 
3634.000000	63.303208 
3633.000000	63.277435 
3632.000000	63.252329 
3631.000000	63.233089 
3630.000000	63.223600 
3629.000000	63.225221 
3628.000000	63.236832 
3627.000000	63.254714 
3626.000000	63.273978 
3625.000000	63.289475 
3624.000000	63.296842 
3623.000000	63.293433 
3622.000000	63.278532 
3621.000000	63.253593 
3620.000000	63.221383 
3619.000000	63.185954 
3618.000000	63.151860 
3617.000000	63.123536 
3616.000000	63.104891 
3615.000000	63.098311 
3614.000000	63.104510 
3613.000000	63.122010 
3612.000000	63.147425 
3611.000000	63.175892 
3610.000000	63.201737 
3609.000000	63.219690 
3608.000000	63.225817 
3607.000000	63.218545 
3606.000000	63.199067 
3605.000000	63.170862 
3604.000000	63.138747 
3603.000000	63.107824 
3602.000000	63.082098 
3601.000000	63.063597 
3600.000000	63.052105 
3599.000000	63.045477 
3598.000000	63.040566 
3597.000000	63.034248 
3596.000000	63.024544 
3595.000000	63.010668 
3594.000000	62.993717 
3593.000000	62.975525 
3592.000000	62.958717 
3591.000000	62.945747 
3590.000000	62.938714 
3589.000000	62.938761 
3588.000000	62.946319 
3587.000000	62.961173 
3586.000000	62.982511 
3585.000000	63.009190 
3584.000000	63.039541 
3583.000000	63.071274 
3582.000000	63.101530 
3581.000000	63.127183 
3580.000000	63.145446 
3579.000000	63.154196 
3578.000000	63.152647 
3577.000000	63.141322 
3576.000000	63.122224 
3575.000000	63.098335 
3574.000000	63.072848 
3573.000000	63.048720 
3572.000000	63.028216 
3571.000000	63.012909 
3570.000000	63.003587 
3569.000000	63.000512 
3568.000000	63.003659 
3567.000000	63.012528 
3566.000000	63.026356 
3565.000000	63.043689 
3564.000000	63.062453 
3563.000000	63.080000 
3562.000000	63.093280 
3561.000000	63.099884 
3560.000000	63.098335 
3559.000000	63.089108 
3558.000000	63.074517 
3557.000000	63.058304 
3556.000000	63.044834 
3555.000000	63.037776 
3554.000000	63.039088 
3553.000000	63.048243 
3552.000000	63.062143 
3551.000000	63.075757 
3550.000000	63.083219 
3549.000000	63.079404 
3548.000000	63.061141 
3547.000000	63.027882 
3546.000000	62.982082 
3545.000000	62.928247 
3544.000000	62.871932 
3543.000000	62.818694 
3542.000000	62.772870 
3541.000000	62.736845 
3540.000000	62.711095 
3539.000000	62.694668 
3538.000000	62.685775 
3537.000000	62.682104 
3536.000000	62.681937 
3535.000000	62.683773 
3534.000000	62.687492 
3533.000000	62.693405 
3532.000000	62.702560 
3531.000000	62.715697 
3530.000000	62.733530 
3529.000000	62.756109 
3528.000000	62.782812 
3527.000000	62.812018 
3526.000000	62.841629 
3525.000000	62.869071 
3524.000000	62.891697 
3523.000000	62.907457 
3522.000000	62.915062 
3521.000000	62.914395 
3520.000000	62.906670 
3519.000000	62.894272 
3518.000000	62.880229 
3517.000000	62.867784 
3516.000000	62.860012 
3515.000000	62.859487 
3514.000000	62.868022 
3513.000000	62.886071 
3512.000000	62.913441 
3511.000000	62.948465 
3510.000000	62.988376 
3509.000000	63.029265 
3508.000000	63.066792 
3507.000000	63.096570 
3506.000000	63.114738 
3505.000000	63.118648 
3504.000000	63.107609 
3503.000000	63.082599 
3502.000000	63.046336 
3501.000000	63.002634 
3500.000000	62.955927 
3499.000000	62.910294 
3498.000000	62.869191 
3497.000000	62.835025 
3496.000000	62.809252 
3495.000000	62.793040 
3494.000000	62.787485 
3493.000000	62.793493 
3492.000000	62.811446 
3491.000000	62.840700 
3490.000000	62.879419 
3489.000000	62.923502 
3488.000000	62.967681 
3487.000000	63.005828 
3486.000000	63.032650 
3485.000000	63.044548 
3484.000000	63.040661 
3483.000000	63.023185 
3482.000000	62.997031 
3481.000000	62.968754 
3480.000000	62.945246 
3479.000000	62.932276 
3478.000000	62.933230 
3477.000000	62.948727 
3476.000000	62.976169 
3475.000000	63.011145 
3474.000000	63.047766 
3473.000000	63.080358 
3472.000000	63.103842 
3471.000000	63.114714 
3470.000000	63.111257 
3469.000000	63.093519 
3468.000000	63.063073 
3467.000000	63.022541 
3466.000000	62.975382 
3465.000000	62.925338 
3464.000000	62.875843 
3463.000000	62.829566 
3462.000000	62.788295 
3461.000000	62.753057 
3460.000000	62.724208 
3459.000000	62.701892 
3458.000000	62.685799 
3457.000000	62.675833 
3456.000000	62.671470 
3455.000000	62.672328 
3454.000000	62.677431 
3453.000000	62.685847 
3452.000000	62.696623 
3451.000000	62.709164 
3450.000000	62.722849 
3449.000000	62.737464 
3448.000000	62.752842 
3447.000000	62.768888 
3446.000000	62.785267 
3445.000000	62.801504 
3444.000000	62.816882 
3443.000000	62.830400 
3442.000000	62.841033 
3441.000000	62.847805 
3440.000000	62.850165 
3439.000000	62.847900 
3438.000000	62.841176 
3437.000000	62.830686 
3436.000000	62.817502 
3435.000000	62.803053 
3434.000000	62.789249 
3433.000000	62.778186 
3432.000000	62.771892 
3431.000000	62.772631 
3430.000000	62.781786 
3429.000000	62.799310 
3428.000000	62.823677 
3427.000000	62.852072 
3426.000000	62.880778 
3425.000000	62.905526 
3424.000000	62.922549 
3423.000000	62.929296 
3422.000000	62.924790 
3421.000000	62.909460 
3420.000000	62.885069 
3419.000000	62.854051 
3418.000000	62.819314 
3417.000000	62.783765 
3416.000000	62.749934 
3415.000000	62.719631 
3414.000000	62.694168 
3413.000000	62.674283 
3412.000000	62.659907 
3411.000000	62.650346 
3410.000000	62.644338 
3409.000000	62.640881 
3408.000000	62.638449 
3407.000000	62.636494 
3406.000000	62.634968 
3405.000000	62.635111 
3404.000000	62.638854 
3403.000000	62.648630 
3402.000000	62.666392 
3401.000000	62.693309 
3400.000000	62.729072 
3399.000000	62.771868 
3398.000000	62.818408 
3397.000000	62.864685 
3396.000000	62.906551 
3395.000000	62.940359 
3394.000000	62.963604 
3393.000000	62.974882 
3392.000000	62.974119 
3391.000000	62.961959 
3390.000000	62.939715 
3389.000000	62.908768 
3388.000000	62.870502 
3387.000000	62.826180 
3386.000000	62.777042 
3385.000000	62.724590 
3384.000000	62.670874 
3383.000000	62.618207 
3382.000000	62.569427 
3381.000000	62.527298 
3380.000000	62.494683 
3379.000000	62.473607 
3378.000000	62.465357 
3377.000000	62.469768 
3376.000000	62.485885 
3375.000000	62.511491 
3374.000000	62.543988 
3373.000000	62.580084 
3372.000000	62.616753 
3371.000000	62.651181 
3370.000000	62.681341 
3369.000000	62.705826 
3368.000000	62.724184 
3367.000000	62.736582 
3366.000000	62.743449 
3365.000000	62.745356 
3364.000000	62.742614 
3363.000000	62.735390 
3362.000000	62.723422 
3361.000000	62.706208 
3360.000000	62.683510 
3359.000000	62.655544 
3358.000000	62.623643 
3357.000000	62.590169 
3356.000000	62.558031 
3355.000000	62.530326 
3354.000000	62.509918 
3353.000000	62.498664 
3352.000000	62.496781 
3351.000000	62.502980 
3350.000000	62.514495 
3349.000000	62.528204 
3348.000000	62.541127 
3347.000000	62.551736 
3346.000000	62.559580 
3345.000000	62.565898 
3344.000000	62.573075 
3343.000000	62.583708 
3342.000000	62.599396 
3341.000000	62.620162 
3340.000000	62.644267 
3339.000000	62.668132 
3338.000000	62.687182 
3337.000000	62.697029 
3336.000000	62.694764 
3335.000000	62.679815 
3334.000000	62.654447 
3333.000000	62.623524 
3332.000000	62.593626 
3331.000000	62.571787 
3330.000000	62.563586 
3329.000000	62.572097 
3328.000000	62.596559 
3327.000000	62.633013 
3326.000000	62.674403 
3325.000000	62.712192 
3324.000000	62.738013 
3323.000000	62.745237 
3322.000000	62.730383 
3321.000000	62.693667 
3320.000000	62.638878 
3319.000000	62.572145 
3318.000000	62.501168 
3317.000000	62.433457 
3316.000000	62.375211 
3315.000000	62.330222 
3314.000000	62.299871 
3313.000000	62.283515 
3312.000000	62.279081 
3311.000000	62.283635 
3310.000000	62.294483 
3309.000000	62.309265 
3308.000000	62.326359 
3307.000000	62.344741 
3306.000000	62.363767 
3305.000000	62.383055 
3304.000000	62.402319 
3303.000000	62.420988 
3302.000000	62.438201 
3301.000000	62.452745 
3300.000000	62.463712 
3299.000000	62.470245 
3298.000000	62.471652 
3297.000000	62.467360 
3296.000000	62.457442 
3295.000000	62.442016 
3294.000000	62.421464 
3293.000000	62.396240 
3292.000000	62.366914 
3291.000000	62.334346 
3290.000000	62.299489 
3289.000000	62.263846 
3288.000000	62.229323 
3287.000000	62.198138 
3286.000000	62.172222 
3285.000000	62.153315 
3284.000000	62.142729 
3283.000000	62.140822 
3282.000000	62.146925 
3281.000000	62.159419 
3280.000000	62.176108 
3279.000000	62.194919 
3278.000000	62.214326 
3277.000000	62.233376 
3276.000000	62.251996 
3275.000000	62.270665 
3274.000000	62.290358 
3273.000000	62.311387 
3272.000000	62.333631 
3271.000000	62.356185 
3270.000000	62.377500 
3269.000000	62.395906 
3268.000000	62.409853 
3267.000000	62.418508 
3266.000000	62.421989 
3265.000000	62.421894 
3264.000000	62.420773 
3263.000000	62.421536 
3262.000000	62.427115 
3261.000000	62.439751 
3260.000000	62.460327 
3259.000000	62.487983 
3258.000000	62.520003 
3257.000000	62.552595 
3256.000000	62.581110 
3255.000000	62.601161 
3254.000000	62.609171 
3253.000000	62.603020 
3252.000000	62.582683 
3251.000000	62.549734 
3250.000000	62.507200 
3249.000000	62.458896 
3248.000000	62.408638 
3247.000000	62.359905 
3246.000000	62.315154 
3245.000000	62.276339 
3244.000000	62.245106 
3243.000000	62.223362 
3242.000000	62.213110 
3241.000000	62.216401 
3240.000000	62.235021 
3239.000000	62.269902 
3238.000000	62.320041 
3237.000000	62.382173 
3236.000000	62.451171 
3235.000000	62.519979 
3234.000000	62.580728 
3233.000000	62.625837 
3232.000000	62.649273 
3231.000000	62.647771 
3230.000000	62.621498 
3229.000000	62.573671 
3228.000000	62.510085 
3227.000000	62.438249 
3226.000000	62.366342 
3225.000000	62.301683 
3224.000000	62.249708 
3223.000000	62.213659 
3222.000000	62.193846 
3221.000000	62.188243 
3220.000000	62.192821 
3219.000000	62.202453 
3218.000000	62.212109 
3217.000000	62.217760 
3216.000000	62.216854 
3215.000000	62.208604 
3214.000000	62.193417 
3213.000000	62.172198 
3212.000000	62.145900 
3211.000000	62.114953 
3210.000000	62.079596 
3209.000000	62.039828 
3208.000000	61.996531 
3207.000000	61.951756 
3206.000000	61.909389 
3205.000000	61.874938 
3204.000000	61.854529 
3203.000000	61.853337 
3202.000000	61.874747 
3201.000000	61.919045 
3200.000000	61.982846 
3199.000000	62.059283 
3198.000000	62.139463 
3197.000000	62.214136 
3196.000000	62.275338 
3195.000000	62.317585 
3194.000000	62.338495 
3193.000000	62.338662 
3192.000000	62.321209 
3191.000000	62.290740 
3190.000000	62.252259 
3189.000000	62.210536 
3188.000000	62.170243 
3187.000000	62.135195 
3186.000000	62.108922 
3185.000000	62.093997 
3184.000000	62.092590 
3183.000000	62.105488 
3182.000000	62.131762 
3181.000000	62.168502 
3180.000000	62.211012 
3179.000000	62.253332 
3178.000000	62.289071 
3177.000000	62.312698 
3176.000000	62.320637 
3175.000000	62.311434 
3174.000000	62.286043 
3173.000000	62.247395 
3172.000000	62.199521 
3171.000000	62.146639 
3170.000000	62.092590 
3169.000000	62.040328 
3168.000000	61.991858 
3167.000000	61.948800 
3166.000000	61.912727 
3165.000000	61.884927 
3164.000000	61.867356 
3163.000000	61.861824 
3162.000000	61.870193 
3161.000000	61.892867 
3160.000000	61.928796 
3159.000000	61.974740 
3158.000000	62.026000 
3157.000000	62.076807 
3156.000000	62.121534 
3155.000000	62.155461 
3154.000000	62.175965 
3153.000000	62.182950 
3152.000000	62.178540 
3151.000000	62.166357 
3150.000000	62.150382 
3149.000000	62.133955 
3148.000000	62.119245 
3147.000000	62.107062 
3146.000000	62.096881 
3145.000000	62.087178 
3144.000000	62.076568 
3143.000000	62.064337 
3142.000000	62.050509 
3141.000000	62.036037 
3140.000000	62.021875 
3139.000000	62.008953 
3138.000000	61.997842 
3137.000000	61.988806 
3136.000000	61.981296 
3135.000000	61.974835 
3134.000000	61.969518 
3133.000000	61.966371 
3132.000000	61.966991 
3131.000000	61.973452 
3130.000000	61.987614 
3129.000000	62.010097 
3128.000000	62.039995 
3127.000000	62.073945 
3126.000000	62.106990 
3125.000000	62.132525 
3124.000000	62.144184 
3123.000000	62.136316 
3122.000000	62.105393 
3121.000000	62.050342 
3120.000000	61.973118 
3119.000000	61.878180 
3118.000000	61.772370 
3117.000000	61.664175 
3116.000000	61.562824 
3115.000000	61.477279 
3114.000000	61.415505 
3113.000000	61.383676 
3112.000000	61.385393 
3111.000000	61.420702 
3110.000000	61.486601 
3109.000000	61.576533 
3108.000000	61.681771 
3107.000000	61.791872 
3106.000000	61.896657 
3105.000000	61.987090 
3104.000000	62.056827 
3103.000000	62.102580 
3102.000000	62.124013 
3101.000000	62.123370 
3100.000000	62.104725 
3099.000000	62.073302 
3098.000000	62.034630 
3097.000000	61.994290 
3096.000000	61.957287 
3095.000000	61.928057 
3094.000000	61.909461 
3093.000000	61.902904 
3092.000000	61.907529 
3091.000000	61.920452 
3090.000000	61.937069 
3089.000000	61.951828 
3088.000000	61.959600 
3087.000000	61.956787 
3086.000000	61.941957 
3085.000000	61.916565 
3084.000000	61.884713 
3083.000000	61.852192 
3082.000000	61.824798 
3081.000000	61.806988 
3080.000000	61.800813 
3079.000000	61.805868 
3078.000000	61.819815 
3077.000000	61.839079 
3076.000000	61.859750 
3075.000000	61.878561 
3074.000000	61.893892 
3073.000000	61.905217 
3072.000000	61.912584 
3071.000000	61.916542 
3070.000000	61.917424 
3069.000000	61.915421 
3068.000000	61.910271 
3067.000000	61.901307 
3066.000000	61.887717 
3065.000000	61.869144 
3064.000000	61.846184 
3063.000000	61.820125 
3062.000000	61.793279 
3061.000000	61.768507 
3060.000000	61.748838 
3059.000000	61.737060 
3058.000000	61.735367 
3057.000000	61.744570 
3056.000000	61.764144 
3055.000000	61.792254 
3054.000000	61.825871 
3053.000000	61.861038 
3052.000000	61.893630 
3051.000000	61.919903 
3050.000000	61.937165 
3049.000000	61.943864 
3048.000000	61.940073 
3047.000000	61.927056 
3046.000000	61.907100 
3045.000000	61.883234 
3044.000000	61.858868 
3043.000000	61.837482 
3042.000000	61.822032 
3041.000000	61.814737 
3040.000000	61.816120 
3039.000000	61.825037 
3038.000000	61.838579 
3037.000000	61.852574 
3036.000000	61.862659 
3035.000000	61.865115 
3034.000000	61.857676 
3033.000000	61.839866 
3032.000000	61.813116 
3031.000000	61.780047 
3030.000000	61.743950 
3029.000000	61.707544 
3028.000000	61.672616 
3027.000000	61.639499 
3026.000000	61.607551 
3025.000000	61.575794 
3024.000000	61.543440 
3023.000000	61.510753 
3022.000000	61.478972 
3021.000000	61.450672 
3020.000000	61.428880 
3019.000000	61.416721 
3018.000000	61.415958 
3017.000000	61.427378 
3016.000000	61.450004 
3015.000000	61.481404 
3014.000000	61.517977 
3013.000000	61.555194 
3012.000000	61.588263 
3011.000000	61.612653 
3010.000000	61.624789 
3009.000000	61.622762 
3008.000000	61.606621 
3007.000000	61.578679 
3006.000000	61.543130 
3005.000000	61.505389 
3004.000000	61.471080 
3003.000000	61.445212 
3002.000000	61.430883 
3001.000000	61.429047 
3000.000000	61.438226 
2999.000000	61.455368 
2998.000000	61.476445 
2997.000000	61.497402 
2996.000000	61.514925 
2995.000000	61.527299 
2994.000000	61.534190 
2993.000000	61.536383 
2992.000000	61.535239 
2991.000000	61.531925 
2990.000000	61.527228 
2989.000000	61.521220 
2988.000000	61.513638 
2987.000000	61.504149 
2986.000000	61.492657 
2985.000000	61.479783 
2984.000000	61.466479 
2983.000000	61.454081 
2982.000000	61.443972 
2981.000000	61.437177 
2980.000000	61.434125 
2979.000000	61.434817 
2978.000000	61.438918 
2977.000000	61.446475 
2976.000000	61.457729 
2975.000000	61.473417 
2974.000000	61.494398 
2973.000000	61.521172 
2972.000000	61.553525 
2971.000000	61.589813 
2970.000000	61.627173 
2969.000000	61.661458 
2968.000000	61.688184 
2967.000000	61.703181 
2966.000000	61.704039 
2965.000000	61.690020 
2964.000000	61.662745 
2963.000000	61.625361 
2962.000000	61.582326 
2961.000000	61.538028 
2960.000000	61.496186 
2959.000000	61.459493 
2958.000000	61.429476 
2957.000000	61.406660 
2956.000000	61.390924 
2955.000000	61.381793 
2954.000000	61.378836 
2953.000000	61.381435 
2952.000000	61.388850 
2951.000000	61.400175 
2950.000000	61.414146 
2949.000000	61.429238 
2948.000000	61.443519 
2947.000000	61.455035 
2946.000000	61.461853 
2945.000000	61.462521 
2944.000000	61.456108 
2943.000000	61.442255 
2942.000000	61.421346 
2941.000000	61.394381 
2940.000000	61.362695 
2939.000000	61.328363 
2938.000000	61.293363 
2937.000000	61.259603 
2936.000000	61.228418 
2935.000000	61.200451 
2934.000000	61.175608 
2933.000000	61.153221 
2932.000000	61.132216 
2931.000000	61.111617 
2930.000000	61.090922 
2929.000000	61.070394 
2928.000000	61.050558 
2927.000000	61.032319 
2926.000000	61.016416 
2925.000000	61.003589 
2924.000000	60.994005 
2923.000000	60.987925 
2922.000000	60.985469 
2921.000000	60.987186 
2920.000000	60.993981 
2919.000000	61.006903 
2918.000000	61.026954 
2917.000000	61.054396 
2916.000000	61.088228 
2915.000000	61.126112 
2914.000000	61.164236 
2913.000000	61.198425 
2912.000000	61.224842 
2911.000000	61.240911 
2910.000000	61.246156 
2909.000000	61.242246 
2908.000000	61.232638 
2907.000000	61.221647 
2906.000000	61.213684 
2905.000000	61.211657 
2904.000000	61.216521 
2903.000000	61.227202 
2902.000000	61.241245 
2901.000000	61.255121 
2900.000000	61.265659 
2899.000000	61.270713 
2898.000000	61.269664 
2897.000000	61.263608 
2896.000000	61.254858 
2895.000000	61.246228 
2894.000000	61.239981 
2893.000000	61.237835 
2892.000000	61.239814 
2891.000000	61.244964 
2890.000000	61.250591 
2889.000000	61.253952 
2888.000000	61.251854 
2887.000000	61.241960 
2886.000000	61.223244 
2885.000000	61.196351 
2884.000000	61.163806 
2883.000000	61.129283 
2882.000000	61.097407 
2881.000000	61.072659 
2880.000000	61.058735 
2879.000000	61.057639 
2878.000000	61.069321 
2877.000000	61.091494 
2876.000000	61.120295 
2875.000000	61.150789 
2874.000000	61.177825 
2873.000000	61.196637 
2872.000000	61.203837 
2871.000000	61.197447 
2870.000000	61.176824 
2869.000000	61.142683 
2868.000000	61.096787 
2867.000000	61.041760 
2866.000000	60.981321 
2865.000000	60.919737 
2864.000000	60.861706 
2863.000000	60.811567 
2862.000000	60.772919 
2861.000000	60.747694 
2860.000000	60.735940 
2859.000000	60.735750 
2858.000000	60.743498 
2857.000000	60.755205 
2856.000000	60.766744 
2855.000000	60.775709 
2854.000000	60.781216 
2853.000000	60.784792 
2852.000000	60.789322 
2851.000000	60.798406 
2850.000000	60.815119 
2849.000000	60.841345 
2848.000000	60.876917 
2847.000000	60.919976 
2846.000000	60.967063 
2845.000000	61.014056 
2844.000000	61.056780 
2843.000000	61.091566 
2842.000000	61.115527 
2841.000000	61.126756 
2840.000000	61.124491 
2839.000000	61.109018 
2838.000000	61.081647 
2837.000000	61.045193 
2836.000000	61.003160 
2835.000000	60.959815 
2834.000000	60.919284 
2833.000000	60.885834 
2832.000000	60.862469 
2831.000000	60.850596 
2830.000000	60.849976 
2829.000000	60.858702 
2828.000000	60.874009 
2827.000000	60.892653 
2826.000000	60.911989 
2825.000000	60.930013 
2824.000000	60.945749 
2823.000000	60.959243 
2822.000000	60.970926 
2821.000000	60.981106 
2820.000000	60.989975 
2819.000000	60.997533 
2818.000000	61.003398 
2817.000000	61.007189 
2816.000000	61.008691 
2815.000000	61.008238 
2814.000000	61.006331 
2813.000000	61.003923 
2812.000000	61.002540 
2811.000000	61.003756 
2810.000000	61.008787 
2809.000000	61.018085 
2808.000000	61.031293 
2807.000000	61.046910 
2806.000000	61.062836 
2805.000000	61.076331 
2804.000000	61.084866 
2803.000000	61.086416 
2802.000000	61.080169 
2801.000000	61.066532 
2800.000000	61.047124 
2799.000000	61.024308 
2798.000000	61.000943 
2797.000000	60.979366 
2796.000000	60.961127 
2795.000000	60.946679 
2794.000000	60.935521 
2793.000000	60.926604 
2792.000000	60.918736 
2791.000000	60.910987 
2790.000000	60.902762 
2789.000000	60.893702 
2788.000000	60.883712 
2787.000000	60.872197 
2786.000000	60.858654 
2785.000000	60.842847 
2784.000000	60.824871 
2783.000000	60.805392 
2782.000000	60.785913 
2781.000000	60.768270 
2780.000000	60.754346 
2779.000000	60.745644 
2778.000000	60.742783 
2777.000000	60.745120 
2776.000000	60.751247 
2775.000000	60.758876 
2774.000000	60.765790 
2773.000000	60.770082 
2772.000000	60.771012 
2771.000000	60.768985 
2770.000000	60.765552 
2769.000000	60.762810 
2768.000000	60.763144 
2767.000000	60.768294 
2766.000000	60.778760 
2765.000000	60.793399 
2764.000000	60.809803 
2763.000000	60.824489 
2762.000000	60.833525 
2761.000000	60.833406 
2760.000000	60.821747 
2759.000000	60.798192 
2758.000000	60.764241 
2757.000000	60.723471 
2756.000000	60.680627 
2755.000000	60.640978 
2754.000000	60.608935 
2753.000000	60.587668 
2752.000000	60.578227 
2751.000000	60.579872 
2750.000000	60.590243 
2749.000000	60.606431 
2748.000000	60.625314 
2747.000000	60.644650 
2746.000000	60.663127 
2745.000000	60.680532 
2744.000000	60.697078 
2743.000000	60.713195 
2742.000000	60.728907 
2741.000000	60.743594 
2740.000000	60.755920 
2739.000000	60.764241 
2738.000000	60.767149 
2737.000000	60.764002 
2736.000000	60.755324 
2735.000000	60.742664 
2734.000000	60.728549 
2733.000000	60.715627 
2732.000000	60.706329 
2731.000000	60.702252 
2730.000000	60.703635 
2729.000000	60.709452 
2728.000000	60.717582 
2727.000000	60.725283 
2726.000000	60.729742 
2725.000000	60.728931 
2724.000000	60.721945 
2723.000000	60.709142 
2722.000000	60.691952 
2721.000000	60.672688 
2720.000000	60.653686 
2719.000000	60.636997 
2718.000000	60.623764 
2717.000000	60.614156 
2716.000000	60.607743 
2715.000000	60.603713 
2714.000000	60.601353 
2713.000000	60.600328 
2712.000000	60.600829 
2711.000000	60.603475 
2710.000000	60.608696 
2709.000000	60.616278 
2708.000000	60.625004 
2707.000000	60.632705 
2706.000000	60.636472 
2705.000000	60.633254 
2704.000000	60.621047 
2703.000000	60.599279 
2702.000000	60.569596 
2701.000000	60.535192 
2700.000000	60.500431 
2699.000000	60.469603 
2698.000000	60.446143 
2697.000000	60.431551 
2696.000000	60.425376 
2695.000000	60.425233 
2694.000000	60.427689 
2693.000000	60.429191 
2692.000000	60.427021 
2691.000000	60.420036 
2690.000000	60.408663 
2689.000000	60.394740 
2688.000000	60.380887 
2687.000000	60.369610 
2686.000000	60.362744 
2685.000000	60.361051 
2684.000000	60.364174 
2683.000000	60.370969 
2682.000000	60.379958 
2681.000000	60.389780 
2680.000000	60.399556 
2679.000000	60.409045 
2678.000000	60.418534 
2677.000000	60.428619 
2676.000000	60.439562 
2675.000000	60.451364 
2674.000000	60.463380 
2673.000000	60.474181 
2672.000000	60.481858 
2671.000000	60.484600 
2670.000000	60.480976 
2669.000000	60.470390 
2668.000000	60.453391 
2667.000000	60.431766 
2666.000000	60.408067 
2665.000000	60.385298 
2664.000000	60.366201 
2663.000000	60.352802 
2662.000000	60.346126 
2661.000000	60.346078 
2660.000000	60.351514 
2659.000000	60.360503 
2658.000000	60.370945 
2657.000000	60.381150 
2656.000000	60.389828 
2655.000000	60.396552 
2654.000000	60.401320 
2653.000000	60.404658 
2652.000000	60.407137 
2651.000000	60.409212 
2650.000000	60.411262 
2649.000000	60.413455 
2648.000000	60.415887 
2647.000000	60.418581 
2646.000000	60.421633 
2645.000000	60.425090 
2644.000000	60.428953 
2643.000000	60.433006 
2642.000000	60.436868 
2641.000000	60.439634 
2640.000000	60.440373 
2639.000000	60.437917 
2638.000000	60.431408 
2637.000000	60.420227 
2636.000000	60.404229 
2635.000000	60.383915 
2634.000000	60.360383 
2633.000000	60.335016 
2632.000000	60.309338 
2631.000000	60.284709 
2630.000000	60.262298 
2629.000000	60.242867 
2628.000000	60.226607 
2627.000000	60.213327 
2626.000000	60.202527 
2625.000000	60.193634 
2624.000000	60.185956 
2623.000000	60.179090 
2622.000000	60.172915 
2621.000000	60.167622 
2620.000000	60.163831 
2619.000000	60.162210 
2618.000000	60.163569 
2617.000000	60.168480 
2616.000000	60.177016 
2615.000000	60.188579 
2614.000000	60.201787 
2613.000000	60.214734 
2612.000000	60.225009 
2611.000000	60.230183 
2610.000000	60.228109 
2609.000000	60.217618 
2608.000000	60.198426 
2607.000000	60.171461 
2606.000000	60.138607 
2605.000000	60.102581 
2604.000000	60.066413 
2603.000000	60.033059 
2602.000000	60.004973 
2601.000000	59.984040 
2600.000000	59.971261 
2599.000000	59.966802 
2598.000000	59.970068 
2597.000000	59.979939 
2596.000000	59.994769 
2595.000000	60.012698 
2594.000000	60.031700 
2593.000000	60.050129 
2592.000000	60.066580 
2591.000000	60.080480 
2590.000000	60.091686 
2589.000000	60.100722 
2588.000000	60.108518 
2587.000000	60.116124 
2586.000000	60.124492 
2585.000000	60.134243 
2584.000000	60.145497 
2583.000000	60.157942 
2582.000000	60.170817 
2581.000000	60.183048 
2580.000000	60.193538 
2579.000000	60.201072 
2578.000000	60.204625 
2577.000000	60.203289 
2576.000000	60.196471 
2575.000000	60.183906 
2574.000000	60.165834 
2573.000000	60.143041 
2572.000000	60.116791 
2571.000000	60.089063 
2570.000000	60.062146 
2569.000000	60.038352 
2568.000000	60.019588 
2567.000000	60.006999 
2566.000000	60.000991 
2565.000000	60.001111 
2564.000000	60.006284 
2563.000000	60.014796 
2562.000000	60.024833 
2561.000000	60.034966 
2560.000000	60.044050 
2559.000000	60.051369 
2558.000000	60.056757 
2557.000000	60.060191 
2556.000000	60.061693 
2555.000000	60.061240 
2554.000000	60.058689 
2553.000000	60.053801 
2552.000000	60.046291 
2551.000000	60.036110 
2550.000000	60.023546 
2549.000000	60.009360 
2548.000000	59.994554 
2547.000000	59.980440 
2546.000000	59.968566 
2545.000000	59.960293 
2544.000000	59.956645 
2543.000000	59.957695 
2542.000000	59.962654 
2541.000000	59.969568 
2540.000000	59.975838 
2539.000000	59.978532 
2538.000000	59.974908 
2537.000000	59.963226 
2536.000000	59.942865 
2535.000000	59.915137 
2534.000000	59.882950 
2533.000000	59.850358 
2532.000000	59.821653 
2531.000000	59.800887 
2530.000000	59.790825 
2529.000000	59.792661 
2528.000000	59.805798 
2527.000000	59.827923 
2526.000000	59.855699 
2525.000000	59.885191 
2524.000000	59.912586 
2523.000000	59.934449 
2522.000000	59.948158 
2521.000000	59.951877 
2520.000000	59.944963 
2519.000000	59.927749 
2518.000000	59.901809 
2517.000000	59.870123 
2516.000000	59.836578 
2515.000000	59.805536 
2514.000000	59.780764 
2513.000000	59.765386 
2512.000000	59.760332 
2511.000000	59.764528 
2510.000000	59.774565 
2509.000000	59.785437 
2508.000000	59.791421 
2507.000000	59.787607 
2506.000000	59.771227 
2505.000000	59.741997 
2504.000000	59.702968 
2503.000000	59.659552 
2502.000000	59.618592 
2501.000000	59.586429 
2500.000000	59.567570 
2499.000000	59.563350 
2498.000000	59.571766 
2497.000000	59.588265 
2496.000000	59.606933 
2495.000000	59.622597 
2494.000000	59.631919 
2493.000000	59.634780 
2492.000000	59.634017 
2491.000000	59.634733 
2490.000000	59.642434 
2489.000000	59.661388 
2488.000000	59.693074 
2487.000000	59.735321 
2486.000000	59.782981 
2485.000000	59.828853 
2484.000000	59.865617 
2483.000000	59.887290 
2482.000000	59.891152 
2481.000000	59.877443 
2480.000000	59.849166 
2479.000000	59.810757 
2478.000000	59.767365 
2477.000000	59.723162 
2476.000000	59.681057 
2475.000000	59.642505 
2474.000000	59.608030 
2473.000000	59.577584 
2472.000000	59.551215 
2471.000000	59.529304 
2470.000000	59.512829 
2469.000000	59.502792 
2468.000000	59.500241 
2467.000000	59.505414 
2466.000000	59.517741 
2465.000000	59.535861 
2464.000000	59.557771 
2463.000000	59.580945 
2462.000000	59.602856 
2461.000000	59.620761 
2460.000000	59.632682 
2459.000000	59.637117 
2458.000000	59.633731 
2457.000000	59.623408 
2456.000000	59.608387 
2455.000000	59.591889 
2454.000000	59.577536 
2453.000000	59.568762 
2452.000000	59.567880 
2451.000000	59.575629 
2450.000000	59.591078 
2449.000000	59.612059 
2448.000000	59.635567 
2447.000000	59.658455 
2446.000000	59.677934 
2445.000000	59.692001 
2444.000000	59.699368 
2443.000000	59.699583 
2442.000000	59.692740 
2441.000000	59.679627 
2440.000000	59.661769 
2439.000000	59.641623 
2438.000000	59.622621 
2437.000000	59.608840 
2436.000000	59.605002 
2435.000000	59.615159 
2434.000000	59.641480 
2433.000000	59.683513 
2432.000000	59.737610 
2431.000000	59.797430 
2430.000000	59.854960 
2429.000000	59.902262 
2428.000000	59.933066 
2427.000000	59.944105 
2426.000000	59.936022 
2425.000000	59.912562 
2424.000000	59.879708 
2423.000000	59.843373 
2422.000000	59.808087 
2421.000000	59.775424 
2420.000000	59.744191 
2419.000000	59.711146 
2418.000000	59.672927 
2417.000000	59.627389 
2416.000000	59.575057 
2415.000000	59.519886 
2414.000000	59.468698 
2413.000000	59.429287 
2412.000000	59.408760 
2411.000000	59.411668 
2410.000000	59.438991 
2409.000000	59.487247 
2408.000000	59.549522 
2407.000000	59.616756 
2406.000000	59.679627 
2405.000000	59.730219 
2404.000000	59.763288 
2403.000000	59.776473 
2402.000000	59.770584 
2401.000000	59.748458 
2400.000000	59.714412 
2399.000000	59.673380 
2398.000000	59.629654 
2397.000000	59.587001 
2396.000000	59.547400 
2395.000000	59.511947 
2394.000000	59.480118 
2393.000000	59.450960 
2392.000000	59.422922 
2391.000000	59.394502 
2390.000000	59.364700 
2389.000000	59.333372 
2388.000000	59.300875 
2387.000000	59.267950 
2386.000000	59.235572 
2385.000000	59.204602 
2384.000000	59.175348 
2383.000000	59.147930 
2382.000000	59.122061 
2381.000000	59.098052 
2380.000000	59.076452 
2379.000000	59.058666 
2378.000000	59.046435 
2377.000000	59.041428 
2376.000000	59.044528 
2375.000000	59.055590 
2374.000000	59.072303 
2373.000000	59.091353 
2372.000000	59.108662 
2371.000000	59.120607 
2370.000000	59.124732 
2369.000000	59.120297 
2368.000000	59.108328 
2367.000000	59.091377 
2366.000000	59.072923 
2365.000000	59.056186 
2364.000000	59.043383 
2363.000000	59.035468 
2362.000000	59.032130 
2361.000000	59.032106 
2360.000000	59.033608 
2359.000000	59.035086 
2358.000000	59.035634 
2357.000000	59.034776 
2356.000000	59.032464 
2355.000000	59.028720 
2354.000000	59.023618 
2353.000000	59.016942 
2352.000000	59.008359 
2351.000000	58.997726 
2350.000000	58.985161 
2349.000000	58.971118 
2348.000000	58.956313 
2347.000000	58.941745 
2346.000000	58.928632 
2345.000000	58.918046 
2344.000000	58.910965 
2343.000000	58.907985 
2342.000000	58.909273 
2341.000000	58.914661 
2340.000000	58.923482 
2339.000000	58.934617 
2338.000000	58.946704 
2337.000000	58.958101 
2336.000000	58.967328 
2335.000000	58.973050 
2334.000000	58.974432 
2333.000000	58.971142 
2332.000000	58.963513 
2331.000000	58.952498 
2330.000000	58.939146 
2329.000000	58.924531 
2328.000000	58.909463 
2327.000000	58.894586 
2326.000000	58.880257 
2325.000000	58.866834 
2324.000000	58.854794 
2323.000000	58.844637 
2322.000000	58.836984 
2321.000000	58.832240 
2320.000000	58.830451 
2319.000000	58.831238 
2318.000000	58.833622 
2317.000000	58.836460 
2316.000000	58.838438 
2315.000000	58.838582 
2314.000000	58.836388 
2313.000000	58.832097 
2312.000000	58.826518 
2311.000000	58.820891 
2310.000000	58.816385 
2309.000000	58.813786 
2308.000000	58.813214 
2307.000000	58.814072 
2306.000000	58.815312 
2305.000000	58.815598 
2304.000000	58.813643 
2303.000000	58.808588 
2302.000000	58.800101 
2301.000000	58.788490 
2300.000000	58.774566 
2299.000000	58.759331 
2298.000000	58.744120 
2297.000000	58.730101 
2296.000000	58.718085 
2295.000000	58.708596 
2294.000000	58.701777 
2293.000000	58.697485 
2292.000000	58.695435 
2291.000000	58.695387 
2290.000000	58.697080 
2289.000000	58.700370 
2288.000000	58.705210 
2287.000000	58.711433 
2286.000000	58.718776 
2285.000000	58.726859 
2284.000000	58.734917 
2283.000000	58.742094 
2282.000000	58.747434 
2281.000000	58.750200 
2280.000000	58.749866 
2279.000000	58.746266 
2278.000000	58.739852 
2277.000000	58.731412 
2276.000000	58.722043 
2275.000000	58.712649 
2274.000000	58.704185 
2273.000000	58.696937 
2272.000000	58.690857 
2271.000000	58.685278 
2270.000000	58.679366 
2269.000000	58.672022 
2268.000000	58.662414 
2267.000000	58.649921 
2266.000000	58.634638 
2265.000000	58.617591 
2264.000000	58.600378 
2263.000000	58.585143 
2262.000000	58.574175 
2261.000000	58.569335 
2260.000000	58.571457 
2259.000000	58.580255 
2258.000000	58.594274 
2257.000000	58.611273 
2256.000000	58.628797 
2255.000000	58.644747 
2254.000000	58.657646 
2253.000000	58.667159 
2252.000000	58.673906 
2251.000000	58.678960 
2250.000000	58.683323 
2249.000000	58.687424 
2248.000000	58.690929 
2247.000000	58.692789 
2246.000000	58.691573 
2245.000000	58.686161 
2244.000000	58.676075 
2243.000000	58.662104 
2242.000000	58.645868 
2241.000000	58.629870 
2240.000000	58.616518 
2239.000000	58.607673 
2238.000000	58.604145 
2237.000000	58.605527 
2236.000000	58.610343 
2235.000000	58.616614 
2234.000000	58.621954 
2233.000000	58.624434 
2232.000000	58.622622 
2231.000000	58.615803 
2230.000000	58.603835 
2229.000000	58.587002 
2228.000000	58.565878 
2227.000000	58.541178 
2226.000000	58.514094 
2225.000000	58.486199 
2224.000000	58.459496 
2223.000000	58.436179 
2222.000000	58.418440 
2221.000000	58.408021 
2220.000000	58.405590 
2219.000000	58.410716 
2218.000000	58.421349 
2217.000000	58.434534 
2216.000000	58.446717 
2215.000000	58.454632 
2214.000000	58.455848 
2213.000000	58.449649 
2212.000000	58.436775 
2211.000000	58.419704 
2210.000000	58.401751 
2209.000000	58.386468 
2208.000000	58.376884 
2207.000000	58.374571 
2206.000000	58.379459 
2205.000000	58.389782 
2204.000000	58.402705 
2203.000000	58.414912 
2202.000000	58.423542 
2201.000000	58.426547 
2200.000000	58.423376 
2199.000000	58.414959 
2198.000000	58.403491 
2197.000000	58.391761 
2196.000000	58.382582 
2195.000000	58.378005 
2194.000000	58.378720 
2193.000000	58.384466 
2192.000000	58.393621 
2191.000000	58.403730 
2190.000000	58.411931 
2189.000000	58.415722 
2188.000000	58.413076 
2187.000000	58.403205 
2186.000000	58.386468 
2185.000000	58.364057 
2184.000000	58.338165 
2183.000000	58.311533 
2182.000000	58.286952 
2181.000000	58.267045 
2180.000000	58.253240 
2179.000000	58.245944 
2178.000000	58.243846 
2177.000000	58.244609 
2176.000000	58.244895 
2175.000000	58.241105 
2174.000000	58.230280 
2173.000000	58.211016 
2172.000000	58.183932 
2171.000000	58.152008 
2170.000000	58.120226 
2169.000000	58.094406 
2168.000000	58.080315 
2167.000000	58.081793 
2166.000000	58.100056 
2165.000000	58.132672 
2164.000000	58.174109 
2163.000000	58.216476 
2162.000000	58.251118 
2161.000000	58.270740 
2160.000000	58.270549 
2159.000000	58.249974 
2158.000000	58.212232 
2157.000000	58.164215 
2156.000000	58.114647 
2155.000000	58.072304 
2154.000000	58.043956 
2153.000000	58.032941 
2152.000000	58.038711 
2151.000000	58.057022 
2150.000000	58.081245 
2149.000000	58.104372 
2148.000000	58.120512 
2147.000000	58.126544 
2146.000000	58.122420 
2145.000000	58.110976 
2144.000000	58.096861 
2143.000000	58.084988 
2142.000000	58.079051 
2141.000000	58.080387 
2140.000000	58.087825 
2139.000000	58.098149 
2138.000000	58.107113 
2137.000000	58.110904 
2136.000000	58.106923 
2135.000000	58.095097 
2134.000000	58.077049 
2133.000000	58.056187 
2132.000000	58.036208 
2131.000000	58.020162 
2130.000000	58.009600 
2129.000000	58.004379 
2128.000000	58.002662 
2127.000000	58.001780 
2126.000000	57.998704 
2125.000000	57.990932 
2124.000000	57.977175 
2123.000000	57.957506 
2122.000000	57.933235 
2121.000000	57.906556 
2120.000000	57.880139 
2119.000000	57.856392 
2118.000000	57.837605 
2117.000000	57.825255 
2116.000000	57.820129 
2115.000000	57.821965 
2114.000000	57.829713 
2113.000000	57.841610 
2112.000000	57.855176 
2111.000000	57.867932 
2110.000000	57.877278 
2109.000000	57.881236 
2108.000000	57.878470 
2107.000000	57.868766 
2106.000000	57.853102 
2105.000000	57.833456 
2104.000000	57.812047 
2103.000000	57.791137 
2102.000000	57.772970 
2101.000000	57.758998 
2100.000000	57.749795 
2099.000000	57.744979 
2098.000000	57.743668 
2097.000000	57.744431 
2096.000000	57.745552 
2095.000000	57.745361 
2094.000000	57.742476 
2093.000000	57.735967 
2092.000000	57.725739 
2091.000000	57.712674 
2090.000000	57.698631 
2089.000000	57.686352 
2088.000000	57.678985 
2087.000000	57.679319 
2086.000000	57.688832 
2085.000000	57.707619 
2084.000000	57.733201 
2083.000000	57.761287 
2082.000000	57.785797 
2081.000000	57.800626 
2080.000000	57.800364 
2079.000000	57.781338 
2078.000000	57.742452 
2077.000000	57.685661 
2076.000000	57.615041 
2075.000000	57.536005 
2074.000000	57.454323 
2073.000000	57.375168 
2072.000000	57.302761 
2071.000000	57.240009 
2070.000000	57.188963 
2069.000000	57.150959 
2068.000000	57.126998 
2067.000000	57.117652 
2066.000000	57.122826 
2065.000000	57.141232 
2064.000000	57.170057 
2063.000000	57.205128 
2062.000000	57.241034 
2061.000000	57.272362 
2060.000000	57.294511 
2059.000000	57.305479 
2058.000000	57.305955 
2057.000000	57.299780 
2056.000000	57.292962 
2055.000000	57.292532 
2054.000000	57.304739 
2053.000000	57.333469 
2052.000000	57.379436 
2051.000000	57.439494 
2050.000000	57.507753 
2049.000000	57.576394 
2048.000000	57.637548 
2047.000000	57.684588 
2046.000000	57.713651 
2045.000000	57.723641 
2044.000000	57.716155 
2043.000000	57.695031 
2042.000000	57.665562 
2041.000000	57.633137 
2040.000000	57.602214 
2039.000000	57.576417 
2038.000000	57.557988 
2037.000000	57.547497 
2036.000000	57.544159 
2035.000000	57.546067 
2034.000000	57.550716 
2033.000000	57.555270 
2032.000000	57.557296 
2031.000000	57.554888 
2030.000000	57.547283 
2029.000000	57.535243 
2028.000000	57.520508 
2027.000000	57.505416 
2026.000000	57.491993 
2025.000000	57.481408 
2024.000000	57.473230 
2023.000000	57.465600 
2022.000000	57.455873 
2021.000000	57.441258 
2020.000000	57.419896 
2019.000000	57.391619 
2018.000000	57.358288 
2017.000000	57.323551 
2016.000000	57.291865 
2015.000000	57.267236 
2014.000000	57.252764 
2013.000000	57.249641 
2012.000000	57.257151 
2011.000000	57.272768 
2010.000000	57.293200 
2009.000000	57.314920 
2008.000000	57.335042 
2007.000000	57.351756 
2006.000000	57.364153 
2005.000000	57.372212 
2004.000000	57.376384 
2003.000000	57.377314 
2002.000000	57.375812 
2001.000000	57.372665 
2000.000000	57.369065 
1999.000000	57.366061 
1998.000000	57.364773 
1997.000000	57.365822 
1996.000000	57.369518 
1995.000000	57.375669 
1994.000000	57.383513 
1993.000000	57.392001 
1992.000000	57.400083 
1991.000000	57.406663 
1990.000000	57.410931 
1989.000000	57.412195 
1988.000000	57.410120 
1987.000000	57.404351 
1986.000000	57.394623 
1985.000000	57.380819 
1984.000000	57.363247 
1983.000000	57.342338 
1982.000000	57.319021 
1981.000000	57.294726 
1980.000000	57.271122 
1979.000000	57.250118 
1978.000000	57.233428 
1977.000000	57.222008 
1976.000000	57.215976 
1975.000000	57.214617 
1974.000000	57.216453 
1973.000000	57.219433 
1972.000000	57.221508 
1971.000000	57.221245 
1970.000000	57.218241 
1969.000000	57.212567 
1968.000000	57.205128 
1967.000000	57.197070 
1966.000000	57.189512 
1965.000000	57.183074 
1964.000000	57.177948 
1963.000000	57.173991 
1962.000000	57.171034 
1961.000000	57.169103 
1960.000000	57.168698 
1959.000000	57.170724 
1958.000000	57.176160 
1957.000000	57.185745 
1956.000000	57.199501 
1955.000000	57.216596 
1954.000000	57.235407 
1953.000000	57.253503 
1952.000000	57.268285 
1951.000000	57.277178 
1950.000000	57.278513 
1949.000000	57.271432 
1948.000000	57.255983 
1947.000000	57.232642 
1946.000000	57.202696 
1945.000000	57.167553 
1944.000000	57.128763 
1943.000000	57.088017 
1942.000000	57.047319 
1941.000000	57.008695 
1940.000000	56.974625 
1939.000000	56.947255 
1938.000000	56.928277 
1937.000000	56.918525 
1936.000000	56.917476 
1935.000000	56.923460 
1934.000000	56.933546 
1933.000000	56.944441 
1932.000000	56.953048 
1931.000000	56.957292 
1930.000000	56.956505 
1929.000000	56.951642 
1928.000000	56.945013 
1927.000000	56.939578 
1926.000000	56.938028 
1925.000000	56.942367 
1924.000000	56.953048 
1923.000000	56.969094 
1922.000000	56.988167 
1921.000000	57.007241 
1920.000000	57.023215 
1919.000000	57.033801 
1918.000000	57.037520 
1917.000000	57.034349 
1916.000000	57.025098 
1915.000000	57.011413 
1914.000000	56.994891 
1913.000000	56.976723 
1912.000000	56.957411 
1911.000000	56.937217 
1910.000000	56.915736 
1909.000000	56.892752 
1908.000000	56.868290 
1907.000000	56.843090 
1906.000000	56.818509 
1905.000000	56.796360 
1904.000000	56.778478 
1903.000000	56.766223 
1902.000000	56.760454 
1901.000000	56.761169 
1900.000000	56.767535 
1899.000000	56.777930 
1898.000000	56.790375 
1897.000000	56.803011 
1896.000000	56.814074 
1895.000000	56.822252 
1894.000000	56.826686 
1893.000000	56.827235 
1892.000000	56.824159 
1891.000000	56.818366 
1890.000000	56.811070 
1889.000000	56.803822 
1888.000000	56.798076 
1887.000000	56.795001 
1886.000000	56.795430 
1885.000000	56.799173 
1884.000000	56.805324 
1883.000000	56.812000 
1882.000000	56.816935 
1881.000000	56.817770 
1880.000000	56.812858 
1879.000000	56.801128 
1878.000000	56.782698 
1877.000000	56.758928 
1876.000000	56.732058 
1875.000000	56.704783 
1874.000000	56.679701 
1873.000000	56.658840 
1872.000000	56.643462 
1871.000000	56.633806 
1870.000000	56.629419 
1869.000000	56.629085 
1868.000000	56.631493 
1867.000000	56.635403 
1866.000000	56.639838 
1865.000000	56.644058 
1864.000000	56.647396 
1863.000000	56.649327 
1862.000000	56.649112 
1861.000000	56.645727 
1860.000000	56.638169 
1859.000000	56.625556 
1858.000000	56.607604 
1857.000000	56.584787 
1856.000000	56.558847 
1855.000000	56.532621 
1854.000000	56.509757 
1853.000000	56.493926 
1852.000000	56.488132 
1851.000000	56.493997 
1850.000000	56.511044 
1849.000000	56.536650 
1848.000000	56.566452 
1847.000000	56.595063 
1846.000000	56.617140 
1845.000000	56.628489 
1844.000000	56.626892 
1843.000000	56.612658 
1842.000000	56.588387 
1841.000000	56.558513 
1840.000000	56.527948 
1839.000000	56.501221 
1838.000000	56.481766 
1837.000000	56.471180 
1836.000000	56.469440 
1835.000000	56.474828 
1834.000000	56.485080 
1833.000000	56.497120 
1832.000000	56.508374 
1831.000000	56.516456 
1830.000000	56.519556 
1829.000000	56.516599 
1828.000000	56.507420 
1827.000000	56.492447 
1826.000000	56.472635 
1825.000000	56.449365 
1824.000000	56.424212 
1823.000000	56.398773 
1822.000000	56.374526 
1821.000000	56.352734 
1820.000000	56.334328 
1819.000000	56.320071 
1818.000000	56.310439 
1817.000000	56.305837 
1816.000000	56.306505 
1815.000000	56.312322 
1814.000000	56.322932 
1813.000000	56.337571 
1812.000000	56.355190 
1811.000000	56.374335 
1810.000000	56.393384 
1809.000000	56.410717 
1808.000000	56.424856 
1807.000000	56.434917 
1806.000000	56.440138 
1805.000000	56.440162 
1804.000000	56.434464 
1803.000000	56.422829 
1802.000000	56.404948 
1801.000000	56.380939 
1800.000000	56.351304 
1799.000000	56.317186 
1798.000000	56.280589 
1797.000000	56.244111 
1796.000000	56.210803 
1795.000000	56.183600 
1794.000000	56.164813 
1793.000000	56.155681 
1792.000000	56.156182 
1791.000000	56.165003 
1790.000000	56.179904 
1789.000000	56.198072 
1788.000000	56.216621 
1787.000000	56.233215 
1786.000000	56.245994 
1785.000000	56.254076 
1784.000000	56.256961 
1783.000000	56.254792 
1782.000000	56.247901 
1781.000000	56.237053 
1780.000000	56.223106 
1779.000000	56.207108 
1778.000000	56.190371 
1777.000000	56.174421 
1776.000000	56.160712 
1775.000000	56.150722 
1774.000000	56.145477 
1773.000000	56.145524 
1772.000000	56.150627 
1771.000000	56.159806 
1770.000000	56.171298 
1769.000000	56.183075 
1768.000000	56.193041 
1767.000000	56.199431 
1766.000000	56.201243 
1765.000000	56.198191 
1764.000000	56.190752 
1763.000000	56.179785 
1762.000000	56.166481 
1761.000000	56.151795 
1760.000000	56.136345 
1759.000000	56.120538 
1758.000000	56.104564 
1757.000000	56.088542 
1756.000000	56.072640 
1755.000000	56.057310 
1754.000000	56.043314 
1753.000000	56.031441 
1752.000000	56.022381 
1751.000000	56.016492 
1750.000000	56.013703 
1749.000000	56.013321 
1748.000000	56.014299 
1747.000000	56.015491 
1746.000000	56.015634 
1745.000000	56.013751 
1744.000000	56.009006 
1743.000000	56.000781 
1742.000000	55.988764 
1741.000000	55.973076 
1740.000000	55.954027 
1739.000000	55.932068 
1738.000000	55.907917 
1737.000000	55.882430 
1736.000000	55.856108 
1735.000000	55.829215 
1734.000000	55.801773 
1733.000000	55.773615 
1732.000000	55.744647 
1731.000000	55.715322 
1730.000000	55.686569 
1729.000000	55.660033 
1728.000000	55.637741 
1727.000000	55.621504 
1726.000000	55.612587 
1725.000000	55.610966 
1724.000000	55.615043 
1723.000000	55.621910 
1722.000000	55.627751 
1721.000000	55.629110 
1720.000000	55.623698 
1719.000000	55.611395 
1718.000000	55.594110 
1717.000000	55.575609 
1716.000000	55.560731 
1715.000000	55.554151 
1714.000000	55.559086 
1713.000000	55.576992 
1712.000000	55.607008 
1711.000000	55.646443 
1710.000000	55.691432 
1709.000000	55.737662 
1708.000000	55.781126 
1707.000000	55.818629 
1706.000000	55.848121 
1705.000000	55.868458 
1704.000000	55.879306 
1703.000000	55.881023 
1702.000000	55.874443 
1701.000000	55.860924 
1700.000000	55.841732 
1699.000000	55.819129 
1698.000000	55.794835 
1697.000000	55.770707 
1696.000000	55.747795 
1695.000000	55.726909 
1694.000000	55.708217 
1693.000000	55.691742 
1692.000000	55.677509 
1691.000000	55.665659 
1690.000000	55.656886 
1689.000000	55.652332 
1688.000000	55.653071 
1687.000000	55.659651 
1686.000000	55.671739 
1685.000000	55.688214 
1684.000000	55.706858 
1683.000000	55.725026 
1682.000000	55.740451 
1681.000000	55.751800 
1680.000000	55.758857 
1679.000000	55.762720 
1678.000000	55.765318 
1677.000000	55.768823 
1676.000000	55.774760 
1675.000000	55.783677 
1674.000000	55.795121 
1673.000000	55.807662 
1672.000000	55.819702 
1671.000000	55.829310 
1670.000000	55.835127 
1669.000000	55.836033 
1668.000000	55.831623 
1667.000000	55.821800 
1666.000000	55.806589 
1665.000000	55.786132 
1664.000000	55.760622 
1663.000000	55.730438 
1662.000000	55.696582 
1661.000000	55.660510 
1660.000000	55.624175 
1659.000000	55.589604 
1658.000000	55.558753 
1657.000000	55.532836 
1656.000000	55.512356 
1655.000000	55.497264 
1654.000000	55.487060 
1653.000000	55.480909 
1652.000000	55.478119 
1651.000000	55.477976 
1650.000000	55.480003 
1649.000000	55.483460 
1648.000000	55.487918 
1647.000000	55.492782 
1646.000000	55.497598 
1645.000000	55.501985 
1644.000000	55.505347 
1643.000000	55.507040 
1642.000000	55.505990 
1641.000000	55.501079 
1640.000000	55.491113 
1639.000000	55.475091 
1638.000000	55.452585 
1637.000000	55.424070 
1636.000000	55.391073 
1635.000000	55.356097 
1634.000000	55.322337 
1633.000000	55.293059 
1632.000000	55.270862 
1631.000000	55.257105 
1630.000000	55.251646 
1629.000000	55.252981 
1628.000000	55.258631 
1627.000000	55.265927 
1626.000000	55.272626 
1625.000000	55.277323 
1624.000000	55.279397 
1623.000000	55.279040 
1622.000000	55.276799 
1621.000000	55.273294 
1620.000000	55.268907 
1619.000000	55.263757 
1618.000000	55.257940 
1617.000000	55.251550 
1616.000000	55.244994 
1615.000000	55.238914 
1614.000000	55.234217 
1613.000000	55.231595 
1612.000000	55.231237 
1611.000000	55.232763 
1610.000000	55.235171 
1609.000000	55.236959 
1608.000000	55.236244 
1607.000000	55.231571 
1606.000000	55.222225 
1605.000000	55.208158 
1604.000000	55.190086 
1603.000000	55.169296 
1602.000000	55.147314 
1601.000000	55.125546 
1600.000000	55.105042 
1599.000000	55.086350 
1598.000000	55.069947 
1597.000000	55.056047 
1596.000000	55.044984 
1595.000000	55.036997 
1594.000000	55.032372 
1593.000000	55.031132 
1592.000000	55.033254 
1591.000000	55.037808 
1590.000000	55.043983 
1589.000000	55.050730 
1588.000000	55.057406 
1587.000000	55.063724 
1586.000000	55.070185 
1585.000000	55.077815 
1584.000000	55.087828 
1583.000000	55.101227 
1582.000000	55.118465 
1581.000000	55.139112 
1580.000000	55.161786 
1579.000000	55.184340 
1578.000000	55.204176 
1577.000000	55.218815 
1576.000000	55.226588 
1575.000000	55.226659 
1574.000000	55.219244 
1573.000000	55.205488 
1572.000000	55.187249 
1571.000000	55.166435 
1570.000000	55.144715 
1569.000000	55.123043 
1568.000000	55.101895 
1567.000000	55.080962 
1566.000000	55.059599 
1565.000000	55.037117 
1564.000000	55.013132 
1563.000000	54.987907 
1562.000000	54.962706 
1561.000000	54.939317 
1560.000000	54.919791 
1559.000000	54.905819 
1558.000000	54.898118 
1557.000000	54.895973 
1556.000000	54.897189 
1555.000000	54.898786 
1554.000000	54.897689 
1553.000000	54.891324 
1552.000000	54.878401 
1551.000000	54.859018 
1550.000000	54.834914 
1549.000000	54.808568 
1548.000000	54.783010 
1547.000000	54.761195 
1546.000000	54.745578 
1545.000000	54.737448 
1544.000000	54.737138 
1543.000000	54.743885 
1542.000000	54.756021 
1541.000000	54.771423 
1540.000000	54.787802 
1539.000000	54.802894 
1538.000000	54.814982 
1537.000000	54.822945 
1536.000000	54.826617 
1535.000000	54.826307 
1534.000000	54.822850 
1533.000000	54.817557 
1532.000000	54.811549 
1531.000000	54.805493 
1530.000000	54.799580 
1529.000000	54.793667 
1528.000000	54.787564 
1527.000000	54.781246 
1526.000000	54.775047 
1525.000000	54.769849 
1524.000000	54.766678 
1523.000000	54.766392 
1522.000000	54.769396 
1521.000000	54.775500 
1520.000000	54.783821 
1519.000000	54.793238 
1518.000000	54.802584 
1517.000000	54.811167 
1516.000000	54.818892 
1515.000000	54.826283 
1514.000000	54.834079 
1513.000000	54.843044 
1512.000000	54.853653 
1511.000000	54.865837 
1510.000000	54.878711 
1509.000000	54.891180 
1508.000000	54.902195 
1507.000000	54.910898 
1506.000000	54.917073 
1505.000000	54.920911 
1504.000000	54.922866 
1503.000000	54.923272 
1502.000000	54.922032 
1501.000000	54.918599 
1500.000000	54.912042 
1499.000000	54.901671 
1498.000000	54.887318 
1497.000000	54.869675 
1496.000000	54.850411 
1495.000000	54.831933 
1494.000000	54.816746 
1493.000000	54.806685 
1492.000000	54.802203 
1491.000000	54.802107 
1490.000000	54.803729 
1489.000000	54.803800 
1488.000000	54.799175 
1487.000000	54.787540 
1486.000000	54.768085 
1485.000000	54.741787 
1484.000000	54.710793 
1483.000000	54.677939 
1482.000000	54.645967 
1481.000000	54.616665 
1480.000000	54.590940 
1479.000000	54.568624 
1478.000000	54.549002 
1477.000000	54.531431 
1476.000000	54.515600 
1475.000000	54.501748 
1474.000000	54.490995 
1473.000000	54.484868 
1472.000000	54.484844 
1471.000000	54.491853 
1470.000000	54.505968 
1469.000000	54.525780 
1468.000000	54.548883 
1467.000000	54.571676 
1466.000000	54.590201 
1465.000000	54.600524 
1464.000000	54.599237 
1463.000000	54.584264 
1462.000000	54.554581 
1461.000000	54.511332 
1460.000000	54.457473 
1459.000000	54.398155 
1458.000000	54.340171 
1457.000000	54.290723 
1456.000000	54.257011 
1455.000000	54.243254 
1454.000000	54.250121 
1453.000000	54.273700 
1452.000000	54.306173 
1451.000000	54.337954 
1450.000000	54.359745 
1449.000000	54.365539 
1448.000000	54.353713 
1447.000000	54.327630 
1446.000000	54.294371 
1445.000000	54.262590 
1444.000000	54.239845 
1443.000000	54.230403 
1442.000000	54.234099 
1441.000000	54.246497 
1440.000000	54.260396 
1439.000000	54.268002 
1438.000000	54.263424 
1437.000000	54.244327 
1436.000000	54.212951 
1435.000000	54.174947 
1434.000000	54.138398 
1433.000000	54.111218 
1432.000000	54.099655 
1431.000000	54.106783 
1430.000000	54.131865 
1429.000000	54.171419 
1428.000000	54.219222 
1427.000000	54.268288 
1426.000000	54.311394 
1425.000000	54.343175 
1424.000000	54.360032 
1423.000000	54.360294 
1422.000000	54.344582 
1421.000000	54.315280 
1420.000000	54.276084 
1419.000000	54.231429 
1418.000000	54.185891 
1417.000000	54.143357 
1416.000000	54.106521 
1415.000000	54.076766 
1414.000000	54.053878 
1413.000000	54.036736 
1412.000000	54.023861 
1411.000000	54.014372 
1410.000000	54.007887 
1409.000000	54.005122 
1408.000000	54.007172 
1407.000000	54.015159 
1406.000000	54.029130 
1405.000000	54.048347 
1404.000000	54.070711 
1403.000000	54.094004 
1402.000000	54.115939 
1401.000000	54.135251 
1400.000000	54.151821 
1399.000000	54.166746 
1398.000000	54.181838 
1397.000000	54.198789 
1396.000000	54.218482 
1395.000000	54.240107 
1394.000000	54.261302 
1393.000000	54.278850 
1392.000000	54.289555 
1391.000000	54.291272 
1390.000000	54.283237 
1389.000000	54.266142 
1388.000000	54.241752 
1387.000000	54.212164 
1386.000000	54.179453 
1385.000000	54.144978 
1384.000000	54.109525 
1383.000000	54.073643 
1382.000000	54.038286 
1381.000000	54.005074 
1380.000000	53.976416 
1379.000000	53.955125 
1378.000000	53.943729 
1377.000000	53.943967 
1376.000000	53.956246 
1375.000000	53.978729 
1374.000000	54.008316 
1373.000000	54.040861 
1372.000000	54.072213 
1371.000000	54.098868 
1370.000000	54.118490 
1369.000000	54.130220 
1368.000000	54.134368 
1367.000000	54.131841 
1366.000000	54.123520 
1365.000000	54.110002 
1364.000000	54.091548 
1363.000000	54.068160 
1362.000000	54.040169 
1361.000000	54.008412 
1360.000000	53.974652 
1359.000000	53.941297 
1358.000000	53.911089 
1357.000000	53.886365 
1356.000000	53.868651 
1355.000000	53.857946 
1354.000000	53.852939 
1353.000000	53.851222 
1352.000000	53.849697 
1351.000000	53.845548 
1350.000000	53.836917 
1349.000000	53.823161 
1348.000000	53.804850 
1347.000000	53.783798 
1346.000000	53.762435 
1345.000000	53.743457 
1344.000000	53.728961 
1343.000000	53.720498 
1342.000000	53.718852 
1341.000000	53.723978 
1340.000000	53.735065 
1339.000000	53.750824 
1338.000000	53.769564 
1337.000000	53.789448 
1336.000000	53.808760 
1335.000000	53.825998 
1334.000000	53.840184 
1333.000000	53.851127 
1332.000000	53.859210 
1331.000000	53.865122 
1330.000000	53.869104 
1329.000000	53.871464 
1328.000000	53.871726 
1327.000000	53.868508 
1326.000000	53.859806 
1325.000000	53.843712 
1324.000000	53.818917 
1323.000000	53.785276 
1322.000000	53.744053 
1321.000000	53.698086 
1320.000000	53.651142 
1319.000000	53.607416 
1318.000000	53.570604 
1317.000000	53.543090 
1316.000000	53.525733 
1315.000000	53.517961 
1314.000000	53.517961 
1313.000000	53.523206 
1312.000000	53.531432 
1311.000000	53.540825 
1310.000000	53.550457 
1309.000000	53.560137 
1308.000000	53.570437 
1307.000000	53.582429 
1306.000000	53.597235 
1305.000000	53.615570 
1304.000000	53.637695 
1303.000000	53.663158 
1302.000000	53.690886 
1301.000000	53.718972 
1300.000000	53.745055 
1299.000000	53.766489 
1298.000000	53.780794 
1297.000000	53.786134 
1296.000000	53.781819 
1295.000000	53.768444 
1294.000000	53.747963 
1293.000000	53.723287 
1292.000000	53.697824 
1291.000000	53.674340 
1290.000000	53.654837 
1289.000000	53.639650 
1288.000000	53.627538 
1287.000000	53.616189 
1286.000000	53.603005 
1285.000000	53.586006 
1284.000000	53.564572 
1283.000000	53.539752 
1282.000000	53.514170 
1281.000000	53.491353 
1280.000000	53.474736 
1279.000000	53.466606 
1278.000000	53.467488 
1277.000000	53.476071 
1276.000000	53.489398 
1275.000000	53.503704 
1274.000000	53.515291 
1273.000000	53.521370 
1272.000000	53.520774 
1271.000000	53.513455 
1270.000000	53.500747 
1269.000000	53.484749 
1268.000000	53.467607 
1267.000000	53.450822 
1266.000000	53.435373 
1265.000000	53.421568 
1264.000000	53.409194 
1263.000000	53.397941 
1262.000000	53.387212 
1261.000000	53.376603 
1260.000000	53.365731 
1259.000000	53.354430 
1258.000000	53.342771 
1257.000000	53.330874 
1256.000000	53.319334 
1255.000000	53.309011 
1254.000000	53.301095 
1253.000000	53.296685 
1252.000000	53.296589 
1251.000000	53.301143 
1250.000000	53.309845 
1249.000000	53.321456 
1248.000000	53.334259 
1247.000000	53.346109 
1246.000000	53.355050 
1245.000000	53.359174 
1244.000000	53.357458 
1243.000000	53.349304 
1242.000000	53.334784 
1241.000000	53.314375 
1240.000000	53.288960 
1239.000000	53.259873 
1238.000000	53.228688 
1237.000000	53.197669 
1236.000000	53.169488 
1235.000000	53.147125 
1234.000000	53.133296 
1233.000000	53.130173 
1232.000000	53.138685 
1231.000000	53.158259 
1230.000000	53.186535 
1229.000000	53.219604 
1228.000000	53.252863 
1227.000000	53.281688 
1226.000000	53.302550 
1225.000000	53.313279 
1224.000000	53.313684 
1223.000000	53.305578 
1222.000000	53.292202 
1221.000000	53.277444 
1220.000000	53.264808 
1219.000000	53.257226 
1218.000000	53.256130 
1217.000000	53.261756 
1216.000000	53.272938 
1215.000000	53.288054 
1214.000000	53.304958 
1213.000000	53.321647 
1212.000000	53.336358 
1211.000000	53.347730 
1210.000000	53.355193 
1209.000000	53.358602 
1208.000000	53.358530 
1207.000000	53.355813 
1206.000000	53.351664 
1205.000000	53.347563 
1204.000000	53.344368 
1203.000000	53.342366 
1202.000000	53.340625 
1201.000000	53.337311 
1200.000000	53.329634 
1199.000000	53.314590 
1198.000000	53.289556 
1197.000000	53.253197 
1196.000000	53.206229 
1195.000000	53.151249 
1194.000000	53.092575 
1193.000000	53.035020 
1192.000000	52.982783 
1191.000000	52.938556 
1190.000000	52.902770 
1189.000000	52.874350 
1188.000000	52.851057 
1187.000000	52.831292 
1186.000000	52.814269 
1185.000000	52.801299 
1184.000000	52.795076 
1183.000000	52.799248 
1182.000000	52.816700 
1181.000000	52.848768 
1180.000000	52.894043 
1179.000000	52.948498 
1178.000000	53.005790 
1177.000000	53.058791 
1176.000000	53.100848 
1175.000000	53.127002 
1174.000000	53.135037 
1173.000000	53.125953 
1172.000000	53.103399 
1171.000000	53.072786 
1170.000000	53.040122 
1169.000000	53.010869 
1168.000000	52.988934 
1167.000000	52.976512 
1166.000000	52.973580 
1165.000000	52.978420 
1164.000000	52.988028 
1163.000000	52.999019 
1162.000000	53.008246 
1161.000000	53.012752 
1160.000000	53.011274 
1159.000000	53.003835 
1158.000000	52.992391 
1157.000000	52.980089 
1156.000000	52.970743 
1155.000000	52.968144 
1154.000000	52.974128 
1153.000000	52.988386 
1152.000000	53.007388 
1151.000000	53.025317 
1150.000000	53.034877 
1149.000000	53.029298 
1148.000000	53.003716 
1147.000000	52.956700 
1146.000000	52.890872 
1145.000000	52.812528 
1144.000000	52.730107 
1143.000000	52.652406 
1142.000000	52.586555 
1141.000000	52.537202 
1140.000000	52.505373 
1139.000000	52.489805 
1138.000000	52.487587 
1137.000000	52.495980 
1136.000000	52.512931 
1135.000000	52.537679 
1134.000000	52.570104 
1133.000000	52.610063 
1132.000000	52.655720 
1131.000000	52.704191 
1130.000000	52.751350 
1129.000000	52.792835 
1128.000000	52.824926 
1127.000000	52.845239 
1126.000000	52.853655 
1125.000000	52.851557 
1124.000000	52.841734 
1123.000000	52.827119 
1122.000000	52.810359 
1121.000000	52.793169 
1120.000000	52.776432 
1119.000000	52.760386 
1118.000000	52.744984 
1117.000000	52.730965 
1116.000000	52.719640 
1115.000000	52.712368 
1114.000000	52.709913 
1113.000000	52.712011 
1112.000000	52.717137 
1111.000000	52.722239 
1110.000000	52.723431 
1109.000000	52.717351 
1108.000000	52.701544 
1107.000000	52.675437 
1106.000000	52.640533 
1105.000000	52.600049 
1104.000000	52.557849 
1103.000000	52.518272 
1102.000000	52.484130 
1101.000000	52.456521 
1100.000000	52.434229 
1099.000000	52.414441 
1098.000000	52.393722 
1097.000000	52.369189 
1096.000000	52.340435 
1095.000000	52.310156 
1094.000000	52.284169 
1093.000000	52.269983 
1092.000000	52.274990 
1091.000000	52.304148 
1090.000000	52.358388 
1089.000000	52.433490 
1088.000000	52.520608 
1087.000000	52.607750 
1086.000000	52.682185 
1085.000000	52.732753 
1084.000000	52.752661 
1083.000000	52.740049 
1082.000000	52.698636 
1081.000000	52.635765 
1080.000000	52.560591 
1079.000000	52.481937 
1078.000000	52.407240 
1077.000000	52.341270 
1076.000000	52.286458 
1075.000000	52.243232 
1074.000000	52.211666 
1073.000000	52.191329 
1072.000000	52.181768 
1071.000000	52.182793 
1070.000000	52.193665 
1069.000000	52.213573 
1068.000000	52.240920 
1067.000000	52.273750 
1066.000000	52.309441 
1065.000000	52.344989 
1064.000000	52.377104 
1063.000000	52.402305 
1062.000000	52.417230 
1061.000000	52.418947 
1060.000000	52.405619 
1059.000000	52.376747 
1058.000000	52.334070 
1057.000000	52.282118 
1056.000000	52.227783 
1055.000000	52.179288 
1054.000000	52.144622 
1053.000000	52.129817 
1052.000000	52.137684 
1051.000000	52.166557 
1050.000000	52.210974 
1049.000000	52.262377 
1048.000000	52.311348 
1047.000000	52.349972 
1046.000000	52.372765 
1045.000000	52.377438 
1044.000000	52.365255 
1043.000000	52.340221 
1042.000000	52.308154 
1041.000000	52.274966 
1040.000000	52.245831 
1039.000000	52.223968 
1038.000000	52.210211 
1037.000000	52.202916 
1036.000000	52.198600 
1035.000000	52.192616 
1034.000000	52.180218 
1033.000000	52.157902 
1032.000000	52.123641 
1031.000000	52.078199 
1030.000000	52.024412 
1029.000000	51.967525 
1028.000000	51.913666 
1027.000000	51.869368 
1026.000000	51.840090 
1025.000000	51.829648 
1024.000000	51.839065 
1023.000000	51.867008 
1022.000000	51.909732 
1021.000000	51.962208 
1020.000000	52.018833 
1019.000000	52.074170 
1018.000000	52.123665 
1017.000000	52.163887 
1016.000000	52.192521 
1015.000000	52.208518 
1014.000000	52.212023 
1013.000000	52.203893 
1012.000000	52.185750 
1011.000000	52.159905 
1010.000000	52.129292 
1009.000000	52.097678 
1008.000000	52.069115 
1007.000000	52.047610 
1006.000000	52.036428 
1005.000000	52.037835 
1004.000000	52.051925 
1003.000000	52.076625 
1002.000000	52.107405 
1001.000000	52.138233 
1000.000000	52.162718 
999.000000	 52.175068 
998.000000	 52.172017 
997.000000	 52.153325 
996.000000	 52.122306 
995.000000	 52.085113 
994.000000	 52.049493 
993.000000	 52.023029 
992.000000	 52.010893 
991.000000	 52.015161 
990.000000	 52.033305 
989.000000	 52.059006 
988.000000	 52.083539 
987.000000	 52.098035 
986.000000	 52.095293 
985.000000	 52.071809 
984.000000	 52.028846 
983.000000	 51.972341 
982.000000	 51.911544 
981.000000	 51.856803 
980.000000	 51.817464 
979.000000	 51.799607 
978.000000	 51.805162 
977.000000	 51.831364 
976.000000	 51.871895 
975.000000	 51.918268 
974.000000	 51.961946 
973.000000	 51.996040 
972.000000	 52.016568 
971.000000	 52.022528 
970.000000	 52.015352 
969.000000	 51.997995 
968.000000	 51.973819 
967.000000	 51.945400 
966.000000	 51.914072 
965.000000	 51.879954 
964.000000	 51.842927 
963.000000	 51.802778 
962.000000	 51.760387 
961.000000	 51.717376 
960.000000	 51.676201 
959.000000	 51.639652 
958.000000	 51.610112 
957.000000	 51.589465 
956.000000	 51.578497 
955.000000	 51.576972 
954.000000	 51.583838 
953.000000	 51.597452 
952.000000	 51.615762 
951.000000	 51.636695 
950.000000	 51.658153 
949.000000	 51.677966 
948.000000	 51.693964 
947.000000	 51.704549 
946.000000	 51.708388 
945.000000	 51.705217 
944.000000	 51.695322 
943.000000	 51.680064 
942.000000	 51.660895 
941.000000	 51.639413 
940.000000	 51.616573 
939.000000	 51.592659 
938.000000	 51.567006 
937.000000	 51.538586 
936.000000	 51.506543 
935.000000	 51.470804 
934.000000	 51.432371 
933.000000	 51.393270 
932.000000	 51.356363 
931.000000	 51.324772 
930.000000	 51.301240 
929.000000	 51.287508 
928.000000	 51.283717 
927.000000	 51.288628 
926.000000	 51.299285 
925.000000	 51.312088 
924.000000	 51.323342 
923.000000	 51.330018 
922.000000	 51.330447 
921.000000	 51.324629 
920.000000	 51.314067 
919.000000	 51.301646 
918.000000	 51.290202 
917.000000	 51.282429 
916.000000	 51.280093 
915.000000	 51.283907 
914.000000	 51.293349 
913.000000	 51.306962 
912.000000	 51.323032 
911.000000	 51.339626 
910.000000	 51.355171 
909.000000	 51.368212 
908.000000	 51.377606 
907.000000	 51.382327 
906.000000	 51.381635 
905.000000	 51.374745 
904.000000	 51.360988 
903.000000	 51.340055 
902.000000	 51.312232 
901.000000	 51.278591 
900.000000	 51.241302 
899.000000	 51.202940 
898.000000	 51.166820 
897.000000	 51.136350 
896.000000	 51.115131 
895.000000	 51.106119 
894.000000	 51.111483 
893.000000	 51.132011 
892.000000	 51.167178 
891.000000	 51.214551 
890.000000	 51.270055 
889.000000	 51.328444 
888.000000	 51.383614 
887.000000	 51.429700 
886.000000	 51.461434 
885.000000	 51.475191 
884.000000	 51.468586 
883.000000	 51.441168 
882.000000	 51.393556 
881.000000	 51.327872 
880.000000	 51.246976 
879.000000	 51.154780 
878.000000	 51.056170 
877.000000	 50.956892 
876.000000	 50.863742 
875.000000	 50.784206 
874.000000	 50.725364 
873.000000	 50.692844 
872.000000	 50.689435 
871.000000	 50.714564 
870.000000	 50.763511 
869.000000	 50.828695 
868.000000	 50.900506 
867.000000	 50.969624 
866.000000	 51.027965 
865.000000	 51.070380 
864.000000	 51.094603 
863.000000	 51.101398 
862.000000	 51.093077 
861.000000	 51.073169 
860.000000	 51.045441 
859.000000	 51.013350 
858.000000	 50.979924 
857.000000	 50.947403 
856.000000	 50.917959 
855.000000	 50.892949 
854.000000	 50.873732 
853.000000	 50.860428 
852.000000	 50.852322 
851.000000	 50.847673 
850.000000	 50.844025 
849.000000	 50.838780 
848.000000	 50.829935 
847.000000	 50.816869 
846.000000	 50.800657 
845.000000	 50.783538 
844.000000	 50.768136 
843.000000	 50.757169 
842.000000	 50.752067 
841.000000	 50.752544 
840.000000	 50.756216 
839.000000	 50.759220 
838.000000	 50.756978 
837.000000	 50.745820 
836.000000	 50.723671 
835.000000	 50.690126 
834.000000	 50.647568 
833.000000	 50.600576 
832.000000	 50.555276 
831.000000	 50.517606 
830.000000	 50.492835 
829.000000	 50.484132 
828.000000	 50.492382 
827.000000	 50.515985 
826.000000	 50.550937 
825.000000	 50.591826 
824.000000	 50.632548 
823.000000	 50.667786 
822.000000	 50.693964 
821.000000	 50.710034 
820.000000	 50.717544 
819.000000	 50.720000 
818.000000	 50.722098 
817.000000	 50.727844 
816.000000	 50.739908 
815.000000	 50.758028 
814.000000	 50.779271 
813.000000	 50.797939 
812.000000	 50.807356 
811.000000	 50.801062 
810.000000	 50.774717 
809.000000	 50.727176 
808.000000	 50.661110 
807.000000	 50.582957 
806.000000	 50.501322 
805.000000	 50.425839 
804.000000	 50.365161 
803.000000	 50.325298 
802.000000	 50.308585 
801.000000	 50.313472 
800.000000	 50.335216 
799.000000	 50.366592 
798.000000	 50.399351 
797.000000	 50.425910 
796.000000	 50.440621 
795.000000	 50.440645 
794.000000	 50.426173 
793.000000	 50.400018 
792.000000	 50.366830 
791.000000	 50.332260 
790.000000	 50.301504 
789.000000	 50.277781 
788.000000	 50.261807 
787.000000	 50.252723 
786.000000	 50.248074 
785.000000	 50.244116 
784.000000	 50.237464 
783.000000	 50.226259 
782.000000	 50.210976 
781.000000	 50.193786 
780.000000	 50.178718 
779.000000	 50.169706 
778.000000	 50.170063 
777.000000	 50.181317 
776.000000	 50.202655 
775.000000	 50.230479 
774.000000	 50.260114 
773.000000	 50.287127 
772.000000	 50.308632 
771.000000	 50.323605 
770.000000	 50.334215 
769.000000	 50.344610 
768.000000	 50.359535 
767.000000	 50.381565 
766.000000	 50.410127 
765.000000	 50.439405 
764.000000	 50.459074 
763.000000	 50.455260 
762.000000	 50.413799 
761.000000	 50.323748 
760.000000	 50.181007 
759.000000	 49.990749 
758.000000	 49.766921 
757.000000	 49.531650 
756.000000	 49.310827 
755.000000	 49.130010 
754.000000	 49.008655 
753.000000	 48.957991 
752.000000	 48.978257 
751.000000	 49.060583 
750.000000	 49.188041 
749.000000	 49.341368 
748.000000	 49.501442 
747.000000	 49.654126 
746.000000	 49.790573 
745.000000	 49.908542 
744.000000	 50.009679 
743.000000	 50.098013 
742.000000	 50.176548 
741.000000	 50.245952 
740.000000	 50.303030 
739.000000	 50.342321 
738.000000	 50.356769 
737.000000	 50.340342 
736.000000	 50.289154 
735.000000	 50.203919 
734.000000	 50.089120 
733.000000	 49.953031 
732.000000	 49.805927 
731.000000	 49.658775 
730.000000	 49.521803 
729.000000	 49.403142 
728.000000	 49.308562 
727.000000	 49.241352 
726.000000	 49.202799 
725.000000	 49.191808 
724.000000	 49.206542 
723.000000	 49.243402 
722.000000	 49.299073 
721.000000	 49.369239 
720.000000	 49.449944 
719.000000	 49.536037 
718.000000	 49.623155 
717.000000	 49.707388 
716.000000	 49.784755 
715.000000	 49.850964 
714.000000	 49.902510 
713.000000	 49.936795 
712.000000	 49.952054 
711.000000	 49.947428 
710.000000	 49.923920 
709.000000	 49.884009 
708.000000	 49.832320 
707.000000	 49.774384 
706.000000	 49.716424 
705.000000	 49.663615 
704.000000	 49.620509 
703.000000	 49.588942 
702.000000	 49.568295 
701.000000	 49.555182 
700.000000	 49.545145 
699.000000	 49.532318 
698.000000	 49.511027 
697.000000	 49.476599 
696.000000	 49.426651 
695.000000	 49.361109 
694.000000	 49.282169 
693.000000	 49.193692 
692.000000	 49.100279 
691.000000	 49.006485 
690.000000	 48.916077 
689.000000	 48.831319 
688.000000	 48.753428 
687.000000	 48.682880 
686.000000	 48.620438 
685.000000	 48.567104 
684.000000	 48.524689 
683.000000	 48.495793 
682.000000	 48.483538 
681.000000	 48.489689 
680.000000	 48.514556 
679.000000	 48.555660 
678.000000	 48.608160 
677.000000	 48.664951 
676.000000	 48.718214 
675.000000	 48.760724 
674.000000	 48.787164 
673.000000	 48.795413 
672.000000	 48.786282 
671.000000	 48.762655 
670.000000	 48.728990 
669.000000	 48.690247 
668.000000	 48.650860 
667.000000	 48.614311 
666.000000	 48.582863 
665.000000	 48.558115 
664.000000	 48.540735 
663.000000	 48.531055 
662.000000	 48.528933 
661.000000	 48.533940 
660.000000	 48.544454 
659.000000	 48.557615 
658.000000	 48.570084 
657.000000	 48.578619 
656.000000	 48.580574 
655.000000	 48.574280 
654.000000	 48.559808 
653.000000	 48.538112 
652.000000	 48.510527 
651.000000	 48.478412 
650.000000	 48.442363 
649.000000	 48.402929 
648.000000	 48.361063 
647.000000	 48.318600 
646.000000	 48.278999 
645.000000	 48.246097 
644.000000	 48.223471 
643.000000	 48.212575 
642.000000	 48.212242 
641.000000	 48.217988 
640.000000	 48.222661 
639.000000	 48.218607 
638.000000	 48.199439 
637.000000	 48.163414 
636.000000	 48.114013 
635.000000	 48.060107 
634.000000	 48.013806 
633.000000	 47.987294 
632.000000	 47.989201 
631.000000	 48.021507 
630.000000	 48.078560 
629.000000	 48.148584 
628.000000	 48.216342 
627.000000	 48.266696 
626.000000	 48.288536 
625.000000	 48.277378 
624.000000	 48.237109 
623.000000	 48.177170 
622.000000	 48.112082 
621.000000	 48.056960 
620.000000	 48.025393 
619.000000	 48.026323 
618.000000	 48.062515 
617.000000	 48.131179 
616.000000	 48.223733 
615.000000	 48.329043 
614.000000	 48.433661 
613.000000	 48.524475 
612.000000	 48.590278 
611.000000	 48.623108 
610.000000	 48.619914 
609.000000	 48.582458 
608.000000	 48.516774 
607.000000	 48.431611 
606.000000	 48.336553 
605.000000	 48.239612 
604.000000	 48.145914 
603.000000	 48.056697 
602.000000	 47.969698 
601.000000	 47.880625 
600.000000	 47.785592 
599.000000	 47.682809 
598.000000	 47.573733 
597.000000	 47.463178 
596.000000	 47.357678 
595.000000	 47.264933 
594.000000	 47.190451 
593.000000	 47.138190 
592.000000	 47.107458 
591.000000	 47.096061 
590.000000	 47.100639 
589.000000	 47.118520 
588.000000	 47.147989 
587.000000	 47.187280 
586.000000	 47.234177 
585.000000	 47.283864 
584.000000	 47.328329 
583.000000	 47.357296 
582.000000	 47.360062 
581.000000	 47.328019 
580.000000	 47.257637 
579.000000	 47.152447 
578.000000	 47.023725 
577.000000	 46.888637 
576.000000	 46.767163 
575.000000	 46.678137 
574.000000	 46.635031 
573.000000	 46.643447 
572.000000	 46.699738 
571.000000	 46.792292 
570.000000	 46.903514 
569.000000	 47.014808 
568.000000	 47.108960 
567.000000	 47.172451 
566.000000	 47.197437 
565.000000	 47.181653 
564.000000	 47.128605 
563.000000	 47.045254 
562.000000	 46.941399 
561.000000	 46.828198 
560.000000	 46.715927 
559.000000	 46.613478 
558.000000	 46.526932 
557.000000	 46.460080 
556.000000	 46.413755 
555.000000	 46.386575 
554.000000	 46.374869 
553.000000	 46.373605 
552.000000	 46.376276 
551.000000	 46.376180 
550.000000	 46.366500 
549.000000	 46.342229 
548.000000	 46.300554 
547.000000	 46.242499 
546.000000	 46.172666 
545.000000	 46.099019 
544.000000	 46.031212 
543.000000	 45.978879 
542.000000	 45.949506 
541.000000	 45.946383 
540.000000	 45.968341 
539.000000	 46.009063 
538.000000	 46.058225 
537.000000	 46.104073 
536.000000	 46.136093 
535.000000	 46.147513 
534.000000	 46.136188 
533.000000	 46.105670 
532.000000	 46.063613 
531.000000	 46.020221 
530.000000	 45.985436 
529.000000	 45.966553 
528.000000	 45.966458 
527.000000	 45.983314 
526.000000	 46.011471 
525.000000	 46.043467 
524.000000	 46.072053 
523.000000	 46.091938 
522.000000	 46.100568 
521.000000	 46.098542 
520.000000	 46.088147 
519.000000	 46.072149 
518.000000	 46.051812 
517.000000	 46.026372 
516.000000	 45.992565 
515.000000	 45.946288 
514.000000	 45.883965 
513.000000	 45.804786 
512.000000	 45.711565 
511.000000	 45.611119 
510.000000	 45.513510 
509.000000	 45.429682 
508.000000	 45.369505 
507.000000	 45.339202 
506.000000	 45.339989 
505.000000	 45.367932 
504.000000	 45.413994 
503.000000	 45.466327 
502.000000	 45.510959 
501.000000	 45.534563 
500.000000	 45.526170 
499.000000	 45.479226 
498.000000	 45.391845 
497.000000	 45.267462 
496.000000	 45.115089 
495.000000	 44.947910 
494.000000	 44.781923 
493.000000	 44.632768 
492.000000	 44.514203 
491.000000	 44.434452 
490.000000	 44.394540 
489.000000	 44.387865 
488.000000	 44.401907 
487.000000	 44.421648 
486.000000	 44.430994 
485.000000	 44.419169 
484.000000	 44.382572 
483.000000	 44.326043 
482.000000	 44.258856 
481.000000	 44.194436 
480.000000	 44.144773 
479.000000	 44.119644 
478.000000	 44.123935 
477.000000	 44.157433 
476.000000	 44.214963 
475.000000	 44.289088 
474.000000	 44.372129 
473.000000	 44.457340 
472.000000	 44.539809 
471.000000	 44.618177 
470.000000	 44.693541 
469.000000	 44.768071 
468.000000	 44.843339 
467.000000	 44.917058 
466.000000	 44.984745 
465.000000	 45.040059 
464.000000	 45.079588 
463.000000	 45.104360 
462.000000	 45.123314 
461.000000	 45.153164 
460.000000	 45.214867 
459.000000	 45.328998 
458.000000	 45.507669 
457.000000	 45.752692 
456.000000	 46.047878 
455.000000	 46.362161 
454.000000	 46.651887 
453.000000	 46.873116 
452.000000	 46.986055 
451.000000	 46.965479 
450.000000	 46.804714 
449.000000	 46.518754 
448.000000	 46.138978 
447.000000	 45.708012 
446.000000	 45.270490 
445.000000	 44.865560 
444.000000	 44.528174 
443.000000	 44.285655 
442.000000	 44.152164 
441.000000	 44.128084 
440.000000	 44.207262 
439.000000	 44.375681 
438.000000	 44.603586 
437.000000	 44.855189 
436.000000	 45.092868 
435.000000	 45.286726 
434.000000	 45.415806 
433.000000	 45.476317 
432.000000	 45.475816 
431.000000	 45.437550 
430.000000	 45.391297 
429.000000	 45.372200 
428.000000	 45.411086 
427.000000	 45.530772 
426.000000	 45.752620 
425.000000	 46.071338 
424.000000	 46.449112 
423.000000	 46.831727 
422.000000	 47.164821 
421.000000	 47.392487 
420.000000	 47.470116 
419.000000	 47.359800 
418.000000	 47.034454 
417.000000	 46.472287 
416.000000	 45.658206 
415.000000	 44.592642 
414.000000	 43.297600 
413.000000	 41.796803 
412.000000	 40.140390 
411.000000	 38.416218 
410.000000	 36.752486 
409.000000	 35.322499 
408.000000	 34.299230 
407.000000	 33.806753 
406.000000	 33.893060 
405.000000	 34.488701 
404.000000	 35.463476 
403.000000	 36.554789 
402.000000	 37.587857 
401.000000	 38.507628 
400.000000	 39.449572 
399.000000	 40.755152 
398.000000	 42.757463 
397.000000	 45.635128 
396.000000	 49.305391 
395.000000	 53.383493 
394.000000	 57.274532 
393.000000	 60.311150 
392.000000	 61.989450 
391.000000	 62.129640 
390.000000	 60.882735 
389.000000	 58.723568 
388.000000	 56.316614 
387.000000	 54.360222 
386.000000	 53.559517 
385.000000	 54.348659 
384.000000	 56.887555 
383.000000	 60.826921 
382.000000	 65.345454 
381.000000	 69.261288 
380.000000	 71.211457 
379.000000	 70.113658 
378.000000	 65.409159 
377.000000	 57.403564 
376.000000	 47.189760 
375.000000	 36.572146 
374.000000	 27.615618 
373.000000	 22.245550 
372.000000	 21.758699 
371.000000	 26.561522 
370.000000	 36.061143 

