PE IR       SPECTRUM    SPECTRUM    ASCII       PEDS        1.60        
  -1
C-1C61~1.ASC
17/03/27
18:36:59.00
17/03/27
18:36:59.00
tln
$C-4040-8_t0050$<tbV0>[0.0,-2.6,8.0,0.0,27,1,0]
370.000000
64









2002,4.07    
MIRTGS : RIGHTBACK : INTERNAL 2
MIR : ON : INTERNAL 2
OPTKBR

0.200000
8
8.000000
FILLER
RATIO
SPECTRUM
UNLOCKED 256

DOUBLE
64
COMBINED
1
0
0


1.000000
RATIO


1
0
TRUE
51149
0
LEFT NOT FITTED RIGHT NOT FITTED 0
NONE
NONE
15600
12.000000
4.427000
51148
TRUE
1 0 8 72 0 0 0 0 

15798.010000






#HDR
-1
-1
#GR
CM-1
%T
0.00002384185791015625
0.0
5000.000000
-1.000000
4631
8
76.939606
24.644303
#DATA
5000.000000	63.839101 
4999.000000	63.880729 
4998.000000	63.922882 
4997.000000	63.962125 
4996.000000	63.998627 
4995.000000	64.035749 
4994.000000	64.079499 
4993.000000	64.137029 
4992.000000	64.212584 
4991.000000	64.305758 
4990.000000	64.409017 
4989.000000	64.509820 
4988.000000	64.590597 
4987.000000	64.633464 
4986.000000	64.623928 
4985.000000	64.555501 
4984.000000	64.431500 
4983.000000	64.265608 
4982.000000	64.079856 
4981.000000	63.900470 
4980.000000	63.752651 
4979.000000	63.654899 
4978.000000	63.616514 
4977.000000	63.634824 
4976.000000	63.696599 
4975.000000	63.780641 
4974.000000	63.862848 
4973.000000	63.922095 
4972.000000	63.942861 
4971.000000	63.920545 
4970.000000	63.859081 
4969.000000	63.772606 
4968.000000	63.680052 
4967.000000	63.602519 
4966.000000	63.557887 
4965.000000	63.557720 
4964.000000	63.605475 
4963.000000	63.695788 
4962.000000	63.816761 
4961.000000	63.952040 
4960.000000	64.084959 
4959.000000	64.201211 
4958.000000	64.291143 
4957.000000	64.351153 
4956.000000	64.383149 
4955.000000	64.393329 
4954.000000	64.389753 
4953.000000	64.381361 
4952.000000	64.375734 
4951.000000	64.378762 
4950.000000	64.393639 
4949.000000	64.421105 
4948.000000	64.459252 
4947.000000	64.505529 
4946.000000	64.555954 
4945.000000	64.606261 
4944.000000	64.652037 
4943.000000	64.689016 
4942.000000	64.714431 
4941.000000	64.726924 
4940.000000	64.727497 
4939.000000	64.718794 
4938.000000	64.705157 
4937.000000	64.691734 
4936.000000	64.683437 
4935.000000	64.684319 
4934.000000	64.696049 
4933.000000	64.718294 
4932.000000	64.747738 
4931.000000	64.778947 
4930.000000	64.805340 
4929.000000	64.820671 
4928.000000	64.819169 
4927.000000	64.796710 
4926.000000	64.752221 
4925.000000	64.688062 
4924.000000	64.609551 
4923.000000	64.524030 
4922.000000	64.439940 
4921.000000	64.365410 
4920.000000	64.306855 
4919.000000	64.268231 
4918.000000	64.250683 
4917.000000	64.252734 
4916.000000	64.269995 
4915.000000	64.297032 
4914.000000	64.328026 
4913.000000	64.357995 
4912.000000	64.382839 
4911.000000	64.400029 
4910.000000	64.408516 
4909.000000	64.407873 
4908.000000	64.398050 
4907.000000	64.378023 
4906.000000	64.346027 
4905.000000	64.299464 
4904.000000	64.236330 
4903.000000	64.155507 
4902.000000	64.058256 
4901.000000	63.949203 
4900.000000	63.836407 
4899.000000	63.730645 
4898.000000	63.643360 
4897.000000	63.584780 
4896.000000	63.560938 
4895.000000	63.571929 
4894.000000	63.611268 
4893.000000	63.666486 
4892.000000	63.722062 
4891.000000	63.762259 
4890.000000	63.775539 
4889.000000	63.756299 
4888.000000	63.706994 
4887.000000	63.636136 
4886.000000	63.557171 
4885.000000	63.484358 
4884.000000	63.430142 
4883.000000	63.402199 
4882.000000	63.402366 
4881.000000	63.427400 
4880.000000	63.469886 
4879.000000	63.520932 
4878.000000	63.572406 
4877.000000	63.619112 
4876.000000	63.659548 
4875.000000	63.695549 
4874.000000	63.730859 
4873.000000	63.769030 
4872.000000	63.811779 
4871.000000	63.857698 
4870.000000	63.902640 
4869.000000	63.940024 
4868.000000	63.962531 
4867.000000	63.963770 
4866.000000	63.941049 
4865.000000	63.895940 
4864.000000	63.833761 
4863.000000	63.763165 
4862.000000	63.694071 
4861.000000	63.636350 
4860.000000	63.597297 
4859.000000	63.581609 
4858.000000	63.590121 
4857.000000	63.621473 
4856.000000	63.673138 
4855.000000	63.741803 
4854.000000	63.824391 
4853.000000	63.916540 
4852.000000	64.012432 
4851.000000	64.103817 
4850.000000	64.180421 
4849.000000	64.231038 
4848.000000	64.245700 
4847.000000	64.217996 
4846.000000	64.147377 
4845.000000	64.040350 
4844.000000	63.909935 
4843.000000	63.774037 
4842.000000	63.651823 
4841.000000	63.560867 
4840.000000	63.512802 
4839.000000	63.511824 
4838.000000	63.553690 
4837.000000	63.627362 
4836.000000	63.717579 
4835.000000	63.807845 
4834.000000	63.884305 
4833.000000	63.937211 
4832.000000	63.963270 
4831.000000	63.964271 
4830.000000	63.946700 
4829.000000	63.918828 
4828.000000	63.888764 
4827.000000	63.863086 
4826.000000	63.844704 
4825.000000	63.833117 
4824.000000	63.825297 
4823.000000	63.817548 
4822.000000	63.807010 
4821.000000	63.792920 
4820.000000	63.777184 
4819.000000	63.763761 
4818.000000	63.757419 
4817.000000	63.761997 
4816.000000	63.778543 
4815.000000	63.804817 
4814.000000	63.835406 
4813.000000	63.863253 
4812.000000	63.881707 
4811.000000	63.886737 
4810.000000	63.877964 
4809.000000	63.859295 
4808.000000	63.837814 
4807.000000	63.821816 
4806.000000	63.818359 
4805.000000	63.831281 
4804.000000	63.859295 
4803.000000	63.897824 
4802.000000	63.940763 
4801.000000	63.982677 
4800.000000	64.020204 
4799.000000	64.054179 
4798.000000	64.089226 
4797.000000	64.131760 
4796.000000	64.187479 
4795.000000	64.258980 
4794.000000	64.344000 
4793.000000	64.435148 
4792.000000	64.521288 
4791.000000	64.590311 
4790.000000	64.632010 
4789.000000	64.641022 
4788.000000	64.617776 
4787.000000	64.568758 
4786.000000	64.504098 
4785.000000	64.435744 
4784.000000	64.373397 
4783.000000	64.323425 
4782.000000	64.286398 
4781.000000	64.259290 
4780.000000	64.235353 
4779.000000	64.207792 
4778.000000	64.170646 
4777.000000	64.121198 
4776.000000	64.059853 
4775.000000	63.989400 
4774.000000	63.914513 
4773.000000	63.839745 
4772.000000	63.769125 
4771.000000	63.705492 
4770.000000	63.650250 
4769.000000	63.603687 
4768.000000	63.565349 
4767.000000	63.534569 
4766.000000	63.510084 
4765.000000	63.490533 
4764.000000	63.474559 
4763.000000	63.461518 
4762.000000	63.450741 
4761.000000	63.442420 
4760.000000	63.437557 
4759.000000	63.438057 
4758.000000	63.445496 
4757.000000	63.461184 
4756.000000	63.485169 
4755.000000	63.516139 
4754.000000	63.551521 
4753.000000	63.587927 
4752.000000	63.621592 
4751.000000	63.649630 
4750.000000	63.671016 
4749.000000	63.685894 
4748.000000	63.695240 
4747.000000	63.700246 
4746.000000	63.702249 
4745.000000	63.701868 
4744.000000	63.698911 
4743.000000	63.693189 
4742.000000	63.684916 
4741.000000	63.674449 
4740.000000	63.662409 
4739.000000	63.649892 
4738.000000	63.638305 
4737.000000	63.628840 
4736.000000	63.621950 
4735.000000	63.617515 
4734.000000	63.614773 
4733.000000	63.612198 
4732.000000	63.608145 
4731.000000	63.600921 
4730.000000	63.589930 
4729.000000	63.575363 
4728.000000	63.559150 
4727.000000	63.543820 
4726.000000	63.532876 
4725.000000	63.529968 
4724.000000	63.538098 
4723.000000	63.558936 
4722.000000	63.592290 
4721.000000	63.635897 
4720.000000	63.685894 
4719.000000	63.737130 
4718.000000	63.784885 
4717.000000	63.825678 
4716.000000	63.857865 
4715.000000	63.881683 
4714.000000	63.898682 
4713.000000	63.910913 
4712.000000	63.920116 
4711.000000	63.926959 
4710.000000	63.931465 
4709.000000	63.932943 
4708.000000	63.930797 
4707.000000	63.924598 
4706.000000	63.914513 
4705.000000	63.900995 
4704.000000	63.884615 
4703.000000	63.866114 
4702.000000	63.846254 
4701.000000	63.826107 
4700.000000	63.806891 
4699.000000	63.790178 
4698.000000	63.777947 
4697.000000	63.771867 
4696.000000	63.773369 
4695.000000	63.782238 
4694.000000	63.796591 
4693.000000	63.812756 
4692.000000	63.825869 
4691.000000	63.831305 
4690.000000	63.825893 
4689.000000	63.808703 
4688.000000	63.781499 
4687.000000	63.748002 
4686.000000	63.713145 
4685.000000	63.681340 
4684.000000	63.655471 
4683.000000	63.636565 
4682.000000	63.623857 
4681.000000	63.615441 
4680.000000	63.608646 
4679.000000	63.600802 
4678.000000	63.589811 
4677.000000	63.574385 
4676.000000	63.554930 
4675.000000	63.532543 
4674.000000	63.509845 
4673.000000	63.489985 
4672.000000	63.476634 
4671.000000	63.473200 
4670.000000	63.482356 
4669.000000	63.505077 
4668.000000	63.540482 
4667.000000	63.585448 
4666.000000	63.635134 
4665.000000	63.683652 
4664.000000	63.725590 
4663.000000	63.756942 
4662.000000	63.775944 
4661.000000	63.783216 
4660.000000	63.780450 
4659.000000	63.769888 
4658.000000	63.753294 
4657.000000	63.732028 
4656.000000	63.707351 
4655.000000	63.681244 
4654.000000	63.657188 
4653.000000	63.639831 
4652.000000	63.634300 
4651.000000	63.644909 
4650.000000	63.673877 
4649.000000	63.720059 
4648.000000	63.778662 
4647.000000	63.842129 
4646.000000	63.901448 
4645.000000	63.947987 
4644.000000	63.975381 
4643.000000	63.980603 
4642.000000	63.964581 
4641.000000	63.931488 
4640.000000	63.887548 
4639.000000	63.839459 
4638.000000	63.793110 
4637.000000	63.753175 
4636.000000	63.723015 
4635.000000	63.704538 
4634.000000	63.698697 
4633.000000	63.704872 
4632.000000	63.721179 
4631.000000	63.744091 
4630.000000	63.768792 
4629.000000	63.789916 
4628.000000	63.802623 
4627.000000	63.803672 
4626.000000	63.792300 
4625.000000	63.770627 
4624.000000	63.743138 
4623.000000	63.715648 
4622.000000	63.694119 
4621.000000	63.683366 
4620.000000	63.685917 
4619.000000	63.701486 
4618.000000	63.726758 
4617.000000	63.756823 
4616.000000	63.785648 
4615.000000	63.807582 
4614.000000	63.818216 
4613.000000	63.815140 
4612.000000	63.798213 
4611.000000	63.769102 
4610.000000	63.731718 
4609.000000	63.691186 
4608.000000	63.653659 
4607.000000	63.625335 
4606.000000	63.611435 
4605.000000	63.615274 
4604.000000	63.637709 
4603.000000	63.676953 
4602.000000	63.728642 
4601.000000	63.785862 
4600.000000	63.840532 
4599.000000	63.884139 
4598.000000	63.909101 
4597.000000	63.909745 
4596.000000	63.883233 
4595.000000	63.830208 
4594.000000	63.754606 
4593.000000	63.663768 
4592.000000	63.567304 
4591.000000	63.475966 
4590.000000	63.400101 
4589.000000	63.348054 
4588.000000	63.325119 
4587.000000	63.331818 
4586.000000	63.364315 
4585.000000	63.414716 
4584.000000	63.472247 
4583.000000	63.526535 
4582.000000	63.569307 
4581.000000	63.596439 
4580.000000	63.608121 
4579.000000	63.608288 
4578.000000	63.602757 
4577.000000	63.597583 
4576.000000	63.597083 
4575.000000	63.602757 
4574.000000	63.612985 
4573.000000	63.624191 
4572.000000	63.632082 
4571.000000	63.633322 
4570.000000	63.626646 
4569.000000	63.613343 
4568.000000	63.596868 
4567.000000	63.581895 
4566.000000	63.572955 
4565.000000	63.573360 
4564.000000	63.583922 
4563.000000	63.602876 
4562.000000	63.625621 
4561.000000	63.647007 
4560.000000	63.660883 
4559.000000	63.661551 
4558.000000	63.645339 
4557.000000	63.610720 
4556.000000	63.560461 
4555.000000	63.501119 
4554.000000	63.442206 
4553.000000	63.394236 
4552.000000	63.366270 
4551.000000	63.363695 
4550.000000	63.386249 
4549.000000	63.428092 
4548.000000	63.478517 
4547.000000	63.524985 
4546.000000	63.555669 
4545.000000	63.562917 
4544.000000	63.544154 
4543.000000	63.503646 
4542.000000	63.450431 
4541.000000	63.397431 
4540.000000	63.358283 
4539.000000	63.344883 
4538.000000	63.365149 
4537.000000	63.420653 
4536.000000	63.507390 
4535.000000	63.614606 
4534.000000	63.728356 
4533.000000	63.831782 
4532.000000	63.908481 
4531.000000	63.945150 
4530.000000	63.933658 
4529.000000	63.873457 
4528.000000	63.771581 
4527.000000	63.642525 
4526.000000	63.505530 
4525.000000	63.381743 
4524.000000	63.290119 
4523.000000	63.244032 
4522.000000	63.249301 
4521.000000	63.302755 
4520.000000	63.393878 
4519.000000	63.507032 
4518.000000	63.625311 
4517.000000	63.733410 
4516.000000	63.820886 
4515.000000	63.882493 
4514.000000	63.919019 
4513.000000	63.935279 
4512.000000	63.938379 
4511.000000	63.935303 
4510.000000	63.930988 
4509.000000	63.927912 
4508.000000	63.925790 
4507.000000	63.923668 
4506.000000	63.919901 
4505.000000	63.914227 
4504.000000	63.907170 
4503.000000	63.900375 
4502.000000	63.895773 
4501.000000	63.894963 
4500.000000	63.898134 
4499.000000	63.903641 
4498.000000	63.908958 
4497.000000	63.911318 
4496.000000	63.909125 
4495.000000	63.902592 
4494.000000	63.893961 
4493.000000	63.886809 
4492.000000	63.885307 
4491.000000	63.892698 
4490.000000	63.909721 
4489.000000	63.934612 
4488.000000	63.962650 
4487.000000	63.988542 
4486.000000	64.008140 
4485.000000	64.019751 
4484.000000	64.024949 
4483.000000	64.027404 
4482.000000	64.032101 
4481.000000	64.042735 
4480.000000	64.060521 
4479.000000	64.083027 
4478.000000	64.104866 
4477.000000	64.119148 
4476.000000	64.119768 
4475.000000	64.102911 
4474.000000	64.068722 
4473.000000	64.021062 
4472.000000	63.966894 
4471.000000	63.914680 
4470.000000	63.872289 
4469.000000	63.845109 
4468.000000	63.834738 
4467.000000	63.838911 
4466.000000	63.852167 
4465.000000	63.867831 
4464.000000	63.879537 
4463.000000	63.882470 
4462.000000	63.874816 
4461.000000	63.857579 
4460.000000	63.834738 
4459.000000	63.811540 
4458.000000	63.793945 
4457.000000	63.786411 
4456.000000	63.791418 
4455.000000	63.808846 
4454.000000	63.836026 
4453.000000	63.868689 
4452.000000	63.902139 
4451.000000	63.932919 
4450.000000	63.958811 
4449.000000	63.979411 
4448.000000	63.994598 
4447.000000	64.003896 
4446.000000	64.005589 
4445.000000	63.996887 
4444.000000	63.975238 
4443.000000	63.939476 
4442.000000	63.891959 
4441.000000	63.839197 
4440.000000	63.791179 
4439.000000	63.759589 
4438.000000	63.755726 
4437.000000	63.787221 
4436.000000	63.855314 
4435.000000	63.953781 
4434.000000	64.069962 
4433.000000	64.186835 
4432.000000	64.286851 
4431.000000	64.355254 
4430.000000	64.383339 
4429.000000	64.369654 
4428.000000	64.319944 
4427.000000	64.245200 
4426.000000	64.159011 
4425.000000	64.073991 
4424.000000	63.999748 
4423.000000	63.941359 
4422.000000	63.899827 
4421.000000	63.873219 
4420.000000	63.859248 
4419.000000	63.855838 
4418.000000	63.862347 
4417.000000	63.879466 
4416.000000	63.909101 
4415.000000	63.952302 
4414.000000	64.008593 
4413.000000	64.076495 
4412.000000	64.153194 
4411.000000	64.235782 
4410.000000	64.320755 
4409.000000	64.403653 
4408.000000	64.479279 
4407.000000	64.542508 
4406.000000	64.588451 
4405.000000	64.612913 
4404.000000	64.613461 
4403.000000	64.590907 
4402.000000	64.548683 
4401.000000	64.493489 
4400.000000	64.433336 
4399.000000	64.377021 
4398.000000	64.330887 
4397.000000	64.300274 
4396.000000	64.284372 
4395.000000	64.274907 
4394.000000	64.262366 
4393.000000	64.242219 
4392.000000	64.207887 
4391.000000	64.151167 
4390.000000	64.069175 
4389.000000	63.966441 
4388.000000	63.847589 
4387.000000	63.718819 
4386.000000	63.592076 
4385.000000	63.483309 
4384.000000	63.418006 
4383.000000	63.422679 
4382.000000	63.503241 
4381.000000	63.649511 
4380.000000	63.846015 
4379.000000	64.071464 
4378.000000	64.297270 
4377.000000	64.498686 
4376.000000	64.661765 
4375.000000	64.781570 
4374.000000	64.870429 
4373.000000	64.934325 
4372.000000	64.981675 
4371.000000	64.988398 
4370.000000	64.908456 
4369.000000	64.662408 
4368.000000	64.163923 
4367.000000	63.332605 
4366.000000	62.129807 
4365.000000	60.557484 
4364.000000	58.675670 
4363.000000	56.571531 
4362.000000	54.361414 
4361.000000	52.174353 
4360.000000	50.163125 
4359.000000	48.534584 
4358.000000	47.539591 
4357.000000	47.455573 
4356.000000	48.519229 
4355.000000	50.850391 
4354.000000	54.390263 
4353.000000	58.851838 
4352.000000	63.763332 
4351.000000	68.537378 
4350.000000	72.590899 
4349.000000	75.467085 
4348.000000	76.916313 
4347.000000	76.939606 
4346.000000	75.762653 
4345.000000	73.778080 
4344.000000	71.432971 
4343.000000	69.141769 
4342.000000	67.194223 
4341.000000	65.745639 
4340.000000	64.793753 
4339.000000	64.245796 
4338.000000	63.955545 
4337.000000	63.802194 
4336.000000	63.697814 
4335.000000	63.611602 
4334.000000	63.544988 
4333.000000	63.518309 
4332.000000	63.548564 
4331.000000	63.639068 
4330.000000	63.783740 
4329.000000	63.966250 
4328.000000	64.166760 
4327.000000	64.365124 
4326.000000	64.545583 
4325.000000	64.697194 
4324.000000	64.816546 
4323.000000	64.903926 
4322.000000	64.953684 
4321.000000	64.960694 
4320.000000	64.931750 
4319.000000	64.873886 
4318.000000	64.788627 
4317.000000	64.679193 
4316.000000	64.558625 
4315.000000	64.437842 
4314.000000	64.325690 
4313.000000	64.225053 
4312.000000	64.130306 
4311.000000	64.037704 
4310.000000	63.950610 
4309.000000	63.870239 
4308.000000	63.795709 
4307.000000	63.726830 
4306.000000	63.664174 
4305.000000	63.608694 
4304.000000	63.561987 
4303.000000	63.526463 
4302.000000	63.504576 
4301.000000	63.497638 
4300.000000	63.505649 
4299.000000	63.525199 
4298.000000	63.551402 
4297.000000	63.578677 
4296.000000	63.602757 
4295.000000	63.620471 
4294.000000	63.631701 
4293.000000	63.639044 
4292.000000	63.647103 
4291.000000	63.660717 
4290.000000	63.683724 
4289.000000	63.717579 
4288.000000	63.761091 
4287.000000	63.810944 
4286.000000	63.861918 
4285.000000	63.908338 
4284.000000	63.945674 
4283.000000	63.971710 
4282.000000	63.986206 
4281.000000	63.990759 
4280.000000	63.987994 
4279.000000	63.980531 
4278.000000	63.969802 
4277.000000	63.955402 
4276.000000	63.935828 
4275.000000	63.908863 
4274.000000	63.872981 
4273.000000	63.828063 
4272.000000	63.776063 
4271.000000	63.721036 
4270.000000	63.667869 
4269.000000	63.622307 
4268.000000	63.588857 
4267.000000	63.571119 
4266.000000	63.570475 
4265.000000	63.586783 
4264.000000	63.618135 
4263.000000	63.661527 
4262.000000	63.713002 
4261.000000	63.768029 
4260.000000	63.821554 
4259.000000	63.868403 
4258.000000	63.903737 
4257.000000	63.923573 
4256.000000	63.925409 
4255.000000	63.908576 
4254.000000	63.874506 
4253.000000	63.826298 
4252.000000	63.767862 
4251.000000	63.702940 
4250.000000	63.634490 
4249.000000	63.563966 
4248.000000	63.492131 
4247.000000	63.419389 
4246.000000	63.347268 
4245.000000	63.278937 
4244.000000	63.219881 
4243.000000	63.176560 
4242.000000	63.155770 
4241.000000	63.162016 
4240.000000	63.196754 
4239.000000	63.256835 
4238.000000	63.335537 
4237.000000	63.422560 
4236.000000	63.506865 
4235.000000	63.578200 
4234.000000	63.629555 
4233.000000	63.657760 
4232.000000	63.663959 
4231.000000	63.652634 
4230.000000	63.629746 
4229.000000	63.600993 
4228.000000	63.570427 
4227.000000	63.539958 
4226.000000	63.509440 
4225.000000	63.477540 
4224.000000	63.443493 
4223.000000	63.407945 
4222.000000	63.374018 
4221.000000	63.346433 
4220.000000	63.329291 
4219.000000	63.324928 
4218.000000	63.333344 
4217.000000	63.351511 
4216.000000	63.374066 
4215.000000	63.394260 
4214.000000	63.406300 
4213.000000	63.406014 
4212.000000	63.391876 
4211.000000	63.365101 
4210.000000	63.328790 
4209.000000	63.287830 
4208.000000	63.247942 
4207.000000	63.214278 
4206.000000	63.190555 
4205.000000	63.177824 
4204.000000	63.174486 
4203.000000	63.175678 
4202.000000	63.174724 
4201.000000	63.164281 
4200.000000	63.138842 
4199.000000	63.096284 
4198.000000	63.039660 
4197.000000	62.977862 
4196.000000	62.924408 
4195.000000	62.895298 
4194.000000	62.904763 
4193.000000	62.961101 
4192.000000	63.063883 
4191.000000	63.203334 
4190.000000	63.361358 
4189.000000	63.515639 
4188.000000	63.643717 
4187.000000	63.728451 
4186.000000	63.760566 
4185.000000	63.740015 
4184.000000	63.675212 
4183.000000	63.579916 
4182.000000	63.470864 
4181.000000	63.364219 
4180.000000	63.273024 
4179.000000	63.206434 
4178.000000	63.167929 
4177.000000	63.156819 
4176.000000	63.168430 
4175.000000	63.196349 
4174.000000	63.232350 
4173.000000	63.268280 
4172.000000	63.296794 
4171.000000	63.312983 
4170.000000	63.315653 
4169.000000	63.308048 
4168.000000	63.297200 
4167.000000	63.292384 
4166.000000	63.303041 
4165.000000	63.335800 
4164.000000	63.392472 
4163.000000	63.468384 
4162.000000	63.554215 
4161.000000	63.636612 
4160.000000	63.701534 
4159.000000	63.737034 
4158.000000	63.736271 
4157.000000	63.698720 
4156.000000	63.629508 
4155.000000	63.539743 
4154.000000	63.443732 
4153.000000	63.356852 
4152.000000	63.292384 
4151.000000	63.259363 
4150.000000	63.261222 
4149.000000	63.295698 
4148.000000	63.355946 
4147.000000	63.431477 
4146.000000	63.510370 
4145.000000	63.581275 
4144.000000	63.635158 
4143.000000	63.666677 
4142.000000	63.674092 
4141.000000	63.659167 
4140.000000	63.625574 
4139.000000	63.577437 
4138.000000	63.517808 
4137.000000	63.448977 
4136.000000	63.372015 
4135.000000	63.287925 
4134.000000	63.198375 
4133.000000	63.107013 
4132.000000	63.019037 
4131.000000	62.940812 
4130.000000	62.878370 
4129.000000	62.835526 
4128.000000	62.813496 
4127.000000	62.810206 
4126.000000	62.820911 
4125.000000	62.838840 
4124.000000	62.857246 
4123.000000	62.870311 
4122.000000	62.874865 
4121.000000	62.870454 
4120.000000	62.859201 
4119.000000	62.844681 
4118.000000	62.831211 
4117.000000	62.822771 
4116.000000	62.822699 
4115.000000	62.833786 
4114.000000	62.857866 
4113.000000	62.896060 
4112.000000	62.949466 
4111.000000	63.018131 
4110.000000	63.101005 
4109.000000	63.194847 
4108.000000	63.293957 
4107.000000	63.390302 
4106.000000	63.474965 
4105.000000	63.539242 
4104.000000	63.576197 
4103.000000	63.582324 
4102.000000	63.559126 
4101.000000	63.512086 
4100.000000	63.449978 
4099.000000	63.382863 
4098.000000	63.320899 
4097.000000	63.271784 
4096.000000	63.240122 
4095.000000	63.226842 
4094.000000	63.230013 
4093.000000	63.245558 
4092.000000	63.268661 
4091.000000	63.294291 
4090.000000	63.318300 
4089.000000	63.337206 
4088.000000	63.348817 
4087.000000	63.351368 
4086.000000	63.344287 
4085.000000	63.328337 
4084.000000	63.305783 
4083.000000	63.280177 
4082.000000	63.255834 
4081.000000	63.237428 
4080.000000	63.228940 
4079.000000	63.232755 
4078.000000	63.249444 
4077.000000	63.278079 
4076.000000	63.316035 
4075.000000	63.359808 
4074.000000	63.405394 
4073.000000	63.449263 
4072.000000	63.488221 
4071.000000	63.519382 
4070.000000	63.540601 
4069.000000	63.550353 
4068.000000	63.548278 
4067.000000	63.535308 
4066.000000	63.513612 
4065.000000	63.486433 
4064.000000	63.457655 
4063.000000	63.431215 
4062.000000	63.409686 
4061.000000	63.393712 
4060.000000	63.381433 
4059.000000	63.369250 
4058.000000	63.353085 
4057.000000	63.330054 
4056.000000	63.299298 
4055.000000	63.263058 
4054.000000	63.226032 
4053.000000	63.194537 
4052.000000	63.174676 
4051.000000	63.170599 
4050.000000	63.183021 
4049.000000	63.209033 
4048.000000	63.242888 
4047.000000	63.277196 
4046.000000	63.304710 
4045.000000	63.320493 
4044.000000	63.322806 
4043.000000	63.313579 
4042.000000	63.297724 
4041.000000	63.281250 
4040.000000	63.269495 
4039.000000	63.265657 
4038.000000	63.269853 
4037.000000	63.279104 
4036.000000	63.288354 
4035.000000	63.291573 
4034.000000	63.283514 
4033.000000	63.261222 
4032.000000	63.224792 
4031.000000	63.177132 
4030.000000	63.123655 
4029.000000	63.070631 
4028.000000	63.024687 
4027.000000	62.991142 
4026.000000	62.973880 
4025.000000	62.974476 
4024.000000	62.992954 
4023.000000	63.027882 
4022.000000	63.077068 
4021.000000	63.137555 
4020.000000	63.205766 
4019.000000	63.277292 
4018.000000	63.347125 
4017.000000	63.409495 
4016.000000	63.458847 
4015.000000	63.490438 
4014.000000	63.501214 
4013.000000	63.490438 
4012.000000	63.460206 
4011.000000	63.415312 
4010.000000	63.362598 
4009.000000	63.310003 
4008.000000	63.265180 
4007.000000	63.233876 
4006.000000	63.219523 
4005.000000	63.222050 
4004.000000	63.238072 
4003.000000	63.261365 
4002.000000	63.284373 
4001.000000	63.299918 
4000.000000	63.302111 
3999.000000	63.288354 
3998.000000	63.259410 
3997.000000	63.219451 
3996.000000	63.174462 
3995.000000	63.131189 
3994.000000	63.095641 
3993.000000	63.071060 
3992.000000	63.057851 
3991.000000	63.052964 
3990.000000	63.051438 
3989.000000	63.047623 
3988.000000	63.037133 
3987.000000	63.017773 
3986.000000	62.990093 
3985.000000	62.957143 
3984.000000	62.923693 
3983.000000	62.894535 
3982.000000	62.873220 
3981.000000	62.861752 
3980.000000	62.860298 
3979.000000	62.867665 
3978.000000	62.881946 
3977.000000	62.900924 
3976.000000	62.922859 
3975.000000	62.946581 
3974.000000	62.971735 
3973.000000	62.997865 
3972.000000	63.024783 
3971.000000	63.051891 
3970.000000	63.078594 
3969.000000	63.104009 
3968.000000	63.127303 
3967.000000	63.148283 
3966.000000	63.166785 
3965.000000	63.183116 
3964.000000	63.197302 
3963.000000	63.209438 
3962.000000	63.219022 
3961.000000	63.225245 
3960.000000	63.226795 
3959.000000	63.222408 
3958.000000	63.211202 
3957.000000	63.193130 
3956.000000	63.168787 
3955.000000	63.139677 
3954.000000	63.108086 
3953.000000	63.076925 
3952.000000	63.049149 
3951.000000	63.027477 
3950.000000	63.013982 
3949.000000	63.010096 
3948.000000	63.016152 
3947.000000	63.031864 
3946.000000	63.056302 
3945.000000	63.088321 
3944.000000	63.126444 
3943.000000	63.169002 
3942.000000	63.213992 
3941.000000	63.259124 
3940.000000	63.301849 
3939.000000	63.339281 
3938.000000	63.368654 
3937.000000	63.387179 
3936.000000	63.392901 
3935.000000	63.384175 
3934.000000	63.360476 
3933.000000	63.322019 
3932.000000	63.270306 
3931.000000	63.207650 
3930.000000	63.137221 
3929.000000	63.062620 
3928.000000	62.987637 
3927.000000	62.915754 
3926.000000	62.849783 
3925.000000	62.791538 
3924.000000	62.742185 
3923.000000	62.701892 
3922.000000	62.671065 
3921.000000	62.649822 
3920.000000	62.639451 
3919.000000	62.641167 
3918.000000	62.656950 
3917.000000	62.687921 
3916.000000	62.734293 
3915.000000	62.793898 
3914.000000	62.862491 
3913.000000	62.933325 
3912.000000	62.998771 
3911.000000	63.051581 
3910.000000	63.086175 
3909.000000	63.100075 
3908.000000	63.093876 
3907.000000	63.071084 
3906.000000	63.037157 
3905.000000	62.998509 
3904.000000	62.960791 
3903.000000	62.928032 
3902.000000	62.902355 
3901.000000	62.884211 
3900.000000	62.872624 
3899.000000	62.866115 
3898.000000	62.863445 
3897.000000	62.864518 
3896.000000	62.869858 
3895.000000	62.880945 
3894.000000	62.899208 
3893.000000	62.925839 
3892.000000	62.960958 
3891.000000	63.003134 
3890.000000	63.049602 
3889.000000	63.096165 
3888.000000	63.137745 
3887.000000	63.169527 
3886.000000	63.187408 
3885.000000	63.189768 
3884.000000	63.177680 
3883.000000	63.155221 
3882.000000	63.128685 
3881.000000	63.105440 
3880.000000	63.092350 
3879.000000	63.093996 
3878.000000	63.111686 
3877.000000	63.142895 
3876.000000	63.181996 
3875.000000	63.221502 
3874.000000	63.253951 
3873.000000	63.273429 
3872.000000	63.276815 
3871.000000	63.264179 
3870.000000	63.238692 
3869.000000	63.205218 
3868.000000	63.169169 
3867.000000	63.134980 
3866.000000	63.105463 
3865.000000	63.082242 
3864.000000	63.065648 
3863.000000	63.055324 
3862.000000	63.050627 
3861.000000	63.051629 
3860.000000	63.058590 
3859.000000	63.071179 
3858.000000	63.088822 
3857.000000	63.110303 
3856.000000	63.133907 
3855.000000	63.157153 
3854.000000	63.177847 
3853.000000	63.194632 
3852.000000	63.206982 
3851.000000	63.215517 
3850.000000	63.221430 
3849.000000	63.226008 
3848.000000	63.230299 
3847.000000	63.234639 
3846.000000	63.238525 
3845.000000	63.240551 
3844.000000	63.239479 
3843.000000	63.233995 
3842.000000	63.222861 
3841.000000	63.204669 
3840.000000	63.178491 
3839.000000	63.143229 
3838.000000	63.098454 
3837.000000	63.044190 
3836.000000	62.981605 
3835.000000	62.913131 
3834.000000	62.842202 
3833.000000	62.773180 
3832.000000	62.710666 
3831.000000	62.658953 
3830.000000	62.621235 
3829.000000	62.598776 
3828.000000	62.590527 
3827.000000	62.593269 
3826.000000	62.602114 
3825.000000	62.611532 
3824.000000	62.616515 
3823.000000	62.614154 
3822.000000	62.604379 
3821.000000	62.590241 
3820.000000	62.577486 
3819.000000	62.573528 
3818.000000	62.585663 
3817.000000	62.619304 
3816.000000	62.675976 
3815.000000	62.752819 
3814.000000	62.842535 
3813.000000	62.934732 
3812.000000	63.017868 
3811.000000	63.081955 
3810.000000	63.120174 
3809.000000	63.130950 
3808.000000	63.117074 
3807.000000	63.084816 
3806.000000	63.041949 
3805.000000	62.996482 
3804.000000	62.954497 
3803.000000	62.919402 
3802.000000	62.892222 
3801.000000	62.872576 
3800.000000	62.859177 
3799.000000	62.851166 
3798.000000	62.848162 
3797.000000	62.850570 
3796.000000	62.858867 
3795.000000	62.872934 
3794.000000	62.891411 
3793.000000	62.911462 
3792.000000	62.929081 
3791.000000	62.940025 
3790.000000	62.940645 
3789.000000	62.928962 
3788.000000	62.905168 
3787.000000	62.871789 
3786.000000	62.833023 
3785.000000	62.794256 
3784.000000	62.761068 
3783.000000	62.738347 
3782.000000	62.729096 
3781.000000	62.734150 
3780.000000	62.752509 
3779.000000	62.781023 
3778.000000	62.815213 
3777.000000	62.849807 
3776.000000	62.880039 
3775.000000	62.902116 
3774.000000	62.913680 
3773.000000	62.913966 
3772.000000	62.903618 
3771.000000	62.884449 
3770.000000	62.859129 
3769.000000	62.831020 
3768.000000	62.803697 
3767.000000	62.780570 
3766.000000	62.764573 
3765.000000	62.757539 
3764.000000	62.760066 
3763.000000	62.771368 
3762.000000	62.789297 
3761.000000	62.810850 
3760.000000	62.832498 
3759.000000	62.850737 
3758.000000	62.862825 
3757.000000	62.866973 
3756.000000	62.862777 
3755.000000	62.850904 
3754.000000	62.833189 
3753.000000	62.811994 
3752.000000	62.789988 
3751.000000	62.769913 
3750.000000	62.753915 
3749.000000	62.743401 
3748.000000	62.738347 
3747.000000	62.737798 
3746.000000	62.739562 
3745.000000	62.740707 
3744.000000	62.738275 
3743.000000	62.729740 
3742.000000	62.714362 
3741.000000	62.693452 
3740.000000	62.670540 
3739.000000	62.650632 
3738.000000	62.638902 
3737.000000	62.639260 
3736.000000	62.653183 
3735.000000	62.678837 
3734.000000	62.711501 
3733.000000	62.744426 
3732.000000	62.770318 
3731.000000	62.783241 
3730.000000	62.779664 
3729.000000	62.759733 
3728.000000	62.726879 
3727.000000	62.687349 
3726.000000	62.648129 
3725.000000	62.615847 
3724.000000	62.595152 
3723.000000	62.587761 
3722.000000	62.592411 
3721.000000	62.605309 
3720.000000	62.621665 
3719.000000	62.636661 
3718.000000	62.646913 
3717.000000	62.651014 
3716.000000	62.649607 
3715.000000	62.644886 
3714.000000	62.639451 
3713.000000	62.635350 
3712.000000	62.633061 
3711.000000	62.631464 
3710.000000	62.628006 
3709.000000	62.619400 
3708.000000	62.603020 
3707.000000	62.577867 
3706.000000	62.545561 
3705.000000	62.510037 
3704.000000	62.477493 
3703.000000	62.454915 
3702.000000	62.448501 
3701.000000	62.462139 
3700.000000	62.496137 
3699.000000	62.547254 
3698.000000	62.608957 
3697.000000	62.672591 
3696.000000	62.729501 
3695.000000	62.772512 
3694.000000	62.797617 
3693.000000	62.804484 
3692.000000	62.796115 
3691.000000	62.777495 
3690.000000	62.754273 
3689.000000	62.731218 
3688.000000	62.711071 
3687.000000	62.694239 
3686.000000	62.679004 
3685.000000	62.662672 
3684.000000	62.642693 
3683.000000	62.617707 
3682.000000	62.588119 
3681.000000	62.556076 
3680.000000	62.524652 
3679.000000	62.497019 
3678.000000	62.475442 
3677.000000	62.460970 
3676.000000	62.452888 
3675.000000	62.449431 
3674.000000	62.448334 
3673.000000	62.447500 
3672.000000	62.445664 
3671.000000	62.442731 
3670.000000	62.439084 
3669.000000	62.436175 
3668.000000	62.435364 
3667.000000	62.438130 
3666.000000	62.444925 
3665.000000	62.455677 
3664.000000	62.469959 
3663.000000	62.486839 
3662.000000	62.505006 
3661.000000	62.523055 
3660.000000	62.539553 
3659.000000	62.553048 
3658.000000	62.562370 
3657.000000	62.566566 
3656.000000	62.565445 
3655.000000	62.559747 
3654.000000	62.551140 
3653.000000	62.542128 
3652.000000	62.535166 
3651.000000	62.532734 
3650.000000	62.536072 
3649.000000	62.545061 
3648.000000	62.557673 
3647.000000	62.570714 
3646.000000	62.579989 
3645.000000	62.581276 
3644.000000	62.571167 
3643.000000	62.548303 
3642.000000	62.513542 
3641.000000	62.470245 
3640.000000	62.423515 
3639.000000	62.379217 
3638.000000	62.342810 
3637.000000	62.317991 
3636.000000	62.305951 
3635.000000	62.305474 
3634.000000	62.313103 
3633.000000	62.324404 
3632.000000	62.334823 
3631.000000	62.340974 
3630.000000	62.341213 
3629.000000	62.335729 
3628.000000	62.326049 
3627.000000	62.314438 
3626.000000	62.302923 
3625.000000	62.292909 
3624.000000	62.284684 
3623.000000	62.277746 
3622.000000	62.271356 
3621.000000	62.264990 
3620.000000	62.258768 
3619.000000	62.253522 
3618.000000	62.250399 
3617.000000	62.250494 
3616.000000	62.254047 
3615.000000	62.260651 
3614.000000	62.269020 
3613.000000	62.277555 
3612.000000	62.284684 
3611.000000	62.289595 
3610.000000	62.292313 
3609.000000	62.293982 
3608.000000	62.296438 
3607.000000	62.301826 
3606.000000	62.311887 
3605.000000	62.327551 
3604.000000	62.348699 
3603.000000	62.374091 
3602.000000	62.401676 
3601.000000	62.428998 
3600.000000	62.453460 
3599.000000	62.473344 
3598.000000	62.487339 
3597.000000	62.494969 
3596.000000	62.496209 
3595.000000	62.491488 
3594.000000	62.481236 
3593.000000	62.466239 
3592.000000	62.447166 
3591.000000	62.424778 
3590.000000	62.399864 
3589.000000	62.373661 
3588.000000	62.347674 
3587.000000	62.323856 
3586.000000	62.304067 
3585.000000	62.290024 
3584.000000	62.282657 
3583.000000	62.281894 
3582.000000	62.286472 
3581.000000	62.294197 
3580.000000	62.302517 
3579.000000	62.308883 
3578.000000	62.311291 
3577.000000	62.308454 
3576.000000	62.299799 
3575.000000	62.285351 
3574.000000	62.265133 
3573.000000	62.239480 
3572.000000	62.208986 
3571.000000	62.174916 
3570.000000	62.138962 
3569.000000	62.103891 
3568.000000	62.073254 
3567.000000	62.050962 
3566.000000	62.040495 
3565.000000	62.044024 
3564.000000	62.061595 
3563.000000	62.091255 
3562.000000	62.128496 
3561.000000	62.168169 
3560.000000	62.204909 
3559.000000	62.234997 
3558.000000	62.256741 
3557.000000	62.270689 
3556.000000	62.279152 
3555.000000	62.285351 
3554.000000	62.292432 
3553.000000	62.302613 
3552.000000	62.316584 
3551.000000	62.333607 
3550.000000	62.351655 
3549.000000	62.367749 
3548.000000	62.378811 
3547.000000	62.382221 
3546.000000	62.376308 
3545.000000	62.360715 
3544.000000	62.336611 
3543.000000	62.306523 
3542.000000	62.274026 
3541.000000	62.243080 
3540.000000	62.216997 
3539.000000	62.198400 
3538.000000	62.188053 
3537.000000	62.184882 
3536.000000	62.186169 
3535.000000	62.188267 
3534.000000	62.187552 
3533.000000	62.181568 
3532.000000	62.169671 
3531.000000	62.153124 
3530.000000	62.134861 
3529.000000	62.118554 
3528.000000	62.107157 
3527.000000	62.102031 
3526.000000	62.102627 
3525.000000	62.106823 
3524.000000	62.111473 
3523.000000	62.113547 
3522.000000	62.111139 
3521.000000	62.104487 
3520.000000	62.095570 
3519.000000	62.087869 
3518.000000	62.085413 
3517.000000	62.091207 
3516.000000	62.106561 
3515.000000	62.130427 
3514.000000	62.159347 
3513.000000	62.188434 
3512.000000	62.212610 
3511.000000	62.227916 
3510.000000	62.232327 
3509.000000	62.226057 
3508.000000	62.211775 
3507.000000	62.192964 
3506.000000	62.173199 
3505.000000	62.154603 
3504.000000	62.137722 
3503.000000	62.120985 
3502.000000	62.101745 
3501.000000	62.076854 
3500.000000	62.044262 
3499.000000	62.003350 
3498.000000	61.955618 
3497.000000	61.904335 
3496.000000	61.854076 
3495.000000	61.809659 
3494.000000	61.775398 
3493.000000	61.754202 
3492.000000	61.747455 
3491.000000	61.754965 
3490.000000	61.775469 
3489.000000	61.806702 
3488.000000	61.846137 
3487.000000	61.890816 
3486.000000	61.938190 
3485.000000	61.985468 
3484.000000	62.030577 
3483.000000	62.071824 
3482.000000	62.108182 
3481.000000	62.139081 
3480.000000	62.164306 
3479.000000	62.183904 
3478.000000	62.197685 
3477.000000	62.205481 
3476.000000	62.207412 
3475.000000	62.204217 
3474.000000	62.197351 
3473.000000	62.189173 
3472.000000	62.182378 
3471.000000	62.179422 
3470.000000	62.181997 
3469.000000	62.190341 
3468.000000	62.202882 
3467.000000	62.216567 
3466.000000	62.227368 
3465.000000	62.231755 
3464.000000	62.227177 
3463.000000	62.213325 
3462.000000	62.192130 
3461.000000	62.167668 
3460.000000	62.145066 
3459.000000	62.129235 
3458.000000	62.123441 
3457.000000	62.128663 
3456.000000	62.143468 
3455.000000	62.164044 
3454.000000	62.185335 
3453.000000	62.201833 
3452.000000	62.209153 
3451.000000	62.204575 
3450.000000	62.187361 
3449.000000	62.159013 
3448.000000	62.122702 
3447.000000	62.082695 
3446.000000	62.043237 
3445.000000	62.008166 
3444.000000	61.980462 
3443.000000	61.961793 
3442.000000	61.952614 
3441.000000	61.952352 
3440.000000	61.959481 
3439.000000	61.971783 
3438.000000	61.986541 
3437.000000	62.000727 
3436.000000	62.011361 
3435.000000	62.015628 
3434.000000	62.011504 
3433.000000	61.997985 
3432.000000	61.975693 
3431.000000	61.946463 
3430.000000	61.913537 
3429.000000	61.880779 
3428.000000	61.852097 
3427.000000	61.831021 
3426.000000	61.819791 
3425.000000	61.819028 
3424.000000	61.827635 
3423.000000	61.843180 
3422.000000	61.861944 
3421.000000	61.879777 
3420.000000	61.892747 
3419.000000	61.897659 
3418.000000	61.892628 
3417.000000	61.877393 
3416.000000	61.853432 
3415.000000	61.823487 
3414.000000	61.791205 
3413.000000	61.760377 
3412.000000	61.734318 
3411.000000	61.715245 
3410.000000	61.704039 
3409.000000	61.700201 
3408.000000	61.701917 
3407.000000	61.706852 
3406.000000	61.712980 
3405.000000	61.719059 
3404.000000	61.724662 
3403.000000	61.730504 
3402.000000	61.737561 
3401.000000	61.747217 
3400.000000	61.760115 
3399.000000	61.776375 
3398.000000	61.795234 
3397.000000	61.815404 
3396.000000	61.835694 
3395.000000	61.854743 
3394.000000	61.871314 
3393.000000	61.884498 
3392.000000	61.893701 
3391.000000	61.898422 
3390.000000	61.898112 
3389.000000	61.892247 
3388.000000	61.880278 
3387.000000	61.861920 
3386.000000	61.837005 
3385.000000	61.805963 
3384.000000	61.769652 
3383.000000	61.729359 
3382.000000	61.686587 
3381.000000	61.643075 
3380.000000	61.600613 
3379.000000	61.561036 
3378.000000	61.526155 
3377.000000	61.497640 
3376.000000	61.476683 
3375.000000	61.463928 
3374.000000	61.459612 
3373.000000	61.462974 
3372.000000	61.473107 
3371.000000	61.488533 
3370.000000	61.507940 
3369.000000	61.529922 
3368.000000	61.553311 
3367.000000	61.577010 
3366.000000	61.599850 
3365.000000	61.620545 
3364.000000	61.637902 
3363.000000	61.650800 
3362.000000	61.658620 
3361.000000	61.661291 
3360.000000	61.659526 
3359.000000	61.654543 
3358.000000	61.648011 
3357.000000	61.641335 
3356.000000	61.635279 
3355.000000	61.629462 
3354.000000	61.622643 
3353.000000	61.613106 
3352.000000	61.599206 
3351.000000	61.580181 
3350.000000	61.556625 
3349.000000	61.530733 
3348.000000	61.505579 
3347.000000	61.484742 
3346.000000	61.471223 
3345.000000	61.466789 
3344.000000	61.471390 
3343.000000	61.483550 
3342.000000	61.500406 
3341.000000	61.518812 
3340.000000	61.536216 
3339.000000	61.550927 
3338.000000	61.562418 
3337.000000	61.571240 
3336.000000	61.578583 
3335.000000	61.585450 
3334.000000	61.592245 
3333.000000	61.598777 
3332.000000	61.604356 
3331.000000	61.608171 
3330.000000	61.609435 
3329.000000	61.607718 
3328.000000	61.602997 
3327.000000	61.595845 
3326.000000	61.586999 
3325.000000	61.577200 
3324.000000	61.566972 
3323.000000	61.556768 
3322.000000	61.546683 
3321.000000	61.536836 
3320.000000	61.527037 
3319.000000	61.517143 
3318.000000	61.506652 
3317.000000	61.494922 
3316.000000	61.481332 
3315.000000	61.465215 
3314.000000	61.446189 
3313.000000	61.424589 
3312.000000	61.401319 
3311.000000	61.377763 
3310.000000	61.355447 
3309.000000	61.335730 
3308.000000	61.319231 
3307.000000	61.305856 
3306.000000	61.295008 
3305.000000	61.286187 
3304.000000	61.279249 
3303.000000	61.274862 
3302.000000	61.274600 
3301.000000	61.280369 
3300.000000	61.293864 
3299.000000	61.315679 
3298.000000	61.344647 
3297.000000	61.377120 
3296.000000	61.408090 
3295.000000	61.431622 
3294.000000	61.442375 
3293.000000	61.436915 
3292.000000	61.414742 
3291.000000	61.378431 
3290.000000	61.333036 
3289.000000	61.284780 
3288.000000	61.240148 
3287.000000	61.203885 
3286.000000	61.178350 
3285.000000	61.163306 
3284.000000	61.156487 
3283.000000	61.154460 
3282.000000	61.153793 
3281.000000	61.152172 
3280.000000	61.149048 
3279.000000	61.145615 
3278.000000	61.144852 
3277.000000	61.149859 
3276.000000	61.163330 
3275.000000	61.186599 
3274.000000	61.219382 
3273.000000	61.259317 
3272.000000	61.302328 
3271.000000	61.343741 
3270.000000	61.378955 
3269.000000	61.404109 
3268.000000	61.417341 
3267.000000	61.418604 
3266.000000	61.409902 
3265.000000	61.395001 
3264.000000	61.378502 
3263.000000	61.365056 
3262.000000	61.358428 
3261.000000	61.361074 
3260.000000	61.373472 
3259.000000	61.394429 
3258.000000	61.421060 
3257.000000	61.449575 
3256.000000	61.475610 
3255.000000	61.494922 
3254.000000	61.503791 
3253.000000	61.499524 
3252.000000	61.480522 
3251.000000	61.446309 
3250.000000	61.397862 
3249.000000	61.337232 
3248.000000	61.267662 
3247.000000	61.193323 
3246.000000	61.118912 
3245.000000	61.049294 
3244.000000	60.989022 
3243.000000	60.942077 
3242.000000	60.911059 
3241.000000	60.897445 
3240.000000	60.901546 
3239.000000	60.922527 
3238.000000	60.958123 
3237.000000	61.005234 
3236.000000	61.059951 
3235.000000	61.117601 
3234.000000	61.173081 
3233.000000	61.221075 
3232.000000	61.256432 
3231.000000	61.275053 
3230.000000	61.274409 
3229.000000	61.254429 
3228.000000	61.217451 
3227.000000	61.168193 
3226.000000	61.113023 
3225.000000	61.058735 
3224.000000	61.011457 
3223.000000	60.975551 
3222.000000	60.952973 
3221.000000	60.943007 
3220.000000	60.943078 
3219.000000	60.949492 
3218.000000	60.958695 
3217.000000	60.967612 
3216.000000	60.974574 
3215.000000	60.979080 
3214.000000	60.981845 
3213.000000	60.983681 
3212.000000	60.985684 
3211.000000	60.988259 
3210.000000	60.991740 
3209.000000	60.996222 
3208.000000	61.001777 
3207.000000	61.008787 
3206.000000	61.017179 
3205.000000	61.026692 
3204.000000	61.036229 
3203.000000	61.043858 
3202.000000	61.047220 
3201.000000	61.044168 
3200.000000	61.033320 
3199.000000	61.014723 
3198.000000	60.990190 
3197.000000	60.963082 
3196.000000	60.937666 
3195.000000	60.918354 
3194.000000	60.908532 
3193.000000	60.909938 
3192.000000	60.922265 
3191.000000	60.943198 
3190.000000	60.969090 
3189.000000	60.995483 
3188.000000	61.018514 
3187.000000	61.035323 
3186.000000	61.044168 
3185.000000	61.045026 
3184.000000	61.038565 
3183.000000	61.026453 
3182.000000	61.010694 
3181.000000	60.993552 
3180.000000	60.976958 
3179.000000	60.962653 
3178.000000	60.952138 
3177.000000	60.946679 
3176.000000	60.946989 
3175.000000	60.953378 
3174.000000	60.965752 
3173.000000	60.983133 
3172.000000	61.003470 
3171.000000	61.023616 
3170.000000	61.039853 
3169.000000	61.048173 
3168.000000	61.045479 
3167.000000	61.029767 
3166.000000	61.001515 
3165.000000	60.963726 
3164.000000	60.921645 
3163.000000	60.882282 
3162.000000	60.852503 
3161.000000	60.837841 
3160.000000	60.840630 
3159.000000	60.859656 
3158.000000	60.889792 
3157.000000	60.923004 
3156.000000	60.950446 
3155.000000	60.964965 
3154.000000	60.962295 
3153.000000	60.942196 
3152.000000	60.907626 
3151.000000	60.863876 
3150.000000	60.816550 
3149.000000	60.769915 
3148.000000	60.726237 
3147.000000	60.685563 
3146.000000	60.647034 
3145.000000	60.609889 
3144.000000	60.574913 
3143.000000	60.544705 
3142.000000	60.523486 
3141.000000	60.516095 
3140.000000	60.526108 
3139.000000	60.554575 
3138.000000	60.598683 
3137.000000	60.652256 
3136.000000	60.706591 
3135.000000	60.752534 
3134.000000	60.782480 
3133.000000	60.791683 
3132.000000	60.778903 
3131.000000	60.746479 
3130.000000	60.699200 
3129.000000	60.643267 
3128.000000	60.584688 
3127.000000	60.528469 
3126.000000	60.478186 
3125.000000	60.435914 
3124.000000	60.402750 
3123.000000	60.379338 
3122.000000	60.366249 
3121.000000	60.364317 
3120.000000	60.374498 
3119.000000	60.397243 
3118.000000	60.432100 
3117.000000	60.476851 
3116.000000	60.527729 
3115.000000	60.579562 
3114.000000	60.626769 
3113.000000	60.664272 
3112.000000	60.688686 
3111.000000	60.698986 
3110.000000	60.696673 
3109.000000	60.685467 
3108.000000	60.670137 
3107.000000	60.655570 
3106.000000	60.645294 
3105.000000	60.640907 
3104.000000	60.641574 
3103.000000	60.644817 
3102.000000	60.647273 
3101.000000	60.646200 
3100.000000	60.640406 
3099.000000	60.630702 
3098.000000	60.619640 
3097.000000	60.610628 
3096.000000	60.607171 
3095.000000	60.611510 
3094.000000	60.624027 
3093.000000	60.643005 
3092.000000	60.665106 
3091.000000	60.685992 
3090.000000	60.701513 
3089.000000	60.708308 
3088.000000	60.704565 
3087.000000	60.690331 
3086.000000	60.667085 
3085.000000	60.637712 
3084.000000	60.605430 
3083.000000	60.573625 
3082.000000	60.545325 
3081.000000	60.522818 
3080.000000	60.507488 
3079.000000	60.499691 
3078.000000	60.498905 
3077.000000	60.503888 
3076.000000	60.512566 
3075.000000	60.522794 
3074.000000	60.532522 
3073.000000	60.540032 
3072.000000	60.544037 
3071.000000	60.543918 
3070.000000	60.539460 
3069.000000	60.530757 
3068.000000	60.518050 
3067.000000	60.501766 
3066.000000	60.482501 
3065.000000	60.461187 
3064.000000	60.439276 
3063.000000	60.418581 
3062.000000	60.401225 
3061.000000	60.389256 
3060.000000	60.384225 
3059.000000	60.386896 
3058.000000	60.396766 
3057.000000	60.412240 
3056.000000	60.430717 
3055.000000	60.449123 
3054.000000	60.464310 
3053.000000	60.473823 
3052.000000	60.475826 
3051.000000	60.469365 
3050.000000	60.454106 
3049.000000	60.430407 
3048.000000	60.399246 
3047.000000	60.362148 
3046.000000	60.321235 
3045.000000	60.279202 
3044.000000	60.239410 
3043.000000	60.205245 
3042.000000	60.179877 
3041.000000	60.165524 
3040.000000	60.162949 
3039.000000	60.171389 
3038.000000	60.188174 
3037.000000	60.209560 
3036.000000	60.231375 
3035.000000	60.249972 
3034.000000	60.262942 
3033.000000	60.269522 
3032.000000	60.270380 
3031.000000	60.267329 
3030.000000	60.262703 
3029.000000	60.258531 
3028.000000	60.256218 
3027.000000	60.255813 
3026.000000	60.256886 
3025.000000	60.258102 
3024.000000	60.258197 
3023.000000	60.255908 
3022.000000	60.250592 
3021.000000	60.242366 
3020.000000	60.231947 
3019.000000	60.220456 
3018.000000	60.209155 
3017.000000	60.198998 
3016.000000	60.190558 
3015.000000	60.183906 
3014.000000	60.178565 
3013.000000	60.173416 
3012.000000	60.166978 
3011.000000	60.157823 
3010.000000	60.144948 
3009.000000	60.128307 
3008.000000	60.108900 
3007.000000	60.088682 
3006.000000	60.070347 
3005.000000	60.056686 
3004.000000	60.050058 
3003.000000	60.051608 
3002.000000	60.061049 
3001.000000	60.076713 
3000.000000	60.095930 
2999.000000	60.115623 
2998.000000	60.132813 
2997.000000	60.145545 
2996.000000	60.152769 
2995.000000	60.154461 
2994.000000	60.151529 
2993.000000	60.145211 
2992.000000	60.136818 
2991.000000	60.127353 
2990.000000	60.117602 
2989.000000	60.108375 
2988.000000	60.100245 
2987.000000	60.093855 
2986.000000	60.089612 
2985.000000	60.087656 
2984.000000	60.087418 
2983.000000	60.087823 
2982.000000	60.087394 
2981.000000	60.084652 
2980.000000	60.078620 
2979.000000	60.069298 
2978.000000	60.057854 
2977.000000	60.046267 
2976.000000	60.037088 
2975.000000	60.032510 
2974.000000	60.033702 
2973.000000	60.040140 
2972.000000	60.049867 
2971.000000	60.059595 
2970.000000	60.065793 
2969.000000	60.065007 
2968.000000	60.055279 
2967.000000	60.036134 
2966.000000	60.008740 
2965.000000	59.975385 
2964.000000	59.938716 
2963.000000	59.901189 
2962.000000	59.864664 
2961.000000	59.830045 
2960.000000	59.797596 
2959.000000	59.767341 
2958.000000	59.739661 
2957.000000	59.715294 
2956.000000	59.695506 
2955.000000	59.681630 
2954.000000	59.674859 
2953.000000	59.675455 
2952.000000	59.682893 
2951.000000	59.695696 
2950.000000	59.712052 
2949.000000	59.729838 
2948.000000	59.747242 
2947.000000	59.763145 
2946.000000	59.777188 
2945.000000	59.789419 
2944.000000	59.800124 
2943.000000	59.809589 
2942.000000	59.817504 
2941.000000	59.823584 
2940.000000	59.826898 
2939.000000	59.826421 
2938.000000	59.820914 
2937.000000	59.809780 
2936.000000	59.792542 
2935.000000	59.769177 
2934.000000	59.740185 
2933.000000	59.706759 
2932.000000	59.670686 
2931.000000	59.634089 
2930.000000	59.599614 
2929.000000	59.569692 
2928.000000	59.546208 
2927.000000	59.529852 
2926.000000	59.519767 
2925.000000	59.513783 
2924.000000	59.508490 
2923.000000	59.500265 
2922.000000	59.485983 
2921.000000	59.463906 
2920.000000	59.434080 
2919.000000	59.398794 
2918.000000	59.361696 
2917.000000	59.327626 
2916.000000	59.301424 
2915.000000	59.287166 
2914.000000	59.287023 
2913.000000	59.301447 
2912.000000	59.328913 
2911.000000	59.366440 
2910.000000	59.410285 
2909.000000	59.456396 
2908.000000	59.500956 
2907.000000	59.540867 
2906.000000	59.573674 
2905.000000	59.597778 
2904.000000	59.612131 
2903.000000	59.616351 
2902.000000	59.610891 
2901.000000	59.596586 
2900.000000	59.574937 
2899.000000	59.548139 
2898.000000	59.519100 
2897.000000	59.491157 
2896.000000	59.467601 
2895.000000	59.451460 
2894.000000	59.444808 
2893.000000	59.448409 
2892.000000	59.461426 
2891.000000	59.481382 
2890.000000	59.504723 
2889.000000	59.527420 
2888.000000	59.545898 
2887.000000	59.557414 
2886.000000	59.560680 
2885.000000	59.555935 
2884.000000	59.544706 
2883.000000	59.529304 
2882.000000	59.512281 
2881.000000	59.495759 
2880.000000	59.481024 
2879.000000	59.468412 
2878.000000	59.457540 
2877.000000	59.447526 
2876.000000	59.437465 
2875.000000	59.426832 
2874.000000	59.415531 
2873.000000	59.403896 
2872.000000	59.392642 
2871.000000	59.382295 
2870.000000	59.373188 
2869.000000	59.364891 
2868.000000	59.356570 
2867.000000	59.346580 
2866.000000	59.333062 
2865.000000	59.314203 
2864.000000	59.288597 
2863.000000	59.255981 
2862.000000	59.217238 
2861.000000	59.174633 
2860.000000	59.131360 
2859.000000	59.091138 
2858.000000	59.057331 
2857.000000	59.032583 
2856.000000	59.018111 
2855.000000	59.013915 
2854.000000	59.018921 
2853.000000	59.031653 
2852.000000	59.050345 
2851.000000	59.073781 
2850.000000	59.100914 
2849.000000	59.131073 
2848.000000	59.163475 
2847.000000	59.196949 
2846.000000	59.229564 
2845.000000	59.258842 
2844.000000	59.282016 
2843.000000	59.296631 
2842.000000	59.300923 
2841.000000	59.294676 
2840.000000	59.279060 
2839.000000	59.256553 
2838.000000	59.230303 
2837.000000	59.203815 
2836.000000	59.179902 
2835.000000	59.160685 
2834.000000	59.146976 
2833.000000	59.138774 
2832.000000	59.135365 
2831.000000	59.135317 
2830.000000	59.137415 
2829.000000	59.140563 
2828.000000	59.144234 
2827.000000	59.148311 
2826.000000	59.153175 
2825.000000	59.159302 
2824.000000	59.166979 
2823.000000	59.176206 
2822.000000	59.186387 
2821.000000	59.196472 
2820.000000	59.205198 
2819.000000	59.211492 
2818.000000	59.214568 
2817.000000	59.214115 
2816.000000	59.210610 
2815.000000	59.205007 
2814.000000	59.198355 
2813.000000	59.191799 
2812.000000	59.186124 
2811.000000	59.181761 
2810.000000	59.178495 
2809.000000	59.175682 
2808.000000	59.172511 
2807.000000	59.168124 
2806.000000	59.162092 
2805.000000	59.154129 
2804.000000	59.144306 
2803.000000	59.132909 
2802.000000	59.120440 
2801.000000	59.107375 
2800.000000	59.094214 
2799.000000	59.081530 
2798.000000	59.069752 
2797.000000	59.059214 
2796.000000	59.050011 
2795.000000	59.042119 
2794.000000	59.035205 
2793.000000	59.028983 
2792.000000	59.023284 
2791.000000	59.017968 
2790.000000	59.013009 
2789.000000	59.008407 
2788.000000	59.004306 
2787.000000	59.000611 
2786.000000	58.997154 
2785.000000	58.993816 
2784.000000	58.990716 
2783.000000	58.987951 
2782.000000	58.985733 
2781.000000	58.984470 
2780.000000	58.984327 
2779.000000	58.985304 
2778.000000	58.986997 
2777.000000	58.988714 
2776.000000	58.989453 
2775.000000	58.988285 
2774.000000	58.984541 
2773.000000	58.978056 
2772.000000	58.969378 
2771.000000	58.959770 
2770.000000	58.950901 
2769.000000	58.944463 
2768.000000	58.941769 
2767.000000	58.943319 
2766.000000	58.948540 
2765.000000	58.955931 
2764.000000	58.963060 
2763.000000	58.967304 
2762.000000	58.965945 
2761.000000	58.956933 
2760.000000	58.939170 
2759.000000	58.912897 
2758.000000	58.879470 
2757.000000	58.841300 
2756.000000	58.801436 
2755.000000	58.763194 
2754.000000	58.729600 
2753.000000	58.702945 
2752.000000	58.684659 
2751.000000	58.675217 
2750.000000	58.674263 
2749.000000	58.680725 
2748.000000	58.692812 
2747.000000	58.708620 
2746.000000	58.726215 
2745.000000	58.743739 
2744.000000	58.759474 
2743.000000	58.771991 
2742.000000	58.780193 
2741.000000	58.783483 
2740.000000	58.781719 
2739.000000	58.775424 
2738.000000	58.765602 
2737.000000	58.753871 
2736.000000	58.742117 
2735.000000	58.732032 
2734.000000	58.725023 
2733.000000	58.721852 
2732.000000	58.722591 
2731.000000	58.726835 
2730.000000	58.733677 
2729.000000	58.742117 
2728.000000	58.751010 
2727.000000	58.759140 
2726.000000	58.765244 
2725.000000	58.768224 
2724.000000	58.766937 
2723.000000	58.760499 
2722.000000	58.748197 
2721.000000	58.730125 
2720.000000	58.706879 
2719.000000	58.680033 
2718.000000	58.651828 
2717.000000	58.624768 
2716.000000	58.601307 
2715.000000	58.583498 
2714.000000	58.572435 
2713.000000	58.568000 
2712.000000	58.569240 
2711.000000	58.574509 
2710.000000	58.581900 
2709.000000	58.589649 
2708.000000	58.596348 
2707.000000	58.601331 
2706.000000	58.604383 
2705.000000	58.605933 
2704.000000	58.606743 
2703.000000	58.607482 
2702.000000	58.608913 
2701.000000	58.611345 
2700.000000	58.614730 
2699.000000	58.618307 
2698.000000	58.621144 
2697.000000	58.621764 
2696.000000	58.618688 
2695.000000	58.610582 
2694.000000	58.596754 
2693.000000	58.577179 
2692.000000	58.552742 
2691.000000	58.525180 
2690.000000	58.496832 
2689.000000	58.470249 
2688.000000	58.447861 
2687.000000	58.431458 
2686.000000	58.421969 
2685.000000	58.419466 
2684.000000	58.423256 
2683.000000	58.432149 
2682.000000	58.444714 
2681.000000	58.459544 
2680.000000	58.475327 
2679.000000	58.490777 
2678.000000	58.504652 
2677.000000	58.515501 
2676.000000	58.522009 
2675.000000	58.522891 
2674.000000	58.517360 
2673.000000	58.505368 
2672.000000	58.488011 
2671.000000	58.467507 
2670.000000	58.446931 
2669.000000	58.429837 
2668.000000	58.419179 
2667.000000	58.416891 
2666.000000	58.423066 
2665.000000	58.435726 
2664.000000	58.451104 
2663.000000	58.464479 
2662.000000	58.470869 
2661.000000	58.466649 
2660.000000	58.449959 
2659.000000	58.421516 
2658.000000	58.384299 
2657.000000	58.342790 
2656.000000	58.302211 
2655.000000	58.267211 
2654.000000	58.241224 
2653.000000	58.225631 
2652.000000	58.219814 
2651.000000	58.221673 
2650.000000	58.228278 
2649.000000	58.236742 
2648.000000	58.244538 
2647.000000	58.250331 
2646.000000	58.253645 
2645.000000	58.255100 
2644.000000	58.255386 
2643.000000	58.255362 
2642.000000	58.255386 
2641.000000	58.255267 
2640.000000	58.254456 
2639.000000	58.252000 
2638.000000	58.247113 
2637.000000	58.239197 
2636.000000	58.228278 
2635.000000	58.214950 
2634.000000	58.200216 
2633.000000	58.185291 
2632.000000	58.171415 
2631.000000	58.159565 
2630.000000	58.150196 
2629.000000	58.143115 
2628.000000	58.137774 
2627.000000	58.132934 
2626.000000	58.127403 
2625.000000	58.120083 
2624.000000	58.110451 
2623.000000	58.098554 
2622.000000	58.085060 
2621.000000	58.071184 
2620.000000	58.058500 
2619.000000	58.048486 
2618.000000	58.042287 
2617.000000	58.040189 
2616.000000	58.041810 
2615.000000	58.046174 
2614.000000	58.051943 
2613.000000	58.057689 
2612.000000	58.062291 
2611.000000	58.065295 
2610.000000	58.066630 
2609.000000	58.066630 
2608.000000	58.065605 
2607.000000	58.063769 
2606.000000	58.060765 
2605.000000	58.056044 
2604.000000	58.048844 
2603.000000	58.038759 
2602.000000	58.025956 
2601.000000	58.011293 
2600.000000	57.996392 
2599.000000	57.983160 
2598.000000	57.973432 
2597.000000	57.968306 
2596.000000	57.967877 
2595.000000	57.971048 
2594.000000	57.975769 
2593.000000	57.979702 
2592.000000	57.980465 
2591.000000	57.976698 
2590.000000	57.968163 
2589.000000	57.955741 
2588.000000	57.941222 
2587.000000	57.926702 
2586.000000	57.914137 
2585.000000	57.904601 
2584.000000	57.898354 
2583.000000	57.894539 
2582.000000	57.891726 
2581.000000	57.888174 
2580.000000	57.882571 
2579.000000	57.874107 
2578.000000	57.862567 
2577.000000	57.848572 
2576.000000	57.833361 
2575.000000	57.818245 
2574.000000	57.804417 
2573.000000	57.792806 
2572.000000	57.783913 
2571.000000	57.777857 
2570.000000	57.774353 
2569.000000	57.772922 
2568.000000	57.773017 
2567.000000	57.774162 
2566.000000	57.775783 
2565.000000	57.777619 
2564.000000	57.779192 
2563.000000	57.780098 
2562.000000	57.779812 
2561.000000	57.777905 
2560.000000	57.773756 
2559.000000	57.766866 
2558.000000	57.756924 
2557.000000	57.743978 
2556.000000	57.728600 
2555.000000	57.711672 
2554.000000	57.694268 
2553.000000	57.677245 
2552.000000	57.661461 
2551.000000	57.647323 
2550.000000	57.635068 
2549.000000	57.624602 
2548.000000	57.615685 
2547.000000	57.608199 
2546.000000	57.602047 
2545.000000	57.597637 
2544.000000	57.595324 
2543.000000	57.595515 
2542.000000	57.598257 
2541.000000	57.603192 
2540.000000	57.609558 
2539.000000	57.615780 
2538.000000	57.620000 
2537.000000	57.619738 
2536.000000	57.612800 
2535.000000	57.597184 
2534.000000	57.571601 
2533.000000	57.536125 
2532.000000	57.492041 
2531.000000	57.442760 
2530.000000	57.392835 
2529.000000	57.348179 
2528.000000	57.314729 
2527.000000	57.297611 
2526.000000	57.299733 
2525.000000	57.320928 
2524.000000	57.357764 
2523.000000	57.403516 
2522.000000	57.449531 
2521.000000	57.486677 
2520.000000	57.507681 
2519.000000	57.508325 
2518.000000	57.488846 
2517.000000	57.453751 
2516.000000	57.410740 
2515.000000	57.368922 
2514.000000	57.336354 
2513.000000	57.318258 
2512.000000	57.315874 
2511.000000	57.326388 
2510.000000	57.344031 
2509.000000	57.361793 
2508.000000	57.373452 
2507.000000	57.375335 
2506.000000	57.367229 
2505.000000	57.351851 
2504.000000	57.334208 
2503.000000	57.319569 
2502.000000	57.312059 
2501.000000	57.313203 
2500.000000	57.321810 
2499.000000	57.334494 
2498.000000	57.346868 
2497.000000	57.355403 
2496.000000	57.358264 
2495.000000	57.355976 
2494.000000	57.351183 
2493.000000	57.347607 
2492.000000	57.348942 
2491.000000	57.357430 
2490.000000	57.372808 
2489.000000	57.392263 
2488.000000	57.411384 
2487.000000	57.425069 
2486.000000	57.429099 
2485.000000	57.421326 
2484.000000	57.402014 
2483.000000	57.373857 
2482.000000	57.341408 
2481.000000	57.309699 
2480.000000	57.282638 
2479.000000	57.262229 
2478.000000	57.248401 
2477.000000	57.239246 
2476.000000	57.232069 
2475.000000	57.224273 
2474.000000	57.214117 
2473.000000	57.201313 
2472.000000	57.187080 
2471.000000	57.173347 
2470.000000	57.161998 
2469.000000	57.154345 
2468.000000	57.150459 
2467.000000	57.149171 
2466.000000	57.148551 
2465.000000	57.146406 
2464.000000	57.140922 
2463.000000	57.131338 
2462.000000	57.118225 
2461.000000	57.102942 
2460.000000	57.087731 
2459.000000	57.074689 
2458.000000	57.065844 
2457.000000	57.062602 
2456.000000	57.065701 
2455.000000	57.075214 
2454.000000	57.090163 
2453.000000	57.108616 
2452.000000	57.127690 
2451.000000	57.144045 
2450.000000	57.154178 
2449.000000	57.154917 
2448.000000	57.143902 
2447.000000	57.120275 
2446.000000	57.084512 
2445.000000	57.038569 
2444.000000	56.985735 
2443.000000	56.930279 
2442.000000	56.877493 
2441.000000	56.832885 
2440.000000	56.801819 
2439.000000	56.788349 
2438.000000	56.794643 
2437.000000	56.820034 
2436.000000	56.860947 
2435.000000	56.911253 
2434.000000	56.962347 
2433.000000	57.005810 
2432.000000	57.033801 
2431.000000	57.042169 
2430.000000	57.030987 
2429.000000	57.005047 
2428.000000	56.972694 
2427.000000	56.943726 
2426.000000	56.926894 
2425.000000	56.927347 
2424.000000	56.945824 
2423.000000	56.978082 
2422.000000	57.016849 
2421.000000	57.053279 
2420.000000	57.079458 
2419.000000	57.089757 
2418.000000	57.082080 
2417.000000	57.057547 
2416.000000	57.020044 
2415.000000	56.975150 
2414.000000	56.929039 
2413.000000	56.887793 
2412.000000	56.856584 
2411.000000	56.839442 
2410.000000	56.838488 
2409.000000	56.854605 
2408.000000	56.886076 
2407.000000	56.929063 
2406.000000	56.977653 
2405.000000	57.024168 
2404.000000	57.060980 
2403.000000	57.081961 
2402.000000	57.083654 
2401.000000	57.066011 
2400.000000	57.032132 
2399.000000	56.987643 
2398.000000	56.938815 
2397.000000	56.891393 
2396.000000	56.849265 
2395.000000	56.814289 
2394.000000	56.786417 
2393.000000	56.764602 
2392.000000	56.747341 
2391.000000	56.733512 
2390.000000	56.722474 
2389.000000	56.714248 
2388.000000	56.709146 
2387.000000	56.707477 
2386.000000	56.708765 
2385.000000	56.711721 
2384.000000	56.714630 
2383.000000	56.715607 
2382.000000	56.713223 
2381.000000	56.706786 
2380.000000	56.696486 
2379.000000	56.683230 
2378.000000	56.668353 
2377.000000	56.653022 
2376.000000	56.638169 
2375.000000	56.623983 
2374.000000	56.610131 
2373.000000	56.595802 
2372.000000	56.580138 
2371.000000	56.562614 
2370.000000	56.543064 
2369.000000	56.522178 
2368.000000	56.501460 
2367.000000	56.482934 
2366.000000	56.468701 
2365.000000	56.460332 
2364.000000	56.458210 
2363.000000	56.461477 
2362.000000	56.468081 
2361.000000	56.474995 
2360.000000	56.479048 
2359.000000	56.477308 
2358.000000	56.467795 
2357.000000	56.449794 
2356.000000	56.423878 
2355.000000	56.391859 
2354.000000	56.356287 
2353.000000	56.320238 
2352.000000	56.286811 
2351.000000	56.258845 
2350.000000	56.238412 
2349.000000	56.226754 
2348.000000	56.224036 
2347.000000	56.229352 
2346.000000	56.240820 
2345.000000	56.255722 
2344.000000	56.270837 
2343.000000	56.282997 
2342.000000	56.289649 
2341.000000	56.289243 
2340.000000	56.281661 
2339.000000	56.268000 
2338.000000	56.250357 
2337.000000	56.230974 
2336.000000	56.211948 
2335.000000	56.194710 
2334.000000	56.179714 
2333.000000	56.166529 
2332.000000	56.154298 
2331.000000	56.142044 
2330.000000	56.129193 
2329.000000	56.115818 
2328.000000	56.102657 
2327.000000	56.090974 
2326.000000	56.082201 
2325.000000	56.077623 
2324.000000	56.077814 
2323.000000	56.082534 
2322.000000	56.090545 
2321.000000	56.099939 
2320.000000	56.108546 
2319.000000	56.114220 
2318.000000	56.115436 
2317.000000	56.111502 
2316.000000	56.102800 
2315.000000	56.090688 
2314.000000	56.077241 
2313.000000	56.064987 
2312.000000	56.056284 
2311.000000	56.052827 
2310.000000	56.055474 
2309.000000	56.063914 
2308.000000	56.076884 
2307.000000	56.092119 
2306.000000	56.106996 
2305.000000	56.118869 
2304.000000	56.125545 
2303.000000	56.125783 
2302.000000	56.119322 
2301.000000	56.106972 
2300.000000	56.090211 
2299.000000	56.071114 
2298.000000	56.051874 
2297.000000	56.034231 
2296.000000	56.019306 
2295.000000	56.007456 
2294.000000	55.998301 
2293.000000	55.991005 
2292.000000	55.984592 
2291.000000	55.978369 
2290.000000	55.971884 
2289.000000	55.965113 
2288.000000	55.958342 
2287.000000	55.951952 
2286.000000	55.946278 
2285.000000	55.941486 
2284.000000	55.937504 
2283.000000	55.934047 
2282.000000	55.930972 
2281.000000	55.928134 
2280.000000	55.925416 
2279.000000	55.922603 
2278.000000	55.919289 
2277.000000	55.914783 
2276.000000	55.908083 
2275.000000	55.898165 
2274.000000	55.884051 
2273.000000	55.865383 
2272.000000	55.842804 
2271.000000	55.817890 
2270.000000	55.793046 
2269.000000	55.770826 
2268.000000	55.753374 
2267.000000	55.742049 
2266.000000	55.736613 
2265.000000	55.735921 
2264.000000	55.737805 
2263.000000	55.740237 
2262.000000	55.741691 
2261.000000	55.741953 
2260.000000	55.741977 
2259.000000	55.743694 
2258.000000	55.749320 
2257.000000	55.760860 
2256.000000	55.779170 
2255.000000	55.803704 
2254.000000	55.832386 
2253.000000	55.862164 
2252.000000	55.889606 
2251.000000	55.911540 
2250.000000	55.925631 
2249.000000	55.930757 
2248.000000	55.926918 
2247.000000	55.915164 
2246.000000	55.897116 
2245.000000	55.874729 
2244.000000	55.849695 
2243.000000	55.823850 
2242.000000	55.798459 
2241.000000	55.774712 
2240.000000	55.753684 
2239.000000	55.736160 
2238.000000	55.722975 
2237.000000	55.714893 
2236.000000	55.712389 
2235.000000	55.715441 
2234.000000	55.723452 
2233.000000	55.734872 
2232.000000	55.747485 
2231.000000	55.758500 
2230.000000	55.765008 
2229.000000	55.764579 
2228.000000	55.755662 
2227.000000	55.738019 
2226.000000	55.712866 
2225.000000	55.682635 
2224.000000	55.650544 
2223.000000	55.619907 
2222.000000	55.593681 
2221.000000	55.573534 
2220.000000	55.559849 
2219.000000	55.551457 
2218.000000	55.546355 
2217.000000	55.541729 
2216.000000	55.534815 
2215.000000	55.523419 
2214.000000	55.506086 
2213.000000	55.482625 
2212.000000	55.453681 
2211.000000	55.420851 
2210.000000	55.386424 
2209.000000	55.352950 
2208.000000	55.322933 
2207.000000	55.298590 
2206.000000	55.281543 
2205.000000	55.272579 
2204.000000	55.271506 
2203.000000	55.277371 
2202.000000	55.288672 
2201.000000	55.303382 
2200.000000	55.319309 
2199.000000	55.334687 
2198.000000	55.348420 
2197.000000	55.360054 
2196.000000	55.369830 
2195.000000	55.378174 
2194.000000	55.385375 
2193.000000	55.391597 
2192.000000	55.396413 
2191.000000	55.398797 
2190.000000	55.397319 
2189.000000	55.390787 
2188.000000	55.378222 
2187.000000	55.359387 
2186.000000	55.334925 
2185.000000	55.306458 
2184.000000	55.276107 
2183.000000	55.246114 
2182.000000	55.218482 
2181.000000	55.194687 
2180.000000	55.175113 
2179.000000	55.159211 
2178.000000	55.145549 
2177.000000	55.132389 
2176.000000	55.117869 
2175.000000	55.100631 
2174.000000	55.080103 
2173.000000	55.056881 
2172.000000	55.032658 
2171.000000	55.010247 
2170.000000	54.992699 
2169.000000	54.982829 
2168.000000	54.982471 
2167.000000	54.991936 
2166.000000	55.009698 
2165.000000	55.032587 
2164.000000	55.056405 
2163.000000	55.076861 
2162.000000	55.090332 
2161.000000	55.095052 
2160.000000	55.091404 
2159.000000	55.082035 
2158.000000	55.070948 
2157.000000	55.062675 
2156.000000	55.061078 
2155.000000	55.068159 
2154.000000	55.083894 
2153.000000	55.105733 
2152.000000	55.129861 
2151.000000	55.151581 
2150.000000	55.166864 
2149.000000	55.172634 
2148.000000	55.167365 
2147.000000	55.151081 
2146.000000	55.125355 
2145.000000	55.092763 
2144.000000	55.056476 
2143.000000	55.019736 
2142.000000	54.985451 
2141.000000	54.955983 
2140.000000	54.932856 
2139.000000	54.916763 
2138.000000	54.907298 
2137.000000	54.903125 
2136.000000	54.902458 
2135.000000	54.902911 
2134.000000	54.902315 
2133.000000	54.899024 
2132.000000	54.892230 
2131.000000	54.881858 
2130.000000	54.868602 
2129.000000	54.853487 
2128.000000	54.837942 
2127.000000	54.823017 
2126.000000	54.810070 
2125.000000	54.800391 
2124.000000	54.795432 
2123.000000	54.796648 
2122.000000	54.804897 
2121.000000	54.820156 
2120.000000	54.840826 
2119.000000	54.863762 
2118.000000	54.884433 
2117.000000	54.897546 
2116.000000	54.898238 
2115.000000	54.883050 
2114.000000	54.851126 
2113.000000	54.804730 
2112.000000	54.748797 
2111.000000	54.690432 
2110.000000	54.637336 
2109.000000	54.596328 
2108.000000	54.571938 
2107.000000	54.565501 
2106.000000	54.575443 
2105.000000	54.597592 
2104.000000	54.626297 
2103.000000	54.655814 
2102.000000	54.681110 
2101.000000	54.699110 
2100.000000	54.708528 
2099.000000	54.710173 
2098.000000	54.706215 
2097.000000	54.699397 
2096.000000	54.692268 
2095.000000	54.686784 
2094.000000	54.683804 
2093.000000	54.683184 
2092.000000	54.684114 
2091.000000	54.684972 
2090.000000	54.683804 
2089.000000	54.678940 
2088.000000	54.668951 
2087.000000	54.652714 
2086.000000	54.629230 
2085.000000	54.597878 
2084.000000	54.558587 
2083.000000	54.511737 
2082.000000	54.458761 
2081.000000	54.401826 
2080.000000	54.344511 
2079.000000	54.291152 
2078.000000	54.246640 
2077.000000	54.215693 
2076.000000	54.201436 
2075.000000	54.204678 
2074.000000	54.222965 
2073.000000	54.250812 
2072.000000	54.280447 
2071.000000	54.303145 
2070.000000	54.311299 
2069.000000	54.299926 
2068.000000	54.268717 
2067.000000	54.222273 
2066.000000	54.169797 
2065.000000	54.122710 
2064.000000	54.092669 
2063.000000	54.088354 
2062.000000	54.113626 
2061.000000	54.166078 
2060.000000	54.237651 
2059.000000	54.315805 
2058.000000	54.386734 
2057.000000	54.438066 
2056.000000	54.461264 
2055.000000	54.453516 
2054.000000	54.417920 
2053.000000	54.362416 
2052.000000	54.297637 
2051.000000	54.234647 
2050.000000	54.182839 
2049.000000	54.147958 
2048.000000	54.132056 
2047.000000	54.133009 
2046.000000	54.146528 
2045.000000	54.166746 
2044.000000	54.188060 
2043.000000	54.205894 
2042.000000	54.217243 
2041.000000	54.221034 
2040.000000	54.217624 
2039.000000	54.208374 
2038.000000	54.194974 
2037.000000	54.179310 
2036.000000	54.163193 
2035.000000	54.148101 
2034.000000	54.135227 
2033.000000	54.125523 
2032.000000	54.119491 
2031.000000	54.117393 
2030.000000	54.119038 
2029.000000	54.123759 
2028.000000	54.130291 
2027.000000	54.136896 
2026.000000	54.141354 
2025.000000	54.141616 
2024.000000	54.135918 
2023.000000	54.122948 
2022.000000	54.102587 
2021.000000	54.075431 
2020.000000	54.043459 
2019.000000	54.009699 
2018.000000	53.977680 
2017.000000	53.950810 
2016.000000	53.931832 
2015.000000	53.922343 
2014.000000	53.922557 
2013.000000	53.931188 
2012.000000	53.945660 
2011.000000	53.962731 
2010.000000	53.979110 
2009.000000	53.992223 
2008.000000	54.000377 
2007.000000	54.003190 
2006.000000	54.001212 
2005.000000	53.995561 
2004.000000	53.987622 
2003.000000	53.978538 
2002.000000	53.969001 
2001.000000	53.959321 
2000.000000	53.949522 
1999.000000	53.939747 
1998.000000	53.930687 
1997.000000	53.923225 
1996.000000	53.918647 
1995.000000	53.917765 
1994.000000	53.920960 
1993.000000	53.927683 
1992.000000	53.936147 
1991.000000	53.944110 
1990.000000	53.949046 
1989.000000	53.949213 
1988.000000	53.943967 
1987.000000	53.933954 
1986.000000	53.920888 
1985.000000	53.907132 
1984.000000	53.894972 
1983.000000	53.886032 
1982.000000	53.880858 
1981.000000	53.878784 
1980.000000	53.878259 
1979.000000	53.877568 
1978.000000	53.875231 
1977.000000	53.870487 
1976.000000	53.863334 
1975.000000	53.854489 
1974.000000	53.844738 
1973.000000	53.834724 
1972.000000	53.824448 
1971.000000	53.813099 
1970.000000	53.799438 
1969.000000	53.782129 
1968.000000	53.760266 
1967.000000	53.733921 
1966.000000	53.704261 
1965.000000	53.673481 
1964.000000	53.644323 
1963.000000	53.619837 
1962.000000	53.602409 
1961.000000	53.593230 
1960.000000	53.592109 
1959.000000	53.597378 
1958.000000	53.606295 
1957.000000	53.615403 
1956.000000	53.621459 
1955.000000	53.622150 
1954.000000	53.616237 
1953.000000	53.604340 
1952.000000	53.588318 
1951.000000	53.571319 
1950.000000	53.556847 
1949.000000	53.548145 
1948.000000	53.547620 
1947.000000	53.555965 
1946.000000	53.572273 
1945.000000	53.593826 
1944.000000	53.616881 
1943.000000	53.636980 
1942.000000	53.650140 
1941.000000	53.653430 
1940.000000	53.645467 
1939.000000	53.626942 
1938.000000	53.600144 
1937.000000	53.568673 
1936.000000	53.536748 
1935.000000	53.508114 
1934.000000	53.485608 
1933.000000	53.470373 
1932.000000	53.461956 
1931.000000	53.458523 
1930.000000	53.457689 
1929.000000	53.456997 
1928.000000	53.454685 
1927.000000	53.450059 
1926.000000	53.443551 
1925.000000	53.436183 
1924.000000	53.429388 
1923.000000	53.424000 
1922.000000	53.420305 
1921.000000	53.417778 
1920.000000	53.415513 
1919.000000	53.412437 
1918.000000	53.407812 
1917.000000	53.401637 
1916.000000	53.394460 
1915.000000	53.387331 
1914.000000	53.381180 
1913.000000	53.376531 
1912.000000	53.373026 
1911.000000	53.369426 
1910.000000	53.364062 
1909.000000	53.355431 
1908.000000	53.342580 
1907.000000	53.325700 
1906.000000	53.306245 
1905.000000	53.286600 
1904.000000	53.269600 
1903.000000	53.257799 
1902.000000	53.252983 
1901.000000	53.255796 
1900.000000	53.265404 
1899.000000	53.279614 
1898.000000	53.295636 
1897.000000	53.310275 
1896.000000	53.320574 
1895.000000	53.324270 
1894.000000	53.320121 
1893.000000	53.308176 
1892.000000	53.289341 
1891.000000	53.265404 
1890.000000	53.238511 
1889.000000	53.210854 
1888.000000	53.184509 
1887.000000	53.160977 
1886.000000	53.141403 
1885.000000	53.126287 
1884.000000	53.115701 
1883.000000	53.109478 
1882.000000	53.107094 
1881.000000	53.107833 
1880.000000	53.110814 
1879.000000	53.114771 
1878.000000	53.117990 
1877.000000	53.118562 
1876.000000	53.114748 
1875.000000	53.104948 
1874.000000	53.088331 
1873.000000	53.065133 
1872.000000	53.036689 
1871.000000	53.005146 
1870.000000	52.973222 
1869.000000	52.943634 
1868.000000	52.918672 
1867.000000	52.899765 
1866.000000	52.887439 
1865.000000	52.881097 
1864.000000	52.879309 
1863.000000	52.880215 
1862.000000	52.881693 
1861.000000	52.881908 
1860.000000	52.879500 
1859.000000	52.873444 
1858.000000	52.863526 
1857.000000	52.849960 
1856.000000	52.833533 
1855.000000	52.815294 
1854.000000	52.796459 
1853.000000	52.778363 
1852.000000	52.762269 
1851.000000	52.749347 
1850.000000	52.740287 
1849.000000	52.735304 
1848.000000	52.734279 
1847.000000	52.736449 
1846.000000	52.740645 
1845.000000	52.745318 
1844.000000	52.748799 
1843.000000	52.749562 
1842.000000	52.746272 
1841.000000	52.738380 
1840.000000	52.726030 
1839.000000	52.710270 
1838.000000	52.692794 
1837.000000	52.676010 
1836.000000	52.662158 
1835.000000	52.653217 
1834.000000	52.650427 
1833.000000	52.653932 
1832.000000	52.662825 
1831.000000	52.675056 
1830.000000	52.688050 
1829.000000	52.698850 
1828.000000	52.704906 
1827.000000	52.704238 
1826.000000	52.695894 
1825.000000	52.680015 
1824.000000	52.657842 
1823.000000	52.631330 
1822.000000	52.602934 
1821.000000	52.575278 
1820.000000	52.550673 
1819.000000	52.530956 
1818.000000	52.517223 
1817.000000	52.509975 
1816.000000	52.508711 
1815.000000	52.512335 
1814.000000	52.519106 
1813.000000	52.526926 
1812.000000	52.533626 
1811.000000	52.537059 
1810.000000	52.535533 
1809.000000	52.527856 
1808.000000	52.513718 
1807.000000	52.493691 
1806.000000	52.469110 
1805.000000	52.442026 
1804.000000	52.414822 
1803.000000	52.390003 
1802.000000	52.369546 
1801.000000	52.354764 
1800.000000	52.345967 
1799.000000	52.342438 
1798.000000	52.342724 
1797.000000	52.345132 
1796.000000	52.347898 
1795.000000	52.349495 
1794.000000	52.348947 
1793.000000	52.345871 
1792.000000	52.340435 
1791.000000	52.333450 
1790.000000	52.325797 
1789.000000	52.318453 
1788.000000	52.312374 
1787.000000	52.308058 
1786.000000	52.305388 
1785.000000	52.303457 
1784.000000	52.301025 
1783.000000	52.296638 
1782.000000	52.289032 
1781.000000	52.277708 
1780.000000	52.262926 
1779.000000	52.245926 
1778.000000	52.228665 
1777.000000	52.213191 
1776.000000	52.201223 
1775.000000	52.193546 
1774.000000	52.189755 
1773.000000	52.188301 
1772.000000	52.186894 
1771.000000	52.183127 
1770.000000	52.175235 
1769.000000	52.162504 
1768.000000	52.145600 
1767.000000	52.126312 
1766.000000	52.107262 
1765.000000	52.091002 
1764.000000	52.079296 
1763.000000	52.073049 
1762.000000	52.071881 
1761.000000	52.074313 
1760.000000	52.078270 
1759.000000	52.081584 
1758.000000	52.082633 
1757.000000	52.080321 
1756.000000	52.074503 
1755.000000	52.065777 
1754.000000	52.055454 
1753.000000	52.044725 
1752.000000	52.034735 
1751.000000	52.026152 
1750.000000	52.019166 
1749.000000	52.013611 
1748.000000	52.008843 
1747.000000	52.003955 
1746.000000	51.998066 
1745.000000	51.990532 
1744.000000	51.980781 
1743.000000	51.968550 
1742.000000	51.953792 
1741.000000	51.936817 
1740.000000	51.918220 
1739.000000	51.898741 
1738.000000	51.879453 
1737.000000	51.861119 
1736.000000	51.844477 
1735.000000	51.829481 
1734.000000	51.815581 
1733.000000	51.801562 
1732.000000	51.785802 
1731.000000	51.766610 
1730.000000	51.742553 
1729.000000	51.713180 
1728.000000	51.679134 
1727.000000	51.642632 
1726.000000	51.606750 
1725.000000	51.575541 
1724.000000	51.553058 
1723.000000	51.542687 
1722.000000	51.546287 
1721.000000	51.563549 
1720.000000	51.592111 
1719.000000	51.627612 
1718.000000	51.664543 
1717.000000	51.697421 
1716.000000	51.721572 
1715.000000	51.734423 
1714.000000	51.735782 
1713.000000	51.727747 
1712.000000	51.714205 
1711.000000	51.699733 
1710.000000	51.688480 
1709.000000	51.683163 
1708.000000	51.684284 
1707.000000	51.690459 
1706.000000	51.698756 
1705.000000	51.705622 
1704.000000	51.708030 
1703.000000	51.704168 
1702.000000	51.694011 
1701.000000	51.678967 
1700.000000	51.661610 
1699.000000	51.644635 
1698.000000	51.630306 
1697.000000	51.619791 
1696.000000	51.612949 
1695.000000	51.608824 
1694.000000	51.605725 
1693.000000	51.602220 
1692.000000	51.597428 
1691.000000	51.591324 
1690.000000	51.584815 
1689.000000	51.579523 
1688.000000	51.576948 
1687.000000	51.578211 
1686.000000	51.583814 
1685.000000	51.593303 
1684.000000	51.605463 
1683.000000	51.618361 
1682.000000	51.629948 
1681.000000	51.638221 
1680.000000	51.641559 
1679.000000	51.639103 
1678.000000	51.630783 
1677.000000	51.617288 
1676.000000	51.599884 
1675.000000	51.580238 
1674.000000	51.560044 
1673.000000	51.540875 
1672.000000	51.523876 
1671.000000	51.509523 
1670.000000	51.497673 
1669.000000	51.487636 
1668.000000	51.478409 
1667.000000	51.468801 
1666.000000	51.457738 
1665.000000	51.444554 
1664.000000	51.429057 
1663.000000	51.411604 
1662.000000	51.392984 
1661.000000	51.374340 
1660.000000	51.356911 
1659.000000	51.342105 
1658.000000	51.331090 
1657.000000	51.324772 
1656.000000	51.323366 
1655.000000	51.326537 
1654.000000	51.333022 
1653.000000	51.340866 
1652.000000	51.347708 
1651.000000	51.351118 
1650.000000	51.349234 
1649.000000	51.340937 
1648.000000	51.326131 
1647.000000	51.306056 
1646.000000	51.282763 
1645.000000	51.258921 
1644.000000	51.237106 
1643.000000	51.219391 
1642.000000	51.206707 
1641.000000	51.199078 
1640.000000	51.195263 
1639.000000	51.193499 
1638.000000	51.191639 
1637.000000	51.187753 
1636.000000	51.180434 
1635.000000	51.168918 
1634.000000	51.153063 
1633.000000	51.133418 
1632.000000	51.110959 
1631.000000	51.086926 
1630.000000	51.062655 
1629.000000	51.039409 
1628.000000	51.018071 
1627.000000	50.999212 
1626.000000	50.982880 
1625.000000	50.968742 
1624.000000	50.956177 
1623.000000	50.944447 
1622.000000	50.933074 
1621.000000	50.921773 
1620.000000	50.910663 
1619.000000	50.900316 
1618.000000	50.891351 
1617.000000	50.884485 
1616.000000	50.879883 
1615.000000	50.877451 
1614.000000	50.876498 
1613.000000	50.876235 
1612.000000	50.875902 
1611.000000	50.875020 
1610.000000	50.873827 
1609.000000	50.872755 
1608.000000	50.872468 
1607.000000	50.873422 
1606.000000	50.875568 
1605.000000	50.878310 
1604.000000	50.880551 
1603.000000	50.880932 
1602.000000	50.878167 
1601.000000	50.871396 
1600.000000	50.860333 
1599.000000	50.845599 
1598.000000	50.828385 
1597.000000	50.810289 
1596.000000	50.792884 
1595.000000	50.777363 
1594.000000	50.764441 
1593.000000	50.754070 
1592.000000	50.745797 
1591.000000	50.738906 
1590.000000	50.732922 
1589.000000	50.727605 
1588.000000	50.723433 
1587.000000	50.721287 
1586.000000	50.722479 
1585.000000	50.728106 
1584.000000	50.738668 
1583.000000	50.753545 
1582.000000	50.770854 
1581.000000	50.787496 
1580.000000	50.799560 
1579.000000	50.803399 
1578.000000	50.796079 
1577.000000	50.776433 
1576.000000	50.745439 
1575.000000	50.706028 
1574.000000	50.662446 
1573.000000	50.619339 
1572.000000	50.580692 
1571.000000	50.549101 
1570.000000	50.525617 
1569.000000	50.509858 
1568.000000	50.500249 
1567.000000	50.494837 
1566.000000	50.492072 
1565.000000	50.490975 
1564.000000	50.491404 
1563.000000	50.493693 
1562.000000	50.498414 
1561.000000	50.505685 
1560.000000	50.514864 
1559.000000	50.524473 
1558.000000	50.532364 
1557.000000	50.536370 
1556.000000	50.534725 
1555.000000	50.526952 
1554.000000	50.513935 
1553.000000	50.498032 
1552.000000	50.482606 
1551.000000	50.471138 
1550.000000	50.466179 
1549.000000	50.468850 
1548.000000	50.478243 
1547.000000	50.491404 
1546.000000	50.504088 
1545.000000	50.511431 
1544.000000	50.509262 
1543.000000	50.495028 
1542.000000	50.468444 
1541.000000	50.431537 
1540.000000	50.388264 
1539.000000	50.343418 
1538.000000	50.301814 
1537.000000	50.267219 
1536.000000	50.241994 
1535.000000	50.226688 
1534.000000	50.220227 
1533.000000	50.220727 
1532.000000	50.225830 
1531.000000	50.233459 
1530.000000	50.242137 
1529.000000	50.251078 
1528.000000	50.260519 
1527.000000	50.271296 
1526.000000	50.284337 
1525.000000	50.300240 
1524.000000	50.318861 
1523.000000	50.338959 
1522.000000	50.358343 
1521.000000	50.374126 
1520.000000	50.383329 
1519.000000	50.383162 
1518.000000	50.372290 
1517.000000	50.350761 
1516.000000	50.320172 
1515.000000	50.283527 
1514.000000	50.244545 
1513.000000	50.207161 
1512.000000	50.175046 
1511.000000	50.150847 
1510.000000	50.136113 
1509.000000	50.131177 
1508.000000	50.135207 
1507.000000	50.146675 
1506.000000	50.163650 
1505.000000	50.184011 
1504.000000	50.205469 
1503.000000	50.226020 
1502.000000	50.243639 
1501.000000	50.256538 
1500.000000	50.263309 
1499.000000	50.263190 
1498.000000	50.256204 
1497.000000	50.243496 
1496.000000	50.227308 
1495.000000	50.210690 
1494.000000	50.196695 
1493.000000	50.187826 
1492.000000	50.185155 
1491.000000	50.188016 
1490.000000	50.193905 
1489.000000	50.199580 
1488.000000	50.201559 
1487.000000	50.197100 
1486.000000	50.184726 
1485.000000	50.164723 
1484.000000	50.138974 
1483.000000	50.110435 
1482.000000	50.082325 
1481.000000	50.057172 
1480.000000	50.036454 
1479.000000	50.020551 
1478.000000	50.008583 
1477.000000	49.998855 
1476.000000	49.989438 
1475.000000	49.978709 
1474.000000	49.965834 
1473.000000	49.951052 
1472.000000	49.935460 
1471.000000	49.920558 
1470.000000	49.907875 
1469.000000	49.898266 
1468.000000	49.891877 
1467.000000	49.887394 
1466.000000	49.882507 
1465.000000	49.873805 
1464.000000	49.857807 
1463.000000	49.831557 
1462.000000	49.792933 
1461.000000	49.741959 
1460.000000	49.680447 
1459.000000	49.613070 
1458.000000	49.546384 
1457.000000	49.488615 
1456.000000	49.447607 
1455.000000	49.429607 
1454.000000	49.437665 
1453.000000	49.470806 
1452.000000	49.523973 
1451.000000	49.588966 
1450.000000	49.656081 
1449.000000	49.716067 
1448.000000	49.761843 
1447.000000	49.789452 
1446.000000	49.798226 
1445.000000	49.790644 
1444.000000	49.770998 
1443.000000	49.744915 
1442.000000	49.717926 
1441.000000	49.694991 
1440.000000	49.679780 
1439.000000	49.674725 
1438.000000	49.680352 
1437.000000	49.695968 
1436.000000	49.719190 
1435.000000	49.746465 
1434.000000	49.773454 
1433.000000	49.795413 
1432.000000	49.808359 
1431.000000	49.809598 
1430.000000	49.798536 
1429.000000	49.776768 
1428.000000	49.747848 
1427.000000	49.716472 
1426.000000	49.687242 
1425.000000	49.663901 
1424.000000	49.648308 
1423.000000	49.640202 
1422.000000	49.637389 
1421.000000	49.636650 
1420.000000	49.634647 
1419.000000	49.629116 
1418.000000	49.619054 
1417.000000	49.604773 
1416.000000	49.587535 
1415.000000	49.569106 
1414.000000	49.550700 
1413.000000	49.532628 
1412.000000	49.514150 
1411.000000	49.493932 
1410.000000	49.470949 
1409.000000	49.444794 
1408.000000	49.416232 
1407.000000	49.386978 
1406.000000	49.359583 
1405.000000	49.336528 
1404.000000	49.319720 
1403.000000	49.309682 
1402.000000	49.305438 
1401.000000	49.304580 
1400.000000	49.304151 
1399.000000	49.301195 
1398.000000	49.293684 
1397.000000	49.280738 
1396.000000	49.262881 
1395.000000	49.241781 
1394.000000	49.219727 
1393.000000	49.199151 
1392.000000	49.181985 
1391.000000	49.169516 
1390.000000	49.162292 
1389.000000	49.160289 
1388.000000	49.163150 
1387.000000	49.170374 
1386.000000	49.181652 
1385.000000	49.196839 
1384.000000	49.215912 
1383.000000	49.238634 
1382.000000	49.264407 
1381.000000	49.291872 
1380.000000	49.319100 
1379.000000	49.343585 
1378.000000	49.362802 
1377.000000	49.374556 
1376.000000	49.377608 
1375.000000	49.372005 
1374.000000	49.359083 
1373.000000	49.341368 
1372.000000	49.321937 
1371.000000	49.304032 
1370.000000	49.290013 
1369.000000	49.281263 
1368.000000	49.277663 
1367.000000	49.277973 
1366.000000	49.279999 
1365.000000	49.281454 
1364.000000	49.280261 
1363.000000	49.275088 
1362.000000	49.265456 
1361.000000	49.251604 
1360.000000	49.234294 
1359.000000	49.214434 
1358.000000	49.192786 
1357.000000	49.169635 
1356.000000	49.145150 
1355.000000	49.119019 
1354.000000	49.091196 
1353.000000	49.061727 
1352.000000	49.030923 
1351.000000	48.999190 
1350.000000	48.967409 
1349.000000	48.936557 
1348.000000	48.907256 
1347.000000	48.880434 
1346.000000	48.856711 
1345.000000	48.836874 
1344.000000	48.821496 
1343.000000	48.811173 
1342.000000	48.806095 
1341.000000	48.806095 
1340.000000	48.810529 
1339.000000	48.818230 
1338.000000	48.827743 
1337.000000	48.837518 
1336.000000	48.846364 
1335.000000	48.853445 
1334.000000	48.858523 
1333.000000	48.861861 
1332.000000	48.863911 
1331.000000	48.865151 
1330.000000	48.865532 
1329.000000	48.864507 
1328.000000	48.861002 
1327.000000	48.853468 
1326.000000	48.840308 
1325.000000	48.820734 
1324.000000	48.794889 
1323.000000	48.764395 
1322.000000	48.731923 
1321.000000	48.701190 
1320.000000	48.675704 
1319.000000	48.658299 
1318.000000	48.650264 
1317.000000	48.651123 
1316.000000	48.658561 
1315.000000	48.669123 
1314.000000	48.678970 
1313.000000	48.684740 
1312.000000	48.684263 
1311.000000	48.676848 
1310.000000	48.663234 
1309.000000	48.645210 
1308.000000	48.625063 
1307.000000	48.604917 
1306.000000	48.586392 
1305.000000	48.570108 
1304.000000	48.556470 
1303.000000	48.545193 
1302.000000	48.536014 
1301.000000	48.528432 
1300.000000	48.522067 
1299.000000	48.516345 
1298.000000	48.510408 
1297.000000	48.503327 
1296.000000	48.493790 
1295.000000	48.480868 
1294.000000	48.464083 
1293.000000	48.443937 
1292.000000	48.421597 
1291.000000	48.399162 
1290.000000	48.379158 
1289.000000	48.364114 
1288.000000	48.355889 
1287.000000	48.355436 
1286.000000	48.362398 
1285.000000	48.375201 
1284.000000	48.391222 
1283.000000	48.407435 
1282.000000	48.420882 
1281.000000	48.429131 
1280.000000	48.430514 
1279.000000	48.424386 
1278.000000	48.410987 
1277.000000	48.391294 
1276.000000	48.366808 
1275.000000	48.339271 
1274.000000	48.310732 
1273.000000	48.283338 
1272.000000	48.259305 
1271.000000	48.240900 
1270.000000	48.230099 
1269.000000	48.228693 
1268.000000	48.237729 
1267.000000	48.256850 
1266.000000	48.284268 
1265.000000	48.316454 
1264.000000	48.348641 
1263.000000	48.375415 
1262.000000	48.392105 
1261.000000	48.395466 
1260.000000	48.385119 
1259.000000	48.363161 
1258.000000	48.334240 
1257.000000	48.304510 
1256.000000	48.280048 
1255.000000	48.265671 
1254.000000	48.263764 
1253.000000	48.273801 
1252.000000	48.292684 
1251.000000	48.315310 
1250.000000	48.335909 
1249.000000	48.349189 
1248.000000	48.351478 
1247.000000	48.341226 
1246.000000	48.319077 
1245.000000	48.287558 
1244.000000	48.249912 
1243.000000	48.209810 
1242.000000	48.170518 
1241.000000	48.134469 
1240.000000	48.103260 
1239.000000	48.077511 
1238.000000	48.057103 
1237.000000	48.041391 
1236.000000	48.029446 
1235.000000	48.019981 
1234.000000	48.011589 
1233.000000	48.002529 
1232.000000	47.991061 
1231.000000	47.975444 
1230.000000	47.954535 
1229.000000	47.928071 
1228.000000	47.896909 
1227.000000	47.863173 
1226.000000	47.830033 
1225.000000	47.801446 
1224.000000	47.781300 
1223.000000	47.772288 
1222.000000	47.774958 
1221.000000	47.787642 
1220.000000	47.806477 
1219.000000	47.825837 
1218.000000	47.839760 
1217.000000	47.842741 
1216.000000	47.831654 
1215.000000	47.806453 
1214.000000	47.770667 
1213.000000	47.730255 
1212.000000	47.692513 
1211.000000	47.663927 
1210.000000	47.649049 
1209.000000	47.649264 
1208.000000	47.662878 
1207.000000	47.685837 
1206.000000	47.712659 
1205.000000	47.738194 
1204.000000	47.758579 
1203.000000	47.772073 
1202.000000	47.779130 
1201.000000	47.781944 
1200.000000	47.784328 
1199.000000	47.790551 
1198.000000	47.804784 
1197.000000	47.829747 
1196.000000	47.866010 
1195.000000	47.911167 
1194.000000	47.960972 
1193.000000	48.008990 
1192.000000	48.047375 
1191.000000	48.068451 
1190.000000	48.066496 
1189.000000	48.039484 
1188.000000	47.989416 
1187.000000	47.922778 
1186.000000	47.849082 
1185.000000	47.778892 
1184.000000	47.721958 
1183.000000	47.684478 
1182.000000	47.668099 
1181.000000	47.669649 
1180.000000	47.682523 
1179.000000	47.698211 
1178.000000	47.708606 
1177.000000	47.707438 
1176.000000	47.691559 
1175.000000	47.660923 
1174.000000	47.618341 
1173.000000	47.569131 
1172.000000	47.520375 
1171.000000	47.479414 
1170.000000	47.453284 
1169.000000	47.448587 
1168.000000	47.470426 
1167.000000	47.521829 
1166.000000	47.602081 
1165.000000	47.707176 
1164.000000	47.828626 
1163.000000	47.954392 
1162.000000	48.070120 
1161.000000	48.161792 
1160.000000	48.217582 
1159.000000	48.230171 
1158.000000	48.197865 
1157.000000	48.125052 
1156.000000	48.021101 
1155.000000	47.899246 
1154.000000	47.773838 
1153.000000	47.658252 
1152.000000	47.563004 
1151.000000	47.495079 
1150.000000	47.456192 
1149.000000	47.443771 
1148.000000	47.451162 
1147.000000	47.469806 
1146.000000	47.490143 
1145.000000	47.503733 
1144.000000	47.504234 
1143.000000	47.488498 
1142.000000	47.456574 
1141.000000	47.411465 
1140.000000	47.358536 
1139.000000	47.303938 
1138.000000	47.253179 
1137.000000	47.210049 
1136.000000	47.176313 
1135.000000	47.151350 
1134.000000	47.133517 
1133.000000	47.120428 
1132.000000	47.109389 
1131.000000	47.098731 
1130.000000	47.087931 
1129.000000	47.077465 
1128.000000	47.067880 
1127.000000	47.060179 
1126.000000	47.055029 
1125.000000	47.053003 
1124.000000	47.054100 
1123.000000	47.058200 
1122.000000	47.064971 
1121.000000	47.074031 
1120.000000	47.085332 
1119.000000	47.098422 
1118.000000	47.112727 
1117.000000	47.127676 
1116.000000	47.143197 
1115.000000	47.159790 
1114.000000	47.178530 
1113.000000	47.201061 
1112.000000	47.228455 
1111.000000	47.260570 
1110.000000	47.295188 
1109.000000	47.328209 
1108.000000	47.353982 
1107.000000	47.366499 
1106.000000	47.361111 
1105.000000	47.336339 
1104.000000	47.293853 
1103.000000	47.239017 
1102.000000	47.178912 
1101.000000	47.121381 
1100.000000	47.072005 
1099.000000	47.033214 
1098.000000	47.003459 
1097.000000	46.978139 
1096.000000	46.951484 
1095.000000	46.919012 
1094.000000	46.879172 
1093.000000	46.834301 
1092.000000	46.790170 
1091.000000	46.754503 
1090.000000	46.734285 
1089.000000	46.733832 
1088.000000	46.753334 
1087.000000	46.788692 
1086.000000	46.832609 
1085.000000	46.876263 
1084.000000	46.912002 
1083.000000	46.934580 
1082.000000	46.942257 
1081.000000	46.936488 
1080.000000	46.921205 
1079.000000	46.901035 
1078.000000	46.879673 
1077.000000	46.859169 
1076.000000	46.839976 
1075.000000	46.820950 
1074.000000	46.801042 
1073.000000	46.779203 
1072.000000	46.755170 
1071.000000	46.729850 
1070.000000	46.704936 
1069.000000	46.682620 
1068.000000	46.664595 
1067.000000	46.652364 
1066.000000	46.646547 
1065.000000	46.647119 
1064.000000	46.653318 
1063.000000	46.663904 
1062.000000	46.677422 
1061.000000	46.692109 
1060.000000	46.706008 
1059.000000	46.717143 
1058.000000	46.723103 
1057.000000	46.721196 
1056.000000	46.708750 
1055.000000	46.683716 
1054.000000	46.645021 
1053.000000	46.593284 
1052.000000	46.531033 
1051.000000	46.462774 
1050.000000	46.394610 
1049.000000	46.333289 
1048.000000	46.285295 
1047.000000	46.255612 
1046.000000	46.246933 
1045.000000	46.258902 
1044.000000	46.288108 
1043.000000	46.328592 
1042.000000	46.372413 
1041.000000	46.411037 
1040.000000	46.436595 
1039.000000	46.443438 
1038.000000	46.429181 
1037.000000	46.395230 
1036.000000	46.346282 
1035.000000	46.289348 
1034.000000	46.232175 
1033.000000	46.182179 
1032.000000	46.144604 
1031.000000	46.122241 
1030.000000	46.115636 
1029.000000	46.123695 
1028.000000	46.144175 
1027.000000	46.174478 
1026.000000	46.212172 
1025.000000	46.255159 
1024.000000	46.300745 
1023.000000	46.346116 
1022.000000	46.387434 
1021.000000	46.421098 
1020.000000	46.443939 
1019.000000	46.454524 
1018.000000	46.453666 
1017.000000	46.444487 
1016.000000	46.432328 
1015.000000	46.422076 
1014.000000	46.417140 
1013.000000	46.417593 
1012.000000	46.420216 
1011.000000	46.419167 
1010.000000	46.407723 
1009.000000	46.380591 
1008.000000	46.335434 
1007.000000	46.274304 
1006.000000	46.203160 
1005.000000	46.130275 
1004.000000	46.064329 
1003.000000	46.011877 
1002.000000	45.975708 
1001.000000	45.954656 
1000.000000	45.944261 
999.000000	 45.938539 
998.000000	 45.932054 
997.000000	 45.921492 
996.000000	 45.906901 
995.000000	 45.891094 
994.000000	 45.878887 
993.000000	 45.874309 
992.000000	 45.880436 
991.000000	 45.897483 
990.000000	 45.923185 
989.000000	 45.952892 
988.000000	 45.980906 
987.000000	 46.002125 
986.000000	 46.012806 
985.000000	 46.011590 
984.000000	 45.999455 
983.000000	 45.979404 
982.000000	 45.955657 
981.000000	 45.932650 
980.000000	 45.913910 
979.000000	 45.901370 
978.000000	 45.895767 
977.000000	 45.896148 
976.000000	 45.900583 
975.000000	 45.906686 
974.000000	 45.912361 
973.000000	 45.915937 
972.000000	 45.916271 
971.000000	 45.912837 
970.000000	 45.905900 
969.000000	 45.896148 
968.000000	 45.884346 
967.000000	 45.871043 
966.000000	 45.856714 
965.000000	 45.841360 
964.000000	 45.824790 
963.000000	 45.806384 
962.000000	 45.785617 
961.000000	 45.761871 
960.000000	 45.734930 
959.000000	 45.705032 
958.000000	 45.673060 
957.000000	 45.640826 
956.000000	 45.610976 
955.000000	 45.586252 
954.000000	 45.569038 
953.000000	 45.560526 
952.000000	 45.560550 
951.000000	 45.567202 
950.000000	 45.577430 
949.000000	 45.587635 
948.000000	 45.594739 
947.000000	 45.597004 
946.000000	 45.594239 
945.000000	 45.587873 
944.000000	 45.580363 
943.000000	 45.574259 
942.000000	 45.571684 
941.000000	 45.573568 
940.000000	 45.579719 
939.000000	 45.588755 
938.000000	 45.598745 
937.000000	 45.607733 
936.000000	 45.614266 
935.000000	 45.617580 
934.000000	 45.617604 
933.000000	 45.614743 
932.000000	 45.609259 
931.000000	 45.601105 
930.000000	 45.590019 
929.000000	 45.575666 
928.000000	 45.557951 
927.000000	 45.537304 
926.000000	 45.514750 
925.000000	 45.491766 
924.000000	 45.470166 
923.000000	 45.451378 
922.000000	 45.436501 
921.000000	 45.425534 
920.000000	 45.417523 
919.000000	 45.410656 
918.000000	 45.402765 
917.000000	 45.391869 
916.000000	 45.376467 
915.000000	 45.356416 
914.000000	 45.332789 
913.000000	 45.307707 
912.000000	 45.283913 
911.000000	 45.263671 
910.000000	 45.248031 
909.000000	 45.236349 
908.000000	 45.226383 
907.000000	 45.214653 
906.000000	 45.197272 
905.000000	 45.171260 
904.000000	 45.135474 
903.000000	 45.091319 
902.000000	 45.042443 
901.000000	 44.994211 
900.000000	 44.952225 
899.000000	 44.920897 
898.000000	 44.902205 
897.000000	 44.895076 
896.000000	 44.895696 
895.000000	 44.898462 
894.000000	 44.897603 
893.000000	 44.888496 
892.000000	 44.869232 
891.000000	 44.840931 
890.000000	 44.807720 
889.000000	 44.775152 
888.000000	 44.749689 
887.000000	 44.736146 
886.000000	 44.737458 
885.000000	 44.753623 
884.000000	 44.782257 
883.000000	 44.819140 
882.000000	 44.859313 
881.000000	 44.898271 
880.000000	 44.932246 
879.000000	 44.958615 
878.000000	 44.975924 
877.000000	 44.983768 
876.000000	 44.982409 
875.000000	 44.972610 
874.000000	 44.955611 
873.000000	 44.933032 
872.000000	 44.906759 
871.000000	 44.878482 
870.000000	 44.849872 
869.000000	 44.822192 
868.000000	 44.796299 
867.000000	 44.772648 
866.000000	 44.751167 
865.000000	 44.731783 
864.000000	 44.714617 
863.000000	 44.700002 
862.000000	 44.688415 
861.000000	 44.680356 
860.000000	 44.676065 
859.000000	 44.675207 
858.000000	 44.677042 
857.000000	 44.680476 
856.000000	 44.684100 
855.000000	 44.686841 
854.000000	 44.688200 
853.000000	 44.688439 
852.000000	 44.688344 
851.000000	 44.688773 
850.000000	 44.690322 
849.000000	 44.693136 
848.000000	 44.696497 
847.000000	 44.699001 
846.000000	 44.698238 
845.000000	 44.691538 
844.000000	 44.675970 
843.000000	 44.649410 
842.000000	 44.610691 
841.000000	 44.559931 
840.000000	 44.498825 
839.000000	 44.430303 
838.000000	 44.358682 
837.000000	 44.289040 
836.000000	 44.226884 
835.000000	 44.177150 
834.000000	 44.144201 
833.000000	 44.130945 
832.000000	 44.138717 
831.000000	 44.166660 
830.000000	 44.211673 
829.000000	 44.268536 
828.000000	 44.330096 
827.000000	 44.388055 
826.000000	 44.434309 
825.000000	 44.461941 
824.000000	 44.466686 
823.000000	 44.447708 
822.000000	 44.408106 
821.000000	 44.354438 
820.000000	 44.296002 
819.000000	 44.242763 
818.000000	 44.203782 
817.000000	 44.184899 
816.000000	 44.187879 
815.000000	 44.209170 
814.000000	 44.241142 
813.000000	 44.273233 
812.000000	 44.294309 
811.000000	 44.295692 
810.000000	 44.272565 
809.000000	 44.226002 
808.000000	 44.162392 
807.000000	 44.092249 
806.000000	 44.026899 
805.000000	 43.976306 
804.000000	 43.946743 
803.000000	 43.939352 
802.000000	 43.950557 
801.000000	 43.973112 
800.000000	 43.998336 
799.000000	 44.018316 
798.000000	 44.028115 
797.000000	 44.026064 
796.000000	 44.013595 
795.000000	 43.994760 
794.000000	 43.974447 
793.000000	 43.956565 
792.000000	 43.942761 
791.000000	 43.931913 
790.000000	 43.920850 
789.000000	 43.905401 
788.000000	 43.882465 
787.000000	 43.851137 
786.000000	 43.813896 
785.000000	 43.775916 
784.000000	 43.744444 
783.000000	 43.727064 
782.000000	 43.729400 
781.000000	 43.753695 
780.000000	 43.797254 
779.000000	 43.852853 
778.000000	 43.909883 
777.000000	 43.957161 
776.000000	 43.984961 
775.000000	 43.987202 
774.000000	 43.962574 
773.000000	 43.914866 
772.000000	 43.850803 
771.000000	 43.778228 
770.000000	 43.704175 
769.000000	 43.633556 
768.000000	 43.569874 
767.000000	 43.515276 
766.000000	 43.471479 
765.000000	 43.439745 
764.000000	 43.420934 
763.000000	 43.414425 
762.000000	 43.417191 
761.000000	 43.424010 
760.000000	 43.427133 
759.000000	 43.419098 
758.000000	 43.393111 
757.000000	 43.347096 
756.000000	 43.283772 
755.000000	 43.212080 
754.000000	 43.144893 
753.000000	 43.096780 
752.000000	 43.079996 
751.000000	 43.101596 
750.000000	 43.161344 
749.000000	 43.251299 
748.000000	 43.357801 
747.000000	 43.463897 
746.000000	 43.553113 
745.000000	 43.612122 
744.000000	 43.633151 
743.000000	 43.614315 
742.000000	 43.559384 
741.000000	 43.476724 
740.000000	 43.377470 
739.000000	 43.273735 
738.000000	 43.176317 
737.000000	 43.093442 
736.000000	 43.029427 
735.000000	 42.985248 
734.000000	 42.958760 
733.000000	 42.945814 
732.000000	 42.941904 
731.000000	 42.942619 
730.000000	 42.945504 
729.000000	 42.949056 
728.000000	 42.953991 
727.000000	 42.961406 
726.000000	 42.972970 
725.000000	 42.989277 
724.000000	 43.009614 
723.000000	 43.031883 
722.000000	 43.052601 
721.000000	 43.067955 
720.000000	 43.074011 
719.000000	 43.067884 
718.000000	 43.047571 
717.000000	 43.012642 
716.000000	 42.963552 
715.000000	 42.901659 
714.000000	 42.829465 
713.000000	 42.750430 
712.000000	 42.668366 
711.000000	 42.587208 
710.000000	 42.510223 
709.000000	 42.440080 
708.000000	 42.378354 
707.000000	 42.326545 
706.000000	 42.285513 
705.000000	 42.256927 
704.000000	 42.242383 
703.000000	 42.243981 
702.000000	 42.263317 
701.000000	 42.300748 
700.000000	 42.354059 
699.000000	 42.418313 
698.000000	 42.486166 
697.000000	 42.548727 
696.000000	 42.596864 
695.000000	 42.623066 
694.000000	 42.622971 
693.000000	 42.596077 
692.000000	 42.546129 
691.000000	 42.479562 
690.000000	 42.404198 
689.000000	 42.327690 
688.000000	 42.256307 
687.000000	 42.194104 
686.000000	 42.142796 
685.000000	 42.102813 
684.000000	 42.073464 
683.000000	 42.053294 
682.000000	 42.040252 
681.000000	 42.031955 
680.000000	 42.025232 
679.000000	 42.015862 
678.000000	 41.999387 
677.000000	 41.971063 
676.000000	 41.927886 
675.000000	 41.869163 
674.000000	 41.797447 
673.000000	 41.718006 
672.000000	 41.638517 
671.000000	 41.567564 
670.000000	 41.512870 
669.000000	 41.479039 
668.000000	 41.467881 
667.000000	 41.478180 
666.000000	 41.506123 
665.000000	 41.546106 
664.000000	 41.592121 
663.000000	 41.638684 
662.000000	 41.681408 
661.000000	 41.717457 
660.000000	 41.745424 
659.000000	 41.765069 
658.000000	 41.777515 
657.000000	 41.784143 
656.000000	 41.786265 
655.000000	 41.784095 
654.000000	 41.777515 
653.000000	 41.765117 
652.000000	 41.744494 
651.000000	 41.712498 
650.000000	 41.666555 
649.000000	 41.605019 
648.000000	 41.528367 
647.000000	 41.438817 
646.000000	 41.340970 
645.000000	 41.240024 
644.000000	 41.140818 
643.000000	 41.047358 
642.000000	 40.961909 
641.000000	 40.886139 
640.000000	 40.820932 
639.000000	 40.768051 
638.000000	 40.729689 
637.000000	 40.708780 
636.000000	 40.707921 
635.000000	 40.727877 
634.000000	 40.766501 
633.000000	 40.818834 
632.000000	 40.877676 
631.000000	 40.934228 
630.000000	 40.980029 
629.000000	 41.009306 
628.000000	 41.019701 
627.000000	 41.012763 
626.000000	 40.992712 
625.000000	 40.965318 
624.000000	 40.936064 
623.000000	 40.908408 
622.000000	 40.883874 
621.000000	 40.862512 
620.000000	 40.843677 
619.000000	 40.827560 
618.000000	 40.814900 
617.000000	 40.807700 
616.000000	 40.807509 
615.000000	 40.815043 
614.000000	 40.828728 
613.000000	 40.844631 
612.000000	 40.856575 
611.000000	 40.857696 
610.000000	 40.841341 
609.000000	 40.803027 
608.000000	 40.741515 
607.000000	 40.659689 
606.000000	 40.564012 
605.000000	 40.463304 
604.000000	 40.367031 
603.000000	 40.283274 
602.000000	 40.217542 
601.000000	 40.171432 
600.000000	 40.143013 
599.000000	 40.127062 
598.000000	 40.116620 
597.000000	 40.104556 
596.000000	 40.084624 
595.000000	 40.052866 
594.000000	 40.007996 
593.000000	 39.951395 
592.000000	 39.885902 
591.000000	 39.815139 
590.000000	 39.742541 
589.000000	 39.670753 
588.000000	 39.600801 
587.000000	 39.533281 
586.000000	 39.468765 
585.000000	 39.408445 
584.000000	 39.353990 
583.000000	 39.307689 
582.000000	 39.272093 
581.000000	 39.248681 
580.000000	 39.237475 
579.000000	 39.236235 
578.000000	 39.240956 
577.000000	 39.246773 
576.000000	 39.249420 
575.000000	 39.246439 
574.000000	 39.237809 
573.000000	 39.226174 
572.000000	 39.215731 
571.000000	 39.210772 
570.000000	 39.213562 
569.000000	 39.223694 
568.000000	 39.236831 
567.000000	 39.246034 
566.000000	 39.242577 
565.000000	 39.219284 
564.000000	 39.171123 
563.000000	 39.097428 
562.000000	 39.001083 
561.000000	 38.888525 
560.000000	 38.767695 
559.000000	 38.645935 
558.000000	 38.529634 
557.000000	 38.423204 
556.000000	 38.330435 
555.000000	 38.254594 
554.000000	 38.199710 
553.000000	 38.170361 
552.000000	 38.170361 
551.000000	 38.201069 
550.000000	 38.259124 
549.000000	 38.335871 
548.000000	 38.417291 
547.000000	 38.486719 
546.000000	 38.527226 
545.000000	 38.526511 
544.000000	 38.479876 
543.000000	 38.392257 
542.000000	 38.277697 
541.000000	 38.155865 
540.000000	 38.047885 
539.000000	 37.970447 
538.000000	 37.933254 
537.000000	 37.935805 
536.000000	 37.968516 
535.000000	 38.015246 
534.000000	 38.058280 
533.000000	 38.082790 
532.000000	 38.080549 
531.000000	 38.051652 
530.000000	 38.003396 
529.000000	 37.947750 
528.000000	 37.896823 
527.000000	 37.859797 
526.000000	 37.839937 
525.000000	 37.834334 
524.000000	 37.834548 
523.000000	 37.829923 
522.000000	 37.810516 
521.000000	 37.769079 
520.000000	 37.704086 
519.000000	 37.618756 
518.000000	 37.522292 
517.000000	 37.427949 
516.000000	 37.350940 
515.000000	 37.304592 
514.000000	 37.297701 
513.000000	 37.333059 
512.000000	 37.406015 
511.000000	 37.505197 
510.000000	 37.614941 
509.000000	 37.718176 
508.000000	 37.800288 
507.000000	 37.851905 
506.000000	 37.869977 
505.000000	 37.857270 
504.000000	 37.820410 
503.000000	 37.767672 
502.000000	 37.705969 
501.000000	 37.639117 
500.000000	 37.568783 
499.000000	 37.495303 
498.000000	 37.418746 
497.000000	 37.340021 
496.000000	 37.263107 
495.000000	 37.193822 
494.000000	 37.138247 
493.000000	 37.099909 
492.000000	 37.077093 
491.000000	 37.062382 
490.000000	 37.044143 
489.000000	 37.009906 
488.000000	 36.948180 
487.000000	 36.854600 
486.000000	 36.733794 
485.000000	 36.599016 
484.000000	 36.470127 
483.000000	 36.366772 
482.000000	 36.302399 
481.000000	 36.280798 
480.000000	 36.292648 
479.000000	 36.322379 
478.000000	 36.352062 
477.000000	 36.369895 
476.000000	 36.373639 
475.000000	 36.373639 
474.000000	 36.389303 
473.000000	 36.443877 
472.000000	 36.555790 
471.000000	 36.732316 
470.000000	 36.963534 
469.000000	 37.222957 
468.000000	 37.470245 
467.000000	 37.659335 
466.000000	 37.747812 
465.000000	 37.706422 
464.000000	 37.526679 
463.000000	 37.222886 
462.000000	 36.831188 
461.000000	 36.402869 
460.000000	 35.994410 
459.000000	 35.658383 
458.000000	 35.430598 
457.000000	 35.328531 
456.000000	 35.343480 
455.000000	 35.444188 
454.000000	 35.585761 
453.000000	 35.719370 
452.000000	 35.808062 
451.000000	 35.833191 
450.000000	 35.800623 
449.000000	 35.734724 
448.000000	 35.671377 
447.000000	 35.644721 
446.000000	 35.674214 
445.000000	 35.756993 
444.000000	 35.869479 
443.000000	 35.973453 
442.000000	 36.030054 
441.000000	 36.010432 
440.000000	 35.901784 
439.000000	 35.711312 
438.000000	 35.465788 
437.000000	 35.204458 
436.000000	 34.963750 
435.000000	 34.773683 
434.000000	 34.651780 
433.000000	 34.603953 
432.000000	 34.624123 
431.000000	 34.702467 
430.000000	 34.830546 
429.000000	 35.002732 
428.000000	 35.220766 
427.000000	 35.481166 
426.000000	 35.768961 
425.000000	 36.054730 
424.000000	 36.299896 
423.000000	 36.454606 
422.000000	 36.465787 
421.000000	 36.299276 
420.000000	 35.952544 
419.000000	 35.460948 
418.000000	 34.895467 
417.000000	 34.353232 
416.000000	 33.940887 
415.000000	 33.744454 
414.000000	 33.817911 
413.000000	 34.178018 
412.000000	 34.804964 
411.000000	 35.660004 
410.000000	 36.687612 
409.000000	 37.808203 
408.000000	 38.936018 
407.000000	 39.999485 
406.000000	 40.933585 
405.000000	 41.692829 
404.000000	 42.225861 
403.000000	 42.510914 
402.000000	 42.499184 
401.000000	 42.115473 
400.000000	 41.278839 
399.000000	 39.942169 
398.000000	 38.113212 
397.000000	 35.872697 
396.000000	 33.399462 
395.000000	 30.969166 
394.000000	 28.856158 
393.000000	 27.280783 
392.000000	 26.323962 
391.000000	 25.911784 
390.000000	 25.847172 
389.000000	 25.887036 
388.000000	 25.806260 
387.000000	 25.497508 
386.000000	 25.027036 
385.000000	 24.644303 
384.000000	 24.670124 
383.000000	 25.439620 
382.000000	 27.210378 
381.000000	 30.070090 
380.000000	 33.879923 
379.000000	 38.297963 
378.000000	 42.795324 
377.000000	 46.861004 
376.000000	 50.035881 
375.000000	 52.177810 
374.000000	 53.511524 
373.000000	 54.579520 
372.000000	 56.137704 
371.000000	 58.827161 
370.000000	 62.971949 

