PE IR       SPECTRUM    SPECTRUM    ASCII       PEDS        1.60        
  -1
C-99EE~1.ASC
17/03/27
14:54:02.00
17/03/27
14:54:02.00
tln
$C-4040-8_t0005$<tbV0>[2.6,-13.0,8.0,0.0,27,1,0]
370.000000
64









2002,4.07    
MIRTGS : RIGHTBACK : INTERNAL 2
MIR : ON : INTERNAL 2
OPTKBR

0.200000
8
8.000000
FILLER
RATIO
SPECTRUM
UNLOCKED 256

DOUBLE
64
COMBINED
1
0
0


1.000000
RATIO


1
0
TRUE
51149
0
LEFT NOT FITTED RIGHT NOT FITTED 0
NONE
NONE
15600
12.000000
4.427000
51148
TRUE
1 0 8 72 0 0 0 0 

15798.010000






#HDR
-1
-1
#GR
CM-1
%T
0.00002384185791015625
0.0
5000.000000
-1.000000
4631
8
70.448756
16.997003
#DATA
5000.000000	63.314175 
4999.000000	63.210892 
4998.000000	63.128805 
4997.000000	63.075876 
4996.000000	63.059353 
4995.000000	63.085055 
4994.000000	63.155245 
4993.000000	63.266134 
4992.000000	63.408398 
4991.000000	63.567996 
4990.000000	63.727283 
4989.000000	63.867020 
4988.000000	63.970184 
4987.000000	64.024543 
4986.000000	64.024972 
4985.000000	63.974237 
4984.000000	63.881063 
4983.000000	63.758039 
4982.000000	63.619351 
4981.000000	63.478374 
4980.000000	63.345575 
4979.000000	63.228535 
4978.000000	63.132047 
4977.000000	63.059926 
4976.000000	63.017153 
4975.000000	63.009691 
4974.000000	63.042879 
4973.000000	63.119292 
4972.000000	63.236689 
4971.000000	63.385558 
4970.000000	63.549160 
4969.000000	63.704633 
4968.000000	63.825631 
4967.000000	63.889074 
4966.000000	63.880419 
4965.000000	63.798046 
4964.000000	63.653612 
4963.000000	63.471412 
4962.000000	63.283562 
4961.000000	63.122367 
4960.000000	63.013672 
4959.000000	62.970876 
4958.000000	62.992739 
4957.000000	63.065505 
4956.000000	63.167095 
4955.000000	63.272404 
4954.000000	63.358592 
4953.000000	63.407349 
4952.000000	63.407206 
4951.000000	63.352990 
4950.000000	63.245987 
4949.000000	63.090467 
4948.000000	62.895154 
4947.000000	62.672376 
4946.000000	62.439036 
4945.000000	62.214517 
4944.000000	62.021064 
4943.000000	61.880731 
4942.000000	61.813402 
4941.000000	61.832261 
4940.000000	61.941742 
4939.000000	62.134838 
4938.000000	62.393665 
4937.000000	62.691068 
4936.000000	62.994503 
4935.000000	63.270354 
4934.000000	63.489341 
4933.000000	63.630485 
4932.000000	63.684868 
4931.000000	63.655948 
4930.000000	63.559126 
4929.000000	63.418149 
4928.000000	63.262152 
4927.000000	63.120055 
4926.000000	63.016486 
4925.000000	62.967610 
4924.000000	62.979269 
4923.000000	63.047170 
4922.000000	63.159346 
4921.000000	63.299846 
4920.000000	63.450837 
4919.000000	63.598036 
4918.000000	63.731789 
4917.000000	63.849377 
4916.000000	63.953018 
4915.000000	64.048719 
4914.000000	64.141821 
4913.000000	64.235758 
4912.000000	64.330887 
4911.000000	64.423632 
4910.000000	64.508867 
4909.000000	64.579844 
4908.000000	64.632058 
4907.000000	64.662289 
4906.000000	64.670681 
4905.000000	64.658474 
4904.000000	64.627790 
4903.000000	64.581203 
4902.000000	64.521574 
4901.000000	64.450883 
4900.000000	64.370107 
4899.000000	64.279818 
4898.000000	64.180254 
4897.000000	64.071631 
4896.000000	63.954973 
4895.000000	63.831806 
4894.000000	63.705587 
4893.000000	63.581538 
4892.000000	63.467383 
4891.000000	63.371992 
4890.000000	63.304448 
4889.000000	63.271450 
4888.000000	63.275933 
4887.000000	63.315391 
4886.000000	63.381934 
4885.000000	63.461565 
4884.000000	63.539052 
4883.000000	63.600230 
4882.000000	63.635945 
4881.000000	63.642907 
4880.000000	63.625359 
4879.000000	63.593268 
4878.000000	63.558769 
4877.000000	63.532543 
4876.000000	63.520479 
4875.000000	63.522005 
4874.000000	63.530564 
4873.000000	63.536167 
4872.000000	63.528823 
4871.000000	63.502478 
4870.000000	63.457608 
4869.000000	63.402009 
4868.000000	63.347697 
4867.000000	63.308978 
4866.000000	63.297843 
4865.000000	63.321900 
4864.000000	63.382077 
4863.000000	63.472580 
4862.000000	63.583564 
4861.000000	63.701605 
4860.000000	63.813209 
4859.000000	63.905668 
4858.000000	63.969349 
4857.000000	63.998222 
4856.000000	63.989901 
4855.000000	63.946127 
4854.000000	63.872075 
4853.000000	63.776135 
4852.000000	63.669276 
4851.000000	63.563394 
4850.000000	63.469934 
4849.000000	63.397431 
4848.000000	63.350677 
4847.000000	63.329505 
4846.000000	63.329768 
4845.000000	63.345026 
4844.000000	63.368749 
4843.000000	63.395953 
4842.000000	63.424563 
4841.000000	63.454723 
4840.000000	63.487815 
4839.000000	63.524484 
4838.000000	63.563251 
4837.000000	63.600063 
4836.000000	63.628578 
4835.000000	63.641762 
4834.000000	63.633418 
4833.000000	63.600301 
4832.000000	63.543081 
4831.000000	63.466787 
4830.000000	63.380360 
4829.000000	63.295245 
4828.000000	63.222813 
4827.000000	63.171744 
4826.000000	63.147068 
4825.000000	63.149523 
4824.000000	63.175344 
4823.000000	63.217711 
4822.000000	63.267302 
4821.000000	63.314366 
4820.000000	63.350701 
4819.000000	63.371300 
4818.000000	63.374590 
4817.000000	63.362431 
4816.000000	63.340044 
4815.000000	63.314175 
4814.000000	63.291049 
4813.000000	63.274598 
4812.000000	63.266253 
4811.000000	63.264417 
4810.000000	63.265609 
4809.000000	63.265562 
4808.000000	63.261246 
4807.000000	63.250851 
4806.000000	63.234925 
4805.000000	63.214969 
4804.000000	63.192844 
4803.000000	63.169574 
4802.000000	63.144493 
4801.000000	63.116216 
4800.000000	63.082337 
4799.000000	63.042378 
4798.000000	62.998580 
4797.000000	62.956762 
4796.000000	62.925648 
4795.000000	62.914967 
4794.000000	62.933111 
4793.000000	62.984204 
4792.000000	63.066625 
4791.000000	63.173556 
4790.000000	63.294219 
4789.000000	63.416075 
4788.000000	63.527488 
4787.000000	63.620352 
4786.000000	63.691020 
4785.000000	63.740468 
4784.000000	63.772845 
4783.000000	63.793396 
4782.000000	63.806247 
4781.000000	63.814401 
4780.000000	63.817858 
4779.000000	63.814997 
4778.000000	63.802480 
4777.000000	63.778686 
4776.000000	63.742661 
4775.000000	63.695502 
4774.000000	63.639569 
4773.000000	63.578200 
4772.000000	63.514900 
4771.000000	63.452744 
4770.000000	63.393926 
4769.000000	63.339519 
4768.000000	63.289141 
4767.000000	63.241457 
4766.000000	63.194227 
4765.000000	63.145518 
4764.000000	63.094449 
4763.000000	63.042116 
4762.000000	62.990832 
4761.000000	62.944769 
4760.000000	62.908792 
4759.000000	62.888574 
4758.000000	62.887644 
4757.000000	62.908482 
4756.000000	62.951445 
4755.000000	63.015413 
4754.000000	63.096952 
4753.000000	63.191103 
4752.000000	63.292026 
4751.000000	63.392901 
4750.000000	63.486623 
4749.000000	63.565993 
4748.000000	63.624262 
4747.000000	63.656353 
4746.000000	63.659858 
4745.000000	63.635826 
4744.000000	63.589000 
4743.000000	63.527607 
4742.000000	63.462376 
4741.000000	63.403248 
4740.000000	63.357353 
4739.000000	63.327598 
4738.000000	63.312220 
4737.000000	63.304996 
4736.000000	63.297414 
4735.000000	63.281321 
4734.000000	63.251543 
4733.000000	63.207101 
4732.000000	63.151907 
4731.000000	63.093137 
4730.000000	63.040065 
4729.000000	63.000583 
4728.000000	62.980079 
4727.000000	62.979412 
4726.000000	62.995672 
4725.000000	63.023209 
4724.000000	63.055229 
4723.000000	63.085746 
4722.000000	63.111114 
4721.000000	63.130569 
4720.000000	63.145923 
4719.000000	63.159728 
4718.000000	63.175368 
4717.000000	63.195490 
4716.000000	63.221621 
4715.000000	63.253498 
4714.000000	63.289594 
4713.000000	63.327670 
4712.000000	63.365268 
4711.000000	63.400125 
4710.000000	63.430356 
4709.000000	63.454294 
4708.000000	63.470888 
4707.000000	63.479518 
4706.000000	63.479876 
4705.000000	63.472127 
4704.000000	63.457250 
4703.000000	63.437080 
4702.000000	63.414597 
4701.000000	63.393259 
4700.000000	63.376855 
4699.000000	63.368582 
4698.000000	63.370585 
4697.000000	63.383078 
4696.000000	63.404417 
4695.000000	63.430833 
4694.000000	63.457465 
4693.000000	63.478970 
4692.000000	63.490557 
4691.000000	63.489222 
4690.000000	63.474225 
4689.000000	63.447451 
4688.000000	63.413000 
4687.000000	63.376164 
4686.000000	63.342165 
4685.000000	63.315272 
4684.000000	63.298010 
4683.000000	63.290858 
4682.000000	63.292288 
4681.000000	63.299489 
4680.000000	63.309144 
4679.000000	63.318157 
4678.000000	63.324189 
4677.000000	63.325810 
4676.000000	63.322401 
4675.000000	63.313841 
4674.000000	63.300228 
4673.000000	63.281512 
4672.000000	63.257598 
4671.000000	63.228321 
4670.000000	63.194346 
4669.000000	63.157153 
4668.000000	63.119959 
4667.000000	63.086962 
4666.000000	63.063597 
4665.000000	63.055062 
4664.000000	63.065814 
4663.000000	63.098049 
4662.000000	63.151454 
4661.000000	63.222622 
4660.000000	63.305544 
4659.000000	63.392567 
4658.000000	63.475775 
4657.000000	63.548564 
4656.000000	63.606476 
4655.000000	63.647818 
4654.000000	63.673806 
4653.000000	63.687705 
4652.000000	63.693523 
4651.000000	63.694810 
4650.000000	63.694262 
4649.000000	63.692736 
4648.000000	63.690257 
4647.000000	63.685798 
4646.000000	63.678979 
4645.000000	63.669824 
4644.000000	63.659381 
4643.000000	63.649177 
4642.000000	63.641238 
4641.000000	63.637042 
4640.000000	63.637018 
4639.000000	63.640904 
4638.000000	63.647675 
4637.000000	63.656520 
4636.000000	63.667035 
4635.000000	63.679790 
4634.000000	63.695979 
4633.000000	63.717222 
4632.000000	63.744902 
4631.000000	63.779115 
4630.000000	63.818192 
4629.000000	63.859200 
4628.000000	63.898158 
4627.000000	63.930726 
4626.000000	63.953161 
4625.000000	63.963508 
4624.000000	63.961720 
4623.000000	63.949131 
4622.000000	63.928651 
4621.000000	63.903713 
4620.000000	63.878083 
4619.000000	63.855314 
4618.000000	63.838720 
4617.000000	63.831043 
4616.000000	63.834547 
4615.000000	63.851261 
4614.000000	63.882064 
4613.000000	63.926506 
4612.000000	63.981819 
4611.000000	64.043068 
4610.000000	64.103293 
4609.000000	64.154219 
4608.000000	64.188027 
4607.000000	64.198756 
4606.000000	64.184069 
4605.000000	64.145874 
4604.000000	64.089965 
4603.000000	64.024758 
4602.000000	63.959288 
4601.000000	63.901090 
4600.000000	63.854193 
4599.000000	63.818883 
4598.000000	63.791966 
4597.000000	63.769078 
4596.000000	63.745737 
4595.000000	63.720369 
4594.000000	63.695025 
4593.000000	63.675570 
4592.000000	63.669466 
4591.000000	63.683915 
4590.000000	63.722610 
4589.000000	63.784813 
4588.000000	63.864064 
4587.000000	63.950181 
4586.000000	64.031553 
4585.000000	64.097666 
4584.000000	64.142060 
4583.000000	64.162826 
4582.000000	64.162755 
4581.000000	64.147400 
4580.000000	64.123439 
4579.000000	64.096522 
4578.000000	64.070105 
4577.000000	64.045166 
4576.000000	64.020609 
4575.000000	63.994336 
4574.000000	63.964462 
4573.000000	63.929963 
4572.000000	63.891339 
4571.000000	63.849878 
4570.000000	63.807797 
4569.000000	63.767218 
4568.000000	63.730311 
4567.000000	63.698363 
4566.000000	63.672280 
4565.000000	63.653016 
4564.000000	63.641357 
4563.000000	63.637995 
4562.000000	63.643217 
4561.000000	63.656330 
4560.000000	63.675808 
4559.000000	63.698625 
4558.000000	63.721513 
4557.000000	63.741207 
4556.000000	63.755989 
4555.000000	63.766074 
4554.000000	63.773345 
4553.000000	63.780808 
4552.000000	63.791060 
4551.000000	63.805437 
4550.000000	63.822579 
4549.000000	63.838648 
4548.000000	63.848209 
4547.000000	63.845944 
4546.000000	63.828468 
4545.000000	63.795900 
4544.000000	63.752484 
4543.000000	63.706040 
4542.000000	63.665914 
4541.000000	63.640856 
4540.000000	63.636350 
4539.000000	63.653802 
4538.000000	63.689756 
4537.000000	63.737988 
4536.000000	63.791131 
4535.000000	63.842773 
4534.000000	63.889765 
4533.000000	63.931393 
4532.000000	63.968324 
4531.000000	64.001369 
4530.000000	64.029932 
4529.000000	64.052104 
4528.000000	64.064574 
4527.000000	64.064049 
4526.000000	64.048719 
4525.000000	64.018511 
4524.000000	63.975667 
4523.000000	63.923788 
4522.000000	63.867282 
4521.000000	63.810634 
4520.000000	63.757443 
4519.000000	63.709902 
4518.000000	63.668417 
4517.000000	63.631486 
4516.000000	63.596796 
4515.000000	63.561177 
4514.000000	63.523125 
4513.000000	63.483071 
4512.000000	63.444662 
4511.000000	63.413572 
4510.000000	63.396859 
4509.000000	63.399457 
4508.000000	63.424563 
4507.000000	63.471341 
4506.000000	63.536214 
4505.000000	63.613486 
4504.000000	63.696265 
4503.000000	63.777899 
4502.000000	63.852334 
4501.000000	63.914632 
4500.000000	63.961172 
4499.000000	63.989520 
4498.000000	63.998150 
4497.000000	63.986444 
4496.000000	63.955521 
4495.000000	63.908243 
4494.000000	63.849663 
4493.000000	63.785839 
4492.000000	63.723778 
4491.000000	63.669300 
4490.000000	63.624024 
4489.000000	63.587021 
4488.000000	63.554143 
4487.000000	63.522934 
4486.000000	63.494467 
4485.000000	63.474583 
4484.000000	63.476300 
4483.000000	63.512301 
4482.000000	63.587975 
4481.000000	63.700604 
4480.000000	63.837742 
4479.000000	63.980340 
4478.000000	64.104890 
4477.000000	64.193034 
4476.000000	64.237689 
4475.000000	64.242744 
4474.000000	64.222073 
4473.000000	64.193916 
4472.000000	64.174795 
4471.000000	64.176130 
4470.000000	64.201879 
4469.000000	64.246225 
4468.000000	64.296340 
4467.000000	64.341378 
4466.000000	64.375281 
4465.000000	64.395833 
4464.000000	64.406085 
4463.000000	64.410448 
4462.000000	64.417219 
4461.000000	64.429116 
4460.000000	64.453887 
4459.000000	64.501523 
4458.000000	64.591813 
4457.000000	64.749860 
4456.000000	65.004777 
4455.000000	65.381312 
4454.000000	65.892148 
4453.000000	66.529583 
4452.000000	67.262840 
4451.000000	68.041253 
4450.000000	68.799209 
4449.000000	69.469833 
4448.000000	69.992280 
4447.000000	70.326304 
4446.000000	70.448756 
4445.000000	70.358276 
4444.000000	70.063662 
4443.000000	69.582247 
4442.000000	68.932151 
4441.000000	68.133687 
4440.000000	67.216873 
4439.000000	66.223764 
4438.000000	65.212011 
4437.000000	64.249253 
4436.000000	63.406419 
4435.000000	62.746238 
4434.000000	62.301874 
4433.000000	62.080073 
4432.000000	62.059640 
4431.000000	62.201499 
4430.000000	62.447977 
4429.000000	62.744092 
4428.000000	63.042664 
4427.000000	63.312792 
4426.000000	63.535046 
4425.000000	63.701605 
4424.000000	63.805460 
4423.000000	63.841295 
4422.000000	63.803219 
4421.000000	63.684248 
4420.000000	63.479971 
4419.000000	63.190889 
4418.000000	62.828087 
4417.000000	62.405490 
4416.000000	61.939740 
4415.000000	61.447715 
4414.000000	60.944986 
4413.000000	60.443329 
4412.000000	59.947896 
4411.000000	59.466981 
4410.000000	59.003281 
4409.000000	58.548474 
4408.000000	58.082032 
4407.000000	57.575488 
4406.000000	57.001805 
4405.000000	56.330370 
4404.000000	55.557584 
4403.000000	54.702329 
4402.000000	53.830051 
4401.000000	53.033280 
4400.000000	52.432990 
4399.000000	52.143526 
4398.000000	52.255821 
4397.000000	52.805304 
4396.000000	53.764915 
4395.000000	55.035853 
4394.000000	56.478214 
4393.000000	57.933735 
4392.000000	59.263253 
4391.000000	60.369491 
4390.000000	61.213231 
4389.000000	61.809921 
4388.000000	62.217593 
4387.000000	62.512898 
4386.000000	62.769985 
4385.000000	63.039016 
4384.000000	63.347625 
4383.000000	63.693046 
4382.000000	64.055228 
4381.000000	64.400863 
4380.000000	64.707446 
4379.000000	64.960432 
4378.000000	65.158176 
4377.000000	65.307116 
4376.000000	65.419745 
4375.000000	65.506625 
4374.000000	65.572547 
4373.000000	65.614628 
4372.000000	65.629839 
4371.000000	65.610623 
4370.000000	65.552353 
4369.000000	65.452384 
4368.000000	65.314912 
4367.000000	65.148520 
4366.000000	64.967036 
4365.000000	64.785575 
4364.000000	64.617681 
4363.000000	64.476799 
4362.000000	64.375352 
4361.000000	64.317035 
4360.000000	64.296698 
4359.000000	64.306473 
4358.000000	64.337229 
4357.000000	64.375209 
4356.000000	64.406871 
4355.000000	64.422440 
4354.000000	64.418125 
4353.000000	64.394593 
4352.000000	64.357423 
4351.000000	64.315581 
4350.000000	64.278268 
4349.000000	64.251160 
4348.000000	64.235949 
4347.000000	64.231300 
4346.000000	64.231991 
4345.000000	64.231348 
4344.000000	64.222478 
4343.000000	64.200997 
4342.000000	64.165353 
4341.000000	64.117169 
4340.000000	64.060640 
4339.000000	64.001154 
4338.000000	63.944077 
4337.000000	63.893604 
4336.000000	63.851737 
4335.000000	63.818383 
4334.000000	63.792109 
4333.000000	63.771486 
4332.000000	63.755154 
4331.000000	63.742899 
4330.000000	63.735723 
4329.000000	63.736128 
4328.000000	63.746666 
4327.000000	63.769412 
4326.000000	63.804984 
4325.000000	63.851618 
4324.000000	63.905143 
4323.000000	63.959169 
4322.000000	64.006280 
4321.000000	64.038991 
4320.000000	64.051556 
4319.000000	64.040637 
4318.000000	64.006519 
4317.000000	63.952445 
4316.000000	63.884186 
4315.000000	63.808846 
4314.000000	63.733792 
4313.000000	63.665151 
4312.000000	63.607192 
4311.000000	63.561940 
4310.000000	63.529801 
4309.000000	63.509225 
4308.000000	63.497662 
4307.000000	63.492083 
4306.000000	63.489842 
4305.000000	63.488531 
4304.000000	63.486576 
4303.000000	63.483023 
4302.000000	63.478016 
4301.000000	63.472604 
4300.000000	63.468694 
4299.000000	63.468384 
4298.000000	63.473296 
4297.000000	63.484406 
4296.000000	63.500905 
4295.000000	63.520359 
4294.000000	63.538718 
4293.000000	63.550925 
4292.000000	63.552331 
4291.000000	63.539505 
4290.000000	63.512229 
4289.000000	63.473749 
4288.000000	63.430857 
4287.000000	63.392162 
4286.000000	63.366866 
4285.000000	63.362503 
4284.000000	63.383340 
4283.000000	63.429164 
4282.000000	63.495516 
4281.000000	63.574552 
4280.000000	63.656902 
4279.000000	63.733482 
4278.000000	63.796806 
4277.000000	63.842034 
4276.000000	63.866901 
4275.000000	63.871788 
4274.000000	63.858699 
4273.000000	63.831090 
4272.000000	63.793063 
4271.000000	63.749313 
4270.000000	63.705182 
4269.000000	63.665628 
4268.000000	63.636159 
4267.000000	63.620281 
4266.000000	63.619685 
4265.000000	63.632440 
4264.000000	63.653516 
4263.000000	63.675141 
4262.000000	63.688421 
4261.000000	63.685321 
4260.000000	63.660120 
4259.000000	63.611674 
4258.000000	63.543558 
4257.000000	63.463616 
4256.000000	63.381910 
4255.000000	63.308739 
4254.000000	63.252520 
4253.000000	63.217973 
4252.000000	63.205456 
4251.000000	63.211202 
4250.000000	63.228988 
4249.000000	63.251304 
4248.000000	63.272023 
4247.000000	63.287329 
4246.000000	63.296985 
4245.000000	63.303089 
4244.000000	63.309884 
4243.000000	63.322019 
4242.000000	63.343048 
4241.000000	63.374948 
4240.000000	63.416552 
4239.000000	63.464403 
4238.000000	63.512182 
4237.000000	63.553380 
4236.000000	63.580965 
4235.000000	63.588857 
4234.000000	63.572883 
4233.000000	63.531637 
4232.000000	63.466978 
4231.000000	63.384151 
4230.000000	63.291263 
4229.000000	63.198041 
4228.000000	63.114786 
4227.000000	63.050746 
4226.000000	63.012742 
4225.000000	63.004088 
4224.000000	63.024020 
4223.000000	63.067817 
4222.000000	63.127779 
4221.000000	63.194918 
4220.000000	63.260245 
4219.000000	63.316917 
4218.000000	63.360166 
4217.000000	63.388872 
4216.000000	63.404726 
4215.000000	63.412022 
4214.000000	63.416004 
4213.000000	63.421750 
4212.000000	63.433980 
4211.000000	63.454794 
4210.000000	63.484573 
4209.000000	63.520145 
4208.000000	63.556218 
4207.000000	63.585591 
4206.000000	63.600802 
4205.000000	63.596272 
4204.000000	63.569974 
4203.000000	63.524174 
4202.000000	63.465023 
4201.000000	63.401961 
4200.000000	63.345432 
4199.000000	63.304471 
4198.000000	63.284373 
4197.000000	63.284921 
4196.000000	63.300442 
4195.000000	63.321709 
4194.000000	63.338160 
4193.000000	63.340926 
4192.000000	63.325071 
4191.000000	63.290667 
4190.000000	63.242459 
4189.000000	63.187599 
4188.000000	63.133955 
4187.000000	63.086891 
4186.000000	63.049077 
4185.000000	63.020515 
4184.000000	62.998867 
4183.000000	62.981843 
4182.000000	62.966537 
4181.000000	62.951111 
4180.000000	62.933635 
4179.000000	62.912154 
4178.000000	62.883996 
4177.000000	62.845635 
4176.000000	62.793827 
4175.000000	62.726449 
4174.000000	62.644457 
4173.000000	62.552523 
4172.000000	62.459135 
4171.000000	62.375497 
4170.000000	62.312674 
4169.000000	62.279391 
4168.000000	62.279701 
4167.000000	62.312555 
4166.000000	62.371516 
4165.000000	62.446737 
4164.000000	62.527537 
4163.000000	62.604475 
4162.000000	62.670588 
4161.000000	62.722277 
4160.000000	62.758660 
4159.000000	62.781190 
4158.000000	62.791991 
4157.000000	62.793755 
4156.000000	62.789082 
4155.000000	62.780284 
4154.000000	62.769794 
4153.000000	62.759780 
4152.000000	62.753176 
4151.000000	62.752151 
4150.000000	62.758159 
4149.000000	62.770986 
4148.000000	62.789011 
4147.000000	62.809395 
4146.000000	62.829017 
4145.000000	62.845683 
4144.000000	62.859010 
4143.000000	62.870550 
4142.000000	62.883567 
4141.000000	62.902283 
4140.000000	62.930703 
4139.000000	62.971496 
4138.000000	63.025093 
4137.000000	63.089489 
4136.000000	63.160085 
4135.000000	63.230323 
4134.000000	63.292646 
4133.000000	63.340139 
4132.000000	63.367533 
4131.000000	63.373422 
4130.000000	63.359546 
4129.000000	63.330578 
4128.000000	63.292694 
4127.000000	63.252305 
4126.000000	63.214612 
4125.000000	63.182759 
4124.000000	63.157796 
4123.000000	63.139152 
4122.000000	63.125705 
4121.000000	63.116836 
4120.000000	63.112211 
4119.000000	63.111877 
4118.000000	63.115906 
4117.000000	63.123822 
4116.000000	63.133859 
4115.000000	63.143515 
4114.000000	63.149785 
4113.000000	63.150095 
4112.000000	63.143491 
4111.000000	63.130855 
4110.000000	63.115096 
4109.000000	63.099932 
4108.000000	63.088941 
4107.000000	63.084053 
4106.000000	63.084292 
4105.000000	63.086414 
4104.000000	63.085913 
4103.000000	63.078522 
4102.000000	63.061141 
4101.000000	63.033866 
4100.000000	63.000440 
4099.000000	62.967705 
4098.000000	62.943482 
4097.000000	62.935400 
4096.000000	62.948656 
4095.000000	62.985110 
4094.000000	63.042569 
4093.000000	63.115382 
4092.000000	63.195657 
4091.000000	63.275194 
4090.000000	63.346910 
4089.000000	63.406038 
4088.000000	63.450264 
4087.000000	63.479781 
4086.000000	63.496470 
4085.000000	63.503050 
4084.000000	63.501691 
4083.000000	63.494396 
4082.000000	63.481473 
4081.000000	63.462853 
4080.000000	63.437151 
4079.000000	63.403391 
4078.000000	63.360524 
4077.000000	63.308691 
4076.000000	63.249135 
4075.000000	63.184189 
4074.000000	63.117432 
4073.000000	63.052725 
4072.000000	62.994313 
4071.000000	62.945723 
4070.000000	62.909960 
4069.000000	62.888526 
4068.000000	62.881898 
4067.000000	62.889051 
4066.000000	62.908029 
4065.000000	62.936353 
4064.000000	62.971377 
4063.000000	63.010644 
4062.000000	63.052558 
4061.000000	63.096332 
4060.000000	63.141322 
4059.000000	63.186430 
4058.000000	63.230371 
4057.000000	63.270950 
4056.000000	63.305020 
4055.000000	63.329005 
4054.000000	63.339734 
4053.000000	63.335371 
4052.000000	63.316273 
4051.000000	63.285350 
4050.000000	63.247871 
4049.000000	63.210558 
4048.000000	63.180613 
4047.000000	63.163876 
4046.000000	63.163566 
4045.000000	63.179922 
4044.000000	63.210105 
4043.000000	63.249301 
4042.000000	63.291740 
4041.000000	63.332295 
4040.000000	63.367605 
4039.000000	63.395786 
4038.000000	63.416266 
4037.000000	63.429117 
4036.000000	63.434481 
4035.000000	63.432073 
4034.000000	63.421320 
4033.000000	63.401865 
4032.000000	63.373875 
4031.000000	63.339209 
4030.000000	63.301277 
4029.000000	63.264703 
4028.000000	63.234376 
4027.000000	63.214731 
4026.000000	63.208532 
4025.000000	63.215613 
4024.000000	63.233327 
4023.000000	63.257122 
4022.000000	63.281321 
4021.000000	63.300466 
4020.000000	63.310313 
4019.000000	63.308835 
4018.000000	63.296651 
4017.000000	63.276052 
4016.000000	63.251280 
4015.000000	63.226938 
4014.000000	63.207387 
4013.000000	63.195705 
4012.000000	63.193368 
4011.000000	63.200068 
4010.000000	63.213825 
4009.000000	63.231348 
4008.000000	63.249111 
4007.000000	63.264012 
4006.000000	63.273763 
4005.000000	63.277435 
4004.000000	63.274860 
4003.000000	63.266825 
4002.000000	63.254737 
4001.000000	63.239979 
4000.000000	63.223409 
3999.000000	63.205146 
3998.000000	63.185358 
3997.000000	63.163638 
3996.000000	63.139581 
3995.000000	63.112831 
3994.000000	63.083529 
3993.000000	63.052225 
3992.000000	63.019657 
3991.000000	62.986612 
3990.000000	62.953686 
3989.000000	62.921309 
3988.000000	62.889885 
3987.000000	62.859535 
3986.000000	62.830471 
3985.000000	62.802863 
3984.000000	62.777018 
3983.000000	62.753462 
3982.000000	62.733125 
3981.000000	62.717390 
3980.000000	62.708425 
3979.000000	62.708449 
3978.000000	62.719917 
3977.000000	62.744569 
3976.000000	62.783265 
3975.000000	62.835359 
3974.000000	62.898707 
3973.000000	62.969541 
3972.000000	63.043308 
3971.000000	63.114762 
3970.000000	63.178849 
3969.000000	63.231205 
3968.000000	63.268661 
3967.000000	63.289713 
3966.000000	63.294720 
3965.000000	63.285875 
3964.000000	63.266944 
3963.000000	63.242983 
3962.000000	63.219141 
3961.000000	63.200092 
3960.000000	63.188982 
3959.000000	63.187551 
3958.000000	63.194775 
3957.000000	63.207554 
3956.000000	63.221502 
3955.000000	63.232207 
3954.000000	63.236379 
3953.000000	63.232779 
3952.000000	63.222622 
3951.000000	63.209128 
3950.000000	63.196778 
3949.000000	63.189792 
3948.000000	63.190770 
3947.000000	63.199830 
3946.000000	63.214564 
3945.000000	63.230371 
3944.000000	63.241839 
3943.000000	63.243961 
3942.000000	63.233637 
3941.000000	63.210058 
3940.000000	63.175010 
3939.000000	63.132309 
3938.000000	63.086748 
3937.000000	63.043427 
3936.000000	63.006401 
3935.000000	62.978863 
3934.000000	62.962746 
3933.000000	62.959194 
3932.000000	62.968516 
3931.000000	62.990260 
3930.000000	63.023042 
3929.000000	63.064050 
3928.000000	63.109040 
3927.000000	63.152432 
3926.000000	63.188123 
3925.000000	63.210344 
3924.000000	63.215041 
3923.000000	63.201141 
3922.000000	63.171029 
3921.000000	63.130259 
3920.000000	63.086438 
3919.000000	63.047742 
3918.000000	63.021349 
3917.000000	63.011384 
3916.000000	63.019061 
3915.000000	63.042402 
3914.000000	63.077425 
3913.000000	63.119149 
3912.000000	63.163018 
3911.000000	63.205885 
3910.000000	63.246202 
3909.000000	63.283348 
3908.000000	63.317012 
3907.000000	63.346266 
3906.000000	63.369369 
3905.000000	63.383913 
3904.000000	63.387298 
3903.000000	63.377571 
3902.000000	63.354778 
3901.000000	63.321137 
3900.000000	63.280582 
3899.000000	63.237905 
3898.000000	63.197755 
3897.000000	63.163399 
3896.000000	63.136100 
3895.000000	63.114786 
3894.000000	63.096761 
3893.000000	63.078451 
3892.000000	63.056540 
3891.000000	63.028740 
3890.000000	62.994670 
3889.000000	62.955522 
3888.000000	62.913537 
3887.000000	62.871599 
3886.000000	62.832355 
3885.000000	62.798166 
3884.000000	62.769985 
3883.000000	62.748265 
3882.000000	62.732648 
3881.000000	62.723374 
3880.000000	62.721371 
3879.000000	62.728047 
3878.000000	62.744784 
3877.000000	62.772774 
3876.000000	62.812519 
3875.000000	62.862992 
3874.000000	62.921428 
3873.000000	62.983918 
3872.000000	63.045763 
3871.000000	63.102364 
3870.000000	63.150024 
3869.000000	63.186264 
3868.000000	63.210558 
3867.000000	63.224291 
3866.000000	63.230371 
3865.000000	63.232636 
3864.000000	63.235330 
3863.000000	63.242578 
3862.000000	63.257527 
3861.000000	63.282465 
3860.000000	63.317394 
3859.000000	63.361048 
3858.000000	63.409543 
3857.000000	63.457322 
3856.000000	63.497471 
3855.000000	63.523244 
3854.000000	63.529229 
3853.000000	63.512754 
3852.000000	63.474583 
3851.000000	63.418912 
3850.000000	63.352322 
3849.000000	63.282346 
3848.000000	63.215899 
3847.000000	63.157916 
3846.000000	63.111233 
3845.000000	63.076448 
3844.000000	63.052630 
3843.000000	63.037943 
3842.000000	63.030314 
3841.000000	63.027882 
3840.000000	63.028788 
3839.000000	63.031435 
3838.000000	63.033699 
3837.000000	63.033556 
3836.000000	63.028550 
3835.000000	63.016653 
3834.000000	62.996578 
3833.000000	62.968111 
3832.000000	62.932610 
3831.000000	62.892436 
3830.000000	62.850785 
3829.000000	62.810754 
3828.000000	62.774753 
3827.000000	62.744641 
3826.000000	62.721467 
3825.000000	62.705373 
3824.000000	62.695765 
3823.000000	62.691259 
3822.000000	62.690305 
3821.000000	62.690973 
3820.000000	62.691712 
3819.000000	62.691664 
3818.000000	62.691378 
3817.000000	62.692856 
3816.000000	62.699437 
3815.000000	62.714815 
3814.000000	62.742280 
3813.000000	62.783765 
3812.000000	62.838792 
3811.000000	62.904500 
3810.000000	62.975668 
3809.000000	63.045692 
3808.000000	63.107514 
3807.000000	63.155460 
3806.000000	63.185501 
3805.000000	63.196563 
3804.000000	63.189435 
3803.000000	63.166713 
3802.000000	63.131642 
3801.000000	63.087844 
3800.000000	63.038206 
3799.000000	62.985157 
3798.000000	62.930893 
3797.000000	62.877964 
3796.000000	62.828850 
3795.000000	62.786269 
3794.000000	62.752652 
3793.000000	62.730097 
3792.000000	62.719583 
3791.000000	62.720823 
3790.000000	62.732219 
3789.000000	62.750887 
3788.000000	62.773180 
3787.000000	62.795042 
3786.000000	62.812685 
3785.000000	62.823009 
3784.000000	62.823677 
3783.000000	62.813639 
3782.000000	62.792849 
3781.000000	62.762808 
3780.000000	62.726259 
3779.000000	62.687039 
3778.000000	62.649416 
3777.000000	62.617707 
3776.000000	62.595486 
3775.000000	62.585067 
3774.000000	62.587046 
3773.000000	62.600374 
3772.000000	62.622690 
3771.000000	62.650918 
3770.000000	62.681961 
3769.000000	62.713074 
3768.000000	62.742066 
3767.000000	62.767720 
3766.000000	62.789773 
3765.000000	62.808465 
3764.000000	62.824416 
3763.000000	62.838506 
3762.000000	62.851738 
3761.000000	62.865400 
3760.000000	62.880563 
3759.000000	62.898182 
3758.000000	62.918663 
3757.000000	62.941718 
3756.000000	62.966418 
3755.000000	62.990903 
3754.000000	63.013267 
3753.000000	63.031983 
3752.000000	63.046312 
3751.000000	63.056707 
3750.000000	63.064408 
3749.000000	63.071131 
3748.000000	63.078522 
3747.000000	63.087630 
3746.000000	63.098621 
3745.000000	63.110566 
3744.000000	63.122129 
3743.000000	63.132095 
3742.000000	63.140034 
3741.000000	63.146567 
3740.000000	63.152790 
3739.000000	63.159871 
3738.000000	63.168454 
3737.000000	63.177895 
3736.000000	63.185977 
3735.000000	63.189005 
3734.000000	63.183355 
3733.000000	63.166069 
3732.000000	63.136148 
3731.000000	63.094806 
3730.000000	63.045692 
3729.000000	62.993860 
3728.000000	62.944412 
3727.000000	62.901592 
3726.000000	62.868189 
3725.000000	62.845134 
3724.000000	62.831711 
3723.000000	62.826561 
3722.000000	62.828254 
3721.000000	62.835788 
3720.000000	62.848758 
3719.000000	62.866973 
3718.000000	62.889623 
3717.000000	62.914776 
3716.000000	62.938928 
3715.000000	62.957382 
3714.000000	62.965178 
3713.000000	62.958335 
3712.000000	62.934923 
3711.000000	62.895989 
3710.000000	62.845492 
3709.000000	62.789845 
3708.000000	62.736201 
3707.000000	62.690901 
3706.000000	62.657976 
3705.000000	62.638211 
3704.000000	62.629413 
3703.000000	62.626910 
3702.000000	62.625575 
3701.000000	62.620735 
3700.000000	62.610530 
3699.000000	62.595653 
3698.000000	62.580013 
3697.000000	62.568783 
3696.000000	62.567687 
3695.000000	62.580704 
3694.000000	62.609243 
3693.000000	62.651276 
3692.000000	62.701654 
3691.000000	62.752985 
3690.000000	62.797355 
3689.000000	62.827992 
3688.000000	62.840843 
3687.000000	62.835311 
3686.000000	62.814235 
3685.000000	62.783241 
3684.000000	62.749361 
3683.000000	62.719225 
3682.000000	62.698173 
3681.000000	62.688899 
3680.000000	62.691593 
3679.000000	62.703919 
3678.000000	62.721991 
3677.000000	62.741208 
3676.000000	62.757277 
3675.000000	62.766790 
3674.000000	62.767386 
3673.000000	62.758278 
3672.000000	62.739539 
3671.000000	62.712669 
3670.000000	62.679672 
3669.000000	62.643599 
3668.000000	62.607789 
3667.000000	62.576007 
3666.000000	62.551784 
3665.000000	62.537765 
3664.000000	62.535095 
3663.000000	62.543368 
3662.000000	62.560701 
3661.000000	62.584280 
3660.000000	62.611150 
3659.000000	62.639045 
3658.000000	62.666463 
3657.000000	62.693119 
3656.000000	62.719225 
3655.000000	62.744784 
3654.000000	62.768459 
3653.000000	62.787175 
3652.000000	62.795877 
3651.000000	62.789154 
3650.000000	62.762141 
3649.000000	62.712311 
3648.000000	62.640714 
3647.000000	62.552738 
3646.000000	62.457466 
3645.000000	62.365651 
3644.000000	62.288331 
3643.000000	62.233972 
3642.000000	62.207436 
3641.000000	62.209081 
3640.000000	62.235331 
3639.000000	62.279653 
3638.000000	62.334203 
3637.000000	62.391328 
3636.000000	62.444829 
3635.000000	62.490439 
3634.000000	62.526106 
3633.000000	62.551331 
3632.000000	62.566757 
3631.000000	62.573432 
3630.000000	62.572789 
3629.000000	62.566208 
3628.000000	62.555480 
3627.000000	62.542414 
3626.000000	62.529420 
3625.000000	62.518882 
3624.000000	62.512993 
3623.000000	62.513136 
3622.000000	62.519812 
3621.000000	62.532305 
3620.000000	62.549042 
3619.000000	62.567710 
3618.000000	62.585854 
3617.000000	62.601280 
3616.000000	62.612724 
3615.000000	62.619638 
3614.000000	62.622165 
3613.000000	62.621116 
3612.000000	62.617659 
3611.000000	62.612867 
3610.000000	62.607479 
3609.000000	62.601828 
3608.000000	62.595868 
3607.000000	62.589383 
3606.000000	62.582230 
3605.000000	62.574005 
3604.000000	62.564253 
3603.000000	62.552380 
3602.000000	62.537908 
3601.000000	62.520360 
3600.000000	62.499713 
3599.000000	62.476611 
3598.000000	62.452578 
3597.000000	62.429857 
3596.000000	62.411212 
3595.000000	62.398982 
3594.000000	62.394785 
3593.000000	62.398838 
3592.000000	62.409973 
3591.000000	62.425374 
3590.000000	62.441635 
3589.000000	62.455081 
3588.000000	62.463068 
3587.000000	62.464237 
3586.000000	62.458705 
3585.000000	62.447810 
3584.000000	62.433457 
3583.000000	62.417411 
3582.000000	62.400770 
3581.000000	62.383699 
3580.000000	62.366127 
3579.000000	62.347912 
3578.000000	62.329578 
3577.000000	62.312388 
3576.000000	62.298202 
3575.000000	62.288999 
3574.000000	62.286043 
3573.000000	62.289667 
3572.000000	62.299108 
3571.000000	62.312698 
3570.000000	62.328433 
3569.000000	62.344646 
3568.000000	62.360095 
3567.000000	62.374424 
3566.000000	62.388038 
3565.000000	62.401509 
3564.000000	62.415146 
3563.000000	62.428450 
3562.000000	62.440061 
3561.000000	62.447905 
3560.000000	62.449502 
3559.000000	62.442708 
3558.000000	62.426376 
3557.000000	62.400794 
3556.000000	62.367963 
3555.000000	62.331104 
3554.000000	62.294077 
3553.000000	62.260508 
3552.000000	62.233185 
3551.000000	62.213349 
3550.000000	62.200927 
3549.000000	62.194752 
3548.000000	62.192988 
3547.000000	62.193870 
3546.000000	62.196183 
3545.000000	62.198972 
3544.000000	62.202119 
3543.000000	62.205672 
3542.000000	62.209916 
3541.000000	62.215232 
3540.000000	62.221789 
3539.000000	62.229800 
3538.000000	62.239050 
3537.000000	62.248921 
3536.000000	62.258243 
3535.000000	62.265539 
3534.000000	62.268948 
3533.000000	62.266731 
3532.000000	62.257647 
3531.000000	62.241387 
3530.000000	62.218856 
3529.000000	62.192082 
3528.000000	62.163996 
3527.000000	62.137746 
3526.000000	62.115955 
3525.000000	62.099909 
3524.000000	62.089657 
3523.000000	62.083840 
3522.000000	62.080335 
3521.000000	62.076807 
3520.000000	62.071466 
3519.000000	62.063574 
3518.000000	62.053513 
3517.000000	62.042617 
3516.000000	62.032341 
3515.000000	62.024211 
3514.000000	62.019085 
3513.000000	62.017321 
3512.000000	62.018656 
3511.000000	62.022614 
3510.000000	62.028956 
3509.000000	62.037372 
3508.000000	62.047839 
3507.000000	62.059926 
3506.000000	62.072777 
3505.000000	62.085008 
3504.000000	62.094616 
3503.000000	62.100100 
3502.000000	62.100744 
3501.000000	62.097239 
3500.000000	62.091803 
3499.000000	62.087488 
3498.000000	62.087392 
3497.000000	62.093710 
3496.000000	62.106776 
3495.000000	62.124705 
3494.000000	62.143611 
3493.000000	62.158918 
3492.000000	62.166309 
3491.000000	62.163209 
3490.000000	62.149524 
3489.000000	62.127709 
3488.000000	62.102150 
3487.000000	62.077569 
3486.000000	62.057876 
3485.000000	62.045049 
3484.000000	62.038922 
3483.000000	62.037372 
3482.000000	62.037324 
3481.000000	62.036013 
3480.000000	62.031888 
3479.000000	62.024974 
3478.000000	62.016677 
3477.000000	62.009191 
3476.000000	62.004876 
3475.000000	62.005186 
3474.000000	62.010407 
3473.000000	62.019371 
3472.000000	62.030243 
3471.000000	62.040877 
3470.000000	62.049674 
3469.000000	62.055826 
3468.000000	62.059092 
3467.000000	62.059879 
3466.000000	62.058520 
3465.000000	62.055349 
3464.000000	62.050700 
3463.000000	62.045145 
3462.000000	62.039327 
3461.000000	62.034320 
3460.000000	62.031435 
3459.000000	62.032055 
3458.000000	62.037158 
3457.000000	62.046909 
3456.000000	62.061047 
3455.000000	62.078380 
3454.000000	62.097358 
3453.000000	62.115931 
3452.000000	62.132167 
3451.000000	62.144207 
3450.000000	62.150669 
3449.000000	62.150597 
3448.000000	62.143564 
3447.000000	62.129712 
3446.000000	62.109971 
3445.000000	62.086081 
3444.000000	62.060332 
3443.000000	62.035536 
3442.000000	62.014198 
3441.000000	61.997675 
3440.000000	61.985731 
3439.000000	61.976289 
3438.000000	61.965966 
3437.000000	61.951088 
3436.000000	61.928725 
3435.000000	61.897683 
3434.000000	61.858892 
3433.000000	61.815166 
3432.000000	61.770677 
3431.000000	61.729502 
3430.000000	61.695170 
3429.000000	61.669635 
3428.000000	61.653256 
3427.000000	61.644792 
3426.000000	61.642289 
3425.000000	61.643910 
3424.000000	61.648511 
3423.000000	61.655569 
3422.000000	61.665606 
3421.000000	61.679220 
3420.000000	61.696910 
3419.000000	61.718463 
3418.000000	61.743235 
3417.000000	61.769914 
3416.000000	61.797094 
3415.000000	61.823511 
3414.000000	61.847758 
3413.000000	61.868333 
3412.000000	61.883878 
3411.000000	61.893129 
3410.000000	61.894965 
3409.000000	61.888813 
3408.000000	61.875176 
3407.000000	61.855363 
3406.000000	61.831808 
3405.000000	61.807012 
3404.000000	61.783671 
3403.000000	61.763668 
3402.000000	61.747789 
3401.000000	61.735749 
3400.000000	61.726307 
3399.000000	61.718010 
3398.000000	61.709690 
3397.000000	61.700987 
3396.000000	61.692547 
3395.000000	61.685943 
3394.000000	61.682891 
3393.000000	61.684823 
3392.000000	61.692142 
3391.000000	61.704349 
3390.000000	61.720037 
3389.000000	61.737632 
3388.000000	61.755633 
3387.000000	61.773395 
3386.000000	61.790943 
3385.000000	61.808919 
3384.000000	61.828064 
3383.000000	61.848616 
3382.000000	61.869812 
3381.000000	61.889982 
3380.000000	61.906147 
3379.000000	61.915493 
3378.000000	61.915278 
3377.000000	61.904430 
3376.000000	61.883139 
3375.000000	61.853456 
3374.000000	61.818623 
3373.000000	61.782598 
3372.000000	61.749100 
3371.000000	61.720967 
3370.000000	61.699628 
3369.000000	61.685228 
3368.000000	61.676883 
3367.000000	61.673045 
3366.000000	61.671996 
3365.000000	61.672377 
3364.000000	61.673235 
3363.000000	61.674404 
3362.000000	61.675882 
3361.000000	61.677813 
3360.000000	61.680078 
3359.000000	61.682605 
3358.000000	61.684823 
3357.000000	61.685919 
3356.000000	61.685156 
3355.000000	61.682057 
3354.000000	61.676359 
3353.000000	61.668205 
3352.000000	61.658692 
3351.000000	61.649489 
3350.000000	61.642432 
3349.000000	61.639356 
3348.000000	61.641621 
3347.000000	61.649799 
3346.000000	61.663365 
3345.000000	61.680746 
3344.000000	61.699438 
3343.000000	61.716365 
3342.000000	61.728906 
3341.000000	61.734795 
3340.000000	61.732745 
3339.000000	61.722660 
3338.000000	61.705660 
3337.000000	61.683607 
3336.000000	61.658668 
3335.000000	61.632919 
3334.000000	61.607980 
3333.000000	61.584758 
3332.000000	61.563396 
3331.000000	61.543488 
3330.000000	61.524128 
3329.000000	61.504006 
3328.000000	61.481976 
3327.000000	61.457085 
3326.000000	61.429166 
3325.000000	61.398744 
3324.000000	61.367559 
3323.000000	61.337685 
3322.000000	61.312198 
3321.000000	61.293959 
3320.000000	61.285591 
3319.000000	61.288452 
3318.000000	61.302781 
3317.000000	61.327242 
3316.000000	61.359286 
3315.000000	61.395263 
3314.000000	61.431336 
3313.000000	61.463809 
3312.000000	61.489844 
3311.000000	61.507558 
3310.000000	61.516022 
3309.000000	61.515283 
3308.000000	61.506056 
3307.000000	61.489772 
3306.000000	61.468124 
3305.000000	61.443114 
3304.000000	61.417222 
3303.000000	61.392927 
3302.000000	61.372733 
3301.000000	61.358594 
3300.000000	61.351847 
3299.000000	61.352658 
3298.000000	61.360120 
3297.000000	61.372232 
3296.000000	61.386179 
3295.000000	61.398887 
3294.000000	61.407494 
3293.000000	61.409854 
3292.000000	61.404967 
3291.000000	61.393117 
3290.000000	61.375546 
3289.000000	61.354374 
3288.000000	61.332082 
3287.000000	61.311316 
3286.000000	61.294388 
3285.000000	61.283254 
3284.000000	61.279106 
3283.000000	61.282467 
3282.000000	61.293125 
3281.000000	61.310052 
3280.000000	61.331510 
3279.000000	61.355185 
3278.000000	61.378550 
3277.000000	61.398935 
3276.000000	61.413908 
3275.000000	61.421751 
3274.000000	61.421513 
3273.000000	61.413145 
3272.000000	61.397480 
3271.000000	61.376190 
3270.000000	61.351299 
3269.000000	61.325144 
3268.000000	61.299729 
3267.000000	61.276936 
3266.000000	61.257767 
3265.000000	61.242866 
3264.000000	61.232113 
3263.000000	61.225104 
3262.000000	61.221218 
3261.000000	61.219692 
3260.000000	61.219906 
3259.000000	61.221599 
3258.000000	61.224913 
3257.000000	61.230111 
3256.000000	61.237812 
3255.000000	61.248469 
3254.000000	61.262488 
3253.000000	61.279630 
3252.000000	61.298823 
3251.000000	61.317920 
3250.000000	61.334276 
3249.000000	61.344718 
3248.000000	61.346149 
3247.000000	61.336207 
3246.000000	61.313843 
3245.000000	61.279773 
3244.000000	61.236524 
3243.000000	61.188077 
3242.000000	61.139488 
3241.000000	61.095762 
3240.000000	61.060857 
3239.000000	61.037182 
3238.000000	61.025214 
3237.000000	61.023354 
3236.000000	61.028337 
3235.000000	61.036157 
3234.000000	61.042785 
3233.000000	61.045360 
3232.000000	61.042284 
3231.000000	61.034107 
3230.000000	61.022472 
3229.000000	61.010718 
3228.000000	61.002707 
3227.000000	61.002254 
3226.000000	61.012029 
3225.000000	61.033201 
3224.000000	61.065030 
3223.000000	61.104989 
3222.000000	61.149072 
3221.000000	61.192512 
3220.000000	61.230731 
3219.000000	61.259984 
3218.000000	61.278247 
3217.000000	61.285424 
3216.000000	61.283254 
3215.000000	61.274909 
3214.000000	61.264061 
3213.000000	61.254382 
3212.000000	61.248397 
3211.000000	61.247634 
3210.000000	61.251878 
3209.000000	61.259531 
3208.000000	61.267900 
3207.000000	61.274170 
3206.000000	61.275315 
3205.000000	61.268973 
3204.000000	61.253356 
3203.000000	61.227846 
3202.000000	61.192846 
3201.000000	61.150002 
3200.000000	61.102104 
3199.000000	61.052513 
3198.000000	61.005020 
3197.000000	60.963082 
3196.000000	60.929441 
3195.000000	60.905814 
3194.000000	60.892653 
3193.000000	60.889101 
3192.000000	60.892963 
3191.000000	60.901665 
3190.000000	60.912299 
3189.000000	60.922718 
3188.000000	60.931181 
3187.000000	60.937261 
3186.000000	60.941457 
3185.000000	60.944986 
3184.000000	60.949420 
3183.000000	60.955691 
3182.000000	60.963916 
3181.000000	60.972929 
3180.000000	60.980725 
3179.000000	60.984492 
3178.000000	60.981440 
3177.000000	60.969591 
3176.000000	60.948419 
3175.000000	60.919284 
3174.000000	60.885334 
3173.000000	60.850977 
3172.000000	60.820817 
3171.000000	60.798764 
3170.000000	60.787200 
3169.000000	60.786318 
3168.000000	60.794472 
3167.000000	60.808229 
3166.000000	60.823726 
3165.000000	60.837578 
3164.000000	60.847783 
3163.000000	60.853862 
3162.000000	60.857129 
3161.000000	60.859680 
3160.000000	60.863995 
3159.000000	60.871720 
3158.000000	60.883641 
3157.000000	60.899162 
3156.000000	60.916686 
3155.000000	60.934281 
3154.000000	60.950136 
3153.000000	60.963392 
3152.000000	60.973525 
3151.000000	60.980653 
3150.000000	60.984611 
3149.000000	60.984849 
3148.000000	60.979866 
3147.000000	60.967683 
3146.000000	60.946393 
3145.000000	60.914969 
3144.000000	60.874366 
3143.000000	60.827708 
3142.000000	60.780191 
3141.000000	60.737991 
3140.000000	60.706973 
3139.000000	60.690999 
3138.000000	60.690879 
3137.000000	60.704183 
3136.000000	60.725641 
3135.000000	60.748720 
3134.000000	60.766816 
3133.000000	60.775661 
3132.000000	60.773873 
3131.000000	60.763716 
3130.000000	60.749721 
3129.000000	60.738086 
3128.000000	60.734343 
3127.000000	60.742425 
3126.000000	60.763502 
3125.000000	60.795783 
3124.000000	60.835361 
3123.000000	60.876965 
3122.000000	60.915470 
3121.000000	60.946369 
3120.000000	60.966563 
3119.000000	60.974431 
3118.000000	60.969877 
3117.000000	60.953950 
3116.000000	60.928344 
3115.000000	60.895562 
3114.000000	60.858106 
3113.000000	60.818624 
3112.000000	60.779213 
3111.000000	60.741829 
3110.000000	60.707664 
3109.000000	60.677051 
3108.000000	60.650110 
3107.000000	60.626411 
3106.000000	60.606145 
3105.000000	60.589766 
3104.000000	60.578584 
3103.000000	60.574054 
3102.000000	60.577559 
3101.000000	60.589766 
3100.000000	60.610151 
3099.000000	60.636472 
3098.000000	60.665440 
3097.000000	60.693073 
3096.000000	60.715985 
3095.000000	60.731959 
3094.000000	60.740399 
3093.000000	60.742354 
3092.000000	60.739970 
3091.000000	60.735583 
3090.000000	60.730981 
3089.000000	60.726928 
3088.000000	60.722827 
3087.000000	60.717391 
3086.000000	60.709309 
3085.000000	60.697937 
3084.000000	60.684251 
3083.000000	60.670495 
3082.000000	60.659646 
3081.000000	60.654544 
3080.000000	60.657000 
3079.000000	60.666966 
3078.000000	60.682511 
3077.000000	60.700249 
3076.000000	60.715818 
3075.000000	60.725474 
3074.000000	60.726904 
3073.000000	60.719752 
3072.000000	60.705637 
3071.000000	60.687685 
3070.000000	60.669565 
3069.000000	60.654735 
3068.000000	60.645461 
3067.000000	60.642528 
3066.000000	60.645413 
3065.000000	60.652589 
3064.000000	60.661959 
3063.000000	60.671496 
3062.000000	60.679697 
3061.000000	60.685491 
3060.000000	60.688424 
3059.000000	60.688591 
3058.000000	60.686612 
3057.000000	60.683417 
3056.000000	60.679817 
3055.000000	60.676503 
3054.000000	60.673260 
3053.000000	60.669827 
3052.000000	60.664939 
3051.000000	60.657000 
3050.000000	60.644268 
3049.000000	60.625433 
3048.000000	60.600018 
3047.000000	60.568737 
3046.000000	60.533571 
3045.000000	60.497570 
3044.000000	60.464596 
3043.000000	60.438394 
3042.000000	60.422015 
3041.000000	60.416817 
3040.000000	60.422348 
3039.000000	60.436272 
3038.000000	60.454797 
3037.000000	60.473179 
3036.000000	60.486841 
3035.000000	60.492157 
3034.000000	60.487103 
3033.000000	60.471749 
3032.000000	60.448193 
3031.000000	60.420536 
3030.000000	60.393714 
3029.000000	60.372710 
3028.000000	60.361695 
3027.000000	60.363006 
3026.000000	60.377192 
3025.000000	60.402393 
3024.000000	60.435318 
3023.000000	60.471343 
3022.000000	60.505819 
3021.000000	60.534548 
3020.000000	60.554599 
3019.000000	60.564494 
3018.000000	60.564351 
3017.000000	60.555505 
3016.000000	60.540080 
3015.000000	60.520386 
3014.000000	60.498666 
3013.000000	60.476469 
3012.000000	60.454535 
3011.000000	60.433053 
3010.000000	60.411834 
3009.000000	60.390472 
3008.000000	60.368704 
3007.000000	60.346651 
3006.000000	60.325121 
3005.000000	60.305619 
3004.000000	60.290455 
3003.000000	60.281825 
3002.000000	60.281419 
3001.000000	60.290122 
3000.000000	60.307168 
2999.000000	60.330271 
2998.000000	60.355877 
2997.000000	60.379648 
2996.000000	60.397481 
2995.000000	60.406041 
2994.000000	60.403823 
2993.000000	60.391211 
2992.000000	60.370254 
2991.000000	60.344099 
2990.000000	60.316324 
2989.000000	60.290360 
2988.000000	60.268616 
2987.000000	60.252189 
2986.000000	60.241007 
2985.000000	60.234379 
2984.000000	60.231089 
2983.000000	60.229778 
2982.000000	60.229063 
2981.000000	60.227537 
2980.000000	60.223746 
2979.000000	60.216593 
2978.000000	60.205197 
2977.000000	60.189414 
2976.000000	60.170030 
2975.000000	60.148739 
2974.000000	60.127711 
2973.000000	60.109329 
2972.000000	60.095787 
2971.000000	60.088443 
2970.000000	60.087513 
2969.000000	60.091996 
2968.000000	60.099935 
2967.000000	60.108757 
2966.000000	60.115957 
2965.000000	60.119509 
2964.000000	60.118126 
2963.000000	60.111308 
2962.000000	60.099244 
2961.000000	60.082721 
2960.000000	60.062694 
2959.000000	60.040140 
2958.000000	60.015845 
2957.000000	59.990429 
2956.000000	59.964656 
2955.000000	59.939289 
2954.000000	59.915328 
2953.000000	59.893846 
2952.000000	59.876179 
2951.000000	59.863686 
2950.000000	59.857916 
2949.000000	59.860110 
2948.000000	59.871077 
2947.000000	59.890913 
2946.000000	59.918808 
2945.000000	59.952878 
2944.000000	59.990167 
2943.000000	60.026860 
2942.000000	60.058736 
2941.000000	60.081791 
2940.000000	60.093092 
2939.000000	60.091304 
2938.000000	60.077309 
2937.000000	60.053944 
2936.000000	60.025739 
2935.000000	59.998106 
2934.000000	59.976029 
2933.000000	59.963178 
2932.000000	59.960842 
2931.000000	59.967851 
2930.000000	59.980654 
2929.000000	59.994268 
2928.000000	60.003280 
2927.000000	60.003280 
2926.000000	59.991741 
2925.000000	59.968590 
2924.000000	59.936213 
2923.000000	59.898853 
2922.000000	59.861421 
2921.000000	59.828495 
2920.000000	59.803342 
2919.000000	59.787178 
2918.000000	59.779381 
2917.000000	59.777522 
2916.000000	59.778547 
2915.000000	59.779262 
2914.000000	59.777164 
2913.000000	59.770822 
2912.000000	59.760022 
2911.000000	59.745717 
2910.000000	59.729099 
2909.000000	59.711790 
2908.000000	59.695243 
2907.000000	59.680795 
2906.000000	59.669375 
2905.000000	59.661698 
2904.000000	59.658217 
2903.000000	59.659194 
2902.000000	59.664702 
2901.000000	59.674167 
2900.000000	59.686565 
2899.000000	59.700322 
2898.000000	59.713578 
2897.000000	59.724402 
2896.000000	59.731292 
2895.000000	59.733319 
2894.000000	59.730505 
2893.000000	59.723591 
2892.000000	59.713983 
2891.000000	59.703516 
2890.000000	59.693646 
2889.000000	59.685468 
2888.000000	59.679317 
2887.000000	59.675073 
2886.000000	59.671926 
2885.000000	59.668970 
2884.000000	59.665298 
2883.000000	59.660315 
2882.000000	59.654116 
2881.000000	59.647440 
2880.000000	59.641432 
2879.000000	59.637260 
2878.000000	59.636068 
2877.000000	59.638500 
2876.000000	59.644627 
2875.000000	59.654021 
2874.000000	59.665489 
2873.000000	59.677410 
2872.000000	59.688019 
2871.000000	59.695816 
2870.000000	59.699916 
2869.000000	59.699892 
2868.000000	59.695935 
2867.000000	59.688901 
2866.000000	59.679651 
2865.000000	59.669160 
2864.000000	59.658360 
2863.000000	59.647774 
2862.000000	59.638166 
2861.000000	59.629797 
2860.000000	59.623122 
2859.000000	59.618091 
2858.000000	59.614253 
2857.000000	59.610629 
2856.000000	59.605669 
2855.000000	59.597778 
2854.000000	59.585452 
2853.000000	59.568262 
2852.000000	59.546947 
2851.000000	59.523797 
2850.000000	59.502220 
2849.000000	59.486269 
2848.000000	59.479498 
2847.000000	59.484148 
2846.000000	59.500455 
2845.000000	59.526205 
2844.000000	59.557294 
2843.000000	59.588551 
2842.000000	59.615039 
2841.000000	59.633016 
2840.000000	59.640741 
2839.000000	59.638667 
2838.000000	59.629154 
2837.000000	59.615468 
2836.000000	59.601020 
2835.000000	59.588050 
2834.000000	59.577631 
2833.000000	59.569549 
2832.000000	59.562611 
2831.000000	59.555387 
2830.000000	59.546947 
2829.000000	59.537529 
2828.000000	59.528422 
2827.000000	59.521579 
2826.000000	59.518861 
2825.000000	59.521460 
2824.000000	59.529399 
2823.000000	59.541416 
2822.000000	59.555077 
2821.000000	59.567356 
2820.000000	59.575200 
2819.000000	59.576129 
2818.000000	59.568786 
2817.000000	59.553146 
2816.000000	59.530472 
2815.000000	59.503078 
2814.000000	59.473800 
2813.000000	59.445405 
2812.000000	59.420084 
2811.000000	59.399318 
2810.000000	59.383487 
2809.000000	59.372448 
2808.000000	59.366035 
2807.000000	59.364104 
2806.000000	59.366631 
2805.000000	59.373641 
2804.000000	59.384822 
2803.000000	59.399414 
2802.000000	59.415721 
2801.000000	59.431409 
2800.000000	59.443974 
2799.000000	59.451031 
2798.000000	59.450936 
2797.000000	59.443092 
2796.000000	59.428071 
2795.000000	59.407591 
2794.000000	59.383988 
2793.000000	59.359884 
2792.000000	59.337735 
2791.000000	59.319448 
2790.000000	59.306097 
2789.000000	59.297943 
2788.000000	59.294271 
2787.000000	59.293961 
2786.000000	59.295487 
2785.000000	59.297132 
2784.000000	59.297490 
2783.000000	59.295320 
2782.000000	59.289813 
2781.000000	59.280395 
2780.000000	59.266757 
2779.000000	59.249114 
2778.000000	59.227943 
2777.000000	59.204149 
2776.000000	59.178948 
2775.000000	59.153795 
2774.000000	59.130334 
2773.000000	59.110283 
2772.000000	59.094929 
2771.000000	59.085154 
2770.000000	59.081077 
2769.000000	59.082031 
2768.000000	59.086704 
2767.000000	59.093308 
2766.000000	59.100127 
2765.000000	59.105801 
2764.000000	59.109640 
2763.000000	59.111666 
2762.000000	59.112453 
2761.000000	59.112834 
2760.000000	59.113645 
2759.000000	59.115409 
2758.000000	59.118080 
2757.000000	59.121084 
2756.000000	59.123754 
2755.000000	59.125161 
2754.000000	59.124875 
2753.000000	59.122800 
2752.000000	59.119224 
2751.000000	59.114766 
2750.000000	59.109926 
2749.000000	59.104895 
2748.000000	59.099507 
2747.000000	59.093427 
2746.000000	59.086227 
2745.000000	59.077739 
2744.000000	59.068322 
2743.000000	59.058856 
2742.000000	59.050559 
2741.000000	59.044599 
2740.000000	59.041738 
2739.000000	59.042072 
2738.000000	59.044909 
2737.000000	59.048700 
2736.000000	59.051632 
2735.000000	59.052014 
2734.000000	59.048843 
2733.000000	59.042000 
2732.000000	59.032392 
2731.000000	59.021544 
2730.000000	59.011316 
2729.000000	59.003376 
2728.000000	58.998727 
2727.000000	58.997201 
2726.000000	58.997607 
2725.000000	58.998179 
2724.000000	58.996939 
2723.000000	58.992171 
2722.000000	58.982920 
2721.000000	58.969140 
2720.000000	58.951640 
2719.000000	58.931779 
2718.000000	58.911013 
2717.000000	58.890509 
2716.000000	58.871102 
2715.000000	58.853030 
2714.000000	58.836078 
2713.000000	58.819866 
2712.000000	58.803939 
2711.000000	58.788323 
2710.000000	58.773183 
2709.000000	58.759069 
2708.000000	58.746767 
2707.000000	58.737373 
2706.000000	58.731842 
2705.000000	58.731293 
2704.000000	58.736896 
2703.000000	58.749723 
2702.000000	58.770418 
2701.000000	58.798909 
2700.000000	58.834385 
2699.000000	58.874654 
2698.000000	58.916473 
2697.000000	58.955860 
2696.000000	58.988714 
2695.000000	59.011363 
2694.000000	59.021568 
2693.000000	59.018659 
2692.000000	59.003829 
2691.000000	58.979654 
2690.000000	58.949732 
2689.000000	58.917689 
2688.000000	58.886480 
2687.000000	58.858013 
2686.000000	58.833050 
2685.000000	58.811211 
2684.000000	58.791637 
2683.000000	58.773469 
2682.000000	58.756446 
2681.000000	58.740806 
2680.000000	58.727288 
2679.000000	58.716630 
2678.000000	58.709287 
2677.000000	58.704924 
2676.000000	58.702540 
2675.000000	58.700132 
2674.000000	58.695507 
2673.000000	58.686685 
2672.000000	58.672666 
2671.000000	58.653330 
2670.000000	58.629918 
2669.000000	58.604621 
2668.000000	58.580303 
2667.000000	58.559393 
2666.000000	58.543848 
2665.000000	58.534550 
2664.000000	58.531403 
2663.000000	58.533239 
2662.000000	58.538222 
2661.000000	58.544468 
2660.000000	58.550262 
2659.000000	58.554553 
2658.000000	58.556675 
2657.000000	58.556437 
2656.000000	58.553910 
2655.000000	58.549475 
2654.000000	58.543205 
2653.000000	58.535146 
2652.000000	58.525300 
2651.000000	58.513903 
2650.000000	58.501482 
2649.000000	58.489036 
2648.000000	58.477950 
2647.000000	58.469724 
2646.000000	58.465766 
2645.000000	58.466982 
2644.000000	58.473396 
2643.000000	58.484077 
2642.000000	58.497118 
2641.000000	58.509993 
2640.000000	58.519959 
2639.000000	58.524918 
2638.000000	58.523726 
2637.000000	58.516693 
2636.000000	58.505320 
2635.000000	58.492088 
2634.000000	58.479547 
2633.000000	58.469939 
2632.000000	58.464550 
2631.000000	58.463525 
2630.000000	58.465671 
2629.000000	58.469104 
2628.000000	58.471345 
2627.000000	58.470273 
2626.000000	58.464121 
2625.000000	58.452057 
2624.000000	58.434176 
2623.000000	58.411240 
2622.000000	58.384990 
2621.000000	58.357357 
2620.000000	58.330607 
2619.000000	58.306860 
2618.000000	58.287906 
2617.000000	58.274984 
2616.000000	58.268451 
2615.000000	58.267569 
2614.000000	58.270883 
2613.000000	58.276104 
2612.000000	58.280944 
2611.000000	58.283472 
2610.000000	58.282613 
2609.000000	58.278131 
2608.000000	58.270549 
2607.000000	58.260893 
2606.000000	58.250164 
2605.000000	58.238911 
2604.000000	58.227181 
2603.000000	58.214545 
2602.000000	58.200407 
2601.000000	58.184456 
2600.000000	58.166885 
2599.000000	58.148527 
2598.000000	58.130669 
2597.000000	58.114790 
2596.000000	58.102035 
2595.000000	58.093285 
2594.000000	58.088541 
2593.000000	58.087325 
2592.000000	58.088850 
2591.000000	58.092474 
2590.000000	58.097815 
2589.000000	58.104801 
2588.000000	58.113193 
2587.000000	58.122682 
2586.000000	58.132457 
2585.000000	58.141541 
2584.000000	58.148455 
2583.000000	58.151984 
2582.000000	58.151388 
2581.000000	58.146762 
2580.000000	58.139014 
2579.000000	58.129644 
2578.000000	58.120393 
2577.000000	58.112668 
2576.000000	58.107089 
2575.000000	58.103418 
2574.000000	58.100342 
2573.000000	58.096122 
2572.000000	58.088827 
2571.000000	58.077192 
2570.000000	58.060503 
2569.000000	58.039045 
2568.000000	58.013796 
2567.000000	57.986211 
2566.000000	57.958292 
2565.000000	57.931995 
2564.000000	57.909417 
2563.000000	57.892441 
2562.000000	57.882523 
2561.000000	57.880473 
2560.000000	57.886266 
2559.000000	57.898879 
2558.000000	57.916641 
2557.000000	57.937383 
2556.000000	57.958841 
2555.000000	57.978844 
2554.000000	57.995700 
2553.000000	58.008432 
2552.000000	58.016705 
2551.000000	58.020806 
2550.000000	58.021378 
2549.000000	58.019304 
2548.000000	58.015394 
2547.000000	58.010292 
2546.000000	58.004355 
2545.000000	57.997536 
2544.000000	57.989788 
2543.000000	57.980871 
2542.000000	57.970547 
2541.000000	57.958555 
2540.000000	57.944917 
2539.000000	57.929897 
2538.000000	57.914304 
2537.000000	57.898902 
2536.000000	57.884931 
2535.000000	57.873153 
2534.000000	57.863903 
2533.000000	57.856869 
2532.000000	57.851219 
2531.000000	57.845902 
2530.000000	57.840037 
2529.000000	57.833099 
2528.000000	57.825112 
2527.000000	57.816672 
2526.000000	57.808613 
2525.000000	57.801723 
2524.000000	57.796049 
2523.000000	57.791304 
2522.000000	57.786941 
2521.000000	57.782244 
2520.000000	57.776808 
2519.000000	57.771134 
2518.000000	57.766342 
2517.000000	57.763838 
2516.000000	57.764863 
2515.000000	57.769846 
2514.000000	57.777953 
2513.000000	57.787036 
2512.000000	57.794356 
2511.000000	57.797074 
2510.000000	57.793378 
2509.000000	57.783246 
2508.000000	57.768297 
2507.000000	57.751703 
2506.000000	57.736992 
2505.000000	57.727289 
2504.000000	57.723879 
2503.000000	57.725906 
2502.000000	57.730460 
2501.000000	57.733535 
2500.000000	57.731103 
2499.000000	57.720422 
2498.000000	57.700657 
2497.000000	57.673406 
2496.000000	57.641839 
2495.000000	57.609748 
2494.000000	57.580375 
2493.000000	57.555627 
2492.000000	57.535791 
2491.000000	57.519674 
2490.000000	57.505512 
2489.000000	57.491660 
2488.000000	57.477617 
2487.000000	57.464003 
2486.000000	57.452321 
2485.000000	57.444715 
2484.000000	57.442760 
2483.000000	57.447481 
2482.000000	57.458305 
2481.000000	57.473540 
2480.000000	57.490658 
2479.000000	57.507205 
2478.000000	57.521152 
2477.000000	57.531428 
2476.000000	57.537961 
2475.000000	57.541394 
2474.000000	57.542753 
2473.000000	57.542967 
2472.000000	57.542562 
2471.000000	57.541584 
2470.000000	57.539820 
2469.000000	57.536721 
2468.000000	57.531762 
2467.000000	57.524657 
2466.000000	57.515239 
2465.000000	57.503724 
2464.000000	57.490372 
2463.000000	57.475399 
2462.000000	57.459044 
2461.000000	57.441139 
2460.000000	57.421708 
2459.000000	57.400751 
2458.000000	57.378768 
2457.000000	57.356977 
2456.000000	57.337021 
2455.000000	57.320690 
2454.000000	57.309484 
2453.000000	57.304501 
2452.000000	57.305741 
2451.000000	57.311964 
2450.000000	57.321023 
2449.000000	57.330274 
2448.000000	57.337236 
2447.000000	57.340097 
2446.000000	57.338261 
2445.000000	57.332611 
2444.000000	57.324910 
2443.000000	57.317280 
2442.000000	57.311487 
2441.000000	57.308340 
2440.000000	57.307219 
2439.000000	57.306432 
2438.000000	57.304000 
2437.000000	57.297992 
2436.000000	57.287764 
2435.000000	57.273316 
2434.000000	57.255601 
2433.000000	57.235360 
2432.000000	57.213473 
2431.000000	57.189631 
2430.000000	57.162594 
2429.000000	57.130527 
2428.000000	57.091951 
2427.000000	57.046318 
2426.000000	56.994462 
2425.000000	56.939053 
2424.000000	56.884312 
2423.000000	56.835174 
2422.000000	56.796193 
2421.000000	56.770730 
2420.000000	56.759858 
2419.000000	56.762623 
2418.000000	56.775879 
2417.000000	56.795167 
2416.000000	56.815695 
2415.000000	56.832957 
2414.000000	56.843733 
2413.000000	56.846332 
2412.000000	56.841111 
2411.000000	56.830120 
2410.000000	56.816840 
2409.000000	56.805491 
2408.000000	56.800222 
2407.000000	56.804275 
2406.000000	56.819033 
2405.000000	56.844305 
2404.000000	56.877851 
2403.000000	56.916332 
2402.000000	56.955814 
2401.000000	56.992602 
2400.000000	57.023715 
2399.000000	57.047533 
2398.000000	57.063436 
2397.000000	57.072091 
2396.000000	57.074570 
2395.000000	57.071995 
2394.000000	57.065415 
2393.000000	57.055687 
2392.000000	57.043457 
2391.000000	57.029628 
2390.000000	57.015323 
2389.000000	57.002067 
2388.000000	56.991434 
2387.000000	56.984877 
2386.000000	56.983041 
2385.000000	56.985783 
2384.000000	56.992149 
2383.000000	57.000565 
2382.000000	57.009029 
2381.000000	57.015657 
2380.000000	57.019019 
2379.000000	57.018303 
2378.000000	57.013273 
2377.000000	57.004237 
2376.000000	56.991958 
2375.000000	56.977486 
2374.000000	56.961703 
2373.000000	56.945514 
2372.000000	56.929898 
2371.000000	56.915736 
2370.000000	56.903696 
2369.000000	56.894087 
2368.000000	56.886935 
2367.000000	56.881666 
2366.000000	56.877136 
2365.000000	56.871843 
2364.000000	56.864070 
2363.000000	56.852388 
2362.000000	56.836009 
2361.000000	56.815052 
2360.000000	56.790614 
2359.000000	56.764674 
2358.000000	56.739759 
2357.000000	56.718564 
2356.000000	56.703472 
2355.000000	56.695914 
2354.000000	56.696033 
2353.000000	56.702733 
2352.000000	56.713795 
2351.000000	56.726193 
2350.000000	56.736803 
2349.000000	56.743097 
2348.000000	56.743717 
2347.000000	56.738519 
2346.000000	56.728506 
2345.000000	56.715536 
2344.000000	56.701803 
2343.000000	56.689405 
2342.000000	56.679749 
2341.000000	56.673407 
2340.000000	56.670236 
2339.000000	56.669521 
2338.000000	56.670260 
2337.000000	56.671357 
2336.000000	56.671833 
2335.000000	56.670999 
2334.000000	56.668186 
2333.000000	56.662678 
2332.000000	56.653928 
2331.000000	56.641435 
2330.000000	56.625199 
2329.000000	56.605553 
2328.000000	56.583738 
2327.000000	56.561136 
2326.000000	56.539487 
2325.000000	56.520199 
2324.000000	56.504011 
2323.000000	56.491184 
2322.000000	56.481456 
2321.000000	56.474375 
2320.000000	56.469392 
2319.000000	56.466150 
2318.000000	56.464791 
2317.000000	56.465601 
2316.000000	56.468677 
2315.000000	56.473994 
2314.000000	56.481266 
2313.000000	56.489682 
2312.000000	56.498193 
2311.000000	56.505942 
2310.000000	56.512284 
2309.000000	56.517171 
2308.000000	56.520938 
2307.000000	56.524133 
2306.000000	56.527113 
2305.000000	56.529879 
2304.000000	56.531763 
2303.000000	56.531715 
2302.000000	56.528186 
2301.000000	56.520009 
2300.000000	56.506323 
2299.000000	56.486725 
2298.000000	56.461524 
2297.000000	56.431746 
2296.000000	56.398749 
2295.000000	56.364226 
2294.000000	56.329870 
2293.000000	56.297516 
2292.000000	56.268501 
2291.000000	56.243848 
2290.000000	56.223940 
2289.000000	56.208682 
2288.000000	56.197452 
2287.000000	56.189393 
2286.000000	56.183505 
2285.000000	56.178641 
2284.000000	56.173992 
2283.000000	56.169080 
2282.000000	56.163740 
2281.000000	56.158161 
2280.000000	56.152629 
2279.000000	56.147766 
2278.000000	56.144094 
2277.000000	56.142139 
2276.000000	56.142282 
2275.000000	56.144976 
2274.000000	56.150436 
2273.000000	56.158971 
2272.000000	56.170463 
2271.000000	56.184601 
2270.000000	56.200671 
2269.000000	56.217479 
2268.000000	56.233334 
2267.000000	56.246209 
2266.000000	56.254267 
2265.000000	56.255912 
2264.000000	56.250214 
2263.000000	56.237006 
2262.000000	56.217288 
2261.000000	56.192779 
2260.000000	56.165862 
2259.000000	56.138944 
2258.000000	56.114268 
2257.000000	56.093358 
2256.000000	56.076788 
2255.000000	56.064176 
2254.000000	56.054472 
2253.000000	56.046223 
2252.000000	56.038117 
2251.000000	56.029152 
2250.000000	56.018996 
2249.000000	56.008052 
2248.000000	55.997109 
2247.000000	55.987286 
2246.000000	55.979728 
2245.000000	55.975174 
2244.000000	55.973958 
2243.000000	55.976080 
2242.000000	55.980825 
2241.000000	55.987238 
2240.000000	55.993986 
2239.000000	55.999636 
2238.000000	56.002807 
2237.000000	56.002449 
2236.000000	55.997800 
2235.000000	55.988478 
2234.000000	55.974602 
2233.000000	55.956959 
2232.000000	55.936551 
2231.000000	55.914783 
2230.000000	55.892944 
2229.000000	55.872106 
2228.000000	55.853176 
2227.000000	55.836653 
2226.000000	55.822706 
2225.000000	55.811381 
2224.000000	55.802559 
2223.000000	55.796241 
2222.000000	55.792355 
2221.000000	55.790877 
2220.000000	55.791640 
2219.000000	55.794644 
2218.000000	55.799746 
2217.000000	55.806994 
2216.000000	55.816411 
2215.000000	55.827856 
2214.000000	55.840921 
2213.000000	55.854439 
2212.000000	55.867004 
2211.000000	55.876541 
2210.000000	55.880761 
2209.000000	55.877566 
2208.000000	55.865526 
2207.000000	55.844211 
2206.000000	55.814599 
2205.000000	55.778861 
2204.000000	55.740213 
2203.000000	55.702137 
2202.000000	55.668020 
2201.000000	55.640435 
2200.000000	55.620861 
2199.000000	55.609488 
2198.000000	55.605435 
2197.000000	55.606985 
2196.000000	55.612206 
2195.000000	55.618929 
2194.000000	55.625414 
2193.000000	55.630040 
2192.000000	55.632114 
2191.000000	55.631422 
2190.000000	55.628490 
2189.000000	55.624270 
2188.000000	55.620002 
2187.000000	55.616950 
2186.000000	55.616021 
2185.000000	55.617666 
2184.000000	55.621504 
2183.000000	55.626678 
2182.000000	55.631732 
2181.000000	55.635142 
2180.000000	55.635356 
2179.000000	55.631327 
2178.000000	55.622625 
2177.000000	55.609655 
2176.000000	55.593252 
2175.000000	55.574774 
2174.000000	55.555677 
2173.000000	55.537319 
2172.000000	55.520701 
2171.000000	55.506205 
2170.000000	55.494093 
2169.000000	55.484223 
2168.000000	55.476212 
2167.000000	55.469560 
2166.000000	55.463576 
2165.000000	55.457806 
2164.000000	55.451893 
2163.000000	55.445623 
2162.000000	55.438828 
2161.000000	55.431461 
2160.000000	55.423402 
2159.000000	55.414700 
2158.000000	55.405235 
2157.000000	55.395436 
2156.000000	55.386042 
2155.000000	55.378389 
2154.000000	55.373716 
2153.000000	55.373334 
2152.000000	55.377960 
2151.000000	55.387639 
2150.000000	55.401396 
2149.000000	55.417609 
2148.000000	55.434250 
2147.000000	55.449461 
2146.000000	55.461812 
2145.000000	55.470824 
2144.000000	55.476570 
2143.000000	55.479693 
2142.000000	55.480813 
2141.000000	55.480122 
2140.000000	55.477046 
2139.000000	55.470466 
2138.000000	55.458974 
2137.000000	55.441761 
2136.000000	55.418658 
2135.000000	55.391144 
2134.000000	55.361461 
2133.000000	55.332469 
2132.000000	55.306577 
2131.000000	55.285334 
2130.000000	55.269002 
2129.000000	55.256390 
2128.000000	55.245494 
2127.000000	55.234003 
2126.000000	55.220341 
2125.000000	55.204105 
2124.000000	55.186367 
2123.000000	55.169248 
2122.000000	55.155491 
2121.000000	55.147480 
2120.000000	55.146813 
2119.000000	55.153512 
2118.000000	55.166172 
2117.000000	55.182099 
2116.000000	55.198049 
2115.000000	55.210947 
2114.000000	55.218362 
2113.000000	55.219149 
2112.000000	55.213260 
2111.000000	55.201792 
2110.000000	55.186581 
2109.000000	55.169916 
2108.000000	55.153989 
2107.000000	55.140423 
2106.000000	55.130362 
2105.000000	55.123853 
2104.000000	55.120325 
2103.000000	55.118274 
2102.000000	55.115962 
2101.000000	55.111312 
2100.000000	55.102729 
2099.000000	55.089116 
2098.000000	55.070209 
2097.000000	55.047011 
2096.000000	55.021452 
2095.000000	54.996538 
2094.000000	54.975748 
2093.000000	54.962515 
2092.000000	54.959416 
2091.000000	54.967689 
2090.000000	54.986906 
2089.000000	55.014944 
2088.000000	55.048274 
2087.000000	55.082726 
2086.000000	55.114150 
2085.000000	55.139112 
2084.000000	55.155277 
2083.000000	55.161690 
2082.000000	55.158448 
2081.000000	55.146455 
2080.000000	55.126953 
2079.000000	55.101275 
2078.000000	55.070209 
2077.000000	55.034947 
2076.000000	54.996585 
2075.000000	54.956555 
2074.000000	54.916357 
2073.000000	54.878163 
2072.000000	54.843807 
2071.000000	54.814672 
2070.000000	54.791307 
2069.000000	54.773187 
2068.000000	54.759097 
2067.000000	54.747366 
2066.000000	54.736447 
2065.000000	54.725146 
2064.000000	54.713106 
2063.000000	54.700636 
2062.000000	54.688382 
2061.000000	54.677176 
2060.000000	54.667592 
2059.000000	54.659867 
2058.000000	54.653668 
2057.000000	54.648518 
2056.000000	54.644060 
2055.000000	54.640340 
2054.000000	54.637694 
2053.000000	54.637074 
2052.000000	54.639506 
2051.000000	54.646110 
2050.000000	54.657244 
2049.000000	54.672837 
2048.000000	54.691982 
2047.000000	54.713368 
2046.000000	54.735350 
2045.000000	54.756236 
2044.000000	54.774260 
2043.000000	54.787993 
2042.000000	54.796600 
2041.000000	54.799556 
2040.000000	54.796576 
2039.000000	54.787969 
2038.000000	54.774379 
2037.000000	54.756402 
2036.000000	54.734492 
2035.000000	54.709029 
2034.000000	54.680371 
2033.000000	54.648947 
2032.000000	54.615163 
2031.000000	54.579973 
2030.000000	54.544520 
2029.000000	54.510140 
2028.000000	54.478001 
2027.000000	54.449105 
2026.000000	54.423975 
2025.000000	54.402327 
2024.000000	54.383611 
2023.000000	54.366564 
2022.000000	54.350280 
2021.000000	54.334235 
2020.000000	54.318809 
2019.000000	54.304838 
2018.000000	54.293918 
2017.000000	54.287838 
2016.000000	54.287981 
2015.000000	54.294681 
2014.000000	54.307341 
2013.000000	54.324269 
2012.000000	54.343104 
2011.000000	54.361057 
2010.000000	54.375720 
2009.000000	54.385423 
2008.000000	54.389595 
2007.000000	54.388880 
2006.000000	54.384875 
2005.000000	54.379916 
2004.000000	54.376554 
2003.000000	54.376721 
2002.000000	54.381561 
2001.000000	54.390788 
2000.000000	54.403281 
1999.000000	54.416894 
1998.000000	54.428958 
1997.000000	54.436802 
1996.000000	54.438447 
1995.000000	54.432749 
1994.000000	54.419541 
1993.000000	54.399633 
1992.000000	54.374694 
1991.000000	54.346847 
1990.000000	54.318165 
1989.000000	54.290533 
1988.000000	54.265356 
1987.000000	54.243564 
1986.000000	54.225564 
1985.000000	54.211139 
1984.000000	54.199743 
1983.000000	54.190325 
1982.000000	54.181814 
1981.000000	54.172754 
1980.000000	54.161858 
1979.000000	54.148221 
1978.000000	54.131770 
1977.000000	54.112839 
1976.000000	54.092574 
1975.000000	54.072666 
1974.000000	54.055023 
1973.000000	54.040956 
1972.000000	54.031538 
1971.000000	54.026913 
1970.000000	54.026675 
1969.000000	54.029631 
1968.000000	54.034423 
1967.000000	54.039835 
1966.000000	54.044961 
1965.000000	54.049301 
1964.000000	54.052805 
1963.000000	54.055476 
1962.000000	54.057455 
1961.000000	54.058551 
1960.000000	54.058337 
1959.000000	54.056000 
1958.000000	54.050779 
1957.000000	54.042315 
1956.000000	54.030489 
1955.000000	54.015851 
1954.000000	53.999376 
1953.000000	53.982424 
1952.000000	53.966474 
1951.000000	53.952431 
1950.000000	53.940868 
1949.000000	53.931546 
1948.000000	53.923392 
1947.000000	53.914952 
1946.000000	53.904533 
1945.000000	53.890872 
1944.000000	53.873181 
1943.000000	53.851580 
1942.000000	53.827118 
1941.000000	53.801727 
1940.000000	53.777861 
1939.000000	53.758001 
1938.000000	53.744053 
1937.000000	53.737187 
1936.000000	53.737521 
1935.000000	53.744077 
1934.000000	53.754830 
1933.000000	53.767299 
1932.000000	53.779101 
1931.000000	53.788208 
1930.000000	53.793430 
1929.000000	53.794550 
1928.000000	53.792190 
1927.000000	53.787589 
1926.000000	53.782200 
1925.000000	53.777241 
1924.000000	53.773307 
1923.000000	53.770494 
1922.000000	53.768515 
1921.000000	53.766751 
1920.000000	53.764843 
1919.000000	53.762793 
1918.000000	53.760862 
1917.000000	53.759741 
1916.000000	53.759956 
1915.000000	53.761625 
1914.000000	53.764200 
1913.000000	53.766345 
1912.000000	53.766250 
1911.000000	53.761911 
1910.000000	53.751778 
1909.000000	53.735303 
1908.000000	53.713130 
1907.000000	53.687191 
1906.000000	53.660464 
1905.000000	53.636240 
1904.000000	53.617334 
1903.000000	53.605628 
1902.000000	53.601861 
1901.000000	53.605461 
1900.000000	53.614711 
1899.000000	53.627181 
1898.000000	53.640174 
1897.000000	53.651309 
1896.000000	53.658723 
1895.000000	53.661131 
1894.000000	53.657841 
1893.000000	53.648662 
1892.000000	53.633809 
1891.000000	53.613877 
1890.000000	53.589773 
1889.000000	53.562450 
1888.000000	53.533434 
1887.000000	53.504228 
1886.000000	53.476500 
1885.000000	53.451752 
1884.000000	53.431177 
1883.000000	53.415584 
1882.000000	53.405213 
1881.000000	53.399705 
1880.000000	53.398108 
1879.000000	53.398942 
1878.000000	53.400301 
1877.000000	53.400325 
1876.000000	53.397321 
1875.000000	53.390192 
1874.000000	53.378629 
1873.000000	53.363418 
1872.000000	53.346180 
1871.000000	53.329181 
1870.000000	53.314757 
1869.000000	53.304886 
1868.000000	53.300547 
1867.000000	53.301715 
1866.000000	53.307294 
1865.000000	53.315186 
1864.000000	53.322935 
1863.000000	53.328514 
1862.000000	53.330373 
1861.000000	53.328013 
1860.000000	53.322005 
1859.000000	53.313446 
1858.000000	53.303766 
1857.000000	53.294253 
1856.000000	53.285646 
1855.000000	53.278231 
1854.000000	53.271961 
1853.000000	53.266477 
1852.000000	53.261566 
1851.000000	53.257179 
1850.000000	53.253364 
1849.000000	53.250288 
1848.000000	53.247904 
1847.000000	53.245830 
1846.000000	53.243136 
1845.000000	53.238630 
1844.000000	53.230977 
1843.000000	53.219032 
1842.000000	53.202295 
1841.000000	53.181147 
1840.000000	53.156948 
1839.000000	53.131890 
1838.000000	53.108572 
1837.000000	53.089499 
1836.000000	53.076529 
1835.000000	53.070569 
1834.000000	53.071403 
1833.000000	53.077697 
1832.000000	53.087425 
1831.000000	53.098320 
1830.000000	53.108143 
1829.000000	53.115153 
1828.000000	53.118228 
1827.000000	53.116989 
1826.000000	53.111577 
1825.000000	53.102707 
1824.000000	53.091192 
1823.000000	53.077983 
1822.000000	53.064250 
1821.000000	53.051066 
1820.000000	53.039360 
1819.000000	53.029918 
1818.000000	53.022909 
1817.000000	53.017926 
1816.000000	53.014016 
1815.000000	53.009510 
1814.000000	53.002715 
1813.000000	52.992248 
1812.000000	52.977418 
1811.000000	52.958559 
1810.000000	52.937006 
1809.000000	52.914881 
1808.000000	52.894639 
1807.000000	52.878403 
1806.000000	52.867579 
1805.000000	52.862429 
1804.000000	52.862334 
1803.000000	52.865910 
1802.000000	52.871656 
1801.000000	52.878403 
1800.000000	52.885508 
1799.000000	52.892708 
1798.000000	52.900123 
1797.000000	52.907657 
1796.000000	52.914786 
1795.000000	52.920317 
1794.000000	52.922606 
1793.000000	52.919912 
1792.000000	52.911114 
1791.000000	52.895975 
1790.000000	52.875351 
1789.000000	52.850985 
1788.000000	52.825212 
1787.000000	52.800130 
1786.000000	52.777171 
1785.000000	52.756690 
1784.000000	52.737998 
1783.000000	52.719950 
1782.000000	52.701449 
1781.000000	52.682065 
1780.000000	52.662277 
1779.000000	52.643537 
1778.000000	52.627706 
1777.000000	52.616429 
1776.000000	52.610397 
1775.000000	52.609086 
1774.000000	52.610707 
1773.000000	52.612948 
1772.000000	52.613234 
1771.000000	52.609992 
1770.000000	52.602958 
1769.000000	52.593326 
1768.000000	52.583456 
1767.000000	52.575945 
1766.000000	52.572989 
1765.000000	52.575302 
1764.000000	52.582216 
1763.000000	52.591753 
1762.000000	52.601218 
1761.000000	52.608132 
1760.000000	52.610707 
1759.000000	52.608489 
1758.000000	52.602219 
1757.000000	52.593469 
1756.000000	52.584171 
1755.000000	52.575778 
1754.000000	52.568984 
1753.000000	52.563667 
1752.000000	52.558660 
1751.000000	52.552533 
1750.000000	52.543640 
1749.000000	52.531027 
1748.000000	52.514553 
1747.000000	52.494978 
1746.000000	52.473759 
1745.000000	52.452731 
1744.000000	52.433896 
1743.000000	52.418851 
1742.000000	52.408695 
1741.000000	52.403545 
1740.000000	52.402663 
1739.000000	52.404594 
1738.000000	52.407288 
1737.000000	52.408576 
1736.000000	52.406764 
1735.000000	52.400803 
1734.000000	52.390789 
1733.000000	52.377772 
1732.000000	52.363085 
1731.000000	52.348327 
1730.000000	52.334833 
1729.000000	52.323579 
1728.000000	52.314949 
1727.000000	52.309060 
1726.000000	52.305650 
1725.000000	52.304244 
1724.000000	52.304458 
1723.000000	52.305746 
1722.000000	52.307343 
1721.000000	52.308392 
1720.000000	52.307677 
1719.000000	52.304005 
1718.000000	52.296328 
1717.000000	52.283811 
1716.000000	52.266144 
1715.000000	52.243661 
1714.000000	52.217483 
1713.000000	52.189135 
1712.000000	52.160644 
1711.000000	52.134227 
1710.000000	52.112174 
1709.000000	52.096962 
1708.000000	52.090930 
1707.000000	52.096056 
1706.000000	52.113199 
1705.000000	52.142047 
1704.000000	52.180099 
1703.000000	52.223134 
1702.000000	52.265238 
1701.000000	52.299952 
1700.000000	52.321267 
1699.000000	52.324795 
1698.000000	52.309012 
1697.000000	52.275490 
1696.000000	52.228903 
1695.000000	52.176141 
1694.000000	52.125048 
1693.000000	52.083110 
1692.000000	52.055692 
1691.000000	52.045416 
1690.000000	52.051281 
1689.000000	52.069354 
1688.000000	52.093505 
1687.000000	52.117109 
1686.000000	52.133941 
1685.000000	52.139830 
1684.000000	52.133131 
1683.000000	52.115178 
1682.000000	52.089381 
1681.000000	52.060532 
1680.000000	52.033591 
1679.000000	52.012491 
1678.000000	51.999282 
1677.000000	51.993680 
1676.000000	51.993513 
1675.000000	51.995110 
1674.000000	51.994800 
1673.000000	51.989221 
1672.000000	51.976203 
1671.000000	51.955366 
1670.000000	51.927757 
1669.000000	51.896023 
1668.000000	51.862955 
1667.000000	51.831817 
1666.000000	51.805639 
1665.000000	51.787161 
1664.000000	51.778268 
1663.000000	51.780509 
1662.000000	51.794743 
1661.000000	51.820921 
1660.000000	51.858043 
1659.000000	51.903676 
1658.000000	51.954197 
1657.000000	52.004718 
1656.000000	52.049875 
1655.000000	52.084898 
1654.000000	52.106070 
1653.000000	52.111721 
1652.000000	52.101850 
1651.000000	52.078509 
1650.000000	52.044558 
1649.000000	52.003622 
1648.000000	51.958847 
1647.000000	51.912784 
1646.000000	51.866936 
1645.000000	51.822686 
1644.000000	51.780939 
1643.000000	51.743030 
1642.000000	51.709938 
1641.000000	51.682829 
1640.000000	51.662230 
1639.000000	51.647591 
1638.000000	51.637387 
1637.000000	51.628899 
1636.000000	51.619195 
1635.000000	51.605582 
1634.000000	51.586580 
1633.000000	51.562166 
1632.000000	51.533985 
1631.000000	51.504802 
1630.000000	51.477575 
1629.000000	51.454710 
1628.000000	51.437592 
1627.000000	51.426410 
1626.000000	51.420092 
1625.000000	51.416921 
1624.000000	51.415348 
1623.000000	51.414465 
1622.000000	51.414060 
1621.000000	51.414561 
1620.000000	51.416468 
1619.000000	51.420116 
1618.000000	51.425123 
1617.000000	51.430487 
1616.000000	51.434564 
1615.000000	51.435732 
1614.000000	51.433157 
1613.000000	51.426672 
1612.000000	51.417088 
1611.000000	51.405739 
1610.000000	51.394343 
1609.000000	51.384043 
1608.000000	51.375031 
1607.000000	51.366353 
1606.000000	51.356339 
1605.000000	51.343107 
1604.000000	51.325082 
1603.000000	51.301407 
1602.000000	51.272559 
1601.000000	51.239657 
1600.000000	51.204824 
1599.000000	51.170182 
1598.000000	51.137995 
1597.000000	51.110148 
1596.000000	51.088500 
1595.000000	51.074433 
1594.000000	51.068902 
1593.000000	51.072049 
1592.000000	51.083064 
1591.000000	51.100039 
1590.000000	51.120495 
1589.000000	51.141333 
1588.000000	51.159763 
1587.000000	51.173639 
1586.000000	51.182270 
1585.000000	51.186490 
1584.000000	51.188325 
1583.000000	51.190257 
1582.000000	51.194334 
1581.000000	51.201391 
1580.000000	51.210451 
1579.000000	51.218962 
1578.000000	51.223492 
1577.000000	51.220345 
1576.000000	51.207160 
1575.000000	51.183462 
1574.000000	51.150488 
1573.000000	51.111340 
1572.000000	51.070117 
1571.000000	51.031565 
1570.000000	51.000094 
1569.000000	50.979304 
1568.000000	50.971651 
1567.000000	50.977873 
1566.000000	50.997304 
1565.000000	51.027369 
1564.000000	51.064348 
1563.000000	51.103425 
1562.000000	51.139402 
1561.000000	51.167535 
1560.000000	51.183772 
1559.000000	51.185917 
1558.000000	51.173853 
1557.000000	51.149392 
1556.000000	51.115989 
1555.000000	51.077985 
1554.000000	51.039838 
1553.000000	51.005601 
1552.000000	50.978183 
1551.000000	50.959801 
1550.000000	50.951790 
1549.000000	50.954842 
1548.000000	50.968790 
1547.000000	50.992512 
1546.000000	51.023697 
1545.000000	51.058483 
1544.000000	51.092004 
1543.000000	51.119136 
1542.000000	51.135301 
1541.000000	51.137495 
1540.000000	51.124882 
1539.000000	51.098728 
1538.000000	51.062107 
1537.000000	51.019334 
1536.000000	50.975108 
1535.000000	50.933575 
1534.000000	50.897645 
1533.000000	50.868558 
1532.000000	50.846266 
1531.000000	50.829935 
1530.000000	50.818395 
1529.000000	50.810456 
1528.000000	50.805640 
1527.000000	50.804138 
1526.000000	50.806427 
1525.000000	50.812673 
1524.000000	50.822162 
1523.000000	50.833129 
1522.000000	50.842928 
1521.000000	50.848269 
1520.000000	50.846147 
1519.000000	50.834703 
1518.000000	50.813674 
1517.000000	50.785112 
1516.000000	50.753259 
1515.000000	50.723528 
1514.000000	50.701594 
1513.000000	50.691723 
1512.000000	50.696039 
1511.000000	50.713372 
1510.000000	50.739860 
1509.000000	50.769305 
1508.000000	50.795125 
1507.000000	50.811243 
1506.000000	50.813961 
1505.000000	50.802326 
1504.000000	50.777816 
1503.000000	50.744032 
1502.000000	50.705480 
1501.000000	50.666713 
1500.000000	50.631237 
1499.000000	50.601196 
1498.000000	50.577211 
1497.000000	50.558662 
1496.000000	50.544047 
1495.000000	50.531482 
1494.000000	50.519204 
1493.000000	50.505805 
1492.000000	50.490283 
1491.000000	50.472092 
1490.000000	50.451111 
1489.000000	50.427722 
1488.000000	50.402879 
1487.000000	50.377774 
1486.000000	50.354003 
1485.000000	50.333571 
1484.000000	50.318074 
1483.000000	50.308871 
1482.000000	50.306344 
1481.000000	50.309991 
1480.000000	50.318408 
1479.000000	50.329399 
1478.000000	50.340270 
1477.000000	50.348448 
1476.000000	50.351858 
1475.000000	50.349235 
1474.000000	50.340580 
1473.000000	50.327229 
1472.000000	50.311374 
1471.000000	50.295662 
1470.000000	50.282502 
1469.000000	50.273394 
1468.000000	50.269007 
1467.000000	50.269007 
1466.000000	50.272369 
1465.000000	50.277495 
1464.000000	50.282859 
1463.000000	50.286889 
1462.000000	50.288271 
1461.000000	50.285649 
1460.000000	50.277590 
1459.000000	50.262713 
1458.000000	50.240039 
1457.000000	50.209355 
1456.000000	50.171661 
1455.000000	50.129246 
1454.000000	50.085473 
1453.000000	50.044131 
1452.000000	50.009202 
1451.000000	49.983215 
1450.000000	49.966692 
1449.000000	49.957990 
1448.000000	49.953627 
1447.000000	49.949693 
1446.000000	49.942827 
1445.000000	49.931502 
1444.000000	49.916434 
1443.000000	49.900388 
1442.000000	49.887228 
1441.000000	49.880647 
1440.000000	49.882555 
1439.000000	49.892449 
1438.000000	49.906992 
1437.000000	49.920916 
1436.000000	49.928092 
1435.000000	49.923205 
1434.000000	49.903297 
1433.000000	49.868488 
1432.000000	49.822545 
1431.000000	49.771857 
1430.000000	49.724698 
1429.000000	49.689102 
1428.000000	49.671268 
1427.000000	49.674510 
1426.000000	49.698328 
1425.000000	49.738907 
1424.000000	49.789690 
1423.000000	49.842476 
1422.000000	49.889206 
1421.000000	49.923276 
1420.000000	49.940490 
1419.000000	49.939370 
1418.000000	49.921321 
1417.000000	49.889755 
1416.000000	49.849629 
1415.000000	49.805760 
1414.000000	49.762582 
1413.000000	49.723172 
1412.000000	49.689388 
1411.000000	49.661660 
1410.000000	49.639678 
1409.000000	49.622416 
1408.000000	49.608588 
1407.000000	49.597167 
1406.000000	49.586963 
1405.000000	49.577426 
1404.000000	49.568104 
1403.000000	49.559211 
1402.000000	49.550843 
1401.000000	49.543452 
1400.000000	49.537467 
1399.000000	49.533367 
1398.000000	49.531674 
1397.000000	49.532532 
1396.000000	49.535727 
1395.000000	49.540853 
1394.000000	49.547147 
1393.000000	49.553728 
1392.000000	49.559664 
1391.000000	49.564003 
1390.000000	49.565911 
1389.000000	49.564909 
1388.000000	49.560809 
1387.000000	49.553775 
1386.000000	49.544048 
1385.000000	49.531674 
1384.000000	49.516701 
1383.000000	49.499082 
1382.000000	49.478793 
1381.000000	49.455642 
1380.000000	49.429655 
1379.000000	49.401187 
1378.000000	49.370932 
1377.000000	49.339962 
1376.000000	49.309635 
1375.000000	49.281311 
1374.000000	49.256420 
1373.000000	49.235939 
1372.000000	49.220681 
1371.000000	49.210834 
1370.000000	49.206280 
1369.000000	49.206566 
1368.000000	49.210786 
1367.000000	49.217700 
1366.000000	49.225711 
1365.000000	49.232983 
1364.000000	49.237632 
1363.000000	49.237871 
1362.000000	49.232673 
1361.000000	49.221849 
1360.000000	49.206113 
1359.000000	49.187088 
1358.000000	49.167037 
1357.000000	49.148130 
1356.000000	49.132275 
1355.000000	49.120450 
1354.000000	49.112677 
1353.000000	49.107980 
1352.000000	49.104976 
1351.000000	49.102044 
1350.000000	49.097704 
1349.000000	49.091053 
1348.000000	49.081873 
1347.000000	49.070501 
1346.000000	49.057602 
1345.000000	49.043846 
1344.000000	49.029755 
1343.000000	49.015593 
1342.000000	49.001646 
1341.000000	48.988056 
1340.000000	48.975062 
1339.000000	48.963046 
1338.000000	48.952436 
1337.000000	48.943495 
1336.000000	48.936295 
1335.000000	48.930811 
1334.000000	48.926663 
1333.000000	48.923420 
1332.000000	48.920559 
1331.000000	48.917627 
1330.000000	48.914289 
1329.000000	48.910474 
1328.000000	48.906445 
1327.000000	48.902869 
1326.000000	48.900723 
1325.000000	48.901295 
1324.000000	48.905348 
1323.000000	48.913216 
1322.000000	48.924207 
1321.000000	48.936748 
1320.000000	48.948216 
1319.000000	48.955631 
1318.000000	48.956060 
1317.000000	48.947262 
1316.000000	48.928356 
1315.000000	48.900008 
1314.000000	48.864459 
1313.000000	48.825144 
1312.000000	48.785972 
1311.000000	48.750686 
1310.000000	48.722124 
1309.000000	48.701715 
1308.000000	48.689508 
1307.000000	48.684263 
1306.000000	48.683834 
1305.000000	48.685956 
1304.000000	48.688530 
1303.000000	48.690247 
1302.000000	48.690247 
1301.000000	48.688459 
1300.000000	48.685026 
1299.000000	48.680257 
1298.000000	48.674201 
1297.000000	48.666739 
1296.000000	48.657631 
1295.000000	48.646736 
1294.000000	48.634266 
1293.000000	48.620510 
1292.000000	48.606085 
1291.000000	48.591518 
1290.000000	48.577094 
1289.000000	48.563003 
1288.000000	48.549103 
1287.000000	48.535227 
1286.000000	48.521089 
1285.000000	48.506665 
1284.000000	48.492002 
1283.000000	48.477482 
1282.000000	48.463606 
1281.000000	48.450994 
1280.000000	48.440027 
1279.000000	48.431205 
1278.000000	48.424792 
1277.000000	48.420858 
1276.000000	48.419117 
1275.000000	48.419237 
1274.000000	48.420667 
1273.000000	48.423027 
1272.000000	48.425865 
1271.000000	48.428654 
1270.000000	48.430681 
1269.000000	48.431229 
1268.000000	48.429656 
1267.000000	48.425412 
1266.000000	48.418188 
1265.000000	48.408031 
1264.000000	48.395466 
1263.000000	48.381590 
1262.000000	48.367738 
1261.000000	48.355031 
1260.000000	48.344373 
1259.000000	48.336100 
1258.000000	48.329997 
1257.000000	48.325395 
1256.000000	48.321533 
1255.000000	48.317861 
1254.000000	48.314332 
1253.000000	48.311328 
1252.000000	48.309683 
1251.000000	48.310112 
1250.000000	48.313045 
1249.000000	48.317980 
1248.000000	48.323416 
1247.000000	48.326849 
1246.000000	48.325252 
1245.000000	48.315811 
1244.000000	48.296666 
1243.000000	48.267674 
1242.000000	48.230814 
1241.000000	48.189806 
1240.000000	48.149704 
1239.000000	48.115658 
1238.000000	48.091840 
1237.000000	48.080539 
1236.000000	48.081541 
1235.000000	48.092412 
1234.000000	48.109197 
1233.000000	48.127436 
1232.000000	48.143196 
1231.000000	48.153924 
1230.000000	48.158884 
1229.000000	48.158860 
1228.000000	48.155593 
1227.000000	48.150992 
1226.000000	48.146271 
1225.000000	48.141789 
1224.000000	48.136734 
1223.000000	48.129868 
1222.000000	48.119735 
1221.000000	48.105502 
1220.000000	48.087310 
1219.000000	48.066258 
1218.000000	48.044061 
1217.000000	48.022532 
1216.000000	48.003172 
1215.000000	47.986888 
1214.000000	47.973871 
1213.000000	47.963571 
1212.000000	47.954940 
1211.000000	47.946786 
1210.000000	47.938060 
1209.000000	47.928118 
1208.000000	47.916841 
1207.000000	47.904443 
1206.000000	47.891592 
1205.000000	47.879004 
1204.000000	47.867393 
1203.000000	47.857332 
1202.000000	47.848987 
1201.000000	47.842192 
1200.000000	47.836661 
1199.000000	47.831964 
1198.000000	47.827696 
1197.000000	47.823381 
1196.000000	47.818732 
1195.000000	47.813320 
1194.000000	47.807002 
1193.000000	47.799396 
1192.000000	47.789978 
1191.000000	47.778081 
1190.000000	47.763252 
1189.000000	47.745084 
1188.000000	47.723841 
1187.000000	47.700142 
1186.000000	47.675299 
1185.000000	47.650814 
1184.000000	47.628235 
1183.000000	47.608590 
1182.000000	47.592234 
1181.000000	47.578644 
1180.000000	47.566556 
1179.000000	47.554278 
1178.000000	47.540211 
1177.000000	47.523427 
1176.000000	47.503900 
1175.000000	47.482681 
1174.000000	47.461700 
1173.000000	47.443413 
1172.000000	47.430253 
1171.000000	47.423911 
1170.000000	47.425103 
1169.000000	47.433423 
1168.000000	47.447347 
1167.000000	47.464752 
1166.000000	47.483134 
1165.000000	47.500133 
1164.000000	47.513890 
1163.000000	47.523045 
1162.000000	47.527027 
1161.000000	47.525453 
1160.000000	47.518372 
1159.000000	47.506165 
1158.000000	47.489523 
1157.000000	47.469663 
1156.000000	47.448134 
1155.000000	47.426843 
1154.000000	47.407746 
1153.000000	47.392463 
1152.000000	47.381949 
1151.000000	47.376275 
1150.000000	47.374343 
1149.000000	47.374320 
1148.000000	47.373795 
1147.000000	47.370529 
1146.000000	47.362732 
1145.000000	47.349715 
1144.000000	47.331762 
1143.000000	47.310328 
1142.000000	47.287702 
1141.000000	47.266626 
1140.000000	47.249722 
1139.000000	47.239017 
1138.000000	47.235774 
1137.000000	47.240114 
1136.000000	47.251129 
1135.000000	47.266793 
1134.000000	47.284388 
1133.000000	47.300648 
1132.000000	47.312307 
1131.000000	47.316527 
1130.000000	47.311472 
1129.000000	47.296571 
1128.000000	47.272634 
1127.000000	47.241663 
1126.000000	47.206187 
1125.000000	47.168993 
1124.000000	47.132825 
1123.000000	47.099852 
1122.000000	47.071385 
1121.000000	47.047901 
1120.000000	47.029185 
1119.000000	47.014379 
1118.000000	47.002029 
1117.000000	46.990466 
1116.000000	46.978139 
1115.000000	46.963787 
1114.000000	46.947097 
1113.000000	46.928262 
1112.000000	46.908664 
1111.000000	46.890401 
1110.000000	46.876120 
1109.000000	46.868109 
1108.000000	46.867704 
1107.000000	46.874904 
1106.000000	46.888256 
1105.000000	46.904850 
1104.000000	46.921539 
1103.000000	46.935391 
1102.000000	46.945047 
1101.000000	46.950578 
1100.000000	46.953630 
1099.000000	46.956586 
1098.000000	46.961665 
1097.000000	46.970200 
1096.000000	46.981763 
1095.000000	46.994328 
1094.000000	47.004890 
1093.000000	47.010278 
1092.000000	47.008395 
1091.000000	46.998524 
1090.000000	46.981978 
1089.000000	46.961379 
1088.000000	46.939754 
1087.000000	46.919393 
1086.000000	46.901130 
1085.000000	46.884179 
1084.000000	46.866345 
1083.000000	46.845078 
1082.000000	46.818399 
1081.000000	46.785926 
1080.000000	46.748900 
1079.000000	46.710515 
1078.000000	46.674656 
1077.000000	46.645641 
1076.000000	46.626615 
1075.000000	46.619439 
1074.000000	46.623826 
1073.000000	46.637797 
1072.000000	46.657991 
1071.000000	46.680378 
1070.000000	46.700906 
1069.000000	46.716213 
1068.000000	46.723937 
1067.000000	46.722793 
1066.000000	46.712517 
1065.000000	46.694016 
1064.000000	46.669006 
1063.000000	46.639847 
1062.000000	46.609020 
1061.000000	46.578979 
1060.000000	46.551895 
1059.000000	46.529245 
1058.000000	46.511912 
1057.000000	46.499848 
1056.000000	46.492695 
1055.000000	46.489810 
1054.000000	46.490645 
1053.000000	46.494531 
1052.000000	46.501278 
1051.000000	46.510624 
1050.000000	46.522712 
1049.000000	46.537351 
1048.000000	46.554350 
1047.000000	46.573138 
1046.000000	46.592712 
1045.000000	46.611666 
1044.000000	46.627974 
1043.000000	46.639752 
1042.000000	46.644687 
1041.000000	46.640801 
1040.000000	46.626567 
1039.000000	46.601223 
1038.000000	46.565341 
1037.000000	46.521019 
1036.000000	46.471834 
1035.000000	46.422266 
1034.000000	46.377086 
1033.000000	46.340608 
1032.000000	46.315908 
1031.000000	46.304154 
1030.000000	46.304249 
1029.000000	46.313166 
1028.000000	46.326565 
1027.000000	46.339750 
1026.000000	46.348524 
1025.000000	46.350359 
1024.000000	46.344232 
1023.000000	46.331191 
1022.000000	46.313548 
1021.000000	46.294474 
1020.000000	46.276879 
1019.000000	46.262836 
1018.000000	46.253371 
1017.000000	46.248054 
1016.000000	46.245431 
1015.000000	46.243309 
1014.000000	46.239376 
1013.000000	46.231770 
1012.000000	46.219468 
1011.000000	46.202611 
1010.000000	46.182584 
1009.000000	46.161580 
1008.000000	46.142029 
1007.000000	46.126317 
1006.000000	46.115875 
1005.000000	46.111059 
1004.000000	46.110773 
1003.000000	46.112728 
1002.000000	46.113967 
1001.000000	46.111559 
1000.000000	46.103167 
999.000000	 46.087694 
998.000000	 46.065521 
997.000000	 46.038222 
996.000000	 46.008372 
995.000000	 45.978736 
994.000000	 45.951819 
993.000000	 45.929098 
992.000000	 45.911240 
991.000000	 45.898127 
990.000000	 45.889091 
989.000000	 45.883417 
988.000000	 45.880365 
987.000000	 45.879387 
986.000000	 45.879673 
985.000000	 45.880198 
984.000000	 45.879340 
983.000000	 45.875096 
982.000000	 45.865392 
981.000000	 45.848321 
980.000000	 45.822834 
979.000000	 45.789337 
978.000000	 45.749568 
977.000000	 45.706629 
976.000000	 45.664334 
975.000000	 45.626592 
974.000000	 45.596551 
973.000000	 45.576119 
972.000000	 45.565509 
971.000000	 45.563483 
970.000000	 45.567727 
969.000000	 45.575428 
968.000000	 45.583987 
967.000000	 45.591449 
966.000000	 45.596599 
965.000000	 45.598745 
964.000000	 45.597362 
963.000000	 45.592093 
962.000000	 45.582461 
961.000000	 45.568108 
960.000000	 45.548892 
959.000000	 45.525121 
958.000000	 45.497632 
957.000000	 45.467638 
956.000000	 45.436429 
955.000000	 45.405006 
954.000000	 45.374059 
953.000000	 45.343804 
952.000000	 45.314359 
951.000000	 45.285940 
950.000000	 45.259404 
949.000000	 45.236229 
948.000000	 45.218539 
947.000000	 45.208334 
946.000000	 45.207238 
945.000000	 45.215201 
944.000000	 45.230984 
943.000000	 45.251584 
942.000000	 45.273590 
941.000000	 45.293712 
940.000000	 45.309829 
939.000000	 45.321369 
938.000000	 45.328879 
937.000000	 45.333814 
936.000000	 45.337176 
935.000000	 45.339012 
934.000000	 45.337963 
933.000000	 45.331811 
932.000000	 45.318078 
931.000000	 45.295119 
930.000000	 45.263004 
929.000000	 45.223999 
928.000000	 45.182275 
927.000000	 45.143127 
926.000000	 45.111656 
925.000000	 45.091342 
924.000000	 45.083522 
923.000000	 45.086765 
922.000000	 45.097494 
921.000000	 45.110487 
920.000000	 45.120739 
919.000000	 45.123887 
918.000000	 45.117044 
917.000000	 45.099067 
916.000000	 45.070481 
915.000000	 45.033359 
914.000000	 44.990491 
913.000000	 44.945359 
912.000000	 44.901537 
911.000000	 44.862198 
910.000000	 44.829916 
909.000000	 44.805979 
908.000000	 44.790220 
907.000000	 44.780921 
906.000000	 44.775080 
905.000000	 44.768643 
904.000000	 44.757604 
903.000000	 44.739246 
902.000000	 44.712948 
901.000000	 44.680309 
900.000000	 44.644784 
899.000000	 44.611191 
898.000000	 44.584226 
897.000000	 44.566893 
896.000000	 44.560146 
895.000000	 44.562697 
894.000000	 44.571757 
893.000000	 44.583678 
892.000000	 44.595503 
891.000000	 44.605159 
890.000000	 44.612431 
889.000000	 44.618654 
888.000000	 44.625949 
887.000000	 44.636106 
886.000000	 44.649696 
885.000000	 44.666123 
884.000000	 44.682812 
883.000000	 44.696044 
882.000000	 44.701600 
881.000000	 44.696307 
880.000000	 44.678354 
879.000000	 44.647860 
878.000000	 44.606852 
877.000000	 44.558668 
876.000000	 44.507098 
875.000000	 44.455456 
874.000000	 44.405722 
873.000000	 44.358158 
872.000000	 44.311451 
871.000000	 44.263386 
870.000000	 44.211268 
869.000000	 44.153618 
868.000000	 44.090914 
867.000000	 44.026637 
866.000000	 43.966126 
865.000000	 43.916964 
864.000000	 43.886733 
863.000000	 43.882441 
862.000000	 43.907856 
861.000000	 43.963360 
860.000000	 44.045114 
859.000000	 44.145679 
858.000000	 44.255089 
857.000000	 44.362139 
856.000000	 44.456028 
855.000000	 44.528245 
854.000000	 44.573521 
853.000000	 44.590139 
852.000000	 44.579744 
851.000000	 44.546651 
850.000000	 44.496750 
849.000000	 44.436240 
848.000000	 44.370341 
847.000000	 44.303297 
846.000000	 44.237589 
845.000000	 44.174265 
844.000000	 44.113206 
843.000000	 44.053959 
842.000000	 43.996119 
841.000000	 43.939852 
840.000000	 43.886184 
839.000000	 43.836259 
838.000000	 43.792033 
837.000000	 43.754649 
836.000000	 43.725943 
835.000000	 43.706703 
834.000000	 43.698453 
833.000000	 43.702578 
832.000000	 43.720912 
831.000000	 43.754935 
830.000000	 43.805217 
829.000000	 43.870449 
828.000000	 43.946838 
827.000000	 44.027638 
826.000000	 44.105267 
825.000000	 44.172525 
824.000000	 44.223594 
823.000000	 44.254779 
822.000000	 44.265341 
821.000000	 44.256925 
820.000000	 44.232916 
819.000000	 44.196891 
818.000000	 44.151854 
817.000000	 44.099044 
816.000000	 44.039607 
815.000000	 43.973946 
814.000000	 43.902015 
813.000000	 43.824625 
812.000000	 43.744158 
811.000000	 43.665051 
810.000000	 43.592786 
809.000000	 43.533849 
808.000000	 43.494129 
807.000000	 43.477964 
806.000000	 43.486809 
805.000000	 43.518638 
804.000000	 43.567752 
803.000000	 43.625020 
802.000000	 43.678998 
801.000000	 43.717503 
800.000000	 43.729639 
799.000000	 43.708038 
798.000000	 43.650460 
797.000000	 43.560314 
796.000000	 43.446207 
795.000000	 43.321204 
794.000000	 43.200850 
793.000000	 43.099975 
792.000000	 43.030524 
791.000000	 43.001008 
790.000000	 43.015027 
789.000000	 43.070888 
788.000000	 43.161725 
787.000000	 43.276524 
786.000000	 43.401908 
785.000000	 43.523073 
784.000000	 43.627047 
783.000000	 43.703126 
782.000000	 43.745827 
781.000000	 43.754720 
780.000000	 43.734693 
779.000000	 43.694043 
778.000000	 43.643188 
777.000000	 43.593239 
776.000000	 43.552875 
775.000000	 43.527865 
774.000000	 43.519330 
773.000000	 43.525052 
772.000000	 43.538951 
771.000000	 43.553352 
770.000000	 43.559360 
769.000000	 43.549132 
768.000000	 43.516516 
767.000000	 43.458604 
766.000000	 43.375349 
765.000000	 43.270111 
764.000000	 43.149280 
763.000000	 43.021464 
762.000000	 42.896747 
761.000000	 42.784905 
760.000000	 42.693877 
759.000000	 42.628765 
758.000000	 42.590832 
757.000000	 42.578554 
756.000000	 42.587924 
755.000000	 42.614221 
754.000000	 42.651581 
753.000000	 42.695260 
752.000000	 42.741537 
751.000000	 42.788004 
750.000000	 42.832207 
749.000000	 42.872214 
748.000000	 42.905712 
747.000000	 42.930269 
746.000000	 42.943453 
745.000000	 42.942476 
744.000000	 42.924833 
743.000000	 42.888808 
742.000000	 42.834234 
741.000000	 42.762279 
740.000000	 42.675971 
739.000000	 42.580008 
738.000000	 42.480850 
737.000000	 42.386269 
736.000000	 42.304229 
735.000000	 42.242026 
734.000000	 42.204666 
733.000000	 42.193603 
732.000000	 42.206192 
731.000000	 42.235994 
730.000000	 42.274284 
729.000000	 42.310714 
728.000000	 42.336678 
727.000000	 42.346358 
726.000000	 42.338275 
725.000000	 42.314743 
724.000000	 42.281317 
723.000000	 42.244744 
722.000000	 42.211365 
721.000000	 42.185640 
720.000000	 42.169237 
719.000000	 42.160773 
718.000000	 42.157101 
717.000000	 42.154407 
716.000000	 42.149257 
715.000000	 42.139458 
714.000000	 42.124223 
713.000000	 42.103981 
712.000000	 42.079305 
711.000000	 42.050504 
710.000000	 42.017269 
709.000000	 41.979289 
708.000000	 41.936326 
707.000000	 41.889286 
706.000000	 41.840600 
705.000000	 41.794204 
704.000000	 41.755223 
703.000000	 41.728806 
702.000000	 41.718721 
701.000000	 41.726255 
700.000000	 41.749572 
699.000000	 41.783857 
698.000000	 41.821956 
697.000000	 41.855955 
696.000000	 41.878557 
695.000000	 41.884899 
694.000000	 41.873311 
693.000000	 41.845297 
692.000000	 41.805243 
691.000000	 41.758108 
690.000000	 41.708135 
689.000000	 41.657876 
688.000000	 41.608047 
687.000000	 41.557288 
686.000000	 41.503071 
685.000000	 41.442990 
684.000000	 41.375732 
683.000000	 41.301250 
682.000000	 41.221427 
681.000000	 41.138958 
680.000000	 41.057682 
679.000000	 40.981650 
678.000000	 40.915155 
677.000000	 40.861725 
676.000000	 40.824079 
675.000000	 40.803813 
674.000000	 40.800952 
673.000000	 40.813279 
672.000000	 40.837526 
671.000000	 40.868878 
670.000000	 40.903091 
669.000000	 40.935540 
668.000000	 40.964293 
667.000000	 40.989565 
666.000000	 41.014480 
665.000000	 41.043329 
664.000000	 41.080594 
663.000000	 41.128873 
662.000000	 41.187691 
661.000000	 41.252994 
660.000000	 41.317391 
659.000000	 41.371607 
658.000000	 41.406989 
657.000000	 41.417121 
656.000000	 41.399168 
655.000000	 41.354680 
654.000000	 41.289353 
653.000000	 41.211795 
652.000000	 41.131663 
651.000000	 41.057205 
650.000000	 40.994858 
649.000000	 40.946674 
648.000000	 40.911293 
647.000000	 40.883445 
646.000000	 40.856432 
645.000000	 40.823292 
644.000000	 40.778541 
643.000000	 40.720272 
642.000000	 40.649771 
641.000000	 40.572905 
640.000000	 40.498161 
639.000000	 40.435409 
638.000000	 40.392994 
637.000000	 40.375947 
636.000000	 40.384912 
635.000000	 40.415072 
634.000000	 40.457248 
633.000000	 40.500521 
632.000000	 40.534710 
631.000000	 40.552401 
630.000000	 40.550398 
629.000000	 40.529966 
628.000000	 40.496063 
627.000000	 40.454983 
626.000000	 40.412759 
625.000000	 40.373706 
624.000000	 40.339565 
623.000000	 40.309643 
622.000000	 40.281677 
621.000000	 40.253329 
620.000000	 40.222859 
619.000000	 40.190529 
618.000000	 40.158104 
617.000000	 40.128207 
616.000000	 40.103530 
615.000000	 40.085482 
614.000000	 40.073847 
613.000000	 40.066790 
612.000000	 40.060877 
611.000000	 40.051913 
610.000000	 40.035581 
609.000000	 40.008258 
608.000000	 39.967727 
607.000000	 39.913725 
606.000000	 39.848136 
605.000000	 39.774775 
604.000000	 39.698863 
603.000000	 39.626026 
602.000000	 39.561676 
601.000000	 39.509701 
600.000000	 39.471697 
599.000000	 39.446663 
598.000000	 39.431166 
597.000000	 39.420437 
596.000000	 39.409279 
595.000000	 39.393377 
594.000000	 39.369916 
593.000000	 39.337873 
592.000000	 39.298200 
591.000000	 39.252281 
590.000000	 39.201331 
589.000000	 39.145493 
588.000000	 39.083576 
587.000000	 39.014315 
586.000000	 38.937544 
585.000000	 38.854980 
584.000000	 38.770937 
583.000000	 38.691473 
582.000000	 38.623428 
581.000000	 38.572335 
580.000000	 38.540840 
579.000000	 38.527703 
578.000000	 38.527941 
577.000000	 38.533830 
576.000000	 38.537240 
575.000000	 38.531208 
574.000000	 38.512516 
573.000000	 38.482165 
572.000000	 38.445663 
571.000000	 38.411021 
570.000000	 38.386917 
569.000000	 38.380265 
568.000000	 38.393998 
567.000000	 38.426113 
566.000000	 38.469004 
565.000000	 38.512444 
564.000000	 38.543915 
563.000000	 38.551926 
562.000000	 38.527965 
561.000000	 38.468670 
560.000000	 38.376116 
559.000000	 38.257098 
558.000000	 38.122248 
557.000000	 37.983894 
556.000000	 37.854385 
555.000000	 37.744283 
554.000000	 37.660622 
553.000000	 37.606382 
552.000000	 37.580895 
551.000000	 37.580943 
550.000000	 37.600708 
549.000000	 37.633585 
548.000000	 37.673234 
547.000000	 37.714457 
546.000000	 37.752819 
545.000000	 37.785148 
544.000000	 37.809181 
543.000000	 37.823891 
542.000000	 37.828397 
541.000000	 37.823081 
540.000000	 37.809276 
539.000000	 37.789869 
538.000000	 37.769150 
537.000000	 37.751936 
536.000000	 37.743782 
535.000000	 37.748146 
534.000000	 37.766718 
533.000000	 37.796044 
532.000000	 37.828874 
531.000000	 37.853598 
530.000000	 37.857723 
529.000000	 37.828636 
528.000000	 37.756800 
527.000000	 37.638258 
526.000000	 37.476086 
525.000000	 37.279510 
524.000000	 37.062358 
523.000000	 36.840200 
522.000000	 36.627888 
521.000000	 36.437869 
520.000000	 36.278843 
519.000000	 36.154294 
518.000000	 36.063694 
517.000000	 36.004829 
516.000000	 35.974216 
515.000000	 35.966730 
514.000000	 35.976934 
513.000000	 35.997319 
512.000000	 36.020517 
511.000000	 36.037349 
510.000000	 36.041498 
509.000000	 36.027908 
508.000000	 35.997843 
507.000000	 35.957622 
506.000000	 35.919499 
505.000000	 35.898232 
504.000000	 35.907936 
503.000000	 35.958385 
502.000000	 36.050987 
501.000000	 36.177587 
500.000000	 36.320066 
499.000000	 36.453461 
498.000000	 36.550116 
497.000000	 36.584949 
496.000000	 36.540222 
495.000000	 36.408591 
494.000000	 36.193490 
493.000000	 35.909318 
492.000000	 35.577797 
491.000000	 35.226631 
490.000000	 34.884953 
489.000000	 34.581518 
488.000000	 34.341669 
487.000000	 34.185242 
486.000000	 34.122657 
485.000000	 34.155583 
484.000000	 34.275746 
483.000000	 34.467363 
482.000000	 34.707498 
481.000000	 34.969949 
480.000000	 35.226845 
479.000000	 35.452485 
478.000000	 35.624885 
477.000000	 35.728263 
476.000000	 35.754084 
475.000000	 35.701823 
474.000000	 35.578632 
473.000000	 35.398530 
472.000000	 35.180234 
471.000000	 34.945344 
470.000000	 34.714341 
469.000000	 34.503483 
468.000000	 34.321856 
467.000000	 34.168839 
466.000000	 34.037089 
465.000000	 33.912992 
464.000000	 33.786010 
463.000000	 33.652329 
462.000000	 33.520674 
461.000000	 33.409452 
460.000000	 33.344197 
459.000000	 33.347368 
458.000000	 33.433198 
457.000000	 33.600854 
456.000000	 33.833694 
455.000000	 34.098172 
454.000000	 34.354901 
453.000000	 34.568595 
452.000000	 34.714102 
451.000000	 34.782481 
450.000000	 34.778618 
449.000000	 34.718132 
448.000000	 34.619832 
447.000000	 34.500479 
446.000000	 34.367823 
445.000000	 34.219932 
444.000000	 34.054708 
443.000000	 33.873558 
442.000000	 33.684921 
441.000000	 33.503198 
440.000000	 33.347368 
439.000000	 33.233571 
438.000000	 33.163738 
437.000000	 33.127188 
436.000000	 33.099961 
435.000000	 33.057880 
434.000000	 32.976460 
433.000000	 32.851362 
432.000000	 32.702326 
431.000000	 32.574033 
430.000000	 32.518792 
429.000000	 32.590150 
428.000000	 32.830095 
427.000000	 33.249020 
426.000000	 33.819246 
425.000000	 34.473752 
424.000000	 35.120368 
423.000000	 35.655975 
422.000000	 35.993242 
421.000000	 36.068296 
420.000000	 35.852885 
419.000000	 35.361957 
418.000000	 34.650325 
417.000000	 33.782482 
416.000000	 32.818317 
415.000000	 31.820559 
414.000000	 30.842733 
413.000000	 29.915976 
412.000000	 29.050922 
411.000000	 28.261113 
410.000000	 27.552151 
409.000000	 26.928782 
408.000000	 26.382255 
407.000000	 25.885534 
406.000000	 25.393748 
405.000000	 24.852228 
404.000000	 24.207782 
403.000000	 23.401594 
402.000000	 22.413897 
401.000000	 21.265339 
400.000000	 20.037651 
399.000000	 18.855667 
398.000000	 17.872262 
397.000000	 17.215776 
396.000000	 16.997003 
395.000000	 17.271018 
394.000000	 18.065881 
393.000000	 19.375300 
392.000000	 21.179389 
391.000000	 23.445367 
390.000000	 26.144433 
389.000000	 29.237532 
388.000000	 32.693290 
387.000000	 36.447358 
386.000000	 40.366530 
385.000000	 44.226217 
384.000000	 47.747993 
383.000000	 50.603652 
382.000000	 52.510046 
381.000000	 53.227233 
380.000000	 52.681136 
379.000000	 50.906801 
378.000000	 47.994160 
377.000000	 44.164514 
376.000000	 39.716339 
375.000000	 35.109138 
374.000000	 30.953812 
373.000000	 27.900958 
372.000000	 26.626539 
371.000000	 27.487754 
370.000000	 30.403184 

