PE IR       SPECTRUM    SPECTRUM    ASCII       PEDS        1.60        
  -1
C-1AEE~1.ASC
17/03/27
15:40:46.00
17/03/27
15:40:46.00
tln
$C-4040-8_t0015$<tbV0>[5.2,-10.4,8.0,0.0,27,1,0]
370.000000
64









2002,4.07    
MIRTGS : RIGHTBACK : INTERNAL 2
MIR : ON : INTERNAL 2
OPTKBR

0.200000
8
8.000000
FILLER
RATIO
SPECTRUM
UNLOCKED 256

DOUBLE
64
COMBINED
1
0
0


1.000000
RATIO


1
0
TRUE
51149
0
LEFT NOT FITTED RIGHT NOT FITTED 0
NONE
NONE
15600
12.000000
4.427000
51148
TRUE
1 0 8 72 0 0 0 0 

15798.010000






#HDR
-1
-1
#GR
CM-1
%T
0.00002384185791015625
0.0
5000.000000
-1.000000
4631
8
79.162263
0.604295
#DATA
5000.000000	63.292527 
4999.000000	63.274407 
4998.000000	63.287210 
4997.000000	63.336229 
4996.000000	63.422465 
4995.000000	63.542723 
4994.000000	63.688683 
4993.000000	63.847875 
4992.000000	64.004874 
4991.000000	64.144110 
4990.000000	64.251136 
4989.000000	64.315223 
4988.000000	64.330363 
4987.000000	64.296030 
4986.000000	64.217257 
4985.000000	64.103937 
4984.000000	63.968253 
4983.000000	63.822746 
4982.000000	63.678431 
4981.000000	63.543367 
4980.000000	63.421750 
4979.000000	63.315057 
4978.000000	63.222241 
4977.000000	63.142561 
4976.000000	63.078141 
4975.000000	63.033890 
4974.000000	63.015794 
4973.000000	63.028430 
4972.000000	63.072252 
4971.000000	63.141202 
4970.000000	63.221669 
4969.000000	63.295149 
4968.000000	63.340544 
4967.000000	63.341188 
4966.000000	63.288831 
4965.000000	63.187146 
4964.000000	63.051033 
4963.000000	62.904191 
4962.000000	62.773537 
4961.000000	62.682795 
4960.000000	62.647199 
4959.000000	62.669682 
4958.000000	62.740540 
4957.000000	62.841534 
4956.000000	62.950587 
4955.000000	63.046884 
4954.000000	63.114690 
4953.000000	63.143515 
4952.000000	63.128519 
4951.000000	63.068604 
4950.000000	62.966394 
4949.000000	62.825703 
4948.000000	62.653374 
4947.000000	62.460303 
4946.000000	62.261986 
4945.000000	62.077140 
4944.000000	61.926817 
4943.000000	61.831021 
4942.000000	61.806583 
4941.000000	61.862897 
4940.000000	62.000536 
4939.000000	62.209701 
4938.000000	62.471103 
4937.000000	62.758135 
4936.000000	63.040566 
4935.000000	63.288927 
4934.000000	63.478326 
4933.000000	63.591551 
4932.000000	63.622069 
4931.000000	63.574171 
4930.000000	63.462305 
4929.000000	63.308167 
4928.000000	63.137984 
4927.000000	62.977910 
4926.000000	62.850284 
4925.000000	62.770318 
4924.000000	62.744092 
4923.000000	62.769269 
4922.000000	62.836980 
4921.000000	62.934970 
4920.000000	63.049769 
4919.000000	63.170361 
4918.000000	63.287854 
4917.000000	63.397741 
4916.000000	63.497829 
4915.000000	63.588595 
4914.000000	63.669919 
4913.000000	63.742327 
4912.000000	63.806343 
4911.000000	63.862729 
4910.000000	63.913702 
4909.000000	63.961505 
4908.000000	64.009547 
4907.000000	64.059114 
4906.000000	64.110040 
4905.000000	64.157962 
4904.000000	64.195299 
4903.000000	64.213323 
4902.000000	64.204812 
4901.000000	64.165401 
4900.000000	64.095330 
4899.000000	63.999676 
4898.000000	63.887596 
4897.000000	63.770222 
4896.000000	63.659143 
4895.000000	63.563704 
4894.000000	63.490819 
4893.000000	63.444447 
4892.000000	63.426160 
4891.000000	63.435602 
4890.000000	63.470864 
4889.000000	63.527798 
4888.000000	63.600683 
4887.000000	63.681936 
4886.000000	63.762879 
4885.000000	63.832831 
4884.000000	63.883113 
4883.000000	63.908123 
4882.000000	63.907098 
4881.000000	63.884115 
4880.000000	63.846945 
4879.000000	63.805437 
4878.000000	63.768076 
4877.000000	63.740158 
4876.000000	63.721942 
4875.000000	63.709330 
4874.000000	63.695502 
4873.000000	63.673591 
4872.000000	63.639473 
4871.000000	63.593554 
4870.000000	63.541269 
4869.000000	63.491821 
4868.000000	63.454961 
4867.000000	63.438558 
4866.000000	63.446140 
4865.000000	63.475966 
4864.000000	63.520908 
4863.000000	63.570570 
4862.000000	63.614392 
4861.000000	63.643479 
4860.000000	63.652849 
4859.000000	63.641881 
4858.000000	63.613414 
4857.000000	63.573503 
4856.000000	63.529372 
4855.000000	63.488340 
4854.000000	63.456106 
4853.000000	63.436365 
4852.000000	63.431167 
4851.000000	63.440179 
4850.000000	63.461589 
4849.000000	63.491892 
4848.000000	63.526892 
4847.000000	63.561940 
4846.000000	63.592982 
4845.000000	63.617444 
4844.000000	63.634896 
4843.000000	63.647365 
4842.000000	63.658499 
4841.000000	63.672590 
4840.000000	63.692426 
4839.000000	63.718914 
4838.000000	63.749480 
4837.000000	63.778638 
4836.000000	63.798928 
4835.000000	63.803124 
4834.000000	63.785719 
4833.000000	63.744759 
4832.000000	63.682222 
4831.000000	63.604235 
4830.000000	63.519501 
4829.000000	63.437509 
4828.000000	63.366413 
4827.000000	63.311839 
4826.000000	63.275718 
4825.000000	63.256168 
4824.000000	63.248610 
4823.000000	63.247489 
4822.000000	63.246703 
4821.000000	63.241243 
4820.000000	63.227772 
4819.000000	63.205385 
4818.000000	63.175320 
4817.000000	63.140892 
4816.000000	63.106465 
4815.000000	63.076686 
4814.000000	63.055801 
4813.000000	63.046526 
4812.000000	63.049483 
4811.000000	63.063192 
4810.000000	63.084626 
4809.000000	63.110089 
4808.000000	63.135361 
4807.000000	63.157796 
4806.000000	63.176465 
4805.000000	63.192796 
4804.000000	63.209533 
4803.000000	63.230609 
4802.000000	63.259482 
4801.000000	63.298511 
4800.000000	63.348150 
4799.000000	63.406777 
4798.000000	63.470959 
4797.000000	63.536739 
4796.000000	63.600540 
4795.000000	63.659691 
4794.000000	63.712573 
4793.000000	63.758850 
4792.000000	63.798904 
4791.000000	63.833093 
4790.000000	63.860988 
4789.000000	63.881564 
4788.000000	63.892912 
4787.000000	63.892912 
4786.000000	63.879203 
4785.000000	63.850808 
4784.000000	63.807654 
4783.000000	63.751029 
4782.000000	63.683485 
4781.000000	63.608646 
4780.000000	63.530874 
4779.000000	63.454890 
4778.000000	63.385391 
4777.000000	63.326692 
4776.000000	63.282227 
4775.000000	63.254308 
4774.000000	63.243508 
4773.000000	63.248157 
4772.000000	63.265061 
4771.000000	63.289904 
4770.000000	63.317966 
4769.000000	63.344621 
4768.000000	63.367033 
4767.000000	63.384318 
4766.000000	63.397645 
4765.000000	63.409256 
4764.000000	63.422417 
4763.000000	63.439941 
4762.000000	63.462996 
4761.000000	63.490629 
4760.000000	63.519883 
4759.000000	63.546586 
4758.000000	63.566350 
4757.000000	63.576149 
4756.000000	63.575339 
4755.000000	63.565993 
4754.000000	63.552856 
4753.000000	63.541579 
4752.000000	63.537764 
4751.000000	63.544654 
4750.000000	63.563036 
4749.000000	63.590025 
4748.000000	63.619995 
4747.000000	63.645839 
4746.000000	63.661241 
4745.000000	63.661503 
4744.000000	63.644433 
4743.000000	63.611102 
4742.000000	63.565468 
4741.000000	63.512825 
4740.000000	63.458442 
4739.000000	63.407015 
4738.000000	63.361620 
4737.000000	63.323807 
4736.000000	63.293600 
4735.000000	63.270211 
4734.000000	63.252496 
4733.000000	63.239169 
4732.000000	63.229179 
4731.000000	63.221406 
4730.000000	63.214993 
4729.000000	63.209080 
4728.000000	63.203263 
4727.000000	63.197064 
4726.000000	63.190770 
4725.000000	63.184976 
4724.000000	63.180923 
4723.000000	63.179516 
4722.000000	63.182020 
4721.000000	63.189196 
4720.000000	63.202118 
4719.000000	63.221168 
4718.000000	63.247442 
4717.000000	63.282108 
4716.000000	63.326525 
4715.000000	63.381528 
4714.000000	63.446974 
4713.000000	63.521599 
4712.000000	63.602113 
4711.000000	63.683509 
4710.000000	63.759779 
4709.000000	63.825035 
4708.000000	63.875031 
4707.000000	63.907670 
4706.000000	63.923597 
4705.000000	63.925242 
4704.000000	63.917398 
4703.000000	63.904571 
4702.000000	63.890790 
4701.000000	63.877654 
4700.000000	63.864898 
4699.000000	63.850259 
4698.000000	63.830971 
4697.000000	63.804054 
4696.000000	63.768386 
4695.000000	63.724303 
4694.000000	63.674259 
4693.000000	63.621735 
4692.000000	63.570523 
4691.000000	63.523316 
4690.000000	63.481259 
4689.000000	63.443470 
4688.000000	63.407659 
4687.000000	63.370609 
4686.000000	63.329792 
4685.000000	63.283753 
4684.000000	63.233447 
4683.000000	63.182711 
4682.000000	63.137936 
4681.000000	63.106060 
4680.000000	63.093566 
4679.000000	63.104796 
4678.000000	63.140749 
4677.000000	63.198041 
4676.000000	63.269281 
4675.000000	63.344740 
4674.000000	63.413763 
4673.000000	63.466787 
4672.000000	63.497304 
4671.000000	63.502407 
4670.000000	63.483738 
4669.000000	63.446545 
4668.000000	63.398957 
4667.000000	63.349890 
4666.000000	63.307857 
4665.000000	63.279891 
4664.000000	63.270163 
4663.000000	63.279891 
4662.000000	63.307404 
4661.000000	63.348770 
4660.000000	63.397765 
4659.000000	63.446950 
4658.000000	63.488602 
4657.000000	63.516259 
4656.000000	63.525199 
4655.000000	63.513588 
4654.000000	63.482761 
4653.000000	63.437104 
4652.000000	63.382840 
4651.000000	63.326954 
4650.000000	63.276100 
4649.000000	63.235425 
4648.000000	63.207888 
4647.000000	63.194012 
4646.000000	63.192629 
4645.000000	63.201069 
4644.000000	63.216757 
4643.000000	63.237047 
4642.000000	63.259243 
4641.000000	63.281393 
4640.000000	63.301634 
4639.000000	63.318800 
4638.000000	63.331365 
4637.000000	63.338971 
4636.000000	63.341975 
4635.000000	63.342285 
4634.000000	63.342881 
4633.000000	63.347101 
4632.000000	63.357663 
4631.000000	63.375902 
4630.000000	63.401317 
4629.000000	63.431811 
4628.000000	63.464140 
4627.000000	63.494849 
4626.000000	63.521146 
4625.000000	63.541817 
4624.000000	63.557219 
4623.000000	63.569092 
4622.000000	63.579511 
4621.000000	63.590145 
4620.000000	63.601040 
4619.000000	63.611030 
4618.000000	63.617324 
4617.000000	63.616108 
4616.000000	63.603591 
4615.000000	63.577628 
4614.000000	63.538169 
4613.000000	63.487601 
4612.000000	63.430666 
4611.000000	63.373470 
4610.000000	63.322591 
4609.000000	63.283634 
4608.000000	63.260269 
4607.000000	63.253641 
4606.000000	63.262033 
4605.000000	63.281226 
4604.000000	63.305139 
4603.000000	63.326978 
4602.000000	63.340926 
4601.000000	63.343286 
4600.000000	63.332509 
4599.000000	63.309669 
4598.000000	63.277959 
4597.000000	63.242101 
4596.000000	63.207125 
4595.000000	63.177585 
4594.000000	63.157200 
4593.000000	63.147997 
4592.000000	63.150453 
4591.000000	63.163161 
4590.000000	63.182950 
4589.000000	63.205909 
4588.000000	63.227748 
4587.000000	63.245320 
4586.000000	63.257098 
4585.000000	63.264060 
4584.000000	63.269066 
4583.000000	63.276267 
4582.000000	63.289618 
4581.000000	63.311076 
4580.000000	63.339972 
4579.000000	63.371467 
4578.000000	63.397622 
4577.000000	63.408946 
4576.000000	63.397145 
4575.000000	63.357520 
4574.000000	63.290834 
4573.000000	63.203644 
4572.000000	63.107442 
4571.000000	63.016009 
4570.000000	62.942671 
4569.000000	62.896943 
4568.000000	62.882852 
4567.000000	62.898588 
4566.000000	62.937617 
4565.000000	62.990546 
4564.000000	63.047647 
4563.000000	63.101172 
4562.000000	63.146305 
4561.000000	63.180875 
4560.000000	63.205194 
4559.000000	63.220095 
4558.000000	63.227105 
4557.000000	63.226699 
4556.000000	63.219976 
4555.000000	63.208794 
4554.000000	63.196229 
4553.000000	63.186669 
4552.000000	63.183641 
4551.000000	63.189148 
4550.000000	63.202023 
4549.000000	63.218092 
4548.000000	63.230586 
4547.000000	63.232016 
4546.000000	63.216733 
4545.000000	63.182449 
4544.000000	63.131570 
4543.000000	63.070249 
4542.000000	63.007140 
4541.000000	62.950205 
4540.000000	62.904214 
4539.000000	62.869644 
4538.000000	62.842488 
4537.000000	62.815928 
4536.000000	62.783098 
4535.000000	62.739181 
4534.000000	62.684106 
4533.000000	62.621808 
4532.000000	62.558984 
4531.000000	62.503290 
4530.000000	62.459874 
4529.000000	62.432050 
4528.000000	62.420344 
4527.000000	62.423706 
4526.000000	62.439918 
4525.000000	62.466740 
4524.000000	62.502241 
4523.000000	62.544298 
4522.000000	62.590336 
4521.000000	62.637114 
4520.000000	62.680697 
4519.000000	62.716627 
4518.000000	62.740445 
4517.000000	62.747955 
4516.000000	62.736487 
4515.000000	62.705659 
4514.000000	62.658452 
4513.000000	62.601161 
4512.000000	62.542867 
4511.000000	62.494850 
4510.000000	62.467384 
4509.000000	62.467336 
4508.000000	62.496423 
4507.000000	62.551569 
4506.000000	62.624216 
4505.000000	62.702655 
4504.000000	62.773656 
4503.000000	62.825441 
4502.000000	62.849235 
4501.000000	62.840652 
4500.000000	62.800192 
4499.000000	62.733054 
4498.000000	62.647318 
4497.000000	62.552499 
4496.000000	62.458348 
4495.000000	62.373304 
4494.000000	62.304234 
4493.000000	62.255716 
4492.000000	62.229847 
4491.000000	62.226533 
4490.000000	62.241864 
4489.000000	62.270951 
4488.000000	62.307167 
4487.000000	62.346744 
4486.000000	62.388873 
4485.000000	62.436890 
4484.000000	62.499237 
4483.000000	62.583279 
4482.000000	62.689232 
4481.000000	62.810516 
4480.000000	62.934684 
4479.000000	63.045144 
4478.000000	63.124108 
4477.000000	63.159704 
4476.000000	63.151121 
4475.000000	63.106751 
4474.000000	63.042759 
4473.000000	62.977337 
4472.000000	62.925434 
4471.000000	62.896895 
4470.000000	62.895011 
4469.000000	62.915110 
4468.000000	62.947249 
4467.000000	62.984681 
4466.000000	63.025736 
4465.000000	63.071441 
4464.000000	63.126206 
4463.000000	63.192844 
4462.000000	63.275742 
4461.000000	63.371515 
4460.000000	63.481116 
4459.000000	63.609099 
4458.000000	63.771080 
4457.000000	63.989400 
4456.000000	64.291143 
4455.000000	64.700603 
4454.000000	65.229344 
4453.000000	65.867996 
4452.000000	66.583371 
4451.000000	67.323732 
4450.000000	68.023252 
4449.000000	68.618106 
4448.000000	69.051313 
4447.000000	69.286990 
4446.000000	69.307398 
4445.000000	69.117712 
4444.000000	68.732094 
4443.000000	68.171334 
4442.000000	67.457604 
4441.000000	66.615629 
4440.000000	65.677165 
4439.000000	64.683222 
4438.000000	63.689589 
4437.000000	62.760019 
4436.000000	61.957812 
4435.000000	61.334991 
4434.000000	60.915541 
4433.000000	60.696983 
4432.000000	60.648274 
4431.000000	60.722398 
4430.000000	60.860848 
4429.000000	61.011695 
4428.000000	61.132931 
4427.000000	61.203622 
4426.000000	61.213636 
4425.000000	61.172318 
4424.000000	61.095809 
4423.000000	61.007642 
4422.000000	60.932326 
4421.000000	60.885834 
4420.000000	60.868430 
4419.000000	60.876083 
4418.000000	60.905909 
4417.000000	60.951161 
4416.000000	61.004114 
4415.000000	61.058807 
4414.000000	61.110973 
4413.000000	61.158561 
4412.000000	61.199641 
4411.000000	61.229300 
4410.000000	61.239957 
4409.000000	61.220574 
4408.000000	61.162090 
4407.000000	61.061978 
4406.000000	60.926175 
4405.000000	60.775160 
4404.000000	60.632610 
4403.000000	60.522341 
4402.000000	60.458159 
4401.000000	60.426497 
4400.000000	60.413217 
4399.000000	60.382652 
4398.000000	60.343766 
4397.000000	60.342431 
4396.000000	60.492968 
4395.000000	60.946583 
4394.000000	61.868929 
4393.000000	63.389444 
4392.000000	65.543150 
4391.000000	68.239235 
4390.000000	71.242642 
4389.000000	74.207353 
4388.000000	76.737403 
4387.000000	78.470373 
4386.000000	79.162263 
4385.000000	78.739595 
4384.000000	77.327442 
4383.000000	75.207376 
4382.000000	72.752928 
4381.000000	70.334291 
4380.000000	68.249607 
4379.000000	66.661620 
4378.000000	65.604996 
4377.000000	64.990043 
4376.000000	64.678907 
4375.000000	64.515829 
4374.000000	64.383339 
4373.000000	64.220690 
4372.000000	64.009618 
4371.000000	63.780975 
4370.000000	63.565707 
4369.000000	63.397264 
4368.000000	63.272976 
4367.000000	63.179373 
4366.000000	63.092803 
4365.000000	62.996244 
4364.000000	62.888550 
4363.000000	62.785220 
4362.000000	62.715530 
4361.000000	62.701654 
4360.000000	62.750124 
4359.000000	62.854361 
4358.000000	62.994122 
4357.000000	63.138723 
4356.000000	63.254666 
4355.000000	63.319945 
4354.000000	63.325095 
4353.000000	63.270664 
4352.000000	63.167881 
4351.000000	63.028788 
4350.000000	62.868165 
4349.000000	62.709259 
4348.000000	62.571883 
4347.000000	62.464642 
4346.000000	62.389111 
4345.000000	62.345290 
4344.000000	62.328338 
4343.000000	62.330746 
4342.000000	62.344408 
4341.000000	62.361550 
4340.000000	62.376475 
4339.000000	62.385153 
4338.000000	62.386655 
4337.000000	62.382173 
4336.000000	62.372612 
4335.000000	62.357330 
4334.000000	62.333679 
4333.000000	62.298083 
4332.000000	62.248134 
4331.000000	62.184619 
4330.000000	62.113690 
4329.000000	62.046051 
4328.000000	61.994767 
4327.000000	61.972165 
4326.000000	61.986279 
4325.000000	62.038755 
4324.000000	62.124276 
4323.000000	62.231206 
4322.000000	62.344694 
4321.000000	62.449145 
4320.000000	62.530851 
4319.000000	62.581324 
4318.000000	62.598395 
4317.000000	62.585997 
4316.000000	62.552261 
4315.000000	62.507605 
4314.000000	62.462377 
4313.000000	62.423920 
4312.000000	62.395620 
4311.000000	62.376546 
4310.000000	62.362790 
4309.000000	62.349247 
4308.000000	62.331962 
4307.000000	62.309098 
4306.000000	62.281966 
4305.000000	62.254238 
4304.000000	62.231326 
4303.000000	62.218093 
4302.000000	62.218141 
4301.000000	62.232565 
4300.000000	62.260437 
4299.000000	62.299418 
4298.000000	62.346935 
4297.000000	62.400746 
4296.000000	62.459588 
4295.000000	62.523365 
4294.000000	62.591624 
4293.000000	62.662768 
4292.000000	62.732911 
4291.000000	62.795972 
4290.000000	62.844395 
4289.000000	62.871050 
4288.000000	62.870311 
4287.000000	62.840437 
4286.000000	62.783384 
4285.000000	62.705445 
4284.000000	62.615442 
4283.000000	62.523341 
4282.000000	62.437868 
4281.000000	62.365245 
4280.000000	62.308430 
4279.000000	62.267351 
4278.000000	62.239885 
4277.000000	62.223267 
4276.000000	62.214779 
4275.000000	62.213158 
4274.000000	62.218499 
4273.000000	62.232708 
4272.000000	62.257146 
4271.000000	62.293267 
4270.000000	62.341046 
4269.000000	62.399482 
4268.000000	62.465953 
4267.000000	62.536621 
4266.000000	62.607383 
4265.000000	62.673592 
4264.000000	62.731361 
4263.000000	62.777304 
4262.000000	62.809419 
4261.000000	62.826752 
4260.000000	62.829995 
4259.000000	62.820887 
4258.000000	62.802267 
4257.000000	62.777495 
4256.000000	62.750339 
4255.000000	62.723851 
4254.000000	62.699866 
4253.000000	62.679052 
4252.000000	62.660861 
4251.000000	62.643098 
4250.000000	62.622308 
4249.000000	62.595295 
4248.000000	62.559556 
4247.000000	62.513494 
4246.000000	62.457442 
4245.000000	62.393307 
4244.000000	62.325048 
4243.000000	62.257814 
4242.000000	62.197899 
4241.000000	62.150883 
4240.000000	62.121605 
4239.000000	62.112760 
4238.000000	62.125062 
4237.000000	62.156152 
4236.000000	62.201929 
4235.000000	62.257003 
4234.000000	62.315773 
4233.000000	62.372589 
4232.000000	62.423467 
4231.000000	62.466335 
4230.000000	62.501096 
4229.000000	62.529063 
4228.000000	62.553095 
4227.000000	62.576723 
4226.000000	62.603569 
4225.000000	62.636375 
4224.000000	62.676262 
4223.000000	62.722158 
4222.000000	62.771439 
4221.000000	62.820124 
4220.000000	62.863874 
4219.000000	62.898826 
4218.000000	62.922644 
4217.000000	62.934780 
4216.000000	62.936568 
4215.000000	62.930536 
4214.000000	62.920165 
4213.000000	62.908625 
4212.000000	62.898731 
4211.000000	62.891793 
4210.000000	62.887835 
4209.000000	62.885308 
4208.000000	62.882113 
4207.000000	62.875556 
4206.000000	62.862920 
4205.000000	62.842369 
4204.000000	62.813472 
4203.000000	62.777400 
4202.000000	62.736606 
4201.000000	62.695360 
4200.000000	62.658524 
4199.000000	62.631106 
4198.000000	62.616991 
4197.000000	62.617659 
4196.000000	62.631773 
4195.000000	62.655305 
4194.000000	62.682485 
4193.000000	62.707448 
4192.000000	62.725377 
4191.000000	62.733888 
4190.000000	62.732529 
4189.000000	62.722730 
4188.000000	62.706184 
4187.000000	62.684202 
4186.000000	62.656164 
4185.000000	62.620234 
4184.000000	62.573003 
4183.000000	62.511730 
4182.000000	62.434601 
4181.000000	62.342190 
4180.000000	62.237882 
4179.000000	62.127637 
4178.000000	62.019968 
4177.000000	61.924123 
4176.000000	61.849546 
4175.000000	61.803865 
4174.000000	61.792874 
4173.000000	61.819100 
4172.000000	61.881899 
4171.000000	61.976957 
4170.000000	62.095999 
4169.000000	62.227845 
4168.000000	62.359166 
4167.000000	62.476897 
4166.000000	62.569832 
4165.000000	62.630987 
4164.000000	62.658882 
4163.000000	62.657403 
4162.000000	62.634921 
4161.000000	62.601828 
4160.000000	62.569046 
4159.000000	62.544703 
4158.000000	62.533593 
4157.000000	62.535429 
4156.000000	62.547063 
4155.000000	62.562298 
4154.000000	62.574553 
4153.000000	62.578082 
4152.000000	62.569642 
4151.000000	62.548875 
4150.000000	62.517857 
4149.000000	62.481141 
4148.000000	62.444043 
4147.000000	62.412238 
4146.000000	62.390375 
4145.000000	62.382006 
4144.000000	62.388944 
4143.000000	62.410926 
4142.000000	62.445807 
4141.000000	62.489533 
4140.000000	62.536954 
4139.000000	62.582778 
4138.000000	62.622690 
4137.000000	62.653589 
4136.000000	62.674307 
4135.000000	62.686014 
4134.000000	62.691187 
4133.000000	62.693285 
4132.000000	62.694954 
4131.000000	62.697935 
4130.000000	62.701702 
4129.000000	62.704539 
4128.000000	62.703156 
4127.000000	62.694072 
4126.000000	62.674546 
4125.000000	62.644004 
4124.000000	62.603878 
4123.000000	62.557697 
4122.000000	62.510395 
4121.000000	62.467145 
4120.000000	62.432265 
4119.000000	62.408089 
4118.000000	62.394785 
4117.000000	62.390446 
4116.000000	62.391328 
4115.000000	62.393307 
4114.000000	62.392640 
4113.000000	62.387323 
4112.000000	62.377691 
4111.000000	62.366533 
4110.000000	62.358093 
4109.000000	62.357401 
4108.000000	62.368917 
4107.000000	62.395119 
4106.000000	62.435650 
4105.000000	62.486910 
4104.000000	62.542986 
4103.000000	62.596583 
4102.000000	62.640428 
4101.000000	62.669396 
4100.000000	62.681436 
4099.000000	62.678432 
4098.000000	62.665486 
4097.000000	62.649774 
4096.000000	62.638759 
4095.000000	62.638258 
4094.000000	62.651300 
4093.000000	62.677359 
4092.000000	62.712335 
4091.000000	62.750172 
4090.000000	62.784552 
4089.000000	62.809920 
4088.000000	62.822818 
4087.000000	62.822461 
4086.000000	62.810659 
4085.000000	62.790918 
4084.000000	62.767362 
4083.000000	62.743616 
4082.000000	62.721967 
4081.000000	62.703776 
4080.000000	62.688851 
4079.000000	62.676358 
4078.000000	62.664985 
4077.000000	62.654018 
4076.000000	62.643241 
4075.000000	62.632584 
4074.000000	62.622785 
4073.000000	62.614464 
4072.000000	62.608647 
4071.000000	62.606048 
4070.000000	62.607789 
4069.000000	62.615060 
4068.000000	62.629246 
4067.000000	62.651491 
4066.000000	62.682414 
4065.000000	62.721538 
4064.000000	62.767100 
4063.000000	62.815856 
4062.000000	62.863731 
4061.000000	62.906050 
4060.000000	62.938618 
4059.000000	62.957954 
4058.000000	62.962269 
4057.000000	62.950897 
4056.000000	62.924885 
4055.000000	62.885689 
4054.000000	62.835335 
4053.000000	62.775826 
4052.000000	62.709474 
4051.000000	62.639212 
4050.000000	62.568616 
4049.000000	62.502384 
4048.000000	62.446069 
4047.000000	62.405347 
4046.000000	62.384986 
4045.000000	62.387847 
4044.000000	62.413692 
4043.000000	62.459397 
4042.000000	62.519025 
4041.000000	62.584829 
4040.000000	62.648677 
4039.000000	62.703204 
4038.000000	62.743186 
4037.000000	62.766003 
4036.000000	62.771940 
4035.000000	62.764000 
4034.000000	62.746858 
4033.000000	62.726092 
4032.000000	62.706470 
4031.000000	62.692117 
4030.000000	62.685108 
4029.000000	62.685894 
4028.000000	62.693119 
4027.000000	62.704277 
4026.000000	62.716364 
4025.000000	62.726545 
4024.000000	62.732863 
4023.000000	62.734246 
4022.000000	62.730956 
4021.000000	62.724375 
4020.000000	62.716460 
4019.000000	62.709116 
4018.000000	62.704062 
4017.000000	62.702488 
4016.000000	62.704992 
4015.000000	62.711715 
4014.000000	62.722373 
4013.000000	62.736177 
4012.000000	62.752032 
4011.000000	62.768459 
4010.000000	62.783074 
4009.000000	62.792921 
4008.000000	62.794852 
4007.000000	62.786459 
4006.000000	62.766075 
4005.000000	62.733769 
4004.000000	62.691831 
4003.000000	62.644410 
4002.000000	62.597107 
4001.000000	62.555861 
4000.000000	62.525510 
3999.000000	62.508988 
3998.000000	62.506699 
3997.000000	62.516665 
3996.000000	62.534761 
3995.000000	62.556052 
3994.000000	62.576007 
3993.000000	62.591147 
3992.000000	62.599515 
3991.000000	62.600374 
3990.000000	62.594127 
3989.000000	62.580990 
3988.000000	62.560725 
3987.000000	62.532305 
3986.000000	62.494349 
3985.000000	62.445521 
3984.000000	62.385630 
3983.000000	62.316131 
3982.000000	62.240505 
3981.000000	62.163901 
3980.000000	62.092399 
3979.000000	62.031745 
3978.000000	61.986541 
3977.000000	61.958861 
3976.000000	61.948895 
3975.000000	61.954522 
3974.000000	61.972880 
3973.000000	62.000536 
3972.000000	62.035155 
3971.000000	62.075018 
3970.000000	62.119626 
3969.000000	62.168598 
3968.000000	62.221431 
3967.000000	62.276434 
3966.000000	62.331032 
3965.000000	62.381601 
3964.000000	62.424159 
3963.000000	62.455344 
3962.000000	62.472915 
3961.000000	62.476563 
3960.000000	62.467765 
3959.000000	62.449717 
3958.000000	62.426209 
3957.000000	62.401056 
3956.000000	62.377572 
3955.000000	62.358283 
3954.000000	62.344670 
3953.000000	62.337303 
3952.000000	62.336516 
3951.000000	62.342333 
3950.000000	62.354421 
3949.000000	62.372112 
3948.000000	62.394261 
3947.000000	62.419009 
3946.000000	62.443852 
3945.000000	62.465739 
3944.000000	62.481665 
3943.000000	62.488961 
3942.000000	62.485980 
3941.000000	62.472105 
3940.000000	62.447762 
3939.000000	62.414431 
3938.000000	62.374234 
3937.000000	62.329888 
3936.000000	62.284207 
3935.000000	62.240457 
3934.000000	62.202072 
3933.000000	62.172579 
3932.000000	62.155055 
3931.000000	62.151551 
3930.000000	62.162733 
3929.000000	62.187004 
3928.000000	62.220740 
3927.000000	62.258601 
3926.000000	62.294650 
3925.000000	62.323236 
3924.000000	62.340331 
3923.000000	62.344384 
3922.000000	62.336254 
3921.000000	62.319231 
3920.000000	62.297654 
3919.000000	62.276124 
3918.000000	62.258243 
3917.000000	62.245702 
3916.000000	62.238478 
3915.000000	62.235188 
3914.000000	62.233996 
3913.000000	62.233281 
3912.000000	62.232303 
3911.000000	62.231492 
3910.000000	62.232327 
3909.000000	62.236499 
3908.000000	62.245464 
3907.000000	62.259578 
3906.000000	62.278151 
3905.000000	62.299227 
3904.000000	62.319779 
3903.000000	62.336230 
3902.000000	62.345409 
3901.000000	62.345242 
3900.000000	62.335062 
3899.000000	62.315750 
3898.000000	62.289690 
3897.000000	62.260079 
3896.000000	62.230277 
3895.000000	62.202692 
3894.000000	62.178826 
3893.000000	62.158656 
3892.000000	62.140989 
3891.000000	62.123918 
3890.000000	62.105464 
3889.000000	62.084388 
3888.000000	62.060260 
3887.000000	62.034082 
3886.000000	62.007999 
3885.000000	61.984682 
3884.000000	61.966276 
3883.000000	61.954259 
3882.000000	61.948943 
3881.000000	61.949610 
3880.000000	61.954855 
3879.000000	61.962914 
3878.000000	61.972188 
3877.000000	61.981534 
3876.000000	61.990308 
3875.000000	61.998176 
3874.000000	62.005090 
3873.000000	62.011551 
3872.000000	62.018203 
3871.000000	62.025761 
3870.000000	62.034869 
3869.000000	62.045502 
3868.000000	62.057280 
3867.000000	62.069106 
3866.000000	62.079906 
3865.000000	62.088370 
3864.000000	62.094163 
3863.000000	62.097883 
3862.000000	62.101650 
3861.000000	62.108659 
3860.000000	62.122535 
3859.000000	62.146496 
3858.000000	62.181735 
3857.000000	62.226939 
3856.000000	62.277793 
3855.000000	62.327742 
3854.000000	62.369155 
3853.000000	62.395262 
3852.000000	62.401437 
3851.000000	62.386465 
3850.000000	62.352156 
3849.000000	62.302875 
3848.000000	62.244462 
3847.000000	62.182998 
3846.000000	62.124228 
3845.000000	62.072825 
3844.000000	62.032580 
3843.000000	62.005901 
3842.000000	61.994028 
3841.000000	61.996698 
3840.000000	62.012434 
3839.000000	62.038373 
3838.000000	62.070202 
3837.000000	62.103128 
3836.000000	62.131834 
3835.000000	62.152075 
3834.000000	62.160873 
3833.000000	62.157344 
3832.000000	62.142419 
3831.000000	62.118697 
3830.000000	62.089610 
3829.000000	62.058663 
3828.000000	62.028694 
3827.000000	62.001919 
3826.000000	61.980175 
3825.000000	61.964559 
3824.000000	61.955690 
3823.000000	61.953568 
3822.000000	61.957788 
3821.000000	61.967015 
3820.000000	61.979079 
3819.000000	61.991691 
3818.000000	62.003111 
3817.000000	62.012410 
3816.000000	62.020158 
3815.000000	62.028193 
3814.000000	62.039113 
3813.000000	62.055683 
3812.000000	62.079596 
3811.000000	62.110948 
3810.000000	62.147450 
3809.000000	62.185263 
3808.000000	62.219119 
3807.000000	62.244200 
3806.000000	62.256407 
3805.000000	62.254023 
3804.000000	62.236738 
3803.000000	62.206149 
3802.000000	62.164449 
3801.000000	62.114262 
3800.000000	62.057828 
3799.000000	61.997079 
3798.000000	61.934089 
3797.000000	61.871409 
3796.000000	61.812043 
3795.000000	61.759376 
3794.000000	61.716794 
3793.000000	61.686968 
3792.000000	61.670851 
3791.000000	61.667346 
3790.000000	61.673092 
3789.000000	61.683464 
3788.000000	61.693143 
3787.000000	61.697602 
3786.000000	61.693930 
3785.000000	61.681532 
3784.000000	61.661577 
3783.000000	61.637139 
3782.000000	61.611604 
3781.000000	61.588859 
3780.000000	61.571788 
3779.000000	61.562585 
3778.000000	61.562514 
3777.000000	61.571788 
3776.000000	61.589860 
3775.000000	61.615395 
3774.000000	61.646270 
3773.000000	61.680269 
3772.000000	61.715006 
3771.000000	61.748480 
3770.000000	61.779141 
3769.000000	61.806154 
3768.000000	61.829376 
3767.000000	61.849451 
3766.000000	61.867547 
3765.000000	61.884951 
3764.000000	61.902809 
3763.000000	61.921834 
3762.000000	61.942267 
3761.000000	61.964344 
3760.000000	61.988377 
3759.000000	62.014913 
3758.000000	62.044620 
3757.000000	62.078404 
3756.000000	62.116765 
3755.000000	62.159657 
3754.000000	62.206077 
3753.000000	62.254500 
3752.000000	62.302231 
3751.000000	62.346386 
3750.000000	62.383365 
3749.000000	62.409615 
3748.000000	62.421894 
3747.000000	62.418127 
3746.000000	62.397909 
3745.000000	62.362980 
3744.000000	62.317132 
3743.000000	62.265801 
3742.000000	62.214875 
3741.000000	62.169504 
3740.000000	62.132596 
3739.000000	62.104249 
3738.000000	62.081766 
3737.000000	62.060475 
3736.000000	62.034630 
3735.000000	61.999607 
3734.000000	61.953425 
3733.000000	61.897850 
3732.000000	61.837744 
3731.000000	61.780500 
3730.000000	61.733961 
3729.000000	61.704850 
3728.000000	61.696195 
3727.000000	61.707496 
3726.000000	61.734485 
3725.000000	61.770534 
3724.000000	61.808156 
3723.000000	61.840867 
3722.000000	61.864233 
3721.000000	61.876869 
3720.000000	61.879682 
3719.000000	61.875772 
3718.000000	61.868977 
3717.000000	61.862611 
3716.000000	61.858534 
3715.000000	61.856722 
3714.000000	61.855411 
3713.000000	61.851739 
3712.000000	61.842942 
3711.000000	61.826801 
3710.000000	61.802577 
3709.000000	61.771488 
3708.000000	61.736321 
3707.000000	61.700320 
3706.000000	61.666703 
3705.000000	61.637854 
3704.000000	61.615228 
3703.000000	61.598825 
3702.000000	61.588335 
3701.000000	61.582970 
3700.000000	61.582851 
3699.000000	61.588740 
3698.000000	61.602377 
3697.000000	61.625504 
3696.000000	61.659145 
3695.000000	61.702728 
3694.000000	61.753320 
3693.000000	61.805725 
3692.000000	61.852979 
3691.000000	61.887717 
3690.000000	61.903715 
3689.000000	61.897349 
3688.000000	61.868405 
3687.000000	61.820507 
3686.000000	61.760568 
3685.000000	61.697793 
3684.000000	61.641764 
3683.000000	61.600804 
3682.000000	61.580753 
3681.000000	61.583924 
3680.000000	61.608958 
3679.000000	61.650967 
3678.000000	61.703014 
3677.000000	61.756920 
3676.000000	61.804938 
3675.000000	61.840701 
3674.000000	61.859655 
3673.000000	61.859774 
3672.000000	61.841201 
3671.000000	61.806130 
3670.000000	61.758065 
3669.000000	61.701416 
3668.000000	61.641454 
3667.000000	61.583399 
3666.000000	61.532187 
3665.000000	61.492133 
3664.000000	61.466455 
3663.000000	61.457014 
3662.000000	61.464118 
3661.000000	61.486434 
3660.000000	61.521172 
3659.000000	61.564350 
3658.000000	61.611342 
3657.000000	61.657738 
3656.000000	61.699771 
3655.000000	61.734604 
3654.000000	61.760401 
3653.000000	61.776089 
3652.000000	61.780905 
3651.000000	61.774921 
3650.000000	61.758208 
3649.000000	61.731457 
3648.000000	61.695265 
3647.000000	61.651182 
3646.000000	61.600708 
3645.000000	61.546039 
3644.000000	61.489295 
3643.000000	61.432456 
3642.000000	61.377644 
3641.000000	61.327075 
3640.000000	61.283588 
3639.000000	61.249971 
3638.000000	61.229562 
3637.000000	61.225080 
3636.000000	61.238169 
3635.000000	61.268734 
3634.000000	61.313819 
3633.000000	61.367559 
3632.000000	61.421704 
3631.000000	61.467242 
3630.000000	61.496114 
3629.000000	61.503171 
3628.000000	61.487340 
3627.000000	61.451935 
3626.000000	61.403846 
3625.000000	61.351633 
3624.000000	61.303877 
3623.000000	61.266589 
3622.000000	61.242580 
3621.000000	61.230635 
3620.000000	61.227059 
3619.000000	61.226391 
3618.000000	61.223554 
3617.000000	61.215019 
3616.000000	61.199641 
3615.000000	61.179041 
3614.000000	61.156415 
3613.000000	61.136269 
3612.000000	61.122441 
3611.000000	61.117696 
3610.000000	61.122894 
3609.000000	61.137318 
3608.000000	61.159038 
3607.000000	61.185240 
3606.000000	61.212873 
3605.000000	61.238908 
3604.000000	61.260890 
3603.000000	61.277031 
3602.000000	61.286687 
3601.000000	61.290049 
3600.000000	61.288452 
3599.000000	61.284470 
3598.000000	61.281490 
3597.000000	61.283254 
3596.000000	61.292791 
3595.000000	61.312079 
3594.000000	61.340665 
3593.000000	61.376357 
3592.000000	61.414432 
3591.000000	61.448645 
3590.000000	61.472368 
3589.000000	61.480307 
3588.000000	61.469459 
3587.000000	61.440229 
3586.000000	61.396265 
3585.000000	61.343979 
3584.000000	61.290907 
3583.000000	61.244368 
3582.000000	61.209774 
3581.000000	61.189699 
3580.000000	61.183524 
3579.000000	61.188054 
3578.000000	61.198282 
3577.000000	61.209082 
3576.000000	61.215972 
3575.000000	61.216306 
3574.000000	61.209034 
3573.000000	61.194992 
3572.000000	61.176276 
3571.000000	61.155700 
3570.000000	61.136031 
3569.000000	61.119341 
3568.000000	61.107087 
3567.000000	61.099624 
3566.000000	61.096549 
3565.000000	61.096882 
3564.000000	61.099624 
3563.000000	61.103630 
3562.000000	61.107897 
3561.000000	61.111402 
3560.000000	61.113381 
3559.000000	61.113071 
3558.000000	61.109828 
3557.000000	61.103463 
3556.000000	61.094260 
3555.000000	61.083126 
3554.000000	61.071419 
3553.000000	61.060595 
3552.000000	61.051845 
3551.000000	61.045885 
3550.000000	61.042857 
3549.000000	61.042356 
3548.000000	61.043715 
3547.000000	61.046123 
3546.000000	61.048841 
3545.000000	61.051344 
3544.000000	61.053228 
3543.000000	61.054062 
3542.000000	61.053228 
3541.000000	61.050081 
3540.000000	61.044073 
3539.000000	61.034893 
3538.000000	61.022567 
3537.000000	61.007452 
3536.000000	60.990333 
3535.000000	60.972476 
3534.000000	60.955429 
3533.000000	60.940909 
3532.000000	60.930299 
3531.000000	60.924434 
3530.000000	60.923218 
3529.000000	60.925555 
3528.000000	60.929441 
3527.000000	60.932207 
3526.000000	60.931110 
3525.000000	60.923933 
3524.000000	60.909533 
3523.000000	60.888004 
3522.000000	60.860681 
3521.000000	60.829687 
3520.000000	60.797548 
3519.000000	60.766696 
3518.000000	60.738754 
3517.000000	60.714578 
3516.000000	60.694432 
3515.000000	60.678148 
3514.000000	60.665655 
3513.000000	60.657167 
3512.000000	60.653305 
3511.000000	60.654616 
3510.000000	60.661458 
3509.000000	60.673236 
3508.000000	60.687899 
3507.000000	60.702276 
3506.000000	60.712313 
3505.000000	60.714101 
3504.000000	60.704493 
3503.000000	60.682415 
3502.000000	60.649061 
3501.000000	60.608100 
3500.000000	60.564875 
3499.000000	60.525631 
3498.000000	60.496354 
3497.000000	60.481381 
3496.000000	60.482740 
3495.000000	60.500049 
3494.000000	60.531044 
3493.000000	60.572028 
3492.000000	60.619091 
3491.000000	60.668778 
3490.000000	60.718441 
3489.000000	60.766553 
3488.000000	60.811948 
3487.000000	60.853457 
3486.000000	60.889053 
3485.000000	60.916399 
3484.000000	60.932302 
3483.000000	60.933756 
3482.000000	60.918498 
3481.000000	60.886645 
3480.000000	60.840487 
3479.000000	60.784935 
3478.000000	60.726380 
3477.000000	60.671877 
3476.000000	60.627055 
3475.000000	60.595250 
3474.000000	60.576462 
3473.000000	60.567522 
3472.000000	60.563278 
3471.000000	60.558247 
3470.000000	60.547900 
3469.000000	60.530114 
3468.000000	60.505461 
3467.000000	60.476946 
3466.000000	60.448813 
3465.000000	60.425400 
3464.000000	60.409522 
3463.000000	60.402226 
3462.000000	60.402369 
3461.000000	60.407519 
3460.000000	60.415124 
3459.000000	60.423421 
3458.000000	60.431838 
3457.000000	60.441136 
3456.000000	60.453033 
3455.000000	60.469174 
3454.000000	60.489988 
3453.000000	60.514354 
3452.000000	60.539698 
3451.000000	60.562109 
3450.000000	60.577702 
3449.000000	60.582995 
3448.000000	60.576033 
3447.000000	60.556507 
3446.000000	60.526275 
3445.000000	60.488557 
3444.000000	60.447239 
3443.000000	60.406351 
3442.000000	60.369610 
3441.000000	60.339665 
3440.000000	60.318207 
3439.000000	60.305833 
3438.000000	60.302305 
3437.000000	60.306596 
3436.000000	60.317301 
3435.000000	60.332393 
3434.000000	60.349702 
3433.000000	60.366725 
3432.000000	60.381102 
3431.000000	60.390520 
3430.000000	60.393095 
3429.000000	60.387611 
3428.000000	60.373878 
3427.000000	60.352516 
3426.000000	60.325145 
3425.000000	60.294461 
3424.000000	60.263657 
3423.000000	60.236263 
3422.000000	60.215425 
3421.000000	60.203504 
3420.000000	60.201501 
3419.000000	60.208892 
3418.000000	60.223674 
3417.000000	60.242629 
3416.000000	60.262012 
3415.000000	60.278296 
3414.000000	60.288500 
3413.000000	60.291004 
3412.000000	60.285758 
3411.000000	60.274028 
3410.000000	60.257959 
3409.000000	60.239553 
3408.000000	60.220718 
3407.000000	60.202074 
3406.000000	60.183191 
3405.000000	60.162448 
3404.000000	60.137820 
3403.000000	60.107636 
3402.000000	60.071420 
3401.000000	60.030388 
3400.000000	59.987235 
3399.000000	59.945940 
3398.000000	59.910750 
3397.000000	59.885501 
3396.000000	59.872579 
3395.000000	59.872698 
3394.000000	59.884619 
3393.000000	59.905910 
3392.000000	59.933447 
3391.000000	59.964203 
3390.000000	59.995841 
3389.000000	60.026907 
3388.000000	60.056924 
3387.000000	60.086131 
3386.000000	60.115003 
3385.000000	60.143756 
3384.000000	60.172057 
3383.000000	60.199141 
3382.000000	60.223579 
3381.000000	60.243821 
3380.000000	60.258173 
3379.000000	60.265278 
3378.000000	60.264039 
3377.000000	60.254311 
3376.000000	60.236573 
3375.000000	60.212397 
3374.000000	60.184121 
3373.000000	60.154986 
3372.000000	60.128307 
3371.000000	60.107111 
3370.000000	60.093545 
3369.000000	60.088634 
3368.000000	60.092067 
3367.000000	60.102128 
3366.000000	60.116171 
3365.000000	60.131096 
3364.000000	60.143804 
3363.000000	60.151672 
3362.000000	60.152864 
3361.000000	60.146546 
3360.000000	60.133099 
3359.000000	60.114121 
3358.000000	60.091710 
3357.000000	60.068154 
3356.000000	60.045909 
3355.000000	60.026741 
3354.000000	60.011649 
3353.000000	60.000634 
3352.000000	59.992980 
3351.000000	59.987545 
3350.000000	59.982728 
3349.000000	59.977340 
3348.000000	59.970760 
3347.000000	59.963417 
3346.000000	59.956455 
3345.000000	59.951543 
3344.000000	59.950160 
3343.000000	59.953594 
3342.000000	59.962344 
3341.000000	59.976053 
3340.000000	59.993648 
3339.000000	60.013484 
3338.000000	60.033845 
3337.000000	60.052895 
3336.000000	60.069036 
3335.000000	60.080838 
3334.000000	60.087060 
3333.000000	60.087180 
3332.000000	60.081100 
3331.000000	60.069298 
3330.000000	60.052466 
3329.000000	60.031652 
3328.000000	60.007953 
3327.000000	59.982442 
3326.000000	59.956169 
3325.000000	59.929776 
3324.000000	59.903979 
3323.000000	59.879660 
3322.000000	59.858179 
3321.000000	59.841036 
3320.000000	59.830141 
3319.000000	59.827160 
3318.000000	59.833192 
3317.000000	59.848237 
3316.000000	59.871196 
3315.000000	59.899497 
3314.000000	59.929823 
3313.000000	59.958505 
3312.000000	59.982109 
3311.000000	59.997892 
3310.000000	60.003924 
3309.000000	59.999155 
3308.000000	59.983134 
3307.000000	59.956049 
3306.000000	59.918689 
3305.000000	59.872508 
3304.000000	59.819841 
3303.000000	59.764027 
3302.000000	59.709429 
3301.000000	59.660959 
3300.000000	59.623408 
3299.000000	59.600543 
3298.000000	59.594297 
3297.000000	59.604358 
3296.000000	59.627723 
3295.000000	59.659528 
3294.000000	59.693980 
3293.000000	59.725379 
3292.000000	59.749007 
3291.000000	59.762072 
3290.000000	59.763693 
3289.000000	59.754943 
3288.000000	59.737968 
3287.000000	59.715676 
3286.000000	59.690904 
3285.000000	59.666347 
3284.000000	59.644198 
3283.000000	59.626197 
3282.000000	59.613656 
3281.000000	59.607243 
3280.000000	59.607052 
3279.000000	59.612226 
3278.000000	59.621143 
3277.000000	59.631299 
3276.000000	59.639620 
3275.000000	59.643077 
3274.000000	59.639143 
3273.000000	59.626579 
3272.000000	59.605336 
3271.000000	59.576416 
3270.000000	59.541463 
3269.000000	59.502553 
3268.000000	59.461569 
3267.000000	59.420156 
3266.000000	59.379458 
3265.000000	59.340524 
3264.000000	59.304547 
3263.000000	59.273004 
3262.000000	59.247708 
3261.000000	59.230303 
3260.000000	59.222388 
3259.000000	59.224891 
3258.000000	59.237742 
3257.000000	59.259319 
3256.000000	59.286975 
3255.000000	59.317088 
3254.000000	59.345769 
3253.000000	59.369587 
3252.000000	59.385991 
3251.000000	59.393668 
3250.000000	59.392857 
3249.000000	59.384942 
3248.000000	59.372186 
3247.000000	59.357261 
3246.000000	59.342598 
3245.000000	59.330105 
3244.000000	59.320616 
3243.000000	59.313988 
3242.000000	59.309530 
3241.000000	59.306216 
3240.000000	59.302878 
3239.000000	59.298801 
3238.000000	59.293889 
3237.000000	59.288430 
3236.000000	59.282803 
3235.000000	59.277486 
3234.000000	59.272718 
3233.000000	59.268569 
3232.000000	59.264922 
3231.000000	59.261655 
3230.000000	59.258699 
3229.000000	59.256100 
3228.000000	59.254097 
3227.000000	59.252667 
3226.000000	59.251594 
3225.000000	59.250426 
3224.000000	59.248352 
3223.000000	59.244537 
3222.000000	59.238219 
3221.000000	59.229207 
3220.000000	59.218215 
3219.000000	59.206700 
3218.000000	59.196734 
3217.000000	59.190535 
3216.000000	59.190058 
3215.000000	59.196543 
3214.000000	59.210252 
3213.000000	59.230256 
3212.000000	59.254646 
3211.000000	59.280872 
3210.000000	59.305930 
3209.000000	59.326934 
3208.000000	59.341239 
3207.000000	59.346842 
3206.000000	59.342598 
3205.000000	59.328341 
3204.000000	59.304761 
3203.000000	59.273338 
3202.000000	59.236025 
3201.000000	59.195065 
3200.000000	59.152722 
3199.000000	59.111142 
3198.000000	59.072351 
3197.000000	59.038066 
3196.000000	59.009957 
3195.000000	58.989500 
3194.000000	58.977937 
3193.000000	58.976125 
3192.000000	58.984160 
3191.000000	59.001374 
3190.000000	59.025788 
3189.000000	59.054517 
3188.000000	59.083867 
3187.000000	59.110069 
3186.000000	59.129762 
3185.000000	59.140682 
3184.000000	59.142017 
3183.000000	59.134244 
3182.000000	59.118962 
3181.000000	59.098196 
3180.000000	59.073925 
3179.000000	59.047555 
3178.000000	59.020066 
3177.000000	58.991789 
3176.000000	58.962988 
3175.000000	58.934259 
3174.000000	58.906984 
3173.000000	58.883285 
3172.000000	58.865571 
3171.000000	58.856225 
3170.000000	58.856964 
3169.000000	58.868169 
3168.000000	58.888912 
3167.000000	58.916664 
3166.000000	58.948063 
3165.000000	58.979392 
3164.000000	59.007263 
3163.000000	59.029150 
3162.000000	59.043860 
3161.000000	59.051203 
3160.000000	59.052300 
3159.000000	59.048748 
3158.000000	59.042572 
3157.000000	59.035754 
3156.000000	59.029746 
3155.000000	59.025597 
3154.000000	59.023213 
3153.000000	59.022283 
3152.000000	59.021234 
3151.000000	59.017896 
3150.000000	59.009695 
3149.000000	58.994412 
3148.000000	58.970451 
3147.000000	58.937573 
3146.000000	58.897137 
3145.000000	58.852052 
3144.000000	58.806085 
3143.000000	58.762979 
3142.000000	58.725929 
3141.000000	58.696627 
3140.000000	58.675098 
3139.000000	58.659839 
3138.000000	58.648324 
3137.000000	58.637976 
3136.000000	58.626985 
3135.000000	58.615255 
3134.000000	58.603620 
3133.000000	58.594393 
3132.000000	58.590388 
3131.000000	58.594417 
3130.000000	58.607816 
3129.000000	58.630585 
3128.000000	58.661413 
3127.000000	58.697605 
3126.000000	58.735918 
3125.000000	58.772850 
3124.000000	58.805179 
3123.000000	58.830499 
3122.000000	58.847475 
3121.000000	58.855795 
3120.000000	58.856272 
3119.000000	58.850812 
3118.000000	58.842110 
3117.000000	58.833193 
3116.000000	58.826875 
3115.000000	58.825588 
3114.000000	58.830451 
3113.000000	58.841109 
3112.000000	58.855438 
3111.000000	58.870029 
3110.000000	58.880591 
3109.000000	58.882570 
3108.000000	58.872127 
3107.000000	58.847093 
3106.000000	58.807277 
3105.000000	58.754563 
3104.000000	58.692789 
3103.000000	58.627057 
3102.000000	58.562994 
3101.000000	58.505892 
3100.000000	58.460116 
3099.000000	58.428478 
3098.000000	58.412146 
3097.000000	58.410692 
3096.000000	58.422398 
3095.000000	58.444404 
3094.000000	58.473420 
3093.000000	58.506226 
3092.000000	58.539652 
3091.000000	58.570814 
3090.000000	58.597373 
3089.000000	58.617615 
3088.000000	58.630275 
3087.000000	58.634543 
3086.000000	58.630394 
3085.000000	58.618450 
3084.000000	58.599972 
3083.000000	58.576893 
3082.000000	58.551764 
3081.000000	58.527350 
3080.000000	58.506488 
3079.000000	58.491563 
3078.000000	58.484125 
3077.000000	58.484578 
3076.000000	58.492136 
3075.000000	58.504867 
3074.000000	58.519911 
3073.000000	58.534145 
3072.000000	58.544683 
3071.000000	58.549427 
3070.000000	58.547377 
3069.000000	58.538842 
3068.000000	58.525347 
3067.000000	58.509182 
3066.000000	58.492541 
3065.000000	58.477187 
3064.000000	58.463907 
3063.000000	58.452391 
3062.000000	58.441400 
3061.000000	58.429002 
3060.000000	58.413267 
3059.000000	58.392715 
3058.000000	58.366990 
3057.000000	58.336973 
3056.000000	58.304572 
3055.000000	58.272480 
3054.000000	58.243513 
3053.000000	58.220005 
3052.000000	58.203363 
3051.000000	58.193659 
3050.000000	58.189582 
3049.000000	58.188986 
3048.000000	58.189368 
3047.000000	58.188486 
3046.000000	58.185029 
3045.000000	58.178734 
3044.000000	58.170557 
3043.000000	58.162331 
3042.000000	58.156108 
3041.000000	58.153390 
3040.000000	58.154582 
3039.000000	58.158826 
3038.000000	58.163905 
3037.000000	58.167123 
3036.000000	58.165836 
3035.000000	58.158659 
3034.000000	58.145785 
3033.000000	58.129215 
3032.000000	58.112454 
3031.000000	58.099818 
3030.000000	58.095335 
3029.000000	58.101820 
3028.000000	58.120083 
3027.000000	58.148789 
3026.000000	58.184671 
3025.000000	58.223128 
3024.000000	58.259081 
3023.000000	58.287835 
3022.000000	58.305978 
3021.000000	58.311676 
3020.000000	58.304643 
3019.000000	58.286118 
3018.000000	58.258628 
3017.000000	58.225250 
3016.000000	58.189344 
3015.000000	58.154034 
3014.000000	58.121967 
3013.000000	58.094620 
3012.000000	58.072400 
3011.000000	58.054423 
3010.000000	58.039021 
3009.000000	58.023929 
3008.000000	58.007264 
3007.000000	57.987689 
3006.000000	57.964992 
3005.000000	57.940363 
3004.000000	57.916164 
3003.000000	57.894992 
3002.000000	57.879257 
3001.000000	57.870173 
3000.000000	57.867646 
2999.000000	57.870006 
2998.000000	57.874536 
2997.000000	57.878398 
2996.000000	57.879376 
2995.000000	57.876420 
2994.000000	57.870006 
2993.000000	57.861948 
2992.000000	57.854747 
2991.000000	57.850456 
2990.000000	57.850384 
2989.000000	57.854557 
2988.000000	57.861733 
2987.000000	57.869768 
2986.000000	57.876205 
2985.000000	57.878708 
2984.000000	57.875752 
2983.000000	57.866859 
2982.000000	57.852220 
2981.000000	57.832455 
2980.000000	57.808566 
2979.000000	57.781505 
2978.000000	57.752323 
2977.000000	57.721829 
2976.000000	57.691335 
2975.000000	57.661938 
2974.000000	57.634949 
2973.000000	57.611322 
2972.000000	57.591605 
2971.000000	57.575726 
2970.000000	57.563090 
2969.000000	57.552671 
2968.000000	57.543277 
2967.000000	57.534003 
2966.000000	57.524228 
2965.000000	57.513761 
2964.000000	57.502818 
2963.000000	57.491755 
2962.000000	57.480883 
2961.000000	57.470393 
2960.000000	57.460021 
2959.000000	57.449364 
2958.000000	57.437968 
2957.000000	57.425570 
2956.000000	57.412242 
2955.000000	57.398557 
2954.000000	57.385325 
2953.000000	57.373523 
2952.000000	57.363963 
2951.000000	57.356929 
2950.000000	57.352113 
2949.000000	57.348704 
2948.000000	57.345628 
2947.000000	57.341480 
2946.000000	57.335257 
2945.000000	57.326483 
2944.000000	57.315564 
2943.000000	57.303667 
2942.000000	57.292485 
2941.000000	57.283902 
2940.000000	57.279658 
2939.000000	57.280516 
2938.000000	57.286143 
2937.000000	57.295083 
2936.000000	57.304883 
2935.000000	57.312703 
2934.000000	57.315802 
2933.000000	57.312273 
2932.000000	57.301044 
2931.000000	57.282209 
2930.000000	57.257151 
2929.000000	57.228159 
2928.000000	57.198143 
2927.000000	57.170128 
2926.000000	57.146954 
2925.000000	57.130718 
2924.000000	57.122707 
2923.000000	57.122731 
2922.000000	57.129597 
2921.000000	57.141017 
2920.000000	57.154130 
2919.000000	57.166051 
2918.000000	57.174062 
2917.000000	57.176446 
2916.000000	57.172489 
2915.000000	57.162714 
2914.000000	57.148313 
2913.000000	57.131075 
2912.000000	57.112860 
2911.000000	57.095313 
2910.000000	57.079529 
2909.000000	57.066488 
2908.000000	57.057166 
2907.000000	57.052683 
2906.000000	57.054162 
2905.000000	57.062721 
2904.000000	57.078933 
2903.000000	57.102417 
2902.000000	57.131671 
2901.000000	57.164049 
2900.000000	57.196211 
2899.000000	57.224726 
2898.000000	57.246613 
2897.000000	57.259750 
2896.000000	57.263231 
2895.000000	57.257652 
2894.000000	57.244658 
2893.000000	57.226467 
2892.000000	57.205510 
2891.000000	57.183933 
2890.000000	57.163262 
2889.000000	57.144546 
2888.000000	57.127833 
2887.000000	57.113027 
2886.000000	57.099366 
2885.000000	57.086205 
2884.000000	57.072830 
2883.000000	57.058668 
2882.000000	57.043695 
2881.000000	57.028150 
2880.000000	57.012677 
2879.000000	56.998014 
2878.000000	56.984949 
2877.000000	56.974077 
2876.000000	56.965517 
2875.000000	56.959056 
2874.000000	56.954264 
2873.000000	56.950712 
2872.000000	56.948161 
2871.000000	56.946706 
2870.000000	56.946825 
2869.000000	56.949114 
2868.000000	56.954026 
2867.000000	56.961178 
2866.000000	56.969881 
2865.000000	56.978535 
2864.000000	56.985044 
2863.000000	56.987404 
2862.000000	56.984162 
2861.000000	56.974768 
2860.000000	56.960177 
2859.000000	56.942129 
2858.000000	56.922841 
2857.000000	56.904363 
2856.000000	56.888222 
2855.000000	56.874680 
2854.000000	56.862926 
2853.000000	56.851482 
2852.000000	56.838870 
2851.000000	56.824278 
2850.000000	56.807899 
2849.000000	56.791210 
2848.000000	56.776523 
2847.000000	56.766486 
2846.000000	56.763124 
2845.000000	56.767201 
2844.000000	56.777691 
2843.000000	56.791877 
2842.000000	56.805610 
2841.000000	56.814408 
2840.000000	56.814217 
2839.000000	56.802582 
2838.000000	56.779074 
2837.000000	56.745266 
2836.000000	56.704688 
2835.000000	56.661677 
2834.000000	56.621026 
2833.000000	56.586718 
2832.000000	56.561422 
2831.000000	56.546449 
2830.000000	56.541466 
2829.000000	56.545042 
2828.000000	56.554794 
2827.000000	56.568169 
2826.000000	56.582617 
2825.000000	56.596088 
2824.000000	56.607031 
2823.000000	56.614661 
2822.000000	56.618881 
2821.000000	56.620144 
2820.000000	56.619286 
2819.000000	56.617116 
2818.000000	56.614351 
2817.000000	56.611371 
2816.000000	56.608009 
2815.000000	56.603622 
2814.000000	56.597399 
2813.000000	56.588387 
2812.000000	56.576180 
2811.000000	56.560921 
2810.000000	56.543421 
2809.000000	56.525182 
2808.000000	56.507945 
2807.000000	56.493210 
2806.000000	56.482052 
2805.000000	56.474518 
2804.000000	56.469774 
2803.000000	56.466341 
2802.000000	56.462502 
2801.000000	56.456804 
2800.000000	56.448459 
2799.000000	56.437683 
2798.000000	56.425666 
2797.000000	56.414413 
2796.000000	56.406235 
2795.000000	56.402945 
2794.000000	56.405401 
2793.000000	56.413316 
2792.000000	56.425213 
2791.000000	56.438708 
2790.000000	56.451010 
2789.000000	56.459498 
2788.000000	56.462335 
2787.000000	56.458830 
2786.000000	56.449437 
2785.000000	56.435489 
2784.000000	56.418681 
2783.000000	56.400847 
2782.000000	56.383299 
2781.000000	56.366467 
2780.000000	56.350111 
2779.000000	56.333637 
2778.000000	56.316232 
2777.000000	56.297445 
2776.000000	56.277513 
2775.000000	56.257176 
2774.000000	56.237912 
2773.000000	56.221175 
2772.000000	56.208133 
2771.000000	56.199288 
2770.000000	56.194472 
2769.000000	56.192660 
2768.000000	56.192278 
2767.000000	56.191658 
2766.000000	56.189346 
2765.000000	56.184601 
2764.000000	56.177234 
2763.000000	56.167912 
2762.000000	56.157779 
2761.000000	56.148338 
2760.000000	56.141042 
2759.000000	56.136870 
2758.000000	56.136369 
2757.000000	56.139445 
2756.000000	56.145238 
2755.000000	56.152534 
2754.000000	56.159925 
2753.000000	56.165862 
2752.000000	56.169152 
2751.000000	56.169009 
2750.000000	56.165409 
2749.000000	56.158876 
2748.000000	56.150484 
2747.000000	56.141591 
2746.000000	56.133317 
2745.000000	56.126475 
2744.000000	56.121301 
2743.000000	56.117320 
2742.000000	56.113481 
2741.000000	56.108522 
2740.000000	56.101274 
2739.000000	56.090807 
2738.000000	56.076741 
2737.000000	56.059384 
2736.000000	56.039595 
2735.000000	56.018781 
2734.000000	55.998396 
2733.000000	55.979800 
2732.000000	55.963802 
2731.000000	55.950379 
2730.000000	55.938792 
2729.000000	55.927777 
2728.000000	55.915665 
2727.000000	55.900955 
2726.000000	55.882740 
2725.000000	55.860733 
2724.000000	55.835986 
2723.000000	55.810260 
2722.000000	55.786037 
2721.000000	55.765581 
2720.000000	55.750775 
2719.000000	55.742526 
2718.000000	55.740618 
2717.000000	55.743646 
2716.000000	55.749511 
2715.000000	55.755877 
2714.000000	55.760741 
2713.000000	55.762672 
2712.000000	55.761170 
2711.000000	55.756759 
2710.000000	55.750346 
2709.000000	55.743336 
2708.000000	55.737304 
2707.000000	55.733680 
2706.000000	55.733633 
2705.000000	55.737876 
2704.000000	55.746674 
2703.000000	55.759644 
2702.000000	55.775880 
2701.000000	55.793881 
2700.000000	55.811643 
2699.000000	55.826783 
2698.000000	55.837035 
2697.000000	55.840539 
2696.000000	55.836129 
2695.000000	55.823707 
2694.000000	55.804324 
2693.000000	55.779838 
2692.000000	55.752801 
2691.000000	55.725598 
2690.000000	55.700135 
2689.000000	55.677485 
2688.000000	55.657744 
2687.000000	55.639958 
2686.000000	55.622887 
2685.000000	55.605292 
2684.000000	55.586576 
2683.000000	55.566930 
2682.000000	55.547451 
2681.000000	55.529808 
2680.000000	55.515861 
2679.000000	55.506992 
2678.000000	55.503630 
2677.000000	55.504918 
2676.000000	55.509138 
2675.000000	55.513858 
2674.000000	55.516743 
2673.000000	55.516266 
2672.000000	55.511856 
2671.000000	55.504298 
2670.000000	55.494976 
2669.000000	55.485558 
2668.000000	55.476975 
2667.000000	55.469155 
2666.000000	55.460667 
2665.000000	55.449104 
2664.000000	55.431675 
2663.000000	55.406308 
2662.000000	55.372166 
2661.000000	55.330109 
2660.000000	55.283021 
2659.000000	55.235171 
2658.000000	55.191254 
2657.000000	55.155611 
2656.000000	55.131220 
2655.000000	55.119085 
2654.000000	55.118131 
2653.000000	55.125594 
2652.000000	55.137395 
2651.000000	55.149674 
2650.000000	55.159068 
2649.000000	55.163812 
2648.000000	55.163359 
2647.000000	55.158758 
2646.000000	55.152010 
2645.000000	55.145549 
2644.000000	55.141282 
2643.000000	55.140471 
2642.000000	55.143213 
2641.000000	55.148673 
2640.000000	55.155348 
2639.000000	55.161714 
2638.000000	55.166721 
2637.000000	55.170035 
2636.000000	55.172109 
2635.000000	55.173850 
2634.000000	55.176067 
2633.000000	55.179095 
2632.000000	55.182623 
2631.000000	55.185747 
2630.000000	55.187082 
2629.000000	55.185246 
2628.000000	55.179262 
2627.000000	55.168795 
2626.000000	55.153989 
2625.000000	55.135631 
2624.000000	55.114722 
2623.000000	55.092120 
2622.000000	55.068159 
2621.000000	55.043101 
2620.000000	55.016779 
2619.000000	54.989361 
2618.000000	54.961085 
2617.000000	54.932618 
2616.000000	54.904580 
2615.000000	54.877614 
2614.000000	54.852128 
2613.000000	54.828047 
2612.000000	54.805421 
2611.000000	54.784297 
2610.000000	54.765462 
2609.000000	54.750180 
2608.000000	54.740214 
2607.000000	54.737234 
2606.000000	54.742193 
2605.000000	54.754805 
2604.000000	54.773235 
2603.000000	54.794406 
2602.000000	54.814291 
2601.000000	54.829025 
2600.000000	54.835939 
2599.000000	54.834103 
2598.000000	54.824733 
2597.000000	54.810428 
2596.000000	54.794740 
2595.000000	54.780912 
2594.000000	54.770851 
2593.000000	54.764580 
2592.000000	54.760599 
2591.000000	54.756116 
2590.000000	54.748392 
2589.000000	54.735398 
2588.000000	54.716610 
2587.000000	54.693412 
2586.000000	54.668736 
2585.000000	54.646468 
2584.000000	54.630112 
2583.000000	54.622292 
2582.000000	54.623842 
2581.000000	54.633712 
2580.000000	54.649114 
2579.000000	54.666209 
2578.000000	54.681086 
2577.000000	54.690337 
2576.000000	54.691839 
2575.000000	54.684853 
2574.000000	54.670023 
2573.000000	54.648971 
2572.000000	54.623794 
2571.000000	54.596495 
2570.000000	54.568338 
2569.000000	54.540085 
2568.000000	54.511666 
2567.000000	54.482507 
2566.000000	54.452085 
2565.000000	54.420280 
2564.000000	54.387903 
2563.000000	54.356408 
2562.000000	54.328060 
2561.000000	54.305338 
2560.000000	54.290652 
2559.000000	54.285430 
2558.000000	54.290032 
2557.000000	54.303431 
2556.000000	54.323482 
2555.000000	54.347062 
2554.000000	54.370975 
2553.000000	54.392123 
2552.000000	54.408311 
2551.000000	54.418444 
2550.000000	54.422259 
2549.000000	54.420280 
2548.000000	54.413390 
2547.000000	54.402709 
2546.000000	54.389166 
2545.000000	54.373407 
2544.000000	54.356122 
2543.000000	54.337692 
2542.000000	54.318785 
2541.000000	54.299807 
2540.000000	54.281425 
2539.000000	54.264163 
2538.000000	54.248261 
2537.000000	54.233765 
2536.000000	54.220318 
2535.000000	54.207253 
2534.000000	54.193687 
2533.000000	54.178929 
2532.000000	54.162430 
2531.000000	54.144120 
2530.000000	54.124498 
2529.000000	54.104661 
2528.000000	54.086089 
2527.000000	54.070615 
2526.000000	54.060173 
2525.000000	54.056477 
2524.000000	54.060816 
2523.000000	54.073786 
2522.000000	54.095149 
2521.000000	54.123735 
2520.000000	54.157376 
2519.000000	54.193305 
2518.000000	54.228138 
2517.000000	54.258537 
2516.000000	54.281258 
2515.000000	54.293775 
2514.000000	54.294157 
2513.000000	54.281830 
2512.000000	54.257202 
2511.000000	54.221892 
2510.000000	54.178118 
2509.000000	54.129076 
2508.000000	54.077935 
2507.000000	54.027795 
2506.000000	53.980946 
2505.000000	53.939127 
2504.000000	53.902959 
2503.000000	53.872179 
2502.000000	53.845930 
2501.000000	53.823041 
2500.000000	53.802585 
2499.000000	53.784179 
2498.000000	53.768086 
2497.000000	53.755021 
2496.000000	53.746032 
2495.000000	53.742074 
2494.000000	53.743267 
2493.000000	53.748726 
2492.000000	53.756570 
2491.000000	53.764128 
2490.000000	53.768324 
2489.000000	53.766441 
2488.000000	53.756976 
2487.000000	53.739905 
2486.000000	53.716683 
2485.000000	53.690099 
2484.000000	53.663611 
2483.000000	53.640627 
2482.000000	53.623867 
2481.000000	53.614854 
2480.000000	53.613662 
2479.000000	53.619050 
2478.000000	53.629159 
2477.000000	53.641653 
2476.000000	53.653931 
2475.000000	53.663778 
2474.000000	53.669619 
2473.000000	53.670334 
2472.000000	53.665208 
2471.000000	53.654360 
2470.000000	53.638529 
2469.000000	53.619050 
2468.000000	53.597545 
2467.000000	53.576064 
2466.000000	53.556442 
2465.000000	53.539943 
2464.000000	53.527116 
2463.000000	53.517317 
2462.000000	53.509378 
2461.000000	53.501820 
2460.000000	53.493356 
2459.000000	53.483581 
2458.000000	53.472971 
2457.000000	53.463029 
2456.000000	53.455567 
2455.000000	53.452134 
2454.000000	53.453373 
2453.000000	53.458666 
2452.000000	53.466105 
2451.000000	53.472757 
2450.000000	53.475713 
2449.000000	53.472924 
2448.000000	53.464102 
2447.000000	53.450560 
2446.000000	53.435373 
2445.000000	53.422355 
2444.000000	53.415060 
2443.000000	53.415703 
2442.000000	53.424406 
2441.000000	53.438925 
2440.000000	53.455305 
2439.000000	53.468799 
2438.000000	53.474950 
2437.000000	53.471016 
2436.000000	53.456377 
2435.000000	53.432798 
2434.000000	53.403878 
2433.000000	53.374171 
2432.000000	53.348088 
2431.000000	53.328585 
2430.000000	53.316783 
2429.000000	53.311204 
2428.000000	53.308820 
2427.000000	53.305220 
2426.000000	53.296089 
2425.000000	53.277850 
2424.000000	53.248596 
2423.000000	53.208851 
2422.000000	53.161263 
2421.000000	53.110527 
2420.000000	53.062248 
2419.000000	53.022241 
2418.000000	52.995371 
2417.000000	52.984666 
2416.000000	52.990484 
2415.000000	53.010439 
2414.000000	53.039765 
2413.000000	53.071928 
2412.000000	53.100132 
2411.000000	53.118252 
2410.000000	53.122305 
2409.000000	53.111004 
2408.000000	53.086066 
2407.000000	53.051757 
2406.000000	53.013825 
2405.000000	52.978539 
2404.000000	52.950811 
2403.000000	52.933740 
2402.000000	52.927803 
2401.000000	52.931380 
2400.000000	52.941107 
2399.000000	52.952861 
2398.000000	52.962899 
2397.000000	52.968549 
2396.000000	52.968907 
2395.000000	52.964425 
2394.000000	52.956938 
2393.000000	52.948594 
2392.000000	52.941513 
2391.000000	52.937078 
2390.000000	52.935862 
2389.000000	52.937436 
2388.000000	52.940678 
2387.000000	52.944159 
2386.000000	52.946424 
2385.000000	52.946400 
2384.000000	52.943515 
2383.000000	52.937865 
2382.000000	52.929997 
2381.000000	52.920746 
2380.000000	52.911353 
2379.000000	52.903056 
2378.000000	52.896881 
2377.000000	52.893424 
2376.000000	52.892470 
2375.000000	52.893376 
2374.000000	52.894997 
2373.000000	52.895927 
2372.000000	52.894878 
2371.000000	52.890849 
2370.000000	52.883625 
2369.000000	52.873587 
2368.000000	52.861475 
2367.000000	52.848029 
2366.000000	52.833747 
2365.000000	52.818727 
2364.000000	52.802610 
2363.000000	52.784633 
2362.000000	52.763962 
2361.000000	52.740144 
2360.000000	52.713298 
2359.000000	52.684044 
2358.000000	52.653741 
2357.000000	52.623987 
2356.000000	52.596426 
2355.000000	52.572345 
2354.000000	52.552556 
2353.000000	52.537417 
2352.000000	52.526974 
2351.000000	52.520918 
2350.000000	52.518725 
2349.000000	52.519607 
2348.000000	52.522683 
2347.000000	52.526712 
2346.000000	52.530360 
2345.000000	52.532315 
2344.000000	52.531623 
2343.000000	52.527594 
2342.000000	52.519917 
2341.000000	52.508831 
2340.000000	52.494835 
2339.000000	52.478647 
2338.000000	52.460741 
2337.000000	52.441310 
2336.000000	52.420282 
2335.000000	52.397394 
2334.000000	52.372360 
2333.000000	52.345180 
2332.000000	52.316355 
2331.000000	52.287030 
2330.000000	52.258729 
2329.000000	52.233481 
2328.000000	52.213025 
2327.000000	52.198672 
2326.000000	52.190971 
2325.000000	52.189421 
2324.000000	52.192687 
2323.000000	52.198648 
2322.000000	52.204608 
2321.000000	52.207875 
2320.000000	52.206087 
2319.000000	52.197909 
2318.000000	52.183055 
2317.000000	52.162861 
2316.000000	52.139592 
2315.000000	52.116632 
2314.000000	52.097439 
2313.000000	52.085065 
2312.000000	52.081394 
2311.000000	52.086758 
2310.000000	52.099847 
2309.000000	52.117776 
2308.000000	52.136588 
2307.000000	52.151846 
2306.000000	52.159619 
2305.000000	52.156949 
2304.000000	52.142524 
2303.000000	52.116847 
2302.000000	52.081942 
2301.000000	52.041125 
2300.000000	51.998138 
2299.000000	51.956844 
2298.000000	51.920294 
2297.000000	51.890778 
2296.000000	51.869344 
2295.000000	51.855826 
2294.000000	51.849412 
2293.000000	51.848673 
2292.000000	51.852130 
2291.000000	51.858377 
2290.000000	51.866269 
2289.000000	51.874566 
2288.000000	51.882219 
2287.000000	51.887917 
2286.000000	51.890325 
2285.000000	51.888036 
2284.000000	51.880192 
2283.000000	51.866555 
2282.000000	51.847815 
2281.000000	51.825571 
2280.000000	51.802015 
2279.000000	51.779556 
2278.000000	51.760005 
2277.000000	51.744222 
2276.000000	51.732134 
2275.000000	51.722621 
2274.000000	51.713800 
2273.000000	51.704072 
2272.000000	51.692342 
2271.000000	51.678729 
2270.000000	51.664519 
2269.000000	51.651740 
2268.000000	51.642394 
2267.000000	51.638126 
2266.000000	51.639389 
2265.000000	51.645636 
2264.000000	51.655149 
2263.000000	51.665544 
2262.000000	51.674532 
2261.000000	51.680231 
2260.000000	51.681733 
2259.000000	51.678681 
2258.000000	51.671481 
2257.000000	51.660561 
2256.000000	51.646423 
2255.000000	51.629233 
2254.000000	51.608943 
2253.000000	51.585435 
2252.000000	51.558613 
2251.000000	51.528906 
2250.000000	51.497054 
2249.000000	51.464152 
2248.000000	51.431417 
2247.000000	51.399779 
2246.000000	51.370096 
2245.000000	51.342821 
2244.000000	51.318335 
2243.000000	51.296877 
2242.000000	51.278829 
2241.000000	51.264595 
2240.000000	51.254582 
2239.000000	51.248788 
2238.000000	51.247048 
2237.000000	51.248335 
2236.000000	51.251411 
2235.000000	51.254582 
2234.000000	51.256251 
2233.000000	51.255178 
2232.000000	51.250910 
2231.000000	51.243782 
2230.000000	51.234936 
2229.000000	51.225996 
2228.000000	51.218628 
2227.000000	51.214218 
2226.000000	51.213359 
2225.000000	51.215863 
2224.000000	51.220893 
2223.000000	51.227045 
2222.000000	51.232695 
2221.000000	51.236295 
2220.000000	51.236701 
2219.000000	51.233434 
2218.000000	51.226568 
2217.000000	51.216626 
2216.000000	51.204586 
2215.000000	51.191544 
2214.000000	51.178503 
2213.000000	51.166343 
2212.000000	51.155710 
2211.000000	51.146817 
2210.000000	51.139616 
2209.000000	51.133704 
2208.000000	51.128602 
2207.000000	51.123571 
2206.000000	51.117849 
2205.000000	51.110720 
2204.000000	51.101517 
2203.000000	51.089835 
2202.000000	51.075720 
2201.000000	51.059532 
2200.000000	51.041936 
2199.000000	51.024079 
2198.000000	51.007080 
2197.000000	50.992155 
2196.000000	50.979948 
2195.000000	50.970530 
2194.000000	50.962972 
2193.000000	50.955939 
2192.000000	50.947451 
2191.000000	50.935673 
2190.000000	50.918936 
2189.000000	50.896501 
2188.000000	50.868606 
2187.000000	50.836420 
2186.000000	50.801849 
2185.000000	50.767278 
2184.000000	50.734853 
2183.000000	50.706219 
2182.000000	50.682353 
2181.000000	50.663280 
2180.000000	50.648498 
2179.000000	50.637197 
2178.000000	50.628328 
2177.000000	50.621104 
2176.000000	50.614738 
2175.000000	50.608611 
2174.000000	50.602221 
2173.000000	50.595140 
2172.000000	50.587201 
2171.000000	50.578355 
2170.000000	50.568914 
2169.000000	50.559711 
2168.000000	50.551915 
2167.000000	50.546884 
2166.000000	50.545859 
2165.000000	50.549530 
2164.000000	50.557947 
2163.000000	50.570058 
2162.000000	50.584173 
2161.000000	50.597906 
2160.000000	50.608730 
2159.000000	50.614142 
2158.000000	50.612473 
2157.000000	50.602507 
2156.000000	50.583767 
2155.000000	50.556802 
2154.000000	50.522780 
2153.000000	50.483870 
2152.000000	50.442862 
2151.000000	50.403237 
2150.000000	50.368881 
2149.000000	50.343489 
2148.000000	50.329971 
2147.000000	50.329709 
2146.000000	50.342249 
2145.000000	50.365090 
2144.000000	50.394082 
2143.000000	50.423860 
2142.000000	50.448870 
2141.000000	50.464391 
2140.000000	50.467538 
2139.000000	50.457668 
2138.000000	50.436162 
2137.000000	50.406336 
2136.000000	50.372076 
2135.000000	50.337648 
2134.000000	50.306177 
2133.000000	50.279712 
2132.000000	50.258660 
2131.000000	50.242471 
2130.000000	50.229859 
2129.000000	50.219416 
2128.000000	50.210046 
2127.000000	50.201177 
2126.000000	50.192880 
2125.000000	50.185465 
2124.000000	50.179147 
2123.000000	50.173807 
2122.000000	50.168609 
2121.000000	50.162148 
2120.000000	50.152611 
2119.000000	50.138497 
2118.000000	50.118827 
2117.000000	50.093698 
2116.000000	50.064277 
2115.000000	50.032949 
2114.000000	50.002813 
2113.000000	49.977278 
2112.000000	49.958968 
2111.000000	49.949407 
2110.000000	49.948525 
2109.000000	49.954819 
2108.000000	49.965333 
2107.000000	49.976754 
2106.000000	49.985909 
2105.000000	49.990534 
2104.000000	49.989771 
2103.000000	49.983811 
2102.000000	49.973630 
2101.000000	49.960303 
2100.000000	49.944877 
2099.000000	49.927806 
2098.000000	49.909043 
2097.000000	49.888420 
2096.000000	49.866056 
2095.000000	49.842786 
2094.000000	49.820160 
2093.000000	49.800276 
2092.000000	49.785041 
2091.000000	49.775695 
2090.000000	49.772286 
2089.000000	49.773406 
2088.000000	49.776554 
2087.000000	49.778938 
2086.000000	49.777984 
2085.000000	49.772381 
2084.000000	49.761867 
2083.000000	49.747514 
2082.000000	49.730849 
2081.000000	49.713444 
2080.000000	49.696350 
2079.000000	49.679756 
2078.000000	49.663424 
2077.000000	49.646759 
2076.000000	49.629855 
2075.000000	49.613642 
2074.000000	49.599885 
2073.000000	49.590945 
2072.000000	49.588584 
2071.000000	49.593424 
2070.000000	49.604225 
2069.000000	49.617838 
2068.000000	49.629855 
2067.000000	49.635648 
2066.000000	49.631643 
2065.000000	49.616503 
2064.000000	49.591159 
2063.000000	49.558854 
2062.000000	49.524068 
2061.000000	49.491500 
2060.000000	49.464583 
2059.000000	49.444818 
2058.000000	49.431514 
2057.000000	49.422240 
2056.000000	49.413800 
2055.000000	49.403357 
2054.000000	49.389100 
2053.000000	49.370956 
2052.000000	49.350142 
2051.000000	49.329161 
2050.000000	49.310350 
2049.000000	49.295830 
2048.000000	49.286556 
2047.000000	49.282574 
2046.000000	49.282979 
2045.000000	49.286079 
2044.000000	49.290037 
2043.000000	49.293088 
2042.000000	49.293947 
2041.000000	49.291992 
2040.000000	49.287295 
2039.000000	49.280571 
2038.000000	49.272823 
2037.000000	49.265050 
2036.000000	49.257993 
2035.000000	49.251866 
2034.000000	49.246120 
2033.000000	49.239706 
2032.000000	49.231481 
2031.000000	49.220180 
2030.000000	49.205350 
2029.000000	49.187135 
2028.000000	49.166727 
2027.000000	49.146032 
2026.000000	49.127340 
2025.000000	49.112439 
2024.000000	49.102354 
2023.000000	49.096965 
2022.000000	49.095129 
2021.000000	49.094939 
2020.000000	49.094343 
2019.000000	49.091720 
2018.000000	49.086189 
2017.000000	49.077749 
2016.000000	49.067020 
2015.000000	49.055099 
2014.000000	49.043035 
2013.000000	49.031496 
2012.000000	49.020409 
2011.000000	49.009108 
2010.000000	48.996472 
2009.000000	48.981308 
2008.000000	48.962569 
2007.000000	48.939800 
2006.000000	48.913192 
2005.000000	48.883962 
2004.000000	48.853754 
2003.000000	48.824787 
2002.000000	48.799252 
2001.000000	48.779153 
2000.000000	48.765850 
1999.000000	48.760080 
1998.000000	48.761391 
1997.000000	48.768591 
1996.000000	48.779821 
1995.000000	48.792934 
1994.000000	48.805618 
1993.000000	48.816061 
1992.000000	48.822903 
1991.000000	48.825526 
1990.000000	48.823833 
1989.000000	48.818159 
1988.000000	48.808860 
1987.000000	48.796224 
1986.000000	48.780488 
1985.000000	48.761606 
1984.000000	48.739480 
1983.000000	48.714041 
1982.000000	48.685598 
1981.000000	48.654747 
1980.000000	48.622751 
1979.000000	48.590970 
1978.000000	48.561120 
1977.000000	48.534798 
1976.000000	48.513484 
1975.000000	48.498034 
1974.000000	48.488783 
1973.000000	48.485541 
1972.000000	48.487496 
1971.000000	48.493266 
1970.000000	48.501157 
1969.000000	48.509263 
1968.000000	48.515629 
1967.000000	48.518323 
1966.000000	48.515725 
1965.000000	48.506546 
1964.000000	48.490190 
1963.000000	48.466682 
1962.000000	48.436641 
1961.000000	48.401308 
1960.000000	48.362255 
1959.000000	48.321390 
1958.000000	48.280596 
1957.000000	48.241829 
1956.000000	48.206758 
1955.000000	48.176956 
1954.000000	48.153734 
1953.000000	48.138117 
1952.000000	48.130512 
1951.000000	48.130750 
1950.000000	48.138046 
1949.000000	48.150801 
1948.000000	48.166942 
1947.000000	48.184037 
1946.000000	48.199677 
1945.000000	48.211836 
1944.000000	48.219060 
1943.000000	48.220753 
1942.000000	48.217105 
1941.000000	48.208999 
1940.000000	48.197770 
1939.000000	48.184895 
1938.000000	48.171806 
1937.000000	48.159527 
1936.000000	48.148727 
1935.000000	48.139500 
1934.000000	48.131704 
1933.000000	48.124647 
1932.000000	48.117613 
1931.000000	48.109793 
1930.000000	48.100590 
1929.000000	48.089528 
1928.000000	48.076629 
1927.000000	48.062229 
1926.000000	48.046994 
1925.000000	48.031568 
1924.000000	48.016357 
1923.000000	48.001623 
1922.000000	47.987341 
1921.000000	47.973251 
1920.000000	47.959041 
1919.000000	47.944617 
1918.000000	47.930002 
1917.000000	47.915482 
1916.000000	47.901558 
1915.000000	47.888541 
1914.000000	47.876572 
1913.000000	47.865533 
1912.000000	47.855019 
1911.000000	47.844147 
1910.000000	47.832179 
1909.000000	47.818613 
1908.000000	47.803258 
1907.000000	47.786378 
1906.000000	47.768449 
1905.000000	47.750067 
1904.000000	47.731876 
1903.000000	47.714376 
1902.000000	47.697925 
1901.000000	47.682738 
1900.000000	47.669219 
1899.000000	47.657752 
1898.000000	47.648715 
1897.000000	47.642254 
1896.000000	47.638440 
1895.000000	47.636842 
1894.000000	47.636723 
1893.000000	47.637152 
1892.000000	47.637152 
1891.000000	47.635817 
1890.000000	47.632336 
1889.000000	47.626090 
1888.000000	47.616863 
1887.000000	47.604441 
1886.000000	47.588586 
1885.000000	47.569203 
1884.000000	47.546243 
1883.000000	47.519946 
1882.000000	47.490811 
1881.000000	47.459912 
1880.000000	47.428941 
1879.000000	47.400116 
1878.000000	47.375845 
1877.000000	47.358226 
1876.000000	47.348618 
1875.000000	47.347545 
1874.000000	47.354221 
1873.000000	47.366571 
1872.000000	47.381782 
1871.000000	47.396779 
1870.000000	47.408652 
1869.000000	47.415328 
1868.000000	47.415781 
1867.000000	47.409915 
1866.000000	47.398757 
1865.000000	47.383737 
1864.000000	47.366523 
1863.000000	47.348451 
1862.000000	47.330451 
1861.000000	47.313070 
1860.000000	47.296571 
1859.000000	47.280859 
1858.000000	47.266030 
1857.000000	47.252225 
1856.000000	47.239780 
1855.000000	47.229123 
1854.000000	47.220706 
1853.000000	47.214722 
1852.000000	47.210931 
1851.000000	47.208571 
1850.000000	47.206473 
1849.000000	47.203254 
1848.000000	47.197127 
1847.000000	47.186565 
1846.000000	47.170352 
1845.000000	47.148036 
1844.000000	47.119903 
1843.000000	47.087240 
1842.000000	47.052240 
1841.000000	47.017550 
1840.000000	46.986269 
1839.000000	46.961259 
1838.000000	46.944665 
1837.000000	46.937608 
1836.000000	46.939992 
1835.000000	46.950554 
1834.000000	46.966886 
1833.000000	46.985912 
1832.000000	47.004318 
1831.000000	47.019052 
1830.000000	47.027873 
1829.000000	47.029471 
1828.000000	47.023391 
1827.000000	47.010254 
1826.000000	46.991419 
1825.000000	46.968555 
1824.000000	46.943402 
1823.000000	46.917653 
1822.000000	46.892714 
1821.000000	46.869850 
1820.000000	46.849966 
1819.000000	46.833634 
1818.000000	46.821236 
1817.000000	46.812629 
1816.000000	46.807193 
1815.000000	46.803975 
1814.000000	46.801662 
1813.000000	46.798825 
1812.000000	46.794223 
1811.000000	46.787142 
1810.000000	46.777176 
1809.000000	46.764516 
1808.000000	46.749639 
1807.000000	46.733427 
1806.000000	46.716666 
1805.000000	46.700167 
1804.000000	46.684360 
1803.000000	46.669554 
1802.000000	46.655893 
1801.000000	46.643424 
1800.000000	46.632099 
1799.000000	46.621799 
1798.000000	46.612358 
1797.000000	46.603512 
1796.000000	46.595048 
1795.000000	46.586632 
1794.000000	46.578168 
1793.000000	46.569752 
1792.000000	46.561741 
1791.000000	46.554565 
1790.000000	46.548461 
1789.000000	46.543264 
1788.000000	46.538305 
1787.000000	46.532368 
1786.000000	46.523952 
1785.000000	46.511888 
1784.000000	46.495413 
1783.000000	46.474647 
1782.000000	46.450686 
1781.000000	46.425533 
1780.000000	46.401572 
1779.000000	46.381235 
1778.000000	46.366405 
1777.000000	46.357989 
1776.000000	46.355628 
1775.000000	46.357870 
1774.000000	46.362400 
1773.000000	46.366477 
1772.000000	46.367597 
1771.000000	46.363973 
1770.000000	46.354842 
1769.000000	46.340680 
1768.000000	46.322870 
1767.000000	46.303391 
1766.000000	46.284317 
1765.000000	46.267390 
1764.000000	46.253585 
1763.000000	46.243095 
1762.000000	46.235203 
1761.000000	46.228480 
1760.000000	46.221041 
1759.000000	46.211409 
1758.000000	46.198439 
1757.000000	46.181654 
1756.000000	46.161246 
1755.000000	46.138072 
1754.000000	46.113395 
1753.000000	46.088504 
1752.000000	46.064710 
1751.000000	46.042919 
1750.000000	46.023678 
1749.000000	46.007347 
1748.000000	45.994019 
1747.000000	45.983576 
1746.000000	45.975899 
1745.000000	45.970964 
1744.000000	45.968937 
1743.000000	45.970082 
1742.000000	45.974612 
1741.000000	45.982289 
1740.000000	45.992159 
1739.000000	46.002602 
1738.000000	46.011281 
1737.000000	46.015286 
1736.000000	46.011734 
1735.000000	45.998144 
1734.000000	45.973229 
1733.000000	45.936989 
1732.000000	45.890688 
1731.000000	45.836758 
1730.000000	45.778536 
1729.000000	45.720100 
1728.000000	45.665645 
1727.000000	45.619130 
1726.000000	45.583915 
1725.000000	45.562338 
1724.000000	45.555615 
1723.000000	45.563364 
1722.000000	45.583534 
1721.000000	45.612382 
1720.000000	45.644664 
1719.000000	45.674371 
1718.000000	45.695567 
1717.000000	45.703625 
1716.000000	45.696067 
1715.000000	45.673131 
1714.000000	45.637822 
1713.000000	45.595359 
1712.000000	45.552253 
1711.000000	45.515084 
1710.000000	45.489263 
1709.000000	45.478534 
1708.000000	45.484352 
1707.000000	45.506143 
1706.000000	45.541095 
1705.000000	45.584917 
1704.000000	45.632076 
1703.000000	45.676708 
1702.000000	45.713281 
1701.000000	45.737195 
1700.000000	45.745444 
1699.000000	45.737099 
1698.000000	45.713400 
1697.000000	45.677495 
1696.000000	45.633983 
1695.000000	45.588350 
1694.000000	45.545721 
1693.000000	45.510363 
1692.000000	45.484566 
1691.000000	45.468664 
1690.000000	45.460796 
1689.000000	45.457649 
1688.000000	45.455121 
1687.000000	45.449399 
1686.000000	45.437693 
1685.000000	45.418906 
1684.000000	45.393896 
1683.000000	45.365214 
1682.000000	45.336532 
1681.000000	45.311927 
1680.000000	45.294809 
1679.000000	45.287299 
1678.000000	45.289564 
1677.000000	45.299649 
1676.000000	45.313858 
1675.000000	45.327591 
1674.000000	45.336389 
1673.000000	45.336794 
1672.000000	45.326519 
1671.000000	45.305299 
1670.000000	45.274662 
1669.000000	45.237493 
1668.000000	45.197176 
1667.000000	45.157384 
1666.000000	45.121312 
1665.000000	45.091795 
1664.000000	45.070743 
1663.000000	45.059680 
1662.000000	45.059657 
1661.000000	45.071077 
1660.000000	45.093584 
1659.000000	45.125842 
1658.000000	45.165276 
1657.000000	45.208287 
1656.000000	45.250320 
1655.000000	45.286750 
1654.000000	45.313453 
1653.000000	45.327568 
1652.000000	45.327401 
1651.000000	45.312833 
1650.000000	45.284533 
1649.000000	45.244288 
1648.000000	45.194268 
1647.000000	45.137214 
1646.000000	45.075893 
1645.000000	45.013785 
1644.000000	44.954085 
1643.000000	44.900202 
1642.000000	44.854664 
1641.000000	44.819021 
1640.000000	44.793081 
1639.000000	44.774985 
1638.000000	44.761466 
1637.000000	44.748353 
1636.000000	44.731950 
1635.000000	44.709515 
1634.000000	44.680380 
1633.000000	44.645929 
1632.000000	44.609189 
1631.000000	44.574117 
1630.000000	44.544267 
1629.000000	44.522190 
1628.000000	44.509053 
1627.000000	44.504666 
1626.000000	44.507479 
1625.000000	44.515466 
1624.000000	44.526410 
1623.000000	44.538331 
1622.000000	44.549536 
1621.000000	44.558525 
1620.000000	44.563865 
1619.000000	44.564509 
1618.000000	44.559240 
1617.000000	44.547510 
1616.000000	44.529223 
1615.000000	44.505381 
1614.000000	44.478130 
1613.000000	44.450330 
1612.000000	44.425201 
1611.000000	44.405627 
1610.000000	44.393730 
1609.000000	44.390130 
1608.000000	44.393801 
1607.000000	44.402289 
1606.000000	44.412279 
1605.000000	44.420289 
1604.000000	44.423365 
1603.000000	44.419527 
1602.000000	44.408226 
1601.000000	44.390058 
1600.000000	44.366621 
1599.000000	44.340205 
1598.000000	44.312953 
1597.000000	44.286799 
1596.000000	44.262671 
1595.000000	44.241380 
1594.000000	44.222569 
1593.000000	44.205474 
1592.000000	44.189000 
1591.000000	44.172143 
1590.000000	44.154119 
1589.000000	44.134593 
1588.000000	44.113898 
1587.000000	44.092750 
1586.000000	44.072604 
1585.000000	44.055175 
1584.000000	44.041991 
1583.000000	44.034028 
1582.000000	44.031262 
1581.000000	44.032502 
1580.000000	44.035577 
1579.000000	44.037580 
1578.000000	44.035673 
1577.000000	44.027853 
1576.000000	44.013333 
1575.000000	43.992877 
1574.000000	43.968319 
1573.000000	43.942308 
1572.000000	43.917632 
1571.000000	43.897056 
1570.000000	43.882799 
1569.000000	43.876576 
1568.000000	43.879461 
1567.000000	43.891811 
1566.000000	43.913245 
1565.000000	43.942427 
1564.000000	43.976974 
1563.000000	44.013285 
1562.000000	44.046974 
1561.000000	44.073104 
1560.000000	44.087147 
1559.000000	44.085741 
1558.000000	44.067406 
1557.000000	44.033002 
1556.000000	43.985867 
1555.000000	43.930912 
1554.000000	43.873667 
1553.000000	43.819689 
1552.000000	43.773508 
1551.000000	43.738746 
1550.000000	43.717622 
1549.000000	43.711376 
1548.000000	43.719458 
1547.000000	43.739986 
1546.000000	43.769288 
1545.000000	43.801927 
1544.000000	43.831658 
1543.000000	43.852210 
1542.000000	43.858385 
1541.000000	43.847060 
1540.000000	43.817901 
1539.000000	43.773245 
1538.000000	43.717741 
1537.000000	43.657350 
1536.000000	43.598413 
1535.000000	43.546867 
1534.000000	43.507003 
1533.000000	43.481206 
1532.000000	43.469834 
1531.000000	43.472051 
1530.000000	43.485665 
1529.000000	43.507575 
1528.000000	43.534493 
1527.000000	43.562960 
1526.000000	43.589568 
1525.000000	43.611049 
1524.000000	43.624901 
1523.000000	43.629622 
1522.000000	43.625092 
1521.000000	43.612432 
1520.000000	43.593835 
1519.000000	43.571925 
1518.000000	43.549609 
1517.000000	43.529343 
1516.000000	43.513035 
1515.000000	43.501639 
1514.000000	43.495321 
1513.000000	43.493032 
1512.000000	43.493056 
1511.000000	43.492650 
1510.000000	43.488979 
1509.000000	43.478941 
1508.000000	43.460130 
1507.000000	43.430995 
1506.000000	43.391633 
1505.000000	43.343400 
1504.000000	43.288707 
1503.000000	43.230867 
1502.000000	43.173503 
1501.000000	43.119692 
1500.000000	43.071651 
1499.000000	43.030357 
1498.000000	42.995738 
1497.000000	42.967033 
1496.000000	42.943382 
1495.000000	42.923974 
1494.000000	42.908406 
1493.000000	42.896533 
1492.000000	42.888474 
1491.000000	42.883753 
1490.000000	42.881584 
1489.000000	42.880725 
1488.000000	42.879724 
1487.000000	42.877006 
1486.000000	42.871642 
1485.000000	42.863273 
1484.000000	42.852854 
1483.000000	42.841744 
1482.000000	42.832303 
1481.000000	42.826795 
1480.000000	42.827272 
1479.000000	42.834806 
1478.000000	42.849302 
1477.000000	42.869234 
1476.000000	42.891955 
1475.000000	42.914152 
1474.000000	42.932796 
1473.000000	42.945384 
1472.000000	42.950701 
1471.000000	42.948865 
1470.000000	42.941021 
1469.000000	42.928719 
1468.000000	42.913818 
1467.000000	42.897725 
1466.000000	42.881178 
1465.000000	42.863917 
1464.000000	42.845344 
1463.000000	42.824363 
1462.000000	42.800092 
1461.000000	42.771768 
1460.000000	42.739176 
1459.000000	42.702865 
1458.000000	42.663908 
1457.000000	42.624211 
1456.000000	42.585921 
1455.000000	42.551183 
1454.000000	42.522072 
1453.000000	42.500019 
1452.000000	42.485475 
1451.000000	42.477703 
1450.000000	42.474699 
1449.000000	42.473506 
1448.000000	42.470693 
1447.000000	42.463588 
1446.000000	42.450785 
1445.000000	42.432665 
1444.000000	42.411303 
1443.000000	42.390251 
1442.000000	42.373633 
1441.000000	42.364788 
1440.000000	42.365407 
1439.000000	42.375063 
1438.000000	42.390966 
1437.000000	42.408823 
1436.000000	42.423510 
1435.000000	42.430472 
1434.000000	42.426443 
1433.000000	42.410492 
1432.000000	42.383980 
1431.000000	42.349958 
1430.000000	42.312574 
1429.000000	42.276310 
1428.000000	42.244744 
1427.000000	42.220354 
1426.000000	42.203736 
1425.000000	42.194485 
1424.000000	42.190718 
1423.000000	42.189693 
1422.000000	42.188286 
1421.000000	42.183613 
1420.000000	42.173552 
1419.000000	42.156863 
1418.000000	42.133545 
1417.000000	42.104744 
1416.000000	42.072606 
1415.000000	42.039680 
1414.000000	42.008543 
1413.000000	41.981458 
1412.000000	41.960048 
1411.000000	41.945028 
1410.000000	41.936206 
1409.000000	41.932821 
1408.000000	41.933369 
1407.000000	41.936469 
1406.000000	41.940617 
1405.000000	41.944909 
1404.000000	41.948986 
1403.000000	41.953182 
1402.000000	41.958069 
1401.000000	41.964268 
1400.000000	41.972184 
1399.000000	41.981577 
1398.000000	41.991639 
1397.000000	42.000651 
1396.000000	42.006492 
1395.000000	42.006635 
1394.000000	41.999053 
1393.000000	41.982364 
1392.000000	41.956353 
1391.000000	41.921830 
1390.000000	41.880822 
1389.000000	41.836142 
1388.000000	41.791224 
1387.000000	41.749262 
1386.000000	41.713047 
1385.000000	41.684651 
1384.000000	41.665148 
1383.000000	41.654586 
1382.000000	41.652131 
1381.000000	41.656136 
1380.000000	41.664552 
1379.000000	41.674852 
1378.000000	41.684699 
1377.000000	41.691851 
1376.000000	41.694712 
1375.000000	41.692304 
1374.000000	41.684412 
1373.000000	41.671514 
1372.000000	41.654706 
1371.000000	41.635465 
1370.000000	41.615223 
1369.000000	41.595220 
1368.000000	41.576004 
1367.000000	41.557502 
1366.000000	41.539001 
1365.000000	41.519546 
1364.000000	41.498017 
1363.000000	41.473770 
1362.000000	41.446805 
1361.000000	41.417837 
1360.000000	41.388392 
1359.000000	41.360425 
1358.000000	41.335821 
1357.000000	41.316103 
1356.000000	41.301965 
1355.000000	41.293454 
1354.000000	41.289806 
1353.000000	41.289877 
1352.000000	41.292452 
1351.000000	41.296768 
1350.000000	41.302347 
1349.000000	41.309404 
1348.000000	41.318273 
1347.000000	41.329097 
1346.000000	41.341710 
1345.000000	41.355037 
1344.000000	41.367340 
1343.000000	41.376328 
1342.000000	41.379880 
1341.000000	41.376328 
1340.000000	41.365146 
1339.000000	41.347026 
1338.000000	41.323924 
1337.000000	41.298580 
1336.000000	41.273927 
1335.000000	41.252422 
1334.000000	41.235375 
1333.000000	41.222858 
1332.000000	41.213774 
1331.000000	41.206121 
1330.000000	41.197705 
1329.000000	41.186833 
1328.000000	41.172552 
1327.000000	41.155171 
1326.000000	41.135811 
1325.000000	41.116070 
1324.000000	41.097569 
1323.000000	41.081237 
1322.000000	41.067147 
1321.000000	41.054415 
1320.000000	41.041493 
1319.000000	41.026616 
1318.000000	41.008377 
1317.000000	40.986037 
1316.000000	40.959739 
1315.000000	40.930461 
1314.000000	40.899562 
1313.000000	40.868473 
1312.000000	40.838384 
1311.000000	40.809965 
1310.000000	40.783357 
1309.000000	40.758395 
1308.000000	40.734910 
1307.000000	40.712881 
1306.000000	40.692543 
1305.000000	40.674567 
1304.000000	40.659403 
1303.000000	40.647578 
1302.000000	40.638923 
1301.000000	40.633010 
1300.000000	40.628886 
1299.000000	40.625524 
1298.000000	40.622043 
1297.000000	40.617799 
1296.000000	40.612626 
1295.000000	40.606737 
1294.000000	40.600562 
1293.000000	40.594434 
1292.000000	40.588402 
1291.000000	40.582203 
1290.000000	40.575361 
1289.000000	40.567255 
1288.000000	40.557265 
1287.000000	40.545034 
1286.000000	40.530657 
1285.000000	40.514302 
1284.000000	40.496349 
1283.000000	40.477132 
1282.000000	40.456771 
1281.000000	40.435242 
1280.000000	40.412354 
1279.000000	40.388178 
1278.000000	40.363097 
1277.000000	40.337705 
1276.000000	40.313053 
1275.000000	40.290236 
1274.000000	40.270400 
1273.000000	40.254235 
1272.000000	40.242004 
1271.000000	40.233159 
1270.000000	40.226745 
1269.000000	40.221261 
1268.000000	40.215420 
1267.000000	40.208053 
1266.000000	40.198898 
1265.000000	40.188455 
1264.000000	40.177917 
1263.000000	40.168905 
1262.000000	40.162801 
1261.000000	40.160107 
1260.000000	40.160250 
1259.000000	40.161538 
1258.000000	40.161204 
1257.000000	40.156340 
1256.000000	40.144515 
1255.000000	40.124464 
1254.000000	40.096473 
1253.000000	40.062546 
1252.000000	40.026044 
1251.000000	39.991044 
1250.000000	39.961338 
1249.000000	39.939713 
1248.000000	39.927434 
1247.000000	39.923930 
1246.000000	39.927053 
1245.000000	39.933514 
1244.000000	39.939713 
1243.000000	39.942383 
1242.000000	39.939355 
1241.000000	39.929962 
1240.000000	39.914751 
1239.000000	39.895582 
1238.000000	39.874958 
1237.000000	39.855432 
1236.000000	39.839029 
1235.000000	39.826607 
1234.000000	39.818072 
1233.000000	39.812254 
1232.000000	39.807391 
1231.000000	39.801526 
1230.000000	39.793109 
1229.000000	39.781379 
1228.000000	39.766693 
1227.000000	39.750313 
1226.000000	39.734148 
1225.000000	39.720296 
1224.000000	39.710354 
1223.000000	39.705133 
1222.000000	39.704227 
1221.000000	39.706420 
1220.000000	39.709615 
1219.000000	39.711403 
1218.000000	39.709496 
1217.000000	39.702320 
1216.000000	39.689087 
1215.000000	39.669895 
1214.000000	39.645504 
1213.000000	39.617156 
1212.000000	39.586234 
1211.000000	39.554190 
1210.000000	39.522457 
1209.000000	39.492368 
1208.000000	39.465308 
1207.000000	39.442729 
1206.000000	39.426064 
1205.000000	39.416265 
1204.000000	39.413738 
1203.000000	39.418101 
1202.000000	39.427924 
1201.000000	39.440941 
1200.000000	39.454579 
1199.000000	39.466452 
1198.000000	39.474797 
1197.000000	39.478731 
1196.000000	39.478349 
1195.000000	39.474511 
1194.000000	39.468336 
1193.000000	39.460611 
1192.000000	39.451646 
1191.000000	39.440941 
1190.000000	39.427423 
1189.000000	39.409971 
1188.000000	39.388179 
1187.000000	39.362239 
1186.000000	39.333438 
1185.000000	39.303803 
1184.000000	39.275598 
1183.000000	39.250802 
1182.000000	39.230418 
1181.000000	39.214515 
1180.000000	39.201998 
1179.000000	39.191341 
1178.000000	39.180970 
1177.000000	39.169692 
1176.000000	39.157032 
1175.000000	39.143204 
1174.000000	39.128994 
1173.000000	39.115428 
1172.000000	39.103460 
1171.000000	39.093399 
1170.000000	39.084625 
1169.000000	39.076185 
1168.000000	39.066767 
1167.000000	39.054965 
1166.000000	39.039540 
1165.000000	39.019727 
1164.000000	38.995409 
1163.000000	38.966989 
1162.000000	38.935446 
1161.000000	38.901925 
1160.000000	38.867998 
1159.000000	38.835215 
1158.000000	38.805270 
1157.000000	38.779497 
1156.000000	38.759374 
1155.000000	38.745951 
1154.000000	38.740181 
1153.000000	38.742423 
1152.000000	38.752460 
1151.000000	38.769459 
1150.000000	38.791346 
1149.000000	38.814854 
1148.000000	38.835716 
1147.000000	38.849139 
1146.000000	38.850331 
1145.000000	38.835501 
1144.000000	38.802647 
1143.000000	38.752341 
1142.000000	38.687753 
1141.000000	38.614511 
1140.000000	38.539743 
1139.000000	38.471007 
1138.000000	38.414788 
1137.000000	38.375353 
1136.000000	38.354229 
1135.000000	38.349866 
1134.000000	38.358378 
1133.000000	38.374757 
1132.000000	38.393402 
1131.000000	38.409900 
1130.000000	38.421273 
1129.000000	38.426756 
1128.000000	38.426876 
1127.000000	38.423657 
1126.000000	38.419365 
1125.000000	38.416194 
1124.000000	38.415455 
1123.000000	38.417482 
1122.000000	38.421797 
1121.000000	38.427233 
1120.000000	38.432502 
1119.000000	38.436579 
1118.000000	38.438916 
1117.000000	38.439607 
1116.000000	38.439035 
1115.000000	38.437938 
1114.000000	38.436651 
1113.000000	38.435602 
1112.000000	38.434290 
1111.000000	38.431882 
1110.000000	38.426637 
1109.000000	38.417124 
1108.000000	38.401746 
1107.000000	38.379383 
1106.000000	38.349080 
1105.000000	38.310980 
1104.000000	38.265800 
1103.000000	38.214898 
1102.000000	38.160443 
1101.000000	38.104772 
1100.000000	38.051080 
1099.000000	38.002681 
1098.000000	37.962865 
1097.000000	37.934327 
1096.000000	37.918496 
1095.000000	37.915301 
1094.000000	37.922859 
1093.000000	37.937545 
1092.000000	37.954974 
1091.000000	37.970733 
1090.000000	37.981247 
1089.000000	37.984609 
1088.000000	37.981104 
1087.000000	37.972903 
1086.000000	37.963414 
1085.000000	37.956047 
1084.000000	37.953543 
1083.000000	37.956690 
1082.000000	37.964534 
1081.000000	37.974309 
1080.000000	37.982487 
1079.000000	37.985587 
1078.000000	37.981438 
1077.000000	37.969279 
1076.000000	37.950062 
1075.000000	37.925958 
1074.000000	37.899732 
1073.000000	37.874031 
1072.000000	37.850713 
1071.000000	37.830686 
1070.000000	37.814044 
1069.000000	37.800097 
1068.000000	37.788105 
1067.000000	37.777280 
1066.000000	37.767362 
1065.000000	37.758374 
1064.000000	37.750673 
1063.000000	37.744450 
1062.000000	37.739443 
1061.000000	37.735080 
1060.000000	37.730407 
1059.000000	37.724280 
1058.000000	37.715673 
1057.000000	37.703943 
1056.000000	37.689328 
1055.000000	37.672591 
1054.000000	37.655305 
1053.000000	37.639260 
1052.000000	37.626266 
1051.000000	37.617611 
1050.000000	37.613749 
1049.000000	37.614226 
1048.000000	37.617397 
1047.000000	37.620925 
1046.000000	37.621974 
1045.000000	37.618160 
1044.000000	37.607479 
1043.000000	37.589025 
1042.000000	37.562918 
1041.000000	37.530183 
1040.000000	37.492704 
1039.000000	37.452721 
1038.000000	37.412643 
1037.000000	37.374782 
1036.000000	37.341117 
1035.000000	37.313127 
1034.000000	37.291812 
1033.000000	37.277698 
1032.000000	37.270545 
1031.000000	37.269592 
1030.000000	37.273335 
1029.000000	37.279987 
1028.000000	37.287330 
1027.000000	37.293505 
1026.000000	37.296772 
1025.000000	37.296247 
1024.000000	37.291765 
1023.000000	37.283778 
1022.000000	37.273120 
1021.000000	37.260603 
1020.000000	37.246966 
1019.000000	37.232375 
1018.000000	37.216424 
1017.000000	37.198281 
1016.000000	37.177228 
1015.000000	37.152767 
1014.000000	37.125086 
1013.000000	37.094855 
1012.000000	37.063193 
1011.000000	37.031197 
1010.000000	36.999750 
1009.000000	36.969137 
1008.000000	36.939191 
1007.000000	36.909675 
1006.000000	36.880517 
1005.000000	36.852192 
1004.000000	36.825799 
1003.000000	36.802840 
1002.000000	36.785054 
1001.000000	36.773300 
1000.000000	36.767959 
999.000000	 36.768364 
998.000000	 36.773562 
997.000000	 36.781787 
996.000000	 36.791849 
995.000000	 36.803150 
994.000000	 36.815881 
993.000000	 36.830496 
992.000000	 36.847209 
991.000000	 36.865592 
990.000000	 36.883831 
989.000000	 36.899185 
988.000000	 36.908102 
987.000000	 36.906838 
986.000000	 36.893033 
985.000000	 36.866235 
984.000000	 36.828041 
983.000000	 36.781787 
982.000000	 36.731934 
981.000000	 36.682915 
980.000000	 36.637926 
979.000000	 36.598348 
978.000000	 36.563515 
977.000000	 36.531066 
976.000000	 36.498117 
975.000000	 36.461877 
974.000000	 36.420774 
973.000000	 36.374616 
972.000000	 36.324524 
971.000000	 36.272788 
970.000000	 36.221480 
969.000000	 36.172795 
968.000000	 36.127734 
967.000000	 36.087155 
966.000000	 36.051392 
965.000000	 36.021423 
964.000000	 35.999178 
963.000000	 35.987186 
962.000000	 35.987854 
961.000000	 36.002993 
960.000000	 36.032915 
959.000000	 36.075401 
958.000000	 36.125612 
957.000000	 36.176800 
956.000000	 36.221432 
955.000000	 36.252832 
954.000000	 36.266326 
953.000000	 36.259913 
952.000000	 36.234354 
951.000000	 36.192941 
950.000000	 36.140489 
949.000000	 36.081886 
948.000000	 36.021399 
947.000000	 35.962414 
946.000000	 35.907506 
945.000000	 35.858941 
944.000000	 35.818910 
943.000000	 35.789704 
942.000000	 35.773086 
941.000000	 35.770511 
940.000000	 35.781121 
939.000000	 35.801386 
938.000000	 35.824799 
937.000000	 35.842823 
936.000000	 35.846304 
935.000000	 35.827422 
934.000000	 35.781955 
933.000000	 35.710954 
932.000000	 35.621070 
931.000000	 35.523629 
930.000000	 35.432457 
929.000000	 35.361242 
928.000000	 35.320639 
927.000000	 35.315966 
926.000000	 35.346460 
925.000000	 35.405278 
924.000000	 35.481548 
923.000000	 35.562157 
922.000000	 35.634756 
921.000000	 35.688805 
920.000000	 35.717725 
919.000000	 35.717892 
918.000000	 35.688209 
917.000000	 35.629057 
916.000000	 35.542631 
915.000000	 35.431623 
914.000000	 35.300135 
913.000000	 35.153293 
912.000000	 34.998536 
911.000000	 34.844303 
910.000000	 34.699821 
909.000000	 34.573650 
908.000000	 34.472465 
907.000000	 34.400582 
906.000000	 34.359455 
905.000000	 34.347844 
904.000000	 34.362483 
903.000000	 34.399127 
902.000000	 34.453415 
901.000000	 34.520816 
900.000000	 34.597158 
899.000000	 34.677815 
898.000000	 34.758210 
897.000000	 34.833312 
896.000000	 34.898877 
895.000000	 34.951353 
894.000000	 34.989070 
893.000000	 35.013008 
892.000000	 35.025644 
891.000000	 35.031008 
890.000000	 35.032415 
889.000000	 35.032463 
888.000000	 35.031127 
887.000000	 35.026693 
886.000000	 35.015702 
885.000000	 34.995198 
884.000000	 34.963059 
883.000000	 34.919524 
882.000000	 34.867477 
881.000000	 34.812569 
880.000000	 34.761214 
879.000000	 34.719157 
878.000000	 34.690380 
877.000000	 34.676027 
876.000000	 34.674263 
875.000000	 34.680986 
874.000000	 34.690809 
873.000000	 34.698843 
872.000000	 34.701704 
871.000000	 34.698534 
870.000000	 34.690117 
869.000000	 34.678936 
868.000000	 34.668517 
867.000000	 34.662413 
866.000000	 34.662771 
865.000000	 34.669995 
864.000000	 34.683132 
863.000000	 34.699249 
862.000000	 34.714651 
861.000000	 34.725117 
860.000000	 34.727406 
859.000000	 34.719681 
858.000000	 34.701585 
857.000000	 34.674787 
856.000000	 34.642577 
855.000000	 34.609150 
854.000000	 34.578609 
853.000000	 34.553837 
852.000000	 34.535884 
851.000000	 34.523606 
850.000000	 34.513950 
849.000000	 34.502720 
848.000000	 34.485816 
847.000000	 34.460282 
846.000000	 34.425067 
845.000000	 34.381437 
844.000000	 34.332680 
843.000000	 34.282994 
842.000000	 34.237003 
841.000000	 34.198665 
840.000000	 34.170603 
839.000000	 34.153532 
838.000000	 34.145998 
837.000000	 34.145259 
836.000000	 34.147429 
835.000000	 34.148383 
834.000000	 34.144401 
833.000000	 34.132361 
832.000000	 34.110546 
831.000000	 34.078621 
830.000000	 34.038138 
829.000000	 33.991909 
828.000000	 33.943843 
827.000000	 33.898115 
826.000000	 33.858156 
825.000000	 33.825826 
824.000000	 33.801150 
823.000000	 33.782434 
822.000000	 33.766865 
821.000000	 33.751010 
820.000000	 33.732080 
819.000000	 33.708310 
818.000000	 33.679008 
817.000000	 33.644556 
816.000000	 33.605527 
815.000000	 33.562803 
814.000000	 33.516907 
813.000000	 33.468818 
812.000000	 33.419609 
811.000000	 33.371329 
810.000000	 33.326959 
809.000000	 33.290386 
808.000000	 33.265733 
807.000000	 33.256554 
806.000000	 33.264803 
805.000000	 33.290243 
804.000000	 33.329772 
803.000000	 33.378267 
802.000000	 33.429145 
801.000000	 33.476114 
800.000000	 33.514118 
799.000000	 33.540582 
798.000000	 33.555674 
797.000000	 33.561658 
796.000000	 33.561992 
795.000000	 33.559799 
794.000000	 33.556675 
793.000000	 33.552527 
792.000000	 33.545231 
791.000000	 33.532023 
790.000000	 33.510088 
789.000000	 33.478331 
788.000000	 33.437323 
787.000000	 33.389425 
786.000000	 33.338141 
785.000000	 33.287191 
784.000000	 33.239579 
783.000000	 33.196735 
782.000000	 33.159089 
781.000000	 33.125948 
780.000000	 33.096957 
779.000000	 33.072400 
778.000000	 33.053541 
777.000000	 33.042263 
776.000000	 33.040285 
775.000000	 33.048224 
774.000000	 33.064699 
773.000000	 33.085632 
772.000000	 33.105421 
771.000000	 33.118200 
770.000000	 33.118677 
769.000000	 33.103275 
768.000000	 33.071660 
767.000000	 33.026695 
766.000000	 32.973074 
765.000000	 32.916569 
764.000000	 32.862758 
763.000000	 32.815957 
762.000000	 32.778787 
761.000000	 32.751822 
760.000000	 32.734370 
759.000000	 32.724642 
758.000000	 32.721018 
757.000000	 32.721447 
756.000000	 32.723474 
755.000000	 32.724332 
754.000000	 32.721114 
753.000000	 32.711076 
752.000000	 32.691931 
751.000000	 32.662487 
750.000000	 32.623267 
749.000000	 32.575559 
748.000000	 32.521438 
747.000000	 32.462477 
746.000000	 32.399678 
745.000000	 32.332634 
744.000000	 32.260060 
743.000000	 32.180237 
742.000000	 32.092046 
741.000000	 31.995654 
740.000000	 31.893134 
739.000000	 31.788492 
738.000000	 31.687402 
737.000000	 31.595730 
736.000000	 31.519579 
735.000000	 31.463360 
734.000000	 31.430244 
733.000000	 31.421065 
732.000000	 31.435251 
731.000000	 31.470608 
730.000000	 31.523728 
729.000000	 31.589436 
728.000000	 31.661701 
727.000000	 31.733322 
726.000000	 31.797409 
725.000000	 31.847667 
724.000000	 31.879639 
723.000000	 31.891155 
722.000000	 31.882405 
721.000000	 31.855988 
720.000000	 31.815791 
719.000000	 31.766390 
718.000000	 31.712055 
717.000000	 31.656503 
716.000000	 31.602573 
715.000000	 31.552529 
714.000000	 31.508064 
713.000000	 31.470561 
712.000000	 31.441569 
711.000000	 31.422615 
710.000000	 31.414461 
709.000000	 31.417346 
708.000000	 31.430292 
707.000000	 31.451845 
706.000000	 31.479668 
705.000000	 31.511545 
704.000000	 31.545805 
703.000000	 31.580853 
702.000000	 31.615519 
701.000000	 31.647753 
700.000000	 31.675314 
699.000000	 31.694507 
698.000000	 31.701397 
697.000000	 31.691479 
696.000000	 31.661176 
695.000000	 31.608343 
694.000000	 31.533527 
693.000000	 31.439828 
692.000000	 31.332826 
691.000000	 31.220030 
690.000000	 31.109905 
689.000000	 31.010270 
688.000000	 30.927205 
687.000000	 30.864214 
686.000000	 30.821990 
685.000000	 30.798268 
684.000000	 30.788946 
683.000000	 30.788779 
682.000000	 30.792903 
681.000000	 30.797123 
680.000000	 30.799055 
679.000000	 30.797529 
678.000000	 30.793356 
677.000000	 30.787777 
676.000000	 30.782914 
675.000000	 30.780482 
674.000000	 30.781936 
673.000000	 30.787920 
672.000000	 30.798053 
671.000000	 30.811476 
670.000000	 30.826497 
669.000000	 30.840945 
668.000000	 30.852174 
667.000000	 30.858016 
666.000000	 30.856180 
665.000000	 30.845141 
664.000000	 30.823755 
663.000000	 30.791592 
662.000000	 30.748844 
661.000000	 30.696535 
660.000000	 30.636167 
659.000000	 30.569791 
658.000000	 30.500078 
657.000000	 30.430316 
656.000000	 30.364131 
655.000000	 30.305314 
654.000000	 30.257272 
653.000000	 30.222988 
652.000000	 30.204510 
651.000000	 30.202627 
650.000000	 30.216002 
649.000000	 30.241465 
648.000000	 30.274295 
647.000000	 30.308556 
646.000000	 30.337691 
645.000000	 30.355548 
644.000000	 30.357384 
643.000000	 30.340433 
642.000000	 30.304479 
641.000000	 30.251383 
640.000000	 30.185103 
639.000000	 30.110478 
638.000000	 30.032753 
637.000000	 29.956579 
636.000000	 29.885649 
635.000000	 29.822230 
634.000000	 29.767227 
633.000000	 29.720211 
632.000000	 29.679727 
631.000000	 29.643774 
630.000000	 29.609990 
629.000000	 29.575729 
628.000000	 29.538512 
627.000000	 29.496240 
626.000000	 29.447674 
625.000000	 29.392218 
624.000000	 29.330515 
623.000000	 29.264259 
622.000000	 29.196286 
621.000000	 29.129981 
620.000000	 29.069185 
619.000000	 29.017257 
618.000000	 28.976845 
617.000000	 28.949308 
616.000000	 28.934502 
615.000000	 28.930616 
614.000000	 28.934574 
613.000000	 28.942418 
612.000000	 28.949952 
611.000000	 28.953289 
610.000000	 28.949618 
609.000000	 28.937387 
608.000000	 28.916883 
607.000000	 28.890132 
606.000000	 28.860664 
605.000000	 28.832721 
604.000000	 28.810739 
603.000000	 28.798317 
602.000000	 28.797483 
601.000000	 28.808069 
600.000000	 28.827595 
599.000000	 28.851747 
598.000000	 28.875279 
597.000000	 28.892993 
596.000000	 28.900647 
595.000000	 28.895998 
594.000000	 28.878808 
593.000000	 28.850817 
592.000000	 28.815317 
591.000000	 28.776049 
590.000000	 28.736543 
589.000000	 28.699231 
588.000000	 28.665375 
587.000000	 28.635120 
586.000000	 28.608155 
585.000000	 28.583741 
584.000000	 28.561210 
583.000000	 28.539919 
582.000000	 28.519272 
581.000000	 28.498244 
580.000000	 28.475260 
579.000000	 28.448295 
578.000000	 28.415060 
577.000000	 28.373503 
576.000000	 28.322267 
575.000000	 28.260850 
574.000000	 28.190064 
573.000000	 28.111767 
572.000000	 28.029108 
571.000000	 27.946305 
570.000000	 27.868199 
569.000000	 27.799415 
568.000000	 27.743625 
567.000000	 27.702975 
566.000000	 27.677083 
565.000000	 27.663159 
564.000000	 27.655935 
563.000000	 27.648758 
562.000000	 27.634358 
561.000000	 27.606272 
560.000000	 27.560353 
559.000000	 27.495193 
558.000000	 27.413105 
557.000000	 27.319359 
556.000000	 27.222371 
555.000000	 27.132058 
554.000000	 27.058053 
553.000000	 27.007579 
552.000000	 26.984524 
551.000000	 26.988244 
550.000000	 27.013397 
549.000000	 27.051091 
548.000000	 27.090287 
547.000000	 27.120399 
546.000000	 27.132654 
545.000000	 27.122497 
544.000000	 27.089834 
543.000000	 27.039265 
542.000000	 26.978278 
541.000000	 26.915907 
540.000000	 26.860618 
539.000000	 26.818346 
538.000000	 26.792120 
537.000000	 26.781010 
536.000000	 26.782083 
535.000000	 26.789569 
534.000000	 26.797628 
533.000000	 26.799511 
532.000000	 26.789069 
531.000000	 26.760745 
530.000000	 26.710653 
529.000000	 26.636767 
528.000000	 26.539301 
527.000000	 26.421999 
526.000000	 26.291775 
525.000000	 26.157569 
524.000000	 26.028800 
523.000000	 25.914049 
522.000000	 25.819396 
521.000000	 25.747609 
520.000000	 25.697278 
519.000000	 25.663232 
518.000000	 25.637555 
517.000000	 25.611734 
516.000000	 25.578141 
515.000000	 25.531101 
514.000000	 25.468182 
513.000000	 25.389385 
512.000000	 25.297784 
511.000000	 25.197243 
510.000000	 25.092864 
509.000000	 24.989295 
508.000000	 24.891471 
507.000000	 24.803543 
506.000000	 24.730253 
505.000000	 24.675822 
504.000000	 24.645304 
503.000000	 24.642801 
502.000000	 24.671769 
501.000000	 24.733352 
500.000000	 24.824905 
499.000000	 24.938845 
498.000000	 25.062513 
497.000000	 25.179123 
496.000000	 25.269627 
495.000000	 25.316143 
494.000000	 25.305509 
493.000000	 25.232744 
492.000000	 25.102710 
491.000000	 24.929785 
490.000000	 24.736666 
489.000000	 24.548792 
488.000000	 24.390435 
487.000000	 24.278068 
486.000000	 24.218130 
485.000000	 24.205851 
484.000000	 24.226999 
483.000000	 24.262857 
482.000000	 24.295115 
481.000000	 24.311232 
480.000000	 24.306821 
479.000000	 24.285936 
478.000000	 24.257779 
477.000000	 24.232816 
476.000000	 24.218153 
475.000000	 24.214506 
474.000000	 24.215364 
473.000000	 24.208378 
472.000000	 24.178767 
471.000000	 24.115204 
470.000000	 24.012851 
469.000000	 23.873305 
468.000000	 23.703837 
467.000000	 23.515462 
466.000000	 23.319530 
465.000000	 23.123669 
464.000000	 22.931838 
463.000000	 22.744393 
462.000000	 22.561001 
461.000000	 22.383618 
460.000000	 22.217893 
459.000000	 22.071838 
458.000000	 21.955513 
457.000000	 21.878004 
456.000000	 21.844983 
455.000000	 21.853137 
454.000000	 21.894145 
453.000000	 21.955370 
452.000000	 22.023200 
451.000000	 22.085666 
450.000000	 22.133541 
449.000000	 22.162008 
448.000000	 22.165536 
447.000000	 22.136950 
446.000000	 22.064542 
445.000000	 21.934270 
444.000000	 21.730923 
443.000000	 21.444749 
442.000000	 21.078920 
441.000000	 20.653820 
440.000000	 20.205593 
439.000000	 19.782543 
438.000000	 19.436359 
437.000000	 19.212555 
436.000000	 19.136953 
435.000000	 19.214510 
434.000000	 19.423627 
433.000000	 19.728088 
432.000000	 20.084547 
431.000000	 20.455551 
430.000000	 20.804953 
429.000000	 21.116471 
428.000000	 21.399807 
427.000000	 21.673536 
426.000000	 21.949625 
425.000000	 22.229790 
424.000000	 22.500252 
423.000000	 22.734737 
422.000000	 22.902917 
421.000000	 22.980427 
420.000000	 22.956848 
419.000000	 22.852921 
418.000000	 22.722339 
417.000000	 22.614598 
416.000000	 22.562599 
415.000000	 22.604060 
414.000000	 22.767496 
413.000000	 23.036956 
412.000000	 23.367118 
411.000000	 23.712539 
410.000000	 24.027919 
409.000000	 24.307656 
408.000000	 24.539470 
407.000000	 24.727988 
406.000000	 24.822044 
405.000000	 24.717998 
404.000000	 24.256062 
403.000000	 23.223924 
402.000000	 21.465897 
401.000000	 18.976569 
400.000000	 15.902662 
399.000000	 12.534213 
398.000000	 9.255909  
397.000000	 6.463885  
396.000000	 4.484367  
395.000000	 3.465652  
394.000000	 3.484082  
393.000000	 4.545450  
392.000000	 6.673121  
391.000000	 9.912347  
390.000000	 14.365863 
389.000000	 20.119690 
388.000000	 27.149844 
387.000000	 35.229468 
386.000000	 43.862199 
385.000000	 52.309179 
384.000000	 59.735083 
383.000000	 65.328598 
382.000000	 68.493771 
381.000000	 68.917369 
380.000000	 66.820502 
379.000000	 62.681984 
378.000000	 57.155156 
377.000000	 50.812864 
376.000000	 44.123864 
375.000000	 37.285232 
374.000000	 30.332064 
373.000000	 23.161220 
372.000000	 15.732288 
371.000000	 8.115911  
370.000000	 0.604295  

