PE IR       SPECTRUM    SPECTRUM    ASCII       PEDS        1.60        
  -1
C-9BE4~1.ASC
17/03/27
17:48:30.00
17/03/27
17:48:30.00
tln
$C-4040-8_t0041$<tbV0>[-5.2,-5.2,8.0,0.0,27,1,0]
370.000000
64









2002,4.07    
MIRTGS : RIGHTBACK : INTERNAL 2
MIR : ON : INTERNAL 2
OPTKBR

0.200000
8
8.000000
FILLER
RATIO
SPECTRUM
UNLOCKED 256

DOUBLE
64
COMBINED
1
0
0


1.000000
RATIO


1
0
TRUE
51149
0
LEFT NOT FITTED RIGHT NOT FITTED 0
NONE
NONE
15600
12.000000
4.427000
51148
TRUE
1 0 8 72 0 0 0 0 

15798.010000






#HDR
-1
-1
#GR
CM-1
%T
0.00002384185791015625
0.0
5000.000000
-1.000000
4631
8
79.008364
16.282439
#DATA
5000.000000	63.632750 
4999.000000	63.563704 
4998.000000	63.518857 
4997.000000	63.501691 
4996.000000	63.511157 
4995.000000	63.542032 
4994.000000	63.585638 
4993.000000	63.631319 
4992.000000	63.668441 
4991.000000	63.687467 
4990.000000	63.682937 
4989.000000	63.653707 
4988.000000	63.603973 
4987.000000	63.541913 
4986.000000	63.478040 
4985.000000	63.422918 
4984.000000	63.384556 
4983.000000	63.366818 
4982.000000	63.368701 
4981.000000	63.384985 
4980.000000	63.408517 
4979.000000	63.432383 
4978.000000	63.451170 
4977.000000	63.462901 
4976.000000	63.468837 
4975.000000	63.473677 
4974.000000	63.481998 
4973.000000	63.499021 
4972.000000	63.528180 
4971.000000	63.571834 
4970.000000	63.630652 
4969.000000	63.704180 
4968.000000	63.790941 
4967.000000	63.888502 
4966.000000	63.993859 
4965.000000	64.102816 
4964.000000	64.210367 
4963.000000	64.310479 
4962.000000	64.396643 
4961.000000	64.463067 
4960.000000	64.506006 
4959.000000	64.524102 
4958.000000	64.518928 
4957.000000	64.493656 
4956.000000	64.452195 
4955.000000	64.398002 
4954.000000	64.332962 
4953.000000	64.256691 
4952.000000	64.166760 
4951.000000	64.060950 
4950.000000	63.938403 
4949.000000	63.800764 
4948.000000	63.653588 
4947.000000	63.505673 
4946.000000	63.368797 
4945.000000	63.255739 
4944.000000	63.177824 
4943.000000	63.141679 
4942.000000	63.147711 
4941.000000	63.189506 
4940.000000	63.254499 
4939.000000	63.325691 
4938.000000	63.385748 
4937.000000	63.420081 
4936.000000	63.420128 
4935.000000	63.383960 
4934.000000	63.317131 
4933.000000	63.230347 
4932.000000	63.137340 
4931.000000	63.051462 
4930.000000	62.983226 
4929.000000	62.938976 
4928.000000	62.921094 
4927.000000	62.928938 
4926.000000	62.960600 
4925.000000	63.013744 
4924.000000	63.086462 
4923.000000	63.176345 
4922.000000	63.278937 
4921.000000	63.387107 
4920.000000	63.490581 
4919.000000	63.577747 
4918.000000	63.637065 
4917.000000	63.660335 
4916.000000	63.645362 
4915.000000	63.596487 
4914.000000	63.524317 
4913.000000	63.443017 
4912.000000	63.367652 
4911.000000	63.310790 
4910.000000	63.279867 
4909.000000	63.277149 
4908.000000	63.300132 
4907.000000	63.344001 
4906.000000	63.403820 
4905.000000	63.476085 
4904.000000	63.559198 
4903.000000	63.651919 
4902.000000	63.751959 
4901.000000	63.854002 
4900.000000	63.949584 
4899.000000	64.028048 
4898.000000	64.078712 
4897.000000	64.095115 
4896.000000	64.075994 
4895.000000	64.027094 
4894.000000	63.958597 
4893.000000	63.884234 
4892.000000	63.815736 
4891.000000	63.760900 
4890.000000	63.720369 
4889.000000	63.688206 
4888.000000	63.654422 
4887.000000	63.608527 
4886.000000	63.544130 
4885.000000	63.460898 
4884.000000	63.366818 
4883.000000	63.276362 
4882.000000	63.207244 
4881.000000	63.174986 
4880.000000	63.189005 
4879.000000	63.248944 
4878.000000	63.344860 
4877.000000	63.459086 
4876.000000	63.570666 
4875.000000	63.660335 
4874.000000	63.714671 
4873.000000	63.729286 
4872.000000	63.709855 
4871.000000	63.670206 
4870.000000	63.627958 
4869.000000	63.599848 
4868.000000	63.598537 
4867.000000	63.629007 
4866.000000	63.688921 
4865.000000	63.768458 
4864.000000	63.855004 
4863.000000	63.933992 
4862.000000	63.994169 
4861.000000	64.027309 
4860.000000	64.029192 
4859.000000	64.000177 
4858.000000	63.943743 
4857.000000	63.866806 
4856.000000	63.777780 
4855.000000	63.686800 
4854.000000	63.604879 
4853.000000	63.541936 
4852.000000	63.505983 
4851.000000	63.500785 
4850.000000	63.525652 
4849.000000	63.573741 
4848.000000	63.633561 
4847.000000	63.690495 
4846.000000	63.730168 
4845.000000	63.741564 
4844.000000	63.719844 
4843.000000	63.666701 
4842.000000	63.590049 
4841.000000	63.501787 
4840.000000	63.415098 
4839.000000	63.340735 
4838.000000	63.285899 
4837.000000	63.253211 
4836.000000	63.241791 
4835.000000	63.248419 
4834.000000	63.269329 
4833.000000	63.301372 
4832.000000	63.342595 
4831.000000	63.390922 
4830.000000	63.444972 
4829.000000	63.502430 
4828.000000	63.560676 
4827.000000	63.615822 
4826.000000	63.664197 
4825.000000	63.702583 
4824.000000	63.729453 
4823.000000	63.745546 
4822.000000	63.752961 
4821.000000	63.754558 
4820.000000	63.753342 
4819.000000	63.751578 
4818.000000	63.750171 
4817.000000	63.748335 
4816.000000	63.744521 
4815.000000	63.736629 
4814.000000	63.722920 
4813.000000	63.702130 
4812.000000	63.673806 
4811.000000	63.638496 
4810.000000	63.597583 
4809.000000	63.553261 
4808.000000	63.508296 
4807.000000	63.465619 
4806.000000	63.427710 
4805.000000	63.396573 
4804.000000	63.373446 
4803.000000	63.358950 
4802.000000	63.352942 
4801.000000	63.354659 
4800.000000	63.362550 
4799.000000	63.374829 
4798.000000	63.389539 
4797.000000	63.405156 
4796.000000	63.420629 
4795.000000	63.436007 
4794.000000	63.452196 
4793.000000	63.470911 
4792.000000	63.493800 
4791.000000	63.521933 
4790.000000	63.554883 
4789.000000	63.590502 
4788.000000	63.624763 
4787.000000	63.652372 
4786.000000	63.667798 
4785.000000	63.666629 
4784.000000	63.646984 
4783.000000	63.610291 
4782.000000	63.561153 
4781.000000	63.507127 
4780.000000	63.456916 
4779.000000	63.417816 
4778.000000	63.395261 
4777.000000	63.391160 
4776.000000	63.404560 
4775.000000	63.432049 
4774.000000	63.469552 
4773.000000	63.513278 
4772.000000	63.560867 
4771.000000	63.611268 
4770.000000	63.664436 
4769.000000	63.720297 
4768.000000	63.778257 
4767.000000	63.836693 
4766.000000	63.892674 
4765.000000	63.942217 
4764.000000	63.981294 
4763.000000	64.006471 
4762.000000	64.015746 
4761.000000	64.008975 
4760.000000	63.988208 
4759.000000	63.957619 
4758.000000	63.922429 
4757.000000	63.888883 
4756.000000	63.863325 
4755.000000	63.851380 
4754.000000	63.857221 
4753.000000	63.882231 
4752.000000	63.925194 
4751.000000	63.981652 
4750.000000	64.044690 
4749.000000	64.105987 
4748.000000	64.157199 
4747.000000	64.191651 
4746.000000	64.205646 
4745.000000	64.198708 
4744.000000	64.173436 
4743.000000	64.134764 
4742.000000	64.088559 
4741.000000	64.040803 
4740.000000	63.996291 
4739.000000	63.957834 
4738.000000	63.926196 
4737.000000	63.900375 
4736.000000	63.878512 
4735.000000	63.858151 
4734.000000	63.837289 
4733.000000	63.814878 
4732.000000	63.791155 
4731.000000	63.767194 
4730.000000	63.744759 
4729.000000	63.725662 
4728.000000	63.711404 
4727.000000	63.702702 
4726.000000	63.699412 
4725.000000	63.700127 
4724.000000	63.703036 
4723.000000	63.705921 
4722.000000	63.707447 
4721.000000	63.707327 
4720.000000	63.706541 
4719.000000	63.706851 
4718.000000	63.709974 
4717.000000	63.716888 
4716.000000	63.726902 
4715.000000	63.737511 
4714.000000	63.744974 
4713.000000	63.745164 
4712.000000	63.734745 
4711.000000	63.712239 
4710.000000	63.678169 
4709.000000	63.635516 
4708.000000	63.588809 
4707.000000	63.543844 
4706.000000	63.506388 
4705.000000	63.481593 
4704.000000	63.472962 
4703.000000	63.481831 
4702.000000	63.507246 
4701.000000	63.545918 
4700.000000	63.593125 
4699.000000	63.642859 
4698.000000	63.688445 
4697.000000	63.723921 
4696.000000	63.744711 
4695.000000	63.748717 
4694.000000	63.736414 
4693.000000	63.710999 
4692.000000	63.677906 
4691.000000	63.643550 
4690.000000	63.614010 
4689.000000	63.594055 
4688.000000	63.586235 
4687.000000	63.590598 
4686.000000	63.604807 
4685.000000	63.624906 
4684.000000	63.645982 
4683.000000	63.662815 
4682.000000	63.670969 
4681.000000	63.666582 
4680.000000	63.647508 
4679.000000	63.613247 
4678.000000	63.565874 
4677.000000	63.509535 
4676.000000	63.450646 
4675.000000	63.396954 
4674.000000	63.356399 
4673.000000	63.336133 
4672.000000	63.340401 
4671.000000	63.369655 
4670.000000	63.420319 
4669.000000	63.484764 
4668.000000	63.553738 
4667.000000	63.617587 
4666.000000	63.669157 
4665.000000	63.704729 
4664.000000	63.725352 
4663.000000	63.735938 
4662.000000	63.743710 
4661.000000	63.755750 
4660.000000	63.776636 
4659.000000	63.806700 
4658.000000	63.842058 
4657.000000	63.875555 
4656.000000	63.899040 
4655.000000	63.905715 
4654.000000	63.892364 
4653.000000	63.860273 
4652.000000	63.814783 
4651.000000	63.764119 
4650.000000	63.716912 
4649.000000	63.680648 
4648.000000	63.660240 
4647.000000	63.657236 
4646.000000	63.670539 
4645.000000	63.697075 
4644.000000	63.733077 
4643.000000	63.774919 
4642.000000	63.819718 
4641.000000	63.865208 
4640.000000	63.909387 
4639.000000	63.950133 
4638.000000	63.984847 
4637.000000	64.011073 
4636.000000	64.027190 
4635.000000	64.032411 
4634.000000	64.027142 
4633.000000	64.012479 
4632.000000	63.990116 
4631.000000	63.961696 
4630.000000	63.928794 
4629.000000	63.893294 
4628.000000	63.857340 
4627.000000	63.823890 
4626.000000	63.795924 
4625.000000	63.776063 
4624.000000	63.765597 
4623.000000	63.763809 
4622.000000	63.768267 
4621.000000	63.774752 
4620.000000	63.778901 
4619.000000	63.777041 
4618.000000	63.767576 
4617.000000	63.751196 
4616.000000	63.730597 
4615.000000	63.709807 
4614.000000	63.692593 
4613.000000	63.681221 
4612.000000	63.675832 
4611.000000	63.674044 
4610.000000	63.672780 
4609.000000	63.669610 
4608.000000	63.663911 
4607.000000	63.657355 
4606.000000	63.652896 
4605.000000	63.653850 
4604.000000	63.662219 
4603.000000	63.677787 
4602.000000	63.698577 
4601.000000	63.721060 
4600.000000	63.741731 
4599.000000	63.757872 
4598.000000	63.768696 
4597.000000	63.775396 
4596.000000	63.780283 
4595.000000	63.786125 
4594.000000	63.794994 
4593.000000	63.807582 
4592.000000	63.822937 
4591.000000	63.838291 
4590.000000	63.850522 
4589.000000	63.856077 
4588.000000	63.852453 
4587.000000	63.838124 
4586.000000	63.812971 
4585.000000	63.778495 
4584.000000	63.737106 
4583.000000	63.693261 
4582.000000	63.652443 
4581.000000	63.621139 
4580.000000	63.605570 
4579.000000	63.609480 
4578.000000	63.632988 
4577.000000	63.671565 
4576.000000	63.716506 
4575.000000	63.756203 
4574.000000	63.778638 
4573.000000	63.773965 
4572.000000	63.737201 
4571.000000	63.668990 
4570.000000	63.576054 
4569.000000	63.469219 
4568.000000	63.361287 
4567.000000	63.264346 
4566.000000	63.187122 
4565.000000	63.133478 
4564.000000	63.102531 
4563.000000	63.089823 
4562.000000	63.088965 
4561.000000	63.093280 
4560.000000	63.097739 
4559.000000	63.099050 
4558.000000	63.096928 
4557.000000	63.092207 
4556.000000	63.087868 
4555.000000	63.087129 
4554.000000	63.093590 
4553.000000	63.109874 
4552.000000	63.136792 
4551.000000	63.172698 
4550.000000	63.213777 
4549.000000	63.254809 
4548.000000	63.289904 
4547.000000	63.314008 
4546.000000	63.324260 
4545.000000	63.320302 
4544.000000	63.304662 
4543.000000	63.281250 
4542.000000	63.254761 
4541.000000	63.228702 
4540.000000	63.204288 
4539.000000	63.180351 
4538.000000	63.153839 
4537.000000	63.121438 
4536.000000	63.080739 
4535.000000	63.032078 
4534.000000	62.979221 
4533.000000	62.928700 
4532.000000	62.887763 
4531.000000	62.863230 
4530.000000	62.858986 
4529.000000	62.876176 
4528.000000	62.912559 
4527.000000	62.963700 
4526.000000	63.023805 
4525.000000	63.087058 
4524.000000	63.148522 
4523.000000	63.204407 
4522.000000	63.252115 
4521.000000	63.290572 
4520.000000	63.319706 
4519.000000	63.340115 
4518.000000	63.352441 
4517.000000	63.357949 
4516.000000	63.357424 
4515.000000	63.352036 
4514.000000	63.342428 
4513.000000	63.329434 
4512.000000	63.313436 
4511.000000	63.295292 
4510.000000	63.275861 
4509.000000	63.256049 
4508.000000	63.236999 
4507.000000	63.220167 
4506.000000	63.206839 
4505.000000	63.198018 
4504.000000	63.193988 
4503.000000	63.194084 
4502.000000	63.196825 
4501.000000	63.200378 
4500.000000	63.202595 
4499.000000	63.201546 
4498.000000	63.195466 
4497.000000	63.183069 
4496.000000	63.163280 
4495.000000	63.135504 
4494.000000	63.099646 
4493.000000	63.056373 
4492.000000	63.006830 
4491.000000	62.953257 
4490.000000	62.898635 
4489.000000	62.846922 
4488.000000	62.802457 
4487.000000	62.769842 
4486.000000	62.753081 
4485.000000	62.754750 
4484.000000	62.775373 
4483.000000	62.812542 
4482.000000	62.861227 
4481.000000	62.913799 
4480.000000	62.961077 
4479.000000	62.993907 
4478.000000	63.004660 
4477.000000	62.989044 
4476.000000	62.947082 
4475.000000	62.883067 
4474.000000	62.804794 
4473.000000	62.722110 
4472.000000	62.645173 
4471.000000	62.582206 
4470.000000	62.538361 
4469.000000	62.515044 
4468.000000	62.510561 
4467.000000	62.521147 
4466.000000	62.542772 
4465.000000	62.571883 
4464.000000	62.606477 
4463.000000	62.646174 
4462.000000	62.691187 
4461.000000	62.741303 
4460.000000	62.794423 
4459.000000	62.846112 
4458.000000	62.889838 
4457.000000	62.918186 
4456.000000	62.924599 
4455.000000	62.905335 
4454.000000	62.860894 
4453.000000	62.796688 
4452.000000	62.721872 
4451.000000	62.647533 
4450.000000	62.584328 
4449.000000	62.540245 
4448.000000	62.519812 
4447.000000	62.523603 
4446.000000	62.548589 
4445.000000	62.589216 
4444.000000	62.638449 
4443.000000	62.689185 
4442.000000	62.734627 
4441.000000	62.769269 
4440.000000	62.789177 
4439.000000	62.792038 
4438.000000	62.777566 
4437.000000	62.746834 
4436.000000	62.701916 
4435.000000	62.645149 
4434.000000	62.579679 
4433.000000	62.509131 
4432.000000	62.438058 
4431.000000	62.371635 
4430.000000	62.315344 
4429.000000	62.274289 
4428.000000	62.252354 
4427.000000	62.251400 
4426.000000	62.271165 
4425.000000	62.308311 
4424.000000	62.356424 
4423.000000	62.407040 
4422.000000	62.450814 
4421.000000	62.479686 
4420.000000	62.488007 
4419.000000	62.474322 
4418.000000	62.441635 
4417.000000	62.394738 
4416.000000	62.338876 
4415.000000	62.278795 
4414.000000	62.218213 
4413.000000	62.163805 
4412.000000	62.123489 
4411.000000	62.105751 
4410.000000	62.116789 
4409.000000	62.156319 
4408.000000	62.218236 
4407.000000	62.289810 
4406.000000	62.356925 
4405.000000	62.406325 
4404.000000	62.431740 
4403.000000	62.437224 
4402.000000	62.434530 
4401.000000	62.440299 
4400.000000	62.468743 
4399.000000	62.524676 
4398.000000	62.603497 
4397.000000	62.691020 
4396.000000	62.770748 
4395.000000	62.828183 
4394.000000	62.860321 
4393.000000	62.877750 
4392.000000	62.902355 
4391.000000	62.963223 
4390.000000	63.070511 
4389.000000	63.208341 
4388.000000	63.338255 
4387.000000	63.410115 
4386.000000	63.370680 
4385.000000	63.185667 
4384.000000	62.861680 
4383.000000	62.449526 
4382.000000	62.035584 
4381.000000	61.720943 
4380.000000	61.591720 
4379.000000	61.695861 
4378.000000	62.035942 
4377.000000	62.558174 
4376.000000	63.166427 
4375.000000	63.739132 
4374.000000	64.162468 
4373.000000	64.349460 
4372.000000	64.256262 
4371.000000	63.894033 
4370.000000	63.314747 
4369.000000	62.614893 
4368.000000	61.900281 
4367.000000	61.298537 
4366.000000	60.932469 
4365.000000	60.919451 
4364.000000	61.349630 
4363.000000	62.283635 
4362.000000	63.736629 
4361.000000	65.667605 
4360.000000	67.971897 
4359.000000	70.492148 
4358.000000	73.024678 
4357.000000	75.347375 
4356.000000	77.237510 
4355.000000	78.503704 
4354.000000	79.008364 
4353.000000	78.695893 
4352.000000	77.600359 
4351.000000	75.852751 
4350.000000	73.657608 
4349.000000	71.282935 
4348.000000	68.999433 
4347.000000	67.058849 
4346.000000	65.634274 
4345.000000	64.815783 
4344.000000	64.581918 
4343.000000	64.824867 
4342.000000	65.368771 
4341.000000	66.008281 
4340.000000	66.557765 
4339.000000	66.880965 
4338.000000	66.915392 
4337.000000	66.665768 
4336.000000	66.195893 
4335.000000	65.597510 
4334.000000	64.966106 
4333.000000	64.374732 
4332.000000	63.871502 
4331.000000	63.473105 
4330.000000	63.175630 
4329.000000	62.959575 
4328.000000	62.807106 
4327.000000	62.704515 
4326.000000	62.632966 
4325.000000	62.579417 
4324.000000	62.534236 
4323.000000	62.495660 
4322.000000	62.459897 
4321.000000	62.429213 
4320.000000	62.405729 
4319.000000	62.394928 
4318.000000	62.407112 
4317.000000	62.448453 
4316.000000	62.513232 
4315.000000	62.590527 
4314.000000	62.668275 
4313.000000	62.731981 
4312.000000	62.767028 
4311.000000	62.766599 
4310.000000	62.733554 
4309.000000	62.679433 
4308.000000	62.621545 
4307.000000	62.576150 
4306.000000	62.554073 
4305.000000	62.558317 
4304.000000	62.583398 
4303.000000	62.620401 
4302.000000	62.658429 
4301.000000	62.685990 
4300.000000	62.694334 
4299.000000	62.680840 
4298.000000	62.648153 
4297.000000	62.602043 
4296.000000	62.549805 
4295.000000	62.498736 
4294.000000	62.453651 
4293.000000	62.415790 
4292.000000	62.383341 
4291.000000	62.352871 
4290.000000	62.320828 
4289.000000	62.285423 
4288.000000	62.247490 
4287.000000	62.210083 
4286.000000	62.178540 
4285.000000	62.158536 
4284.000000	62.154984 
4283.000000	62.170076 
4282.000000	62.203621 
4281.000000	62.252521 
4280.000000	62.311625 
4279.000000	62.374544 
4278.000000	62.434458 
4277.000000	62.485098 
4276.000000	62.521457 
4275.000000	62.540340 
4274.000000	62.540197 
4273.000000	62.521791 
4272.000000	62.487912 
4271.000000	62.443399 
4270.000000	62.394618 
4269.000000	62.348341 
4268.000000	62.311410 
4267.000000	62.288928 
4266.000000	62.284111 
4265.000000	62.296676 
4264.000000	62.323570 
4263.000000	62.358736 
4262.000000	62.394046 
4261.000000	62.421417 
4260.000000	62.434244 
4259.000000	62.429666 
4258.000000	62.408947 
4257.000000	62.377715 
4256.000000	62.344479 
4255.000000	62.318730 
4254.000000	62.308478 
4253.000000	62.318158 
4252.000000	62.347459 
4251.000000	62.391281 
4250.000000	62.441110 
4249.000000	62.487268 
4248.000000	62.521553 
4247.000000	62.539291 
4246.000000	62.540483 
4245.000000	62.529373 
4244.000000	62.512850 
4243.000000	62.498044 
4242.000000	62.490296 
4241.000000	62.491726 
4240.000000	62.500929 
4239.000000	62.514019 
4238.000000	62.526035 
4237.000000	62.533545 
4236.000000	62.534904 
4235.000000	62.530851 
4234.000000	62.523627 
4233.000000	62.516307 
4232.000000	62.511038 
4231.000000	62.508201 
4230.000000	62.506055 
4229.000000	62.501263 
4228.000000	62.490606 
4227.000000	62.472677 
4226.000000	62.448382 
4225.000000	62.421393 
4224.000000	62.396979 
4223.000000	62.381172 
4222.000000	62.378859 
4221.000000	62.392735 
4220.000000	62.423062 
4219.000000	62.467384 
4218.000000	62.521314 
4217.000000	62.579107 
4216.000000	62.634921 
4215.000000	62.683844 
4214.000000	62.721824 
4213.000000	62.747573 
4212.000000	62.762331 
4211.000000	62.770128 
4210.000000	62.777256 
4209.000000	62.790012 
4208.000000	62.813782 
4207.000000	62.850093 
4206.000000	62.896871 
4205.000000	62.946748 
4204.000000	62.989163 
4203.000000	63.012123 
4202.000000	63.005566 
4201.000000	62.964391 
4200.000000	62.890362 
4199.000000	62.792921 
4198.000000	62.687325 
4197.000000	62.590932 
4196.000000	62.518858 
4195.000000	62.480926 
4194.000000	62.478947 
4193.000000	62.506818 
4192.000000	62.551999 
4191.000000	62.599182 
4190.000000	62.634205 
4189.000000	62.647223 
4188.000000	62.635183 
4187.000000	62.600708 
4186.000000	62.552285 
4185.000000	62.500834 
4184.000000	62.457752 
4183.000000	62.431240 
4182.000000	62.425351 
4181.000000	62.439870 
4180.000000	62.470245 
4179.000000	62.509989 
4178.000000	62.551450 
4177.000000	62.587547 
4176.000000	62.613630 
4175.000000	62.627863 
4174.000000	62.632489 
4173.000000	62.632799 
4172.000000	62.636637 
4171.000000	62.652063 
4170.000000	62.685251 
4169.000000	62.738180 
4168.000000	62.808227 
4167.000000	62.887644 
4166.000000	62.965178 
4165.000000	63.028144 
4164.000000	63.065838 
4163.000000	63.071346 
4162.000000	63.042879 
4161.000000	62.984156 
4160.000000	62.902975 
4159.000000	62.810301 
4158.000000	62.717771 
4157.000000	62.636089 
4156.000000	62.573432 
4155.000000	62.534642 
4154.000000	62.521433 
4153.000000	62.532663 
4152.000000	62.565350 
4151.000000	62.615323 
4150.000000	62.677788 
4149.000000	62.747883 
4148.000000	62.820291 
4147.000000	62.890338 
4146.000000	62.953758 
4145.000000	63.007187 
4144.000000	63.048171 
4143.000000	63.075995 
4142.000000	63.091111 
4141.000000	63.095092 
4140.000000	63.089609 
4139.000000	63.076066 
4138.000000	63.054823 
4137.000000	63.025403 
4136.000000	62.987065 
4135.000000	62.940001 
4134.000000	62.885999 
4133.000000	62.828946 
4132.000000	62.774705 
4131.000000	62.730503 
4130.000000	62.703204 
4129.000000	62.697505 
4128.000000	62.714385 
4127.000000	62.750363 
4126.000000	62.798118 
4125.000000	62.848067 
4124.000000	62.890696 
4123.000000	62.918782 
4122.000000	62.928986 
4121.000000	62.922358 
4120.000000	62.903785 
4119.000000	62.880134 
4118.000000	62.858128 
4117.000000	62.842297 
4116.000000	62.834477 
4115.000000	62.833499 
4114.000000	62.836503 
4113.000000	62.839627 
4112.000000	62.839746 
4111.000000	62.835025 
4110.000000	62.825155 
4109.000000	62.811422 
4108.000000	62.795615 
4107.000000	62.779903 
4106.000000	62.765645 
4105.000000	62.753796 
4104.000000	62.744784 
4103.000000	62.738823 
4102.000000	62.736368 
4101.000000	62.737870 
4100.000000	62.743687 
4099.000000	62.753510 
4098.000000	62.766313 
4097.000000	62.779903 
4096.000000	62.791037 
4095.000000	62.796401 
4094.000000	62.793207 
4093.000000	62.780380 
4092.000000	62.759256 
4091.000000	62.733268 
4090.000000	62.707614 
4089.000000	62.688350 
4088.000000	62.680959 
4087.000000	62.689185 
4086.000000	62.713837 
4085.000000	62.752699 
4084.000000	62.800478 
4083.000000	62.850475 
4082.000000	62.895464 
4081.000000	62.929463 
4080.000000	62.948322 
4079.000000	62.950730 
4078.000000	62.937688 
4077.000000	62.911939 
4076.000000	62.877488 
4075.000000	62.838578 
4074.000000	62.799429 
4073.000000	62.763810 
4072.000000	62.734866 
4071.000000	62.715458 
4070.000000	62.707448 
4069.000000	62.711596 
4068.000000	62.727117 
4067.000000	62.751770 
4066.000000	62.781834 
4065.000000	62.812495 
4064.000000	62.838792 
4063.000000	62.856245 
4062.000000	62.862014 
4061.000000	62.855410 
4060.000000	62.837886 
4059.000000	62.812590 
4058.000000	62.783908 
4057.000000	62.756276 
4056.000000	62.733292 
4055.000000	62.717151 
4054.000000	62.708640 
4053.000000	62.706971 
4052.000000	62.710499 
4051.000000	62.716984 
4050.000000	62.724280 
4049.000000	62.730717 
4048.000000	62.735033 
4047.000000	62.737274 
4046.000000	62.738037 
4045.000000	62.738990 
4044.000000	62.742090 
4043.000000	62.749385 
4042.000000	62.762093 
4041.000000	62.780356 
4040.000000	62.803077 
4039.000000	62.828063 
4038.000000	62.852358 
4037.000000	62.872743 
4036.000000	62.886095 
4035.000000	62.890028 
4034.000000	62.883210 
4033.000000	62.865447 
4032.000000	62.837862 
4031.000000	62.802791 
4030.000000	62.763404 
4029.000000	62.723588 
4028.000000	62.687230 
4027.000000	62.657952 
4026.000000	62.638378 
4025.000000	62.630128 
4024.000000	62.633419 
4023.000000	62.646913 
4022.000000	62.668466 
4021.000000	62.694931 
4020.000000	62.723255 
4019.000000	62.750768 
4018.000000	62.775492 
4017.000000	62.796020 
4016.000000	62.811255 
4015.000000	62.820315 
4014.000000	62.822127 
4013.000000	62.815642 
4012.000000	62.800240 
4011.000000	62.776088 
4010.000000	62.744975 
4009.000000	62.710189 
4008.000000	62.676191 
4007.000000	62.647867 
4006.000000	62.629437 
4005.000000	62.623500 
4004.000000	62.630367 
4003.000000	62.648034 
4002.000000	62.672376 
4001.000000	62.698316 
4000.000000	62.720870 
3999.000000	62.736487 
3998.000000	62.743592 
3997.000000	62.742567 
3996.000000	62.735462 
3995.000000	62.724804 
3994.000000	62.712883 
3993.000000	62.700843 
3992.000000	62.688469 
3991.000000	62.674593 
3990.000000	62.657570 
3989.000000	62.636518 
3988.000000	62.612295 
3987.000000	62.587618 
3986.000000	62.566566 
3985.000000	62.554025 
3984.000000	62.554478 
3983.000000	62.570428 
3982.000000	62.601542 
3981.000000	62.644362 
3980.000000	62.692761 
3979.000000	62.739086 
3978.000000	62.775921 
3977.000000	62.797427 
3976.000000	62.800884 
3975.000000	62.787055 
3974.000000	62.759852 
3973.000000	62.725138 
3972.000000	62.689137 
3971.000000	62.657570 
3970.000000	62.633848 
3969.000000	62.619113 
3968.000000	62.611818 
3967.000000	62.609028 
3966.000000	62.606668 
3965.000000	62.601184 
3964.000000	62.589645 
3963.000000	62.570548 
3962.000000	62.543964 
3961.000000	62.511301 
3960.000000	62.474966 
3959.000000	62.437868 
3958.000000	62.403202 
3957.000000	62.373828 
3956.000000	62.351965 
3955.000000	62.338805 
3954.000000	62.334299 
3953.000000	62.337327 
3952.000000	62.345480 
3951.000000	62.356114 
3950.000000	62.366676 
3949.000000	62.375807 
3948.000000	62.383079 
3947.000000	62.389540 
3946.000000	62.397241 
3945.000000	62.408351 
3944.000000	62.424516 
3943.000000	62.446141 
3942.000000	62.471795 
3941.000000	62.498593 
3940.000000	62.522816 
3939.000000	62.540650 
3938.000000	62.548947 
3937.000000	62.546110 
3936.000000	62.532663 
3935.000000	62.510848 
3934.000000	62.484025 
3933.000000	62.455797 
3932.000000	62.429451 
3931.000000	62.406945 
3930.000000	62.388730 
3929.000000	62.373852 
3928.000000	62.360596 
3927.000000	62.346911 
3926.000000	62.331104 
3925.000000	62.312340 
3924.000000	62.291073 
3923.000000	62.268614 
3922.000000	62.247204 
3921.000000	62.229156 
3920.000000	62.216472 
3919.000000	62.210488 
3918.000000	62.211799 
3917.000000	62.219762 
3916.000000	62.233042 
3915.000000	62.249875 
3914.000000	62.268638 
3913.000000	62.287878 
3912.000000	62.306952 
3911.000000	62.325596 
3910.000000	62.344312 
3909.000000	62.363743 
3908.000000	62.384510 
3907.000000	62.406849 
3906.000000	62.430334 
3905.000000	62.453770 
3904.000000	62.475585 
3903.000000	62.494158 
3902.000000	62.507939 
3901.000000	62.516045 
3900.000000	62.518429 
3899.000000	62.516021 
3898.000000	62.510275 
3897.000000	62.502980 
3896.000000	62.495756 
3895.000000	62.489748 
3894.000000	62.485146 
3893.000000	62.481641 
3892.000000	62.478470 
3891.000000	62.475180 
3890.000000	62.471652 
3889.000000	62.468695 
3888.000000	62.467551 
3887.000000	62.470078 
3886.000000	62.477946 
3885.000000	62.492299 
3884.000000	62.513303 
3883.000000	62.539649 
3882.000000	62.568831 
3881.000000	62.596917 
3880.000000	62.619566 
3879.000000	62.632131 
3878.000000	62.630748 
3877.000000	62.612843 
3876.000000	62.577795 
3875.000000	62.526726 
3874.000000	62.462592 
3873.000000	62.389636 
3872.000000	62.312769 
3871.000000	62.236738 
3870.000000	62.165713 
3869.000000	62.102556 
3868.000000	62.049007 
3867.000000	62.005615 
3866.000000	61.972570 
3865.000000	61.949682 
3864.000000	61.937236 
3863.000000	61.935448 
3862.000000	61.944842 
3861.000000	61.965274 
3860.000000	61.996221 
3859.000000	62.035512 
3858.000000	62.080264 
3857.000000	62.126445 
3856.000000	62.169766 
3855.000000	62.206244 
3854.000000	62.232542 
3853.000000	62.246656 
3852.000000	62.247681 
3851.000000	62.236046 
3850.000000	62.213134 
3849.000000	62.181186 
3848.000000	62.143087 
3847.000000	62.102174 
3846.000000	62.061905 
3845.000000	62.025737 
3844.000000	61.997127 
3843.000000	61.978745 
3842.000000	61.971926 
3841.000000	61.976075 
3840.000000	61.988949 
3839.000000	62.006878 
3838.000000	62.024974 
3837.000000	62.038540 
3836.000000	62.043762 
3835.000000	62.038874 
3834.000000	62.024211 
3833.000000	62.002563 
3832.000000	61.978077 
3831.000000	61.955547 
3830.000000	61.939358 
3829.000000	61.932206 
3828.000000	61.934638 
3827.000000	61.944746 
3826.000000	61.959004 
3825.000000	61.972808 
3824.000000	61.981868 
3823.000000	61.983609 
3822.000000	61.977696 
3821.000000	61.966323 
3820.000000	61.953568 
3819.000000	61.944556 
3818.000000	61.943936 
3817.000000	61.954689 
3816.000000	61.977195 
3815.000000	62.009096 
3814.000000	62.045526 
3813.000000	62.080621 
3812.000000	62.108254 
3811.000000	62.123608 
3810.000000	62.123966 
3809.000000	62.109470 
3808.000000	62.082576 
3807.000000	62.047600 
3806.000000	62.009668 
3805.000000	61.973500 
3804.000000	61.942625 
3803.000000	61.918735 
3802.000000	61.901593 
3801.000000	61.889886 
3800.000000	61.881613 
3799.000000	61.875081 
3798.000000	61.869311 
3797.000000	61.864352 
3796.000000	61.860942 
3795.000000	61.859893 
3794.000000	61.861467 
3793.000000	61.864852 
3792.000000	61.868286 
3791.000000	61.869168 
3790.000000	61.864876 
3789.000000	61.853408 
3788.000000	61.834144 
3787.000000	61.808061 
3786.000000	61.777758 
3785.000000	61.747097 
3784.000000	61.720347 
3783.000000	61.701726 
3782.000000	61.693859 
3781.000000	61.698031 
3780.000000	61.714100 
3779.000000	61.740469 
3778.000000	61.774444 
3777.000000	61.812901 
3776.000000	61.852550 
3775.000000	61.890602 
3774.000000	61.924600 
3773.000000	61.952853 
3772.000000	61.974048 
3771.000000	61.987519 
3770.000000	61.993193 
3769.000000	61.991572 
3768.000000	61.983728 
3767.000000	61.971306 
3766.000000	61.956334 
3765.000000	61.941361 
3764.000000	61.928844 
3763.000000	61.921072 
3762.000000	61.919355 
3761.000000	61.923980 
3760.000000	61.933541 
3759.000000	61.945557 
3758.000000	61.956548 
3757.000000	61.962604 
3756.000000	61.960387 
3755.000000	61.947727 
3754.000000	61.924481 
3753.000000	61.892080 
3752.000000	61.853837 
3751.000000	61.814022 
3750.000000	61.777186 
3749.000000	61.747622 
3748.000000	61.727952 
3747.000000	61.719202 
3746.000000	61.720061 
3745.000000	61.727738 
3744.000000	61.738181 
3743.000000	61.747074 
3742.000000	61.750888 
3741.000000	61.747741 
3740.000000	61.737513 
3739.000000	61.721873 
3738.000000	61.703586 
3737.000000	61.685895 
3736.000000	61.671662 
3735.000000	61.662983 
3734.000000	61.660957 
3733.000000	61.665558 
3732.000000	61.676502 
3731.000000	61.692905 
3730.000000	61.713910 
3729.000000	61.738300 
3728.000000	61.764597 
3727.000000	61.790895 
3726.000000	61.814761 
3725.000000	61.833596 
3724.000000	61.844658 
3723.000000	61.846137 
3722.000000	61.837577 
3721.000000	61.820030 
3720.000000	61.796402 
3719.000000	61.770200 
3718.000000	61.744952 
3717.000000	61.723160 
3716.000000	61.706089 
3715.000000	61.693382 
3714.000000	61.683607 
3713.000000	61.674976 
3712.000000	61.666107 
3711.000000	61.656618 
3710.000000	61.647415 
3709.000000	61.640238 
3708.000000	61.637377 
3707.000000	61.640954 
3706.000000	61.652207 
3705.000000	61.671042 
3704.000000	61.695599 
3703.000000	61.722588 
3702.000000	61.747789 
3701.000000	61.766767 
3700.000000	61.775851 
3699.000000	61.772942 
3698.000000	61.757993 
3697.000000	61.732816 
3696.000000	61.701178 
3695.000000	61.667943 
3694.000000	61.638164 
3693.000000	61.616063 
3692.000000	61.603856 
3691.000000	61.601805 
3690.000000	61.608004 
3689.000000	61.619019 
3688.000000	61.630940 
3687.000000	61.640429 
3686.000000	61.645507 
3685.000000	61.645889 
3684.000000	61.642742 
3683.000000	61.638069 
3682.000000	61.633777 
3681.000000	61.631226 
3680.000000	61.630654 
3679.000000	61.631226 
3678.000000	61.631536 
3677.000000	61.630129 
3676.000000	61.626267 
3675.000000	61.620044 
3674.000000	61.612558 
3673.000000	61.605119 
3672.000000	61.599135 
3671.000000	61.595439 
3670.000000	61.593794 
3669.000000	61.593174 
3668.000000	61.592316 
3667.000000	61.590266 
3666.000000	61.586713 
3665.000000	61.582350 
3664.000000	61.578631 
3663.000000	61.577343 
3662.000000	61.580181 
3661.000000	61.587929 
3660.000000	61.600327 
3659.000000	61.616039 
3658.000000	61.632943 
3657.000000	61.648774 
3656.000000	61.661314 
3655.000000	61.669158 
3654.000000	61.671543 
3653.000000	61.668276 
3652.000000	61.659455 
3651.000000	61.645412 
3650.000000	61.626458 
3649.000000	61.603045 
3648.000000	61.575818 
3647.000000	61.545896 
3646.000000	61.514925 
3645.000000	61.484956 
3644.000000	61.457991 
3643.000000	61.435675 
3642.000000	61.418938 
3641.000000	61.407828 
3640.000000	61.401581 
3639.000000	61.398768 
3638.000000	61.397862 
3637.000000	61.397576 
3636.000000	61.397051 
3635.000000	61.396050 
3634.000000	61.395025 
3633.000000	61.394762 
3632.000000	61.396026 
3631.000000	61.399340 
3630.000000	61.404871 
3629.000000	61.412668 
3628.000000	61.422538 
3627.000000	61.434221 
3626.000000	61.447453 
3625.000000	61.461782 
3624.000000	61.476874 
3623.000000	61.491703 
3622.000000	61.505031 
3621.000000	61.515045 
3620.000000	61.520242 
3619.000000	61.519217 
3618.000000	61.511230 
3617.000000	61.496496 
3616.000000	61.476492 
3615.000000	61.453461 
3614.000000	61.430168 
3613.000000	61.409139 
3612.000000	61.392450 
3611.000000	61.380910 
3610.000000	61.373877 
3609.000000	61.369395 
3608.000000	61.364793 
3607.000000	61.357212 
3606.000000	61.344242 
3605.000000	61.324596 
3604.000000	61.298489 
3603.000000	61.267757 
3602.000000	61.235380 
3601.000000	61.205005 
3600.000000	61.180257 
3599.000000	61.164236 
3598.000000	61.158919 
3597.000000	61.164855 
3596.000000	61.180996 
3595.000000	61.204957 
3594.000000	61.233472 
3593.000000	61.262655 
3592.000000	61.288976 
3591.000000	61.309576 
3590.000000	61.322999 
3589.000000	61.328935 
3588.000000	61.328268 
3587.000000	61.322712 
3586.000000	61.314296 
3585.000000	61.305260 
3584.000000	61.297416 
3583.000000	61.292195 
3582.000000	61.290454 
3581.000000	61.292743 
3580.000000	61.299180 
3579.000000	61.309576 
3578.000000	61.323475 
3577.000000	61.339974 
3576.000000	61.357784 
3575.000000	61.375164 
3574.000000	61.390113 
3573.000000	61.400580 
3572.000000	61.404967 
3571.000000	61.402201 
3570.000000	61.392402 
3569.000000	61.376500 
3568.000000	61.356019 
3567.000000	61.332988 
3566.000000	61.309289 
3565.000000	61.286926 
3564.000000	61.267781 
3563.000000	61.253523 
3562.000000	61.245584 
3561.000000	61.244606 
3560.000000	61.250567 
3559.000000	61.262273 
3558.000000	61.277389 
3557.000000	61.292672 
3556.000000	61.304545 
3555.000000	61.309671 
3554.000000	61.305713 
3553.000000	61.291527 
3552.000000	61.267685 
3551.000000	61.236286 
3550.000000	61.200499 
3549.000000	61.164093 
3548.000000	61.130738 
3547.000000	61.103487 
3546.000000	61.084151 
3545.000000	61.073255 
3544.000000	61.070013 
3543.000000	61.072468 
3542.000000	61.078286 
3541.000000	61.084866 
3540.000000	61.090111 
3539.000000	61.092329 
3538.000000	61.090898 
3537.000000	61.086130 
3536.000000	61.079120 
3535.000000	61.071538 
3534.000000	61.065125 
3533.000000	61.061239 
3532.000000	61.060619 
3531.000000	61.063313 
3530.000000	61.068606 
3529.000000	61.075115 
3528.000000	61.081218 
3527.000000	61.085367 
3526.000000	61.086606 
3525.000000	61.084699 
3524.000000	61.080121 
3523.000000	61.073994 
3522.000000	61.067485 
3521.000000	61.061763 
3520.000000	61.057615 
3519.000000	61.055207 
3518.000000	61.054325 
3517.000000	61.054110 
3516.000000	61.053848 
3515.000000	61.052560 
3514.000000	61.048936 
3513.000000	61.041831 
3512.000000	61.030101 
3511.000000	61.013484 
3510.000000	60.992574 
3509.000000	60.969138 
3508.000000	60.945749 
3507.000000	60.925555 
3506.000000	60.911583 
3505.000000	60.905575 
3504.000000	60.907697 
3503.000000	60.916066 
3502.000000	60.927295 
3501.000000	60.937023 
3500.000000	60.941052 
3499.000000	60.936212 
3498.000000	60.921168 
3497.000000	60.896658 
3496.000000	60.865306 
3495.000000	60.830998 
3494.000000	60.797882 
3493.000000	60.769534 
3492.000000	60.748457 
3491.000000	60.736083 
3490.000000	60.732650 
3489.000000	60.737776 
3488.000000	60.750484 
3487.000000	60.769367 
3486.000000	60.792493 
3485.000000	60.817527 
3484.000000	60.841774 
3483.000000	60.862278 
3482.000000	60.876226 
3481.000000	60.881280 
3480.000000	60.876154 
3479.000000	60.860610 
3478.000000	60.835838 
3477.000000	60.804176 
3476.000000	60.769081 
3475.000000	60.734581 
3474.000000	60.704731 
3473.000000	60.682892 
3472.000000	60.671234 
3471.000000	60.670495 
3470.000000	60.679578 
3469.000000	60.695934 
3468.000000	60.716104 
3467.000000	60.736346 
3466.000000	60.753202 
3465.000000	60.764217 
3464.000000	60.768365 
3463.000000	60.766410 
3462.000000	60.760378 
3461.000000	60.753297 
3460.000000	60.748004 
3459.000000	60.746717 
3458.000000	60.750651 
3457.000000	60.759449 
3456.000000	60.771799 
3455.000000	60.785388 
3454.000000	60.797643 
3453.000000	60.805988 
3452.000000	60.808634 
3451.000000	60.804390 
3450.000000	60.792946 
3449.000000	60.774946 
3448.000000	60.751962 
3447.000000	60.726094 
3446.000000	60.699725 
3445.000000	60.674905 
3444.000000	60.652995 
3443.000000	60.634446 
3442.000000	60.618925 
3441.000000	60.605168 
3440.000000	60.591673 
3439.000000	60.577034 
3438.000000	60.560655 
3437.000000	60.543251 
3436.000000	60.526657 
3435.000000	60.513353 
3434.000000	60.505795 
3433.000000	60.505676 
3432.000000	60.513067 
3431.000000	60.526442 
3430.000000	60.542464 
3429.000000	60.556936 
3428.000000	60.565710 
3427.000000	60.565686 
3426.000000	60.555410 
3425.000000	60.535264 
3424.000000	60.507202 
3423.000000	60.474157 
3422.000000	60.439562 
3421.000000	60.406684 
3420.000000	60.378122 
3419.000000	60.355448 
3418.000000	60.339474 
3417.000000	60.330271 
3416.000000	60.327434 
3415.000000	60.330009 
3414.000000	60.336661 
3413.000000	60.345602 
3412.000000	60.354661 
3411.000000	60.361552 
3410.000000	60.363960 
3409.000000	60.360097 
3408.000000	60.349297 
3407.000000	60.331964 
3406.000000	60.309958 
3405.000000	60.286116 
3404.000000	60.263991 
3403.000000	60.247015 
3402.000000	60.237908 
3401.000000	60.237765 
3400.000000	60.246539 
3399.000000	60.262179 
3398.000000	60.281538 
3397.000000	60.300707 
3396.000000	60.315752 
3395.000000	60.323429 
3394.000000	60.321569 
3393.000000	60.309410 
3392.000000	60.287618 
3391.000000	60.258269 
3390.000000	60.224318 
3389.000000	60.189414 
3388.000000	60.157084 
3387.000000	60.130429 
3386.000000	60.111570 
3385.000000	60.101342 
3384.000000	60.099530 
3383.000000	60.104823 
3382.000000	60.115265 
3381.000000	60.128474 
3380.000000	60.142254 
3379.000000	60.154938 
3378.000000	60.165882 
3377.000000	60.175013 
3376.000000	60.183119 
3375.000000	60.191297 
3374.000000	60.200881 
3373.000000	60.212993 
3372.000000	60.227942 
3371.000000	60.245370 
3370.000000	60.263824 
3369.000000	60.281300 
3368.000000	60.294985 
3367.000000	60.301971 
3366.000000	60.299849 
3365.000000	60.287261 
3364.000000	60.264468 
3363.000000	60.233592 
3362.000000	60.198497 
3361.000000	60.163927 
3360.000000	60.134792 
3359.000000	60.114932 
3358.000000	60.106277 
3357.000000	60.108375 
3356.000000	60.118269 
3355.000000	60.131454 
3354.000000	60.142850 
3353.000000	60.148239 
3352.000000	60.145044 
3351.000000	60.133147 
3350.000000	60.114479 
3349.000000	60.092592 
3348.000000	60.071277 
3347.000000	60.053825 
3346.000000	60.041666 
3345.000000	60.034680 
3344.000000	60.031294 
3343.000000	60.029339 
3342.000000	60.026860 
3341.000000	60.022759 
3340.000000	60.017466 
3339.000000	60.012221 
3338.000000	60.008573 
3337.000000	60.007381 
3336.000000	60.008358 
3335.000000	60.009646 
3334.000000	60.008382 
3333.000000	60.001802 
3332.000000	59.988331 
3331.000000	59.968447 
3330.000000	59.944868 
3329.000000	59.921717 
3328.000000	59.903955 
3327.000000	59.895682 
3326.000000	59.899616 
3325.000000	59.916353 
3324.000000	59.944200 
3323.000000	59.979963 
3322.000000	60.019111 
3321.000000	60.056924 
3320.000000	60.088729 
3319.000000	60.110712 
3318.000000	60.120248 
3317.000000	60.115981 
3316.000000	60.098195 
3315.000000	60.068702 
3314.000000	60.030651 
3313.000000	59.988236 
3312.000000	59.945988 
3311.000000	59.908223 
3310.000000	59.878039 
3309.000000	59.857058 
3308.000000	59.844851 
3307.000000	59.839487 
3306.000000	59.838175 
3305.000000	59.838342 
3304.000000	59.837961 
3303.000000	59.836220 
3302.000000	59.833502 
3301.000000	59.831070 
3300.000000	59.829831 
3299.000000	59.830522 
3298.000000	59.832978 
3297.000000	59.836602 
3296.000000	59.840297 
3295.000000	59.843349 
3294.000000	59.845471 
3293.000000	59.846925 
3292.000000	59.848594 
3291.000000	59.851431 
3290.000000	59.855914 
3289.000000	59.861564 
3288.000000	59.866881 
3287.000000	59.869503 
3286.000000	59.867048 
3285.000000	59.857654 
3284.000000	59.840750 
3283.000000	59.817171 
3282.000000	59.788990 
3281.000000	59.759235 
3280.000000	59.731125 
3279.000000	59.707331 
3278.000000	59.689235 
3277.000000	59.676933 
3276.000000	59.669137 
3275.000000	59.663438 
3274.000000	59.657239 
3273.000000	59.648013 
3272.000000	59.634470 
3271.000000	59.616398 
3270.000000	59.595203 
3269.000000	59.573245 
3268.000000	59.553527 
3267.000000	59.538722 
3266.000000	59.530782 
3265.000000	59.530162 
3264.000000	59.536051 
3263.000000	59.546613 
3262.000000	59.559535 
3261.000000	59.572362 
3260.000000	59.583306 
3259.000000	59.591460 
3258.000000	59.596991 
3257.000000	59.600710 
3256.000000	59.603404 
3255.000000	59.605550 
3254.000000	59.606838 
3253.000000	59.606194 
3252.000000	59.602236 
3251.000000	59.593701 
3250.000000	59.580183 
3249.000000	59.562373 
3248.000000	59.542250 
3247.000000	59.522747 
3246.000000	59.507203 
3245.000000	59.498643 
3244.000000	59.498953 
3243.000000	59.508204 
3242.000000	59.524822 
3241.000000	59.545159 
3240.000000	59.564447 
3239.000000	59.577417 
3238.000000	59.579515 
3237.000000	59.567999 
3236.000000	59.542512 
3235.000000	59.505677 
3234.000000	59.462332 
3233.000000	59.418988 
3232.000000	59.382438 
3231.000000	59.358239 
3230.000000	59.349751 
3229.000000	59.357047 
3228.000000	59.377002 
3227.000000	59.403944 
3226.000000	59.430932 
3225.000000	59.451222 
3224.000000	59.459733 
3223.000000	59.454011 
3222.000000	59.434604 
3221.000000	59.404349 
3220.000000	59.367704 
3219.000000	59.329605 
3218.000000	59.294533 
3217.000000	59.265685 
3216.000000	59.244465 
3215.000000	59.231257 
3214.000000	59.224891 
3213.000000	59.223294 
3212.000000	59.223699 
3211.000000	59.223365 
3210.000000	59.219956 
3209.000000	59.211683 
3208.000000	59.197878 
3207.000000	59.178757 
3206.000000	59.156131 
3205.000000	59.132647 
3204.000000	59.111595 
3203.000000	59.095978 
3202.000000	59.087991 
3201.000000	59.088397 
3200.000000	59.096312 
3199.000000	59.109377 
3198.000000	59.124541 
3197.000000	59.139132 
3196.000000	59.151148 
3195.000000	59.160065 
3194.000000	59.166502 
3193.000000	59.172296 
3192.000000	59.179329 
3191.000000	59.189367 
3190.000000	59.203600 
3189.000000	59.222412 
3188.000000	59.245800 
3187.000000	59.273004 
3186.000000	59.303355 
3185.000000	59.335589 
3184.000000	59.368658 
3183.000000	59.400844 
3182.000000	59.429979 
3181.000000	59.453344 
3180.000000	59.468007 
3179.000000	59.471225 
3178.000000	59.461021 
3177.000000	59.436559 
3176.000000	59.398770 
3175.000000	59.349536 
3174.000000	59.291911 
3173.000000	59.229278 
3172.000000	59.165120 
3171.000000	59.102439 
3170.000000	59.043812 
3169.000000	58.991503 
3168.000000	58.947443 
3167.000000	58.912920 
3166.000000	58.888792 
3165.000000	58.874750 
3164.000000	58.869600 
3163.000000	58.871006 
3162.000000	58.876180 
3161.000000	58.881258 
3160.000000	58.883047 
3159.000000	58.879160 
3158.000000	58.868813 
3157.000000	58.852839 
3156.000000	58.833527 
3155.000000	58.814382 
3154.000000	58.798861 
3153.000000	58.789706 
3152.000000	58.787965 
3151.000000	58.792710 
3150.000000	58.801221 
3149.000000	58.809804 
3148.000000	58.814692 
3147.000000	58.812975 
3146.000000	58.803749 
3145.000000	58.788466 
3144.000000	58.770489 
3143.000000	58.754277 
3142.000000	58.744645 
3141.000000	58.745169 
3140.000000	58.757138 
3139.000000	58.779048 
3138.000000	58.807015 
3137.000000	58.835363 
3136.000000	58.857941 
3135.000000	58.869409 
3134.000000	58.866405 
3133.000000	58.848357 
3132.000000	58.817267 
3131.000000	58.777737 
3130.000000	58.735299 
3129.000000	58.696317 
3128.000000	58.666563 
3127.000000	58.650469 
3126.000000	58.650541 
3125.000000	58.667087 
3124.000000	58.698368 
3123.000000	58.741044 
3122.000000	58.790588 
3121.000000	58.842301 
3120.000000	58.892154 
3119.000000	58.937048 
3118.000000	58.975148 
3117.000000	59.005951 
3116.000000	59.029722 
3115.000000	59.047365 
3114.000000	59.059548 
3113.000000	59.066772 
3112.000000	59.068751 
3111.000000	59.065222 
3110.000000	59.055471 
3109.000000	59.039068 
3108.000000	59.015703 
3107.000000	58.986020 
3106.000000	58.951067 
3105.000000	58.912777 
3104.000000	58.873558 
3103.000000	58.835744 
3102.000000	58.801555 
3101.000000	58.772635 
3100.000000	58.750033 
3099.000000	58.733868 
3098.000000	58.723545 
3097.000000	58.717942 
3096.000000	58.715558 
3095.000000	58.714771 
3094.000000	58.714175 
3093.000000	58.712744 
3092.000000	58.709764 
3091.000000	58.704710 
3090.000000	58.697605 
3089.000000	58.688902 
3088.000000	58.679127 
3087.000000	58.668804 
3086.000000	58.658623 
3085.000000	58.649420 
3084.000000	58.641767 
3083.000000	58.635950 
3082.000000	58.631968 
3081.000000	58.629369 
3080.000000	58.627438 
3079.000000	58.625173 
3078.000000	58.621811 
3077.000000	58.616662 
3076.000000	58.609509 
3075.000000	58.600258 
3074.000000	58.588886 
3073.000000	58.575415 
3072.000000	58.559823 
3071.000000	58.542180 
3070.000000	58.522653 
3069.000000	58.501839 
3068.000000	58.480763 
3067.000000	58.460450 
3066.000000	58.441853 
3065.000000	58.425617 
3064.000000	58.412146 
3063.000000	58.401322 
3062.000000	58.392882 
3061.000000	58.386468 
3060.000000	58.381772 
3059.000000	58.378696 
3058.000000	58.377289 
3057.000000	58.377432 
3056.000000	58.378744 
3055.000000	58.380484 
3054.000000	58.381485 
3053.000000	58.380246 
3052.000000	58.375358 
3051.000000	58.365893 
3050.000000	58.351707 
3049.000000	58.333325 
3048.000000	58.312082 
3047.000000	58.289742 
3046.000000	58.268213 
3045.000000	58.249163 
3044.000000	58.234119 
3043.000000	58.224272 
3042.000000	58.220672 
3041.000000	58.223891 
3040.000000	58.234143 
3039.000000	58.250904 
3038.000000	58.272767 
3037.000000	58.297395 
3036.000000	58.321666 
3035.000000	58.342218 
3034.000000	58.355927 
3033.000000	58.360695 
3032.000000	58.355855 
3031.000000	58.342146 
3030.000000	58.321905 
3029.000000	58.298039 
3028.000000	58.273839 
3027.000000	58.251619 
3026.000000	58.232760 
3025.000000	58.216929 
3024.000000	58.203029 
3023.000000	58.189034 
3022.000000	58.173274 
3021.000000	58.154702 
3020.000000	58.133411 
3019.000000	58.110451 
3018.000000	58.087682 
3017.000000	58.067107 
3016.000000	58.050107 
3015.000000	58.037257 
3014.000000	58.028149 
3013.000000	58.021831 
3012.000000	58.017086 
3011.000000	58.013129 
3010.000000	58.009743 
3009.000000	58.007431 
3008.000000	58.006834 
3007.000000	58.008670 
3006.000000	58.012843 
3005.000000	58.018231 
3004.000000	58.022713 
3003.000000	58.023428 
3002.000000	58.017563 
3001.000000	58.003115 
3000.000000	57.979464 
2999.000000	57.947540 
2998.000000	57.910203 
2997.000000	57.871246 
2996.000000	57.835149 
2995.000000	57.805871 
2994.000000	57.786083 
2993.000000	57.776951 
2992.000000	57.777547 
2991.000000	57.785415 
2990.000000	57.797002 
2989.000000	57.808494 
2988.000000	57.816505 
2987.000000	57.818627 
2986.000000	57.814168 
2985.000000	57.804203 
2984.000000	57.791376 
2983.000000	57.779216 
2982.000000	57.771515 
2981.000000	57.771301 
2980.000000	57.780361 
2979.000000	57.798266 
2978.000000	57.822751 
2977.000000	57.849574 
2976.000000	57.873678 
2975.000000	57.889723 
2974.000000	57.893466 
2973.000000	57.882571 
2972.000000	57.856941 
2971.000000	57.818937 
2970.000000	57.772874 
2969.000000	57.723975 
2968.000000	57.677721 
2967.000000	57.638359 
2966.000000	57.608461 
2965.000000	57.588267 
2964.000000	57.576251 
2963.000000	57.569408 
2962.000000	57.564091 
2961.000000	57.557082 
2960.000000	57.546067 
2959.000000	57.530498 
2958.000000	57.511472 
2957.000000	57.491207 
2956.000000	57.472348 
2955.000000	57.457423 
2954.000000	57.448124 
2953.000000	57.444763 
2952.000000	57.446289 
2951.000000	57.450556 
2950.000000	57.455015 
2949.000000	57.457160 
2948.000000	57.455348 
2947.000000	57.448959 
2946.000000	57.438659 
2945.000000	57.425761 
2944.000000	57.412195 
2943.000000	57.399916 
2942.000000	57.390260 
2941.000000	57.383847 
2940.000000	57.380318 
2939.000000	57.378554 
2938.000000	57.377028 
2937.000000	57.374453 
2936.000000	57.369709 
2935.000000	57.362127 
2934.000000	57.351469 
2933.000000	57.338094 
2932.000000	57.322335 
2931.000000	57.304286 
2930.000000	57.283759 
2929.000000	57.260584 
2928.000000	57.234573 
2927.000000	57.205963 
2926.000000	57.175827 
2925.000000	57.145929 
2924.000000	57.118654 
2923.000000	57.096624 
2922.000000	57.082152 
2921.000000	57.076621 
2920.000000	57.079839 
2919.000000	57.090234 
2918.000000	57.104802 
2917.000000	57.120060 
2916.000000	57.132792 
2915.000000	57.140874 
2914.000000	57.143592 
2913.000000	57.141804 
2912.000000	57.137680 
2911.000000	57.134079 
2910.000000	57.133460 
2909.000000	57.137680 
2908.000000	57.147359 
2907.000000	57.162094 
2906.000000	57.180690 
2905.000000	57.201337 
2904.000000	57.222080 
2903.000000	57.241129 
2902.000000	57.257199 
2901.000000	57.269263 
2900.000000	57.276487 
2899.000000	57.278418 
2898.000000	57.274627 
2897.000000	57.264876 
2896.000000	57.249116 
2895.000000	57.227993 
2894.000000	57.202577 
2893.000000	57.174777 
2892.000000	57.146739 
2891.000000	57.120680 
2890.000000	57.098150 
2889.000000	57.079696 
2888.000000	57.064700 
2887.000000	57.051253 
2886.000000	57.037019 
2885.000000	57.019829 
2884.000000	56.998682 
2883.000000	56.973862 
2882.000000	56.947565 
2881.000000	56.923365 
2880.000000	56.905508 
2879.000000	56.897640 
2878.000000	56.901955 
2877.000000	56.918382 
2876.000000	56.944704 
2875.000000	56.976795 
2874.000000	57.009601 
2873.000000	57.038092 
2872.000000	57.058358 
2871.000000	57.068061 
2870.000000	57.066345 
2869.000000	57.053613 
2868.000000	57.031106 
2867.000000	57.000303 
2866.000000	56.962728 
2865.000000	56.919765 
2864.000000	56.873011 
2863.000000	56.824421 
2862.000000	56.776547 
2861.000000	56.732106 
2860.000000	56.694006 
2859.000000	56.664538 
2858.000000	56.644749 
2857.000000	56.634235 
2856.000000	56.631112 
2855.000000	56.632637 
2854.000000	56.635642 
2853.000000	56.637859 
2852.000000	56.637954 
2851.000000	56.636285 
2850.000000	56.634235 
2849.000000	56.633996 
2848.000000	56.637883 
2847.000000	56.647706 
2846.000000	56.664371 
2845.000000	56.687545 
2844.000000	56.715655 
2843.000000	56.746172 
2842.000000	56.775736 
2841.000000	56.800675 
2840.000000	56.817698 
2839.000000	56.824469 
2838.000000	56.819963 
2837.000000	56.804895 
2836.000000	56.781601 
2835.000000	56.753492 
2834.000000	56.724548 
2833.000000	56.699061 
2832.000000	56.680059 
2831.000000	56.669235 
2830.000000	56.666374 
2829.000000	56.669831 
2828.000000	56.676959 
2827.000000	56.684803 
2826.000000	56.691026 
2825.000000	56.694412 
2824.000000	56.694936 
2823.000000	56.693792 
2822.000000	56.692695 
2821.000000	56.693196 
2820.000000	56.696295 
2819.000000	56.701850 
2818.000000	56.708717 
2817.000000	56.714820 
2816.000000	56.717777 
2815.000000	56.715512 
2814.000000	56.706643 
2813.000000	56.691098 
2812.000000	56.670260 
2811.000000	56.646871 
2810.000000	56.624174 
2809.000000	56.605410 
2808.000000	56.593298 
2807.000000	56.589150 
2806.000000	56.592679 
2805.000000	56.601524 
2804.000000	56.612062 
2803.000000	56.619906 
2802.000000	56.620812 
2801.000000	56.611895 
2800.000000	56.592106 
2799.000000	56.562805 
2798.000000	56.527400 
2797.000000	56.490707 
2796.000000	56.457710 
2795.000000	56.432604 
2794.000000	56.417822 
2793.000000	56.413722 
2792.000000	56.418633 
2791.000000	56.429338 
2790.000000	56.441879 
2789.000000	56.452178 
2788.000000	56.456971 
2787.000000	56.453967 
2786.000000	56.442594 
2785.000000	56.423401 
2784.000000	56.398487 
2783.000000	56.370425 
2782.000000	56.342101 
2781.000000	56.315994 
2780.000000	56.293702 
2779.000000	56.276106 
2778.000000	56.263113 
2777.000000	56.253910 
2776.000000	56.247353 
2775.000000	56.242465 
2774.000000	56.238508 
2773.000000	56.235194 
2772.000000	56.232666 
2771.000000	56.231236 
2770.000000	56.231379 
2769.000000	56.233549 
2768.000000	56.237864 
2767.000000	56.243944 
2766.000000	56.250977 
2765.000000	56.257772 
2764.000000	56.262946 
2763.000000	56.265354 
2762.000000	56.264138 
2761.000000	56.259155 
2760.000000	56.250834 
2759.000000	56.240129 
2758.000000	56.228184 
2757.000000	56.215929 
2756.000000	56.203985 
2755.000000	56.192564 
2754.000000	56.181502 
2753.000000	56.170701 
2752.000000	56.160140 
2751.000000	56.150269 
2750.000000	56.141948 
2749.000000	56.136298 
2748.000000	56.134533 
2747.000000	56.137275 
2746.000000	56.144356 
2745.000000	56.154417 
2744.000000	56.165122 
2743.000000	56.173443 
2742.000000	56.176137 
2741.000000	56.170415 
2740.000000	56.154561 
2739.000000	56.128168 
2738.000000	56.092453 
2737.000000	56.049847 
2736.000000	56.003856 
2735.000000	55.958485 
2734.000000	55.917644 
2733.000000	55.884504 
2732.000000	55.860900 
2731.000000	55.847263 
2730.000000	55.842590 
2729.000000	55.844497 
2728.000000	55.850124 
2727.000000	55.856513 
2726.000000	55.861425 
2725.000000	55.863523 
2724.000000	55.862760 
2723.000000	55.860185 
2722.000000	55.857324 
2721.000000	55.855727 
2720.000000	55.856370 
2719.000000	55.859375 
2718.000000	55.863857 
2717.000000	55.868220 
2716.000000	55.870580 
2715.000000	55.869460 
2714.000000	55.864119 
2713.000000	55.854654 
2712.000000	55.841898 
2711.000000	55.826950 
2710.000000	55.810689 
2709.000000	55.793666 
2708.000000	55.776023 
2707.000000	55.757808 
2706.000000	55.739259 
2705.000000	55.721020 
2704.000000	55.704474 
2703.000000	55.691313 
2702.000000	55.683469 
2701.000000	55.682229 
2700.000000	55.687904 
2699.000000	55.699396 
2698.000000	55.714225 
2697.000000	55.728864 
2696.000000	55.739569 
2695.000000	55.743026 
2694.000000	55.737161 
2693.000000	55.721402 
2692.000000	55.696868 
2691.000000	55.666160 
2690.000000	55.632662 
2689.000000	55.599784 
2688.000000	55.570673 
2687.000000	55.547451 
2686.000000	55.531167 
2685.000000	55.521607 
2684.000000	55.517625 
2683.000000	55.517244 
2682.000000	55.518388 
2681.000000	55.519247 
2680.000000	55.518579 
2679.000000	55.515742 
2678.000000	55.510807 
2677.000000	55.504250 
2676.000000	55.496954 
2675.000000	55.489540 
2674.000000	55.482339 
2673.000000	55.475282 
2672.000000	55.467748 
2671.000000	55.458950 
2670.000000	55.448055 
2669.000000	55.434536 
2668.000000	55.418181 
2667.000000	55.399298 
2666.000000	55.378794 
2665.000000	55.357742 
2664.000000	55.337500 
2663.000000	55.319237 
2662.000000	55.304121 
2661.000000	55.293250 
2660.000000	55.287337 
2659.000000	55.286717 
2658.000000	55.291152 
2657.000000	55.299663 
2656.000000	55.310535 
2655.000000	55.321407 
2654.000000	55.329275 
2653.000000	55.331158 
2652.000000	55.324554 
2651.000000	55.308055 
2650.000000	55.281877 
2649.000000	55.247712 
2648.000000	55.208778 
2647.000000	55.169177 
2646.000000	55.133008 
2645.000000	55.103778 
2644.000000	55.083775 
2643.000000	55.073833 
2642.000000	55.073237 
2641.000000	55.080223 
2640.000000	55.092453 
2639.000000	55.107307 
2638.000000	55.122303 
2637.000000	55.135321 
2636.000000	55.144500 
2635.000000	55.148506 
2634.000000	55.146336 
2633.000000	55.137610 
2632.000000	55.122470 
2631.000000	55.101823 
2630.000000	55.077147 
2629.000000	55.050635 
2628.000000	55.024576 
2627.000000	55.001306 
2626.000000	54.982709 
2625.000000	54.969835 
2624.000000	54.963159 
2623.000000	54.962611 
2622.000000	54.967713 
2621.000000	54.977989 
2620.000000	54.992842 
2619.000000	55.011653 
2618.000000	55.033636 
2617.000000	55.057525 
2616.000000	55.081486 
2615.000000	55.103015 
2614.000000	55.119299 
2613.000000	55.127763 
2612.000000	55.126237 
2611.000000	55.113530 
2610.000000	55.089783 
2609.000000	55.056381 
2608.000000	55.015921 
2607.000000	54.971647 
2606.000000	54.926919 
2605.000000	54.884743 
2604.000000	54.847311 
2603.000000	54.815864 
2602.000000	54.790854 
2601.000000	54.772114 
2600.000000	54.759168 
2599.000000	54.751467 
2598.000000	54.748249 
2597.000000	54.748845 
2596.000000	54.752373 
2595.000000	54.757690 
2594.000000	54.763031 
2593.000000	54.766464 
2592.000000	54.766082 
2591.000000	54.760336 
2590.000000	54.748344 
2589.000000	54.730415 
2588.000000	54.708361 
2587.000000	54.684877 
2586.000000	54.663228 
2585.000000	54.646158 
2584.000000	54.635453 
2583.000000	54.631257 
2582.000000	54.632139 
2581.000000	54.635620 
2580.000000	54.639053 
2579.000000	54.640412 
2578.000000	54.638719 
2577.000000	54.634070 
2576.000000	54.627323 
2575.000000	54.619622 
2574.000000	54.611802 
2573.000000	54.604077 
2572.000000	54.595756 
2571.000000	54.585719 
2570.000000	54.572558 
2569.000000	54.555153 
2568.000000	54.532766 
2567.000000	54.505634 
2566.000000	54.474639 
2565.000000	54.441356 
2564.000000	54.407811 
2563.000000	54.376053 
2562.000000	54.348039 
2561.000000	54.325032 
2560.000000	54.307889 
2559.000000	54.296779 
2558.000000	54.291415 
2557.000000	54.291129 
2556.000000	54.295063 
2555.000000	54.302191 
2554.000000	54.311490 
2553.000000	54.321694 
2552.000000	54.331588 
2551.000000	54.340004 
2550.000000	54.346108 
2549.000000	54.349303 
2548.000000	54.349446 
2547.000000	54.346489 
2546.000000	54.340434 
2545.000000	54.331350 
2544.000000	54.319334 
2543.000000	54.304814 
2542.000000	54.288578 
2541.000000	54.271888 
2540.000000	54.256510 
2539.000000	54.244089 
2538.000000	54.235816 
2537.000000	54.231810 
2536.000000	54.231071 
2535.000000	54.231405 
2534.000000	54.229998 
2533.000000	54.224157 
2532.000000	54.212117 
2531.000000	54.193735 
2530.000000	54.170465 
2529.000000	54.145097 
2528.000000	54.121065 
2527.000000	54.101109 
2526.000000	54.086685 
2525.000000	54.077363 
2524.000000	54.071116 
2523.000000	54.065132 
2522.000000	54.057025 
2521.000000	54.045486 
2520.000000	54.030728 
2519.000000	54.014420 
2518.000000	53.998851 
2517.000000	53.986096 
2516.000000	53.977179 
2515.000000	53.971552 
2514.000000	53.967308 
2513.000000	53.961873 
2512.000000	53.952980 
2511.000000	53.939533 
2510.000000	53.921937 
2509.000000	53.902173 
2508.000000	53.883218 
2507.000000	53.867983 
2506.000000	53.858470 
2505.000000	53.854942 
2504.000000	53.856253 
2503.000000	53.860211 
2502.000000	53.864288 
2501.000000	53.866291 
2500.000000	53.864908 
2499.000000	53.859686 
2498.000000	53.850960 
2497.000000	53.839325 
2496.000000	53.825473 
2495.000000	53.809809 
2494.000000	53.792977 
2493.000000	53.775572 
2492.000000	53.758645 
2491.000000	53.743553 
2490.000000	53.731966 
2489.000000	53.725361 
2488.000000	53.724718 
2487.000000	53.730034 
2486.000000	53.740310 
2485.000000	53.753376 
2484.000000	53.766655 
2483.000000	53.777408 
2482.000000	53.783369 
2481.000000	53.782916 
2480.000000	53.775405 
2479.000000	53.760790 
2478.000000	53.739595 
2477.000000	53.712821 
2476.000000	53.681850 
2475.000000	53.648638 
2474.000000	53.615450 
2473.000000	53.585076 
2472.000000	53.560400 
2471.000000	53.543877 
2470.000000	53.536987 
2469.000000	53.539776 
2468.000000	53.550410 
2467.000000	53.565549 
2466.000000	53.580737 
2465.000000	53.591418 
2464.000000	53.594017 
2463.000000	53.586721 
2462.000000	53.569960 
2461.000000	53.546261 
2460.000000	53.519320 
2459.000000	53.493189 
2458.000000	53.470945 
2457.000000	53.454232 
2456.000000	53.442668 
2455.000000	53.434443 
2454.000000	53.426814 
2453.000000	53.417277 
2452.000000	53.404259 
2451.000000	53.387665 
2450.000000	53.368473 
2449.000000	53.348302 
2448.000000	53.328609 
2447.000000	53.310084 
2446.000000	53.292775 
2445.000000	53.276038 
2444.000000	53.259301 
2443.000000	53.242325 
2442.000000	53.225922 
2441.000000	53.211832 
2440.000000	53.202557 
2439.000000	53.200316 
2438.000000	53.206443 
2437.000000	53.220367 
2436.000000	53.239631 
2435.000000	53.260016 
2434.000000	53.276252 
2433.000000	53.283333 
2432.000000	53.277397 
2431.000000	53.256940 
2430.000000	53.222894 
2429.000000	53.178977 
2428.000000	53.130817 
2427.000000	53.085255 
2426.000000	53.049063 
2425.000000	53.027558 
2424.000000	53.023982 
2423.000000	53.038024 
2422.000000	53.066062 
2421.000000	53.101468 
2420.000000	53.135871 
2419.000000	53.160929 
2418.000000	53.170013 
2417.000000	53.159785 
2416.000000	53.130674 
2415.000000	53.086829 
2414.000000	53.034996 
2413.000000	52.983093 
2412.000000	52.938055 
2411.000000	52.904748 
2410.000000	52.884769 
2409.000000	52.876710 
2408.000000	52.876925 
2407.000000	52.880978 
2406.000000	52.884721 
2405.000000	52.885437 
2404.000000	52.882361 
2403.000000	52.875900 
2402.000000	52.867770 
2401.000000	52.859234 
2400.000000	52.851510 
2399.000000	52.845215 
2398.000000	52.840375 
2397.000000	52.836990 
2396.000000	52.834653 
2395.000000	52.832913 
2394.000000	52.831029 
2393.000000	52.828168 
2392.000000	52.823233 
2391.000000	52.815151 
2390.000000	52.802991 
2389.000000	52.786326 
2388.000000	52.765440 
2387.000000	52.741456 
2386.000000	52.716112 
2385.000000	52.691316 
2384.000000	52.668666 
2383.000000	52.649140 
2382.000000	52.632951 
2381.000000	52.619838 
2380.000000	52.608895 
2379.000000	52.599310 
2378.000000	52.590870 
2377.000000	52.583885 
2376.000000	52.578926 
2375.000000	52.576780 
2374.000000	52.577781 
2373.000000	52.581691 
2372.000000	52.587628 
2371.000000	52.594304 
2370.000000	52.600049 
2369.000000	52.603244 
2368.000000	52.602601 
2367.000000	52.597332 
2366.000000	52.587199 
2365.000000	52.572441 
2364.000000	52.553582 
2363.000000	52.531385 
2362.000000	52.506852 
2361.000000	52.481150 
2360.000000	52.455568 
2359.000000	52.431678 
2358.000000	52.410912 
2357.000000	52.394556 
2356.000000	52.383351 
2355.000000	52.377343 
2354.000000	52.375936 
2353.000000	52.377796 
2352.000000	52.381420 
2351.000000	52.385210 
2350.000000	52.387881 
2349.000000	52.388644 
2348.000000	52.387142 
2347.000000	52.383184 
2346.000000	52.376961 
2345.000000	52.368497 
2344.000000	52.357697 
2343.000000	52.344536 
2342.000000	52.328968 
2341.000000	52.311277 
2340.000000	52.292108 
2339.000000	52.272701 
2338.000000	52.254366 
2337.000000	52.238416 
2336.000000	52.225732 
2335.000000	52.216482 
2334.000000	52.210044 
2333.000000	52.205300 
2332.000000	52.200698 
2331.000000	52.194690 
2330.000000	52.186155 
2329.000000	52.174568 
2328.000000	52.160191 
2327.000000	52.143883 
2326.000000	52.126979 
2325.000000	52.111005 
2324.000000	52.097153 
2323.000000	52.086162 
2322.000000	52.078247 
2321.000000	52.073025 
2320.000000	52.069592 
2319.000000	52.066898 
2318.000000	52.063870 
2317.000000	52.059721 
2316.000000	52.054214 
2315.000000	52.047491 
2314.000000	52.040481 
2313.000000	52.034139 
2312.000000	52.029347 
2311.000000	52.026128 
2310.000000	52.023601 
2309.000000	52.019786 
2308.000000	52.012252 
2307.000000	51.998615 
2306.000000	51.977467 
2305.000000	51.948881 
2304.000000	51.914763 
2303.000000	51.878523 
2302.000000	51.844263 
2301.000000	51.815748 
2300.000000	51.795721 
2299.000000	51.784920 
2298.000000	51.782250 
2297.000000	51.785039 
2296.000000	51.789689 
2295.000000	51.793003 
2294.000000	51.792860 
2293.000000	51.788687 
2292.000000	51.781463 
2291.000000	51.772975 
2290.000000	51.765179 
2289.000000	51.759362 
2288.000000	51.755714 
2287.000000	51.753020 
2286.000000	51.749181 
2285.000000	51.742005 
2284.000000	51.729798 
2283.000000	51.711893 
2282.000000	51.689004 
2281.000000	51.662945 
2280.000000	51.636338 
2279.000000	51.611924 
2278.000000	51.591658 
2277.000000	51.576614 
2276.000000	51.566648 
2275.000000	51.560664 
2274.000000	51.556944 
2273.000000	51.553678 
2272.000000	51.549339 
2271.000000	51.543045 
2270.000000	51.534485 
2269.000000	51.524162 
2268.000000	51.512765 
2267.000000	51.501250 
2266.000000	51.490449 
2265.000000	51.480913 
2264.000000	51.472902 
2263.000000	51.466155 
2262.000000	51.460385 
2261.000000	51.455187 
2260.000000	51.450276 
2259.000000	51.445412 
2258.000000	51.440644 
2257.000000	51.436114 
2256.000000	51.431894 
2255.000000	51.427960 
2254.000000	51.423954 
2253.000000	51.419258 
2252.000000	51.413130 
2251.000000	51.404833 
2250.000000	51.393795 
2249.000000	51.379895 
2248.000000	51.363611 
2247.000000	51.345705 
2246.000000	51.327371 
2245.000000	51.309680 
2244.000000	51.293683 
2243.000000	51.279783 
2242.000000	51.268100 
2241.000000	51.258301 
2240.000000	51.249980 
2239.000000	51.242828 
2238.000000	51.236677 
2237.000000	51.231575 
2236.000000	51.227712 
2235.000000	51.225042 
2234.000000	51.223015 
2233.000000	51.220488 
2232.000000	51.215648 
2231.000000	51.206564 
2230.000000	51.191568 
2229.000000	51.169705 
2228.000000	51.141119 
2227.000000	51.107311 
2226.000000	51.070618 
2225.000000	51.033926 
2224.000000	51.000046 
2223.000000	50.970983 
2222.000000	50.947856 
2221.000000	50.930666 
2220.000000	50.918555 
2219.000000	50.910329 
2218.000000	50.904631 
2217.000000	50.900483 
2216.000000	50.897336 
2215.000000	50.895357 
2214.000000	50.894713 
2213.000000	50.896024 
2212.000000	50.899314 
2211.000000	50.904726 
2210.000000	50.911760 
2209.000000	50.919818 
2208.000000	50.928139 
2207.000000	50.935840 
2206.000000	50.941991 
2205.000000	50.945758 
2204.000000	50.946354 
2203.000000	50.943255 
2202.000000	50.936174 
2201.000000	50.925183 
2200.000000	50.910663 
2199.000000	50.893235 
2198.000000	50.873565 
2197.000000	50.852346 
2196.000000	50.830388 
2195.000000	50.808405 
2194.000000	50.787067 
2193.000000	50.767135 
2192.000000	50.749397 
2191.000000	50.734162 
2190.000000	50.721454 
2189.000000	50.710797 
2188.000000	50.701475 
2187.000000	50.692534 
2186.000000	50.683331 
2185.000000	50.673365 
2184.000000	50.662827 
2183.000000	50.652408 
2182.000000	50.643229 
2181.000000	50.636219 
2180.000000	50.631880 
2179.000000	50.630021 
2178.000000	50.629448 
2177.000000	50.628161 
2176.000000	50.623989 
2175.000000	50.615096 
2174.000000	50.600600 
2173.000000	50.580739 
2172.000000	50.556921 
2171.000000	50.531244 
2170.000000	50.506114 
2169.000000	50.483608 
2168.000000	50.465059 
2167.000000	50.450897 
2166.000000	50.440692 
2165.000000	50.433468 
2164.000000	50.427746 
2163.000000	50.422143 
2162.000000	50.415587 
2161.000000	50.407409 
2160.000000	50.397396 
2159.000000	50.385546 
2158.000000	50.372076 
2157.000000	50.356984 
2156.000000	50.340223 
2155.000000	50.321483 
2154.000000	50.300502 
2153.000000	50.277042 
2152.000000	50.251197 
2151.000000	50.223517 
2150.000000	50.195121 
2149.000000	50.167798 
2148.000000	50.143599 
2147.000000	50.124764 
2146.000000	50.112986 
2145.000000	50.108981 
2144.000000	50.112318 
2143.000000	50.121235 
2142.000000	50.132966 
2141.000000	50.144386 
2140.000000	50.152754 
2139.000000	50.156211 
2138.000000	50.154304 
2137.000000	50.147676 
2136.000000	50.137758 
2135.000000	50.126361 
2134.000000	50.115132 
2133.000000	50.105023 
2132.000000	50.095987 
2131.000000	50.087475 
2130.000000	50.078344 
2129.000000	50.067782 
2128.000000	50.055098 
2127.000000	50.040435 
2126.000000	50.024342 
2125.000000	50.007653 
2124.000000	49.991345 
2123.000000	49.976038 
2122.000000	49.961996 
2121.000000	49.949026 
2120.000000	49.936914 
2119.000000	49.925470 
2118.000000	49.914813 
2117.000000	49.905276 
2116.000000	49.897360 
2115.000000	49.891853 
2114.000000	49.889254 
2113.000000	49.889612 
2112.000000	49.892401 
2111.000000	49.896574 
2110.000000	49.900865 
2109.000000	49.903798 
2108.000000	49.903893 
2107.000000	49.899721 
2106.000000	49.890160 
2105.000000	49.874472 
2104.000000	49.852371 
2103.000000	49.824309 
2102.000000	49.791669 
2101.000000	49.756526 
2100.000000	49.721813 
2099.000000	49.690556 
2098.000000	49.665403 
2097.000000	49.648237 
2096.000000	49.639797 
2095.000000	49.639701 
2094.000000	49.646615 
2093.000000	49.658894 
2092.000000	49.674868 
2091.000000	49.693322 
2090.000000	49.713397 
2089.000000	49.734497 
2088.000000	49.755954 
2087.000000	49.776625 
2086.000000	49.794435 
2085.000000	49.806833 
2084.000000	49.810886 
2083.000000	49.804377 
2082.000000	49.786090 
2081.000000	49.756813 
2080.000000	49.718809 
2079.000000	49.676156 
2078.000000	49.633359 
2077.000000	49.594831 
2076.000000	49.563837 
2075.000000	49.542236 
2074.000000	49.530005 
2073.000000	49.525690 
2072.000000	49.526643 
2071.000000	49.529957 
2070.000000	49.532794 
2069.000000	49.533128 
2068.000000	49.529933 
2067.000000	49.523067 
2066.000000	49.513292 
2065.000000	49.501729 
2064.000000	49.489736 
2063.000000	49.478435 
2062.000000	49.468445 
2061.000000	49.459695 
2060.000000	49.451661 
2059.000000	49.443173 
2058.000000	49.432778 
2057.000000	49.418854 
2056.000000	49.400401 
2055.000000	49.376869 
2054.000000	49.348497 
2053.000000	49.316143 
2052.000000	49.281406 
2051.000000	49.246144 
2050.000000	49.212384 
2049.000000	49.181723 
2048.000000	49.155354 
2047.000000	49.133992 
2046.000000	49.117684 
2045.000000	49.106287 
2044.000000	49.099183 
2043.000000	49.095654 
2042.000000	49.094915 
2041.000000	49.095940 
2040.000000	49.097704 
2039.000000	49.099087 
2038.000000	49.098873 
2037.000000	49.096155 
2036.000000	49.090433 
2035.000000	49.081659 
2034.000000	49.070334 
2033.000000	49.057364 
2032.000000	49.043607 
2031.000000	49.029946 
2030.000000	49.016785 
2029.000000	49.003958 
2028.000000	48.991012 
2027.000000	48.977303 
2026.000000	48.962354 
2025.000000	48.946022 
2024.000000	48.928761 
2023.000000	48.911452 
2022.000000	48.895359 
2021.000000	48.881673 
2020.000000	48.871040 
2019.000000	48.863506 
2018.000000	48.858284 
2017.000000	48.854017 
2016.000000	48.849058 
2015.000000	48.841953 
2014.000000	48.831939 
2013.000000	48.818969 
2012.000000	48.803734 
2011.000000	48.787403 
2010.000000	48.771286 
2009.000000	48.756504 
2008.000000	48.743557 
2007.000000	48.732399 
2006.000000	48.722815 
2005.000000	48.714709 
2004.000000	48.708152 
2003.000000	48.703765 
2002.000000	48.702526 
2001.000000	48.705339 
2000.000000	48.712563 
1999.000000	48.723578 
1998.000000	48.736476 
1997.000000	48.748469 
1996.000000	48.756146 
1995.000000	48.756337 
1994.000000	48.746943 
1993.000000	48.727416 
1992.000000	48.699235 
1991.000000	48.665308 
1990.000000	48.629379 
1989.000000	48.595046 
1988.000000	48.565077 
1987.000000	48.540735 
1986.000000	48.521733 
1985.000000	48.506665 
1984.000000	48.493599 
1983.000000	48.480725 
1982.000000	48.467111 
1981.000000	48.452687 
1980.000000	48.438334 
1979.000000	48.425126 
1978.000000	48.413920 
1977.000000	48.404741 
1976.000000	48.396706 
1975.000000	48.388195 
1974.000000	48.377346 
1973.000000	48.362517 
1972.000000	48.343086 
1971.000000	48.319530 
1970.000000	48.293638 
1969.000000	48.267698 
1968.000000	48.244452 
1967.000000	48.226189 
1966.000000	48.214459 
1965.000000	48.209524 
1964.000000	48.210477 
1963.000000	48.215413 
1962.000000	48.221898 
1961.000000	48.227429 
1960.000000	48.229765 
1959.000000	48.227405 
1958.000000	48.219680 
1957.000000	48.206925 
1956.000000	48.190093 
1955.000000	48.170566 
1954.000000	48.150014 
1953.000000	48.129892 
1952.000000	48.111581 
1951.000000	48.095965 
1950.000000	48.083448 
1949.000000	48.073863 
1948.000000	48.066711 
1947.000000	48.061013 
1946.000000	48.055744 
1945.000000	48.049712 
1944.000000	48.042035 
1943.000000	48.032188 
1942.000000	48.019886 
1941.000000	48.005390 
1940.000000	47.989130 
1939.000000	47.972059 
1938.000000	47.955155 
1937.000000	47.939276 
1936.000000	47.925233 
1935.000000	47.913479 
1934.000000	47.904324 
1933.000000	47.897768 
1932.000000	47.893452 
1931.000000	47.890710 
1930.000000	47.888517 
1929.000000	47.885751 
1928.000000	47.880959 
1927.000000	47.872972 
1926.000000	47.860741 
1925.000000	47.843766 
1924.000000	47.822284 
1923.000000	47.797250 
1922.000000	47.770190 
1921.000000	47.742891 
1920.000000	47.717142 
1919.000000	47.694301 
1918.000000	47.674965 
1917.000000	47.659015 
1916.000000	47.645616 
1915.000000	47.633552 
1914.000000	47.621583 
1913.000000	47.608685 
1912.000000	47.594380 
1911.000000	47.578763 
1910.000000	47.562408 
1909.000000	47.545909 
1908.000000	47.529840 
1907.000000	47.514438 
1906.000000	47.499489 
1905.000000	47.484469 
1904.000000	47.468733 
1903.000000	47.451877 
1902.000000	47.434020 
1901.000000	47.415828 
1900.000000	47.398304 
1899.000000	47.382473 
1898.000000	47.369265 
1897.000000	47.359061 
1896.000000	47.351551 
1895.000000	47.345733 
1894.000000	47.340297 
1893.000000	47.333955 
1892.000000	47.325754 
1891.000000	47.315597 
1890.000000	47.304034 
1889.000000	47.292447 
1888.000000	47.282290 
1887.000000	47.275090 
1886.000000	47.271752 
1885.000000	47.272515 
1884.000000	47.276711 
1883.000000	47.283244 
1882.000000	47.290802 
1881.000000	47.298049 
1880.000000	47.303891 
1879.000000	47.307419 
1878.000000	47.307825 
1877.000000	47.304248 
1876.000000	47.295951 
1875.000000	47.282147 
1874.000000	47.262358 
1873.000000	47.236728 
1872.000000	47.206282 
1871.000000	47.172832 
1870.000000	47.138833 
1869.000000	47.107005 
1868.000000	47.079539 
1867.000000	47.057795 
1866.000000	47.041916 
1865.000000	47.030758 
1864.000000	47.022557 
1863.000000	47.015237 
1862.000000	47.007250 
1861.000000	46.997857 
1860.000000	46.987223 
1859.000000	46.976232 
1858.000000	46.965980 
1857.000000	46.957159 
1856.000000	46.949863 
1855.000000	46.943378 
1854.000000	46.936583 
1853.000000	46.928191 
1852.000000	46.917438 
1851.000000	46.904325 
1850.000000	46.889758 
1849.000000	46.875214 
1848.000000	46.862292 
1847.000000	46.852111 
1846.000000	46.844840 
1845.000000	46.839547 
1844.000000	46.834540 
1843.000000	46.827745 
1842.000000	46.817421 
1841.000000	46.802711 
1840.000000	46.783995 
1839.000000	46.762895 
1838.000000	46.741580 
1837.000000	46.722531 
1836.000000	46.707653 
1835.000000	46.698069 
1834.000000	46.693658 
1833.000000	46.693301 
1832.000000	46.695160 
1831.000000	46.697068 
1830.000000	46.697282 
1829.000000	46.694684 
1828.000000	46.689009 
1827.000000	46.680808 
1826.000000	46.671080 
1825.000000	46.661019 
1824.000000	46.651625 
1823.000000	46.643519 
1822.000000	46.636986 
1821.000000	46.632075 
1820.000000	46.628737 
1819.000000	46.626996 
1818.000000	46.626687 
1817.000000	46.627187 
1816.000000	46.627354 
1815.000000	46.625471 
1814.000000	46.619272 
1813.000000	46.606588 
1812.000000	46.585774 
1811.000000	46.556329 
1810.000000	46.519351 
1809.000000	46.477603 
1808.000000	46.435117 
1807.000000	46.396517 
1806.000000	46.365976 
1805.000000	46.346378 
1804.000000	46.338796 
1803.000000	46.342039 
1802.000000	46.353292 
1801.000000	46.368718 
1800.000000	46.384191 
1799.000000	46.396350 
1798.000000	46.403050 
1797.000000	46.403479 
1796.000000	46.397972 
1795.000000	46.387672 
1794.000000	46.374058 
1793.000000	46.358609 
1792.000000	46.342515 
1791.000000	46.326470 
1790.000000	46.310806 
1789.000000	46.295452 
1788.000000	46.280121 
1787.000000	46.264481 
1786.000000	46.248197 
1785.000000	46.230959 
1784.000000	46.212482 
1783.000000	46.192717 
1782.000000	46.171784 
1781.000000	46.149921 
1780.000000	46.127581 
1779.000000	46.105289 
1778.000000	46.083688 
1777.000000	46.063303 
1776.000000	46.044635 
1775.000000	46.027970 
1774.000000	46.013236 
1773.000000	46.000242 
1772.000000	45.988702 
1771.000000	45.978188 
1770.000000	45.968389 
1769.000000	45.958852 
1768.000000	45.949101 
1767.000000	45.938777 
1766.000000	45.927691 
1765.000000	45.915770 
1764.000000	45.903015 
1763.000000	45.889496 
1762.000000	45.875573 
1761.000000	45.861577 
1760.000000	45.847988 
1759.000000	45.835328 
1758.000000	45.823860 
1757.000000	45.813488 
1756.000000	45.803952 
1755.000000	45.794129 
1754.000000	45.782971 
1753.000000	45.769238 
1752.000000	45.752239 
1751.000000	45.731973 
1750.000000	45.709300 
1749.000000	45.685887 
1748.000000	45.663642 
1747.000000	45.643949 
1746.000000	45.627236 
1745.000000	45.612955 
1744.000000	45.599436 
1743.000000	45.584177 
1742.000000	45.564985 
1741.000000	45.540690 
1740.000000	45.511460 
1739.000000	45.479106 
1738.000000	45.446538 
1737.000000	45.417141 
1736.000000	45.393657 
1735.000000	45.377445 
1734.000000	45.368146 
1733.000000	45.363688 
1732.000000	45.361113 
1731.000000	45.357370 
1730.000000	45.350432 
1729.000000	45.339536 
1728.000000	45.325207 
1727.000000	45.309042 
1726.000000	45.292806 
1725.000000	45.278167 
1724.000000	45.265984 
1723.000000	45.256471 
1722.000000	45.249128 
1721.000000	45.243501 
1720.000000	45.239448 
1719.000000	45.237636 
1718.000000	45.239329 
1717.000000	45.246219 
1716.000000	45.259714 
1715.000000	45.280361 
1714.000000	45.307350 
1713.000000	45.338368 
1712.000000	45.369839 
1711.000000	45.397448 
1710.000000	45.417094 
1709.000000	45.425605 
1708.000000	45.421624 
1707.000000	45.405650 
1706.000000	45.380234 
1705.000000	45.349216 
1704.000000	45.316910 
1703.000000	45.287489 
1702.000000	45.263671 
1701.000000	45.246577 
1700.000000	45.235323 
1699.000000	45.227503 
1698.000000	45.219969 
1697.000000	45.209717 
1696.000000	45.194721 
1695.000000	45.174336 
1694.000000	45.149660 
1693.000000	45.123028 
1692.000000	45.097303 
1691.000000	45.075106 
1690.000000	45.058226 
1689.000000	45.047044 
1688.000000	45.040559 
1687.000000	45.036578 
1686.000000	45.032405 
1685.000000	45.025777 
1684.000000	45.015096 
1683.000000	44.999980 
1682.000000	44.981360 
1681.000000	44.960951 
1680.000000	44.940829 
1679.000000	44.922828 
1678.000000	44.908022 
1677.000000	44.896531 
1676.000000	44.887423 
1675.000000	44.879150 
1674.000000	44.869923 
1673.000000	44.857931 
1672.000000	44.842195 
1671.000000	44.822502 
1670.000000	44.799232 
1669.000000	44.773459 
1668.000000	44.746565 
1667.000000	44.719886 
1666.000000	44.694447 
1665.000000	44.670915 
1664.000000	44.649529 
1663.000000	44.630074 
1662.000000	44.612145 
1661.000000	44.595313 
1660.000000	44.579267 
1659.000000	44.563889 
1658.000000	44.549536 
1657.000000	44.536733 
1656.000000	44.526362 
1655.000000	44.519281 
1654.000000	44.516253 
1653.000000	44.517660 
1652.000000	44.523215 
1651.000000	44.531965 
1650.000000	44.542098 
1649.000000	44.551515 
1648.000000	44.557762 
1647.000000	44.558596 
1646.000000	44.552397 
1645.000000	44.538450 
1644.000000	44.517183 
1643.000000	44.489932 
1642.000000	44.458842 
1641.000000	44.426441 
1640.000000	44.395279 
1639.000000	44.367265 
1638.000000	44.343709 
1637.000000	44.325256 
1636.000000	44.311714 
1635.000000	44.302487 
1634.000000	44.296765 
1633.000000	44.293618 
1632.000000	44.292163 
1631.000000	44.291543 
1630.000000	44.290828 
1629.000000	44.289112 
1628.000000	44.285511 
1627.000000	44.279479 
1626.000000	44.270730 
1625.000000	44.259524 
1624.000000	44.246554 
1623.000000	44.232773 
1622.000000	44.219446 
1621.000000	44.207572 
1620.000000	44.197869 
1619.000000	44.190621 
1618.000000	44.185447 
1617.000000	44.181776 
1616.000000	44.178938 
1615.000000	44.176530 
1614.000000	44.174289 
1613.000000	44.172167 
1612.000000	44.170355 
1611.000000	44.168782 
1610.000000	44.167137 
1609.000000	44.164562 
1608.000000	44.159770 
1607.000000	44.151401 
1606.000000	44.138145 
1605.000000	44.119262 
1604.000000	44.094944 
1603.000000	44.066238 
1602.000000	44.035005 
1601.000000	44.003558 
1600.000000	43.974375 
1599.000000	43.949389 
1598.000000	43.929767 
1597.000000	43.915772 
1596.000000	43.906569 
1595.000000	43.900537 
1594.000000	43.895554 
1593.000000	43.889379 
1592.000000	43.879985 
1591.000000	43.866062 
1590.000000	43.846964 
1589.000000	43.822908 
1588.000000	43.794870 
1587.000000	43.764448 
1586.000000	43.733263 
1585.000000	43.702673 
1584.000000	43.673563 
1583.000000	43.646240 
1582.000000	43.620467 
1581.000000	43.595695 
1580.000000	43.571448 
1579.000000	43.547630 
1578.000000	43.524694 
1577.000000	43.503713 
1576.000000	43.486070 
1575.000000	43.473076 
1574.000000	43.465685 
1573.000000	43.464088 
1572.000000	43.467259 
1571.000000	43.473315 
1570.000000	43.479514 
1569.000000	43.482875 
1568.000000	43.480920 
1567.000000	43.472290 
1566.000000	43.456864 
1565.000000	43.436074 
1564.000000	43.412590 
1563.000000	43.389892 
1562.000000	43.371462 
1561.000000	43.360161 
1560.000000	43.357515 
1559.000000	43.363642 
1558.000000	43.377137 
1557.000000	43.395590 
1556.000000	43.415999 
1555.000000	43.435525 
1554.000000	43.451952 
1553.000000	43.464064 
1552.000000	43.471431 
1551.000000	43.473982 
1550.000000	43.471646 
1549.000000	43.464231 
1548.000000	43.451356 
1547.000000	43.432617 
1546.000000	43.407654 
1545.000000	43.377089 
1544.000000	43.342447 
1543.000000	43.306159 
1542.000000	43.271112 
1541.000000	43.240261 
1540.000000	43.215942 
1539.000000	43.199205 
1538.000000	43.189716 
1537.000000	43.185639 
1536.000000	43.184065 
1535.000000	43.182015 
1534.000000	43.176507 
1533.000000	43.165516 
1532.000000	43.147993 
1531.000000	43.123865 
1530.000000	43.094110 
1529.000000	43.060207 
1528.000000	43.024134 
1527.000000	42.988204 
1526.000000	42.954683 
1525.000000	42.925810 
1524.000000	42.903470 
1523.000000	42.889070 
1522.000000	42.883014 
1521.000000	42.884731 
1520.000000	42.892551 
1519.000000	42.904233 
1518.000000	42.916893 
1517.000000	42.928028 
1516.000000	42.935609 
1515.000000	42.938876 
1514.000000	42.938065 
1513.000000	42.934226 
1512.000000	42.928719 
1511.000000	42.922520 
1510.000000	42.916393 
1509.000000	42.910289 
1508.000000	42.903494 
1507.000000	42.895150 
1506.000000	42.884850 
1505.000000	42.872714 
1504.000000	42.859625 
1503.000000	42.846918 
1502.000000	42.836093 
1501.000000	42.828249 
1500.000000	42.823553 
1499.000000	42.821264 
1498.000000	42.819595 
1497.000000	42.816305 
1496.000000	42.809081 
1495.000000	42.796349 
1494.000000	42.777395 
1493.000000	42.752718 
1492.000000	42.723679 
1491.000000	42.692208 
1490.000000	42.660546 
1489.000000	42.630720 
1488.000000	42.604637 
1487.000000	42.583441 
1486.000000	42.567968 
1485.000000	42.558574 
1484.000000	42.555212 
1483.000000	42.557287 
1482.000000	42.563748 
1481.000000	42.573142 
1480.000000	42.583513 
1479.000000	42.592835 
1478.000000	42.598891 
1477.000000	42.599701 
1476.000000	42.593836 
1475.000000	42.580652 
1474.000000	42.560577 
1473.000000	42.534804 
1472.000000	42.505240 
1471.000000	42.474055 
1470.000000	42.443370 
1469.000000	42.414784 
1468.000000	42.389273 
1467.000000	42.367029 
1466.000000	42.347812 
1465.000000	42.330884 
1464.000000	42.315506 
1463.000000	42.301082 
1462.000000	42.287254 
1461.000000	42.273879 
1460.000000	42.260861 
1459.000000	42.248201 
1458.000000	42.235636 
1457.000000	42.223238 
1456.000000	42.211008 
1455.000000	42.199683 
1454.000000	42.190599 
1453.000000	42.185640 
1452.000000	42.186951 
1451.000000	42.195868 
1450.000000	42.212605 
1449.000000	42.235326 
1448.000000	42.260384 
1447.000000	42.282772 
1446.000000	42.297053 
1445.000000	42.298579 
1444.000000	42.284560 
1443.000000	42.254853 
1442.000000	42.212033 
1441.000000	42.161035 
1440.000000	42.108058 
1439.000000	42.059516 
1438.000000	42.020511 
1437.000000	41.994309 
1436.000000	41.981530 
1435.000000	41.980433 
1434.000000	41.987252 
1433.000000	41.997337 
1432.000000	42.006254 
1431.000000	42.010378 
1430.000000	42.007780 
1429.000000	41.998004 
1428.000000	41.982364 
1427.000000	41.963076 
1426.000000	41.942906 
1425.000000	41.924309 
1424.000000	41.908764 
1423.000000	41.896867 
1422.000000	41.887927 
1421.000000	41.880631 
1420.000000	41.873145 
1419.000000	41.863965 
1418.000000	41.851925 
1417.000000	41.836619 
1416.000000	41.818428 
1415.000000	41.798377 
1414.000000	41.777539 
1413.000000	41.757059 
1412.000000	41.737890 
1411.000000	41.720867 
1410.000000	41.706657 
1409.000000	41.695499 
1408.000000	41.687440 
1407.000000	41.682147 
1406.000000	41.679072 
1405.000000	41.677093 
1404.000000	41.674590 
1403.000000	41.669559 
1402.000000	41.659808 
1401.000000	41.643667 
1400.000000	41.620635 
1399.000000	41.591405 
1398.000000	41.558122 
1397.000000	41.523885 
1396.000000	41.492271 
1395.000000	41.466283 
1394.000000	41.447877 
1393.000000	41.437339 
1392.000000	41.433167 
1391.000000	41.432356 
1390.000000	41.431331 
1389.000000	41.426253 
1388.000000	41.414046 
1387.000000	41.393017 
1386.000000	41.363215 
1385.000000	41.326355 
1384.000000	41.285753 
1383.000000	41.245388 
1382.000000	41.209244 
1381.000000	41.180753 
1380.000000	41.162014 
1379.000000	41.153573 
1378.000000	41.154265 
1377.000000	41.161489 
1376.000000	41.171908 
1375.000000	41.181850 
1374.000000	41.188311 
1373.000000	41.188979 
1372.000000	41.183090 
1371.000000	41.170978 
1370.000000	41.154074 
1369.000000	41.134238 
1368.000000	41.113638 
1367.000000	41.094136 
1366.000000	41.077256 
1365.000000	41.064023 
1364.000000	41.055178 
1363.000000	41.051101 
1362.000000	41.051650 
1361.000000	41.056132 
1360.000000	41.063141 
1359.000000	41.070532 
1358.000000	41.075658 
1357.000000	41.075611 
1356.000000	41.067814 
1355.000000	41.050553 
1354.000000	41.023492 
1353.000000	40.987992 
1352.000000	40.946865 
1351.000000	40.904331 
1350.000000	40.864562 
1349.000000	40.831470 
1348.000000	40.807819 
1347.000000	40.794825 
1346.000000	40.791988 
1345.000000	40.797400 
1344.000000	40.808272 
1343.000000	40.821409 
1342.000000	40.834116 
1341.000000	40.844178 
1340.000000	40.850043 
1339.000000	40.850853 
1338.000000	40.846323 
1337.000000	40.836548 
1336.000000	40.821838 
1335.000000	40.802860 
1334.000000	40.780520 
1333.000000	40.756082 
1332.000000	40.731000 
1331.000000	40.706872 
1330.000000	40.684962 
1329.000000	40.666174 
1328.000000	40.650916 
1327.000000	40.639019 
1326.000000	40.629911 
1325.000000	40.622949 
1324.000000	40.617704 
1323.000000	40.613842 
1322.000000	40.611338 
1321.000000	40.610265 
1320.000000	40.610504 
1319.000000	40.611457 
1318.000000	40.611934 
1317.000000	40.610289 
1316.000000	40.604662 
1315.000000	40.593314 
1314.000000	40.575194 
1313.000000	40.550255 
1312.000000	40.519523 
1311.000000	40.485000 
1310.000000	40.449237 
1309.000000	40.414810 
1308.000000	40.384030 
1307.000000	40.358519 
1306.000000	40.338993 
1305.000000	40.325498 
1304.000000	40.317630 
1303.000000	40.314841 
1302.000000	40.316390 
1301.000000	40.321707 
1300.000000	40.330100 
1299.000000	40.340662 
1298.000000	40.352010 
1297.000000	40.362405 
1296.000000	40.369653 
1295.000000	40.371608 
1294.000000	40.366554 
1293.000000	40.353441 
1292.000000	40.332293 
1291.000000	40.304279 
1290.000000	40.271520 
1289.000000	40.236878 
1288.000000	40.203404 
1287.000000	40.173840 
1286.000000	40.150094 
1285.000000	40.133357 
1284.000000	40.123987 
1283.000000	40.121340 
1282.000000	40.124058 
1281.000000	40.130138 
1280.000000	40.137386 
1279.000000	40.143370 
1278.000000	40.145897 
1277.000000	40.142893 
1276.000000	40.133261 
1275.000000	40.116572 
1274.000000	40.093517 
1273.000000	40.065598 
1272.000000	40.035104 
1271.000000	40.004611 
1270.000000	39.976739 
1269.000000	39.953851 
1268.000000	39.937472 
1267.000000	39.928531 
1266.000000	39.926767 
1265.000000	39.931035 
1264.000000	39.939212 
1263.000000	39.948582 
1262.000000	39.955949 
1261.000000	39.958262 
1260.000000	39.952874 
1259.000000	39.937877 
1258.000000	39.912581 
1257.000000	39.877438 
1256.000000	39.834189 
1255.000000	39.785718 
1254.000000	39.735722 
1253.000000	39.688277 
1252.000000	39.647054 
1251.000000	39.614868 
1250.000000	39.593291 
1249.000000	39.582514 
1248.000000	39.581060 
1247.000000	39.586567 
1246.000000	39.596199 
1245.000000	39.607262 
1244.000000	39.617419 
1243.000000	39.625358 
1242.000000	39.630222 
1241.000000	39.631795 
1240.000000	39.630246 
1239.000000	39.625620 
1238.000000	39.617896 
1237.000000	39.607071 
1236.000000	39.593219 
1235.000000	39.576768 
1234.000000	39.558839 
1233.000000	39.540934 
1232.000000	39.524674 
1231.000000	39.511227 
1230.000000	39.500975 
1229.000000	39.493274 
1228.000000	39.486622 
1227.000000	39.479041 
1226.000000	39.468574 
1225.000000	39.454317 
1224.000000	39.436459 
1223.000000	39.416217 
1222.000000	39.395523 
1221.000000	39.376401 
1220.000000	39.360451 
1219.000000	39.348554 
1218.000000	39.340615 
1217.000000	39.335608 
1216.000000	39.332056 
1215.000000	39.328598 
1214.000000	39.323949 
1213.000000	39.317321 
1212.000000	39.308071 
1211.000000	39.295506 
1210.000000	39.278960 
1209.000000	39.257717 
1208.000000	39.231634 
1207.000000	39.200997 
1206.000000	39.167380 
1205.000000	39.133548 
1204.000000	39.103174 
1203.000000	39.080286 
1202.000000	39.068245 
1201.000000	39.068913 
1200.000000	39.081978 
1199.000000	39.104795 
1198.000000	39.132642 
1197.000000	39.159321 
1196.000000	39.178514 
1195.000000	39.184641 
1194.000000	39.173984 
1193.000000	39.145278 
1192.000000	39.099478 
1191.000000	39.040017 
1190.000000	38.971710 
1189.000000	38.900756 
1188.000000	38.833880 
1187.000000	38.777685 
1186.000000	38.737964 
1185.000000	38.718891 
1184.000000	38.722300 
1183.000000	38.747334 
1182.000000	38.790583 
1181.000000	38.846349 
1180.000000	38.907575 
1179.000000	38.966774 
1178.000000	39.016985 
1177.000000	39.052724 
1176.000000	39.070677 
1175.000000	39.069700 
1174.000000	39.050889 
1173.000000	39.017391 
1172.000000	38.973736 
1171.000000	38.925743 
1170.000000	38.879346 
1169.000000	38.840150 
1168.000000	38.811993 
1167.000000	38.797116 
1166.000000	38.794922 
1165.000000	38.801884 
1164.000000	38.812494 
1163.000000	38.819599 
1162.000000	38.817238 
1161.000000	38.801836 
1160.000000	38.773822 
1159.000000	38.737416 
1158.000000	38.699626 
1157.000000	38.668704 
1156.000000	38.651156 
1155.000000	38.649892 
1154.000000	38.662838 
1153.000000	38.683414 
1152.000000	38.701701 
1151.000000	38.707113 
1150.000000	38.691449 
1149.000000	38.651061 
1148.000000	38.588023 
1147.000000	38.510012 
1146.000000	38.428902 
1145.000000	38.358259 
1144.000000	38.310503 
1143.000000	38.294053 
1142.000000	38.312268 
1141.000000	38.362383 
1140.000000	38.437175 
1139.000000	38.525271 
1138.000000	38.613796 
1137.000000	38.689804 
1136.000000	38.742399 
1135.000000	38.763761 
1134.000000	38.749575 
1133.000000	38.699436 
1132.000000	38.616752 
1131.000000	38.508009 
1130.000000	38.382148 
1129.000000	38.249206 
1128.000000	38.119792 
1127.000000	38.003063 
1126.000000	37.906026 
1125.000000	37.832856 
1124.000000	37.784647 
1123.000000	37.759876 
1122.000000	37.755107 
1121.000000	37.765789 
1120.000000	37.787055 
1119.000000	37.814617 
1118.000000	37.845182 
1117.000000	37.875962 
1116.000000	37.904882 
1115.000000	37.929916 
1114.000000	37.949538 
1113.000000	37.962460 
1112.000000	37.968230 
1111.000000	37.967252 
1110.000000	37.960958 
1109.000000	37.951683 
1108.000000	37.942218 
1107.000000	37.935352 
1106.000000	37.933301 
1105.000000	37.936806 
1104.000000	37.945556 
1103.000000	37.958669 
1102.000000	37.974834 
1101.000000	37.992978 
1100.000000	38.011980 
1099.000000	38.030600 
1098.000000	38.047456 
1097.000000	38.060951 
1096.000000	38.069105 
1095.000000	38.069581 
1094.000000	38.060760 
1093.000000	38.042020 
1092.000000	38.014173 
1091.000000	37.979459 
1090.000000	37.941312 
1089.000000	37.903523 
1088.000000	37.869691 
1087.000000	37.842059 
1086.000000	37.820982 
1085.000000	37.804913 
1084.000000	37.791204 
1083.000000	37.776541 
1082.000000	37.758064 
1081.000000	37.733960 
1080.000000	37.703776 
1079.000000	37.668490 
1078.000000	37.629961 
1077.000000	37.590765 
1076.000000	37.553238 
1075.000000	37.519216 
1074.000000	37.489676 
1073.000000	37.464523 
1072.000000	37.442779 
1071.000000	37.422919 
1070.000000	37.403249 
1069.000000	37.382578 
1068.000000	37.360453 
1067.000000	37.337327 
1066.000000	37.314319 
1065.000000	37.292957 
1064.000000	37.274670 
1063.000000	37.260198 
1062.000000	37.249445 
1061.000000	37.241220 
1060.000000	37.233948 
1059.000000	37.225794 
1058.000000	37.215566 
1057.000000	37.203240 
1056.000000	37.190198 
1055.000000	37.179136 
1054.000000	37.173008 
1053.000000	37.174105 
1052.000000	37.183427 
1051.000000	37.200188 
1050.000000	37.222266 
1049.000000	37.246322 
1048.000000	37.269020 
1047.000000	37.287902 
1046.000000	37.301707 
1045.000000	37.310528 
1044.000000	37.315320 
1043.000000	37.317132 
1042.000000	37.316727 
1041.000000	37.314033 
1040.000000	37.308239 
1039.000000	37.297892 
1038.000000	37.282037 
1037.000000	37.260365 
1036.000000	37.233567 
1035.000000	37.203073 
1034.000000	37.170624 
1033.000000	37.138009 
1032.000000	37.106013 
1031.000000	37.075257 
1030.000000	37.045907 
1029.000000	37.018752 
1028.000000	36.995363 
1027.000000	36.978101 
1026.000000	36.969876 
1025.000000	36.973094 
1024.000000	36.988663 
1023.000000	37.015032 
1022.000000	37.047934 
1021.000000	37.080931 
1020.000000	37.106537 
1019.000000	37.117838 
1018.000000	37.110304 
1017.000000	37.082481 
1016.000000	37.036585 
1015.000000	36.977338 
1014.000000	36.910748 
1013.000000	36.842226 
1012.000000	36.775517 
1011.000000	36.712169 
1010.000000	36.651897 
1009.000000	36.593437 
1008.000000	36.535835 
1007.000000	36.479306 
1006.000000	36.425805 
1005.000000	36.378335 
1004.000000	36.340355 
1003.000000	36.314368 
1002.000000	36.301517 
1001.000000	36.300253 
1000.000000	36.307454 
999.000000	 36.318683 
998.000000	 36.329889 
997.000000	 36.337995 
996.000000	 36.342024 
995.000000	 36.342954 
994.000000	 36.343574 
993.000000	 36.346840 
992.000000	 36.355447 
991.000000	 36.370491 
990.000000	 36.391234 
989.000000	 36.415314 
988.000000	 36.439251 
987.000000	 36.459279 
986.000000	 36.472272 
985.000000	 36.476302 
984.000000	 36.470556 
983.000000	 36.455249 
982.000000	 36.431622 
981.000000	 36.401319 
980.000000	 36.365962 
979.000000	 36.326909 
978.000000	 36.285924 
977.000000	 36.244320 
976.000000	 36.203432 
975.000000	 36.164188 
974.000000	 36.127328 
973.000000	 36.093139 
972.000000	 36.061263 
971.000000	 36.031174 
970.000000	 36.001849 
969.000000	 35.973024 
968.000000	 35.944795 
967.000000	 35.918235 
966.000000	 35.894703 
965.000000	 35.875797 
964.000000	 35.862588 
963.000000	 35.855436 
962.000000	 35.853362 
961.000000	 35.854816 
960.000000	 35.857725 
959.000000	 35.860204 
958.000000	 35.860776 
957.000000	 35.858869 
956.000000	 35.854506 
955.000000	 35.848069 
954.000000	 35.839867 
953.000000	 35.830116 
952.000000	 35.818672 
951.000000	 35.805487 
950.000000	 35.790395 
949.000000	 35.773372 
948.000000	 35.754418 
947.000000	 35.734224 
946.000000	 35.713243 
945.000000	 35.691857 
944.000000	 35.670280 
943.000000	 35.648488 
942.000000	 35.626602 
941.000000	 35.604977 
940.000000	 35.584712 
939.000000	 35.567355 
938.000000	 35.554599 
937.000000	 35.547900 
936.000000	 35.547780 
935.000000	 35.553407 
934.000000	 35.562396 
933.000000	 35.571169 
932.000000	 35.575652 
931.000000	 35.572171 
930.000000	 35.558485 
929.000000	 35.534548 
928.000000	 35.502552 
927.000000	 35.466694 
926.000000	 35.432267 
925.000000	 35.404467 
924.000000	 35.387587 
923.000000	 35.383796 
922.000000	 35.392904 
921.000000	 35.412240 
920.000000	 35.437607 
919.000000	 35.463762 
918.000000	 35.485482 
917.000000	 35.498309 
916.000000	 35.499072 
915.000000	 35.486388 
914.000000	 35.460758 
913.000000	 35.424280 
912.000000	 35.380244 
911.000000	 35.332345 
910.000000	 35.284399 
909.000000	 35.239267 
908.000000	 35.198950 
907.000000	 35.163712 
906.000000	 35.132741 
905.000000	 35.104036 
904.000000	 35.075473 
903.000000	 35.045599 
902.000000	 35.014677 
901.000000	 34.984445 
900.000000	 34.958314 
899.000000	 34.940648 
898.000000	 34.935736 
897.000000	 34.946489 
896.000000	 34.973192 
895.000000	 35.013031 
894.000000	 35.060191 
893.000000	 35.106992 
892.000000	 35.144948 
891.000000	 35.166478 
890.000000	 35.166287 
889.000000	 35.142588 
888.000000	 35.097098 
887.000000	 35.035061 
886.000000	 34.963798 
885.000000	 34.891271 
884.000000	 34.824585 
883.000000	 34.769105 
882.000000	 34.727549 
881.000000	 34.700179 
880.000000	 34.684658 
879.000000	 34.677219 
878.000000	 34.673261 
877.000000	 34.668421 
876.000000	 34.659075 
875.000000	 34.642839 
874.000000	 34.618592 
873.000000	 34.586930 
872.000000	 34.549593 
871.000000	 34.509587 
870.000000	 34.470605 
869.000000	 34.436678 
868.000000	 34.411478 
867.000000	 34.397482 
866.000000	 34.395885 
865.000000	 34.405660 
864.000000	 34.423828 
863.000000	 34.445452 
862.000000	 34.464430 
861.000000	 34.474921 
860.000000	 34.472393 
859.000000	 34.454774 
858.000000	 34.422492 
857.000000	 34.378671 
856.000000	 34.328365 
855.000000	 34.277606 
854.000000	 34.232187 
853.000000	 34.196186 
852.000000	 34.171295 
851.000000	 34.156823 
850.000000	 34.150195 
849.000000	 34.147453 
848.000000	 34.144639 
847.000000	 34.138250 
846.000000	 34.126567 
845.000000	 34.109425 
844.000000	 34.088873 
843.000000	 34.067869 
842.000000	 34.049916 
841.000000	 34.038448 
840.000000	 34.035539 
839.000000	 34.041905 
838.000000	 34.055733 
837.000000	 34.073519 
836.000000	 34.089946 
835.000000	 34.099364 
834.000000	 34.096860 
833.000000	 34.079384 
832.000000	 34.046769 
831.000000	 34.001827 
830.000000	 33.950018 
829.000000	 33.898591 
828.000000	 33.854508 
827.000000	 33.823347 
826.000000	 33.807325 
825.000000	 33.804941 
824.000000	 33.811378 
823.000000	 33.819866 
822.000000	 33.823466 
821.000000	 33.817028 
820.000000	 33.798432 
819.000000	 33.768796 
818.000000	 33.731627 
817.000000	 33.691620 
816.000000	 33.652615 
815.000000	 33.617067 
814.000000	 33.585619 
813.000000	 33.557367 
812.000000	 33.531165 
811.000000	 33.505749 
810.000000	 33.480572 
809.000000	 33.456158 
808.000000	 33.433341 
807.000000	 33.413577 
806.000000	 33.398151 
805.000000	 33.388066 
804.000000	 33.383035 
803.000000	 33.382177 
802.000000	 33.384060 
801.000000	 33.387017 
800.000000	 33.389163 
799.000000	 33.389019 
798.000000	 33.385658 
797.000000	 33.378720 
796.000000	 33.368277 
795.000000	 33.354806 
794.000000	 33.338761 
793.000000	 33.320784 
792.000000	 33.301544 
791.000000	 33.281302 
790.000000	 33.260107 
789.000000	 33.238101 
788.000000	 33.215522 
787.000000	 33.192968 
786.000000	 33.170914 
785.000000	 33.150386 
784.000000	 33.131504 
783.000000	 33.114194 
782.000000	 33.096861 
781.000000	 33.077192 
780.000000	 33.051872 
779.000000	 33.017659 
778.000000	 32.971906 
777.000000	 32.913517 
776.000000	 32.843375 
775.000000	 32.764792 
774.000000	 32.682585 
773.000000	 32.602357 
772.000000	 32.529449 
771.000000	 32.467603 
770.000000	 32.418918 
769.000000	 32.383608 
768.000000	 32.361173 
767.000000	 32.351064 
766.000000	 32.353377 
765.000000	 32.368564 
764.000000	 32.397413 
763.000000	 32.439661 
762.000000	 32.492661 
761.000000	 32.551026 
760.000000	 32.606720 
759.000000	 32.650279 
758.000000	 32.672667 
757.000000	 32.667160 
756.000000	 32.631611 
755.000000	 32.568526 
754.000000	 32.485437 
753.000000	 32.392525 
752.000000	 32.300758 
751.000000	 32.219052 
750.000000	 32.153010 
749.000000	 32.104086 
748.000000	 32.070207 
747.000000	 32.047247 
746.000000	 32.031059 
745.000000	 32.018613 
744.000000	 32.008647 
743.000000	 32.001686 
742.000000	 31.999135 
741.000000	 32.001686 
740.000000	 32.008051 
739.000000	 32.015180 
738.000000	 32.018303 
737.000000	 32.012009 
736.000000	 31.991529 
735.000000	 31.954431 
734.000000	 31.901216 
733.000000	 31.835412 
732.000000	 31.762695 
731.000000	 31.689262 
730.000000	 31.620764 
729.000000	 31.561779 
728.000000	 31.514620 
727.000000	 31.479334 
726.000000	 31.454014 
725.000000	 31.435847 
724.000000	 31.421613 
723.000000	 31.408286 
722.000000	 31.393980 
721.000000	 31.377577 
720.000000	 31.359624 
719.000000	 31.341481 
718.000000	 31.325411 
717.000000	 31.313753 
716.000000	 31.309056 
715.000000	 31.313061 
714.000000	 31.327009 
713.000000	 31.350994 
712.000000	 31.383943 
711.000000	 31.423187 
710.000000	 31.465101 
709.000000	 31.504869 
708.000000	 31.537318 
707.000000	 31.556963 
706.000000	 31.558847 
705.000000	 31.539130 
704.000000	 31.495976 
703.000000	 31.430149 
702.000000	 31.345272 
701.000000	 31.247496 
700.000000	 31.145191 
699.000000	 31.047034 
698.000000	 30.960893 
697.000000	 30.892014 
696.000000	 30.842781 
695.000000	 30.812382 
694.000000	 30.797362 
693.000000	 30.792951 
692.000000	 30.793833 
691.000000	 30.795359 
690.000000	 30.793952 
689.000000	 30.787229 
688.000000	 30.773687 
687.000000	 30.752635 
686.000000	 30.723881 
685.000000	 30.687427 
684.000000	 30.643844 
683.000000	 30.594491 
682.000000	 30.541729 
681.000000	 30.488848 
680.000000	 30.439400 
679.000000	 30.396986 
678.000000	 30.363869 
677.000000	 30.340766 
676.000000	 30.326199 
675.000000	 30.316781 
674.000000	 30.307745 
673.000000	 30.293822 
672.000000	 30.270624 
671.000000	 30.235624 
670.000000	 30.188751 
669.000000	 30.132198 
668.000000	 30.070233 
667.000000	 30.008029 
666.000000	 29.950881 
665.000000	 29.903173 
664.000000	 29.867243 
663.000000	 29.843235 
662.000000	 29.828906 
661.000000	 29.820322 
660.000000	 29.812622 
659.000000	 29.801225 
658.000000	 29.782557 
657.000000	 29.755234 
656.000000	 29.720139 
655.000000	 29.680871 
654.000000	 29.642987 
653.000000	 29.612731 
652.000000	 29.596209 
651.000000	 29.596853 
650.000000	 29.615449 
649.000000	 29.648041 
648.000000	 29.687023 
647.000000	 29.721617 
646.000000	 29.740095 
645.000000	 29.732179 
644.000000	 29.691863 
643.000000	 29.618549 
642.000000	 29.517793 
641.000000	 29.400038 
640.000000	 29.278445 
639.000000	 29.166245 
638.000000	 29.074001 
637.000000	 29.007840 
636.000000	 28.968691 
635.000000	 28.953099 
634.000000	 28.955006 
633.000000	 28.967356 
632.000000	 28.983998 
631.000000	 29.000759 
630.000000	 29.015946 
629.000000	 29.029798 
628.000000	 29.043364 
627.000000	 29.056930 
626.000000	 29.069137 
625.000000	 29.077148 
624.000000	 29.076194 
623.000000	 29.061532 
622.000000	 29.028582 
621.000000	 28.974938 
620.000000	 28.900623 
619.000000	 28.808856 
618.000000	 28.705859 
617.000000	 28.599882 
616.000000	 28.500247 
615.000000	 28.415489 
614.000000	 28.352403 
613.000000	 28.315329 
612.000000	 28.305387 
611.000000	 28.320217 
610.000000	 28.355312 
609.000000	 28.404474 
608.000000	 28.461194 
607.000000	 28.519296 
606.000000	 28.573298 
605.000000	 28.618526 
604.000000	 28.651404 
603.000000	 28.669023 
602.000000	 28.668904 
601.000000	 28.648877 
600.000000	 28.607702 
599.000000	 28.545498 
598.000000	 28.464889 
597.000000	 28.370690 
596.000000	 28.269863 
595.000000	 28.170132 
594.000000	 28.079605 
593.000000	 28.004431 
592.000000	 27.947950 
591.000000	 27.910017 
590.000000	 27.887129 
589.000000	 27.873468 
588.000000	 27.862143 
587.000000	 27.846431 
586.000000	 27.821016 
585.000000	 27.783060 
584.000000	 27.732229 
583.000000	 27.671432 
582.000000	 27.605509 
581.000000	 27.541017 
580.000000	 27.484774 
579.000000	 27.443480 
578.000000	 27.422070 
577.000000	 27.423143 
576.000000	 27.445507 
575.000000	 27.484393 
574.000000	 27.531170 
573.000000	 27.574467 
572.000000	 27.601790 
571.000000	 27.601623 
570.000000	 27.566027 
569.000000	 27.491903 
568.000000	 27.382540 
567.000000	 27.247214 
566.000000	 27.099847 
565.000000	 26.956844 
564.000000	 26.833629 
563.000000	 26.742076 
562.000000	 26.688027 
561.000000	 26.671028 
560.000000	 26.684260 
559.000000	 26.716804 
558.000000	 26.755762 
557.000000	 26.788687 
556.000000	 26.806116 
555.000000	 26.802802 
554.000000	 26.778340 
553.000000	 26.736354 
552.000000	 26.683926 
551.000000	 26.629304 
550.000000	 26.581072 
549.000000	 26.545691 
548.000000	 26.526689 
547.000000	 26.523065 
546.000000	 26.530218 
545.000000	 26.540303 
544.000000	 26.544594 
543.000000	 26.535487 
542.000000	 26.507472 
541.000000	 26.459407 
540.000000	 26.394581 
539.000000	 26.319861 
538.000000	 26.244139 
537.000000	 26.175284 
536.000000	 26.118779 
535.000000	 26.075363 
534.000000	 26.041555 
533.000000	 26.010012 
532.000000	 25.971627 
531.000000	 25.919103 
530.000000	 25.849080 
529.000000	 25.764489 
528.000000	 25.673985 
527.000000	 25.590348 
526.000000	 25.527167 
525.000000	 25.495219 
524.000000	 25.498914 
523.000000	 25.534439 
522.000000	 25.589776 
521.000000	 25.647306 
520.000000	 25.687527 
519.000000	 25.693702 
518.000000	 25.655627 
517.000000	 25.571417 
516.000000	 25.447964 
515.000000	 25.298738 
514.000000	 25.140547 
513.000000	 24.989390 
512.000000	 24.857425 
511.000000	 24.751067 
510.000000	 24.670910 
509.000000	 24.613642 
508.000000	 24.573683 
507.000000	 24.545550 
506.000000	 24.525785 
505.000000	 24.513339 
504.000000	 24.509096 
503.000000	 24.513792 
502.000000	 24.528074 
501.000000	 24.550628 
500.000000	 24.578166 
499.000000	 24.605321 
498.000000	 24.625849 
497.000000	 24.633812 
496.000000	 24.625110 
495.000000	 24.598383 
494.000000	 24.555325 
493.000000	 24.500298 
492.000000	 24.439859 
491.000000	 24.381041 
490.000000	 24.330282 
489.000000	 24.291324 
488.000000	 24.265623 
487.000000	 24.250769 
486.000000	 24.242162 
485.000000	 24.232554 
484.000000	 24.215054 
483.000000	 24.182629 
482.000000	 24.130463 
481.000000	 24.055647 
480.000000	 23.958039 
479.000000	 23.839640 
478.000000	 23.704099 
477.000000	 23.556399 
476.000000	 23.402333 
475.000000	 23.248553 
474.000000	 23.102331 
473.000000	 22.971200 
472.000000	 22.862362 
471.000000	 22.781896 
470.000000	 22.734022 
469.000000	 22.718882 
468.000000	 22.732710 
467.000000	 22.768473 
466.000000	 22.817492 
465.000000	 22.869586 
464.000000	 22.915935 
463.000000	 22.950911 
462.000000	 22.972655 
461.000000	 22.981786 
460.000000	 22.980308 
459.000000	 22.972345 
458.000000	 22.959494 
457.000000	 22.940325 
456.000000	 22.909331 
455.000000	 22.859072 
454.000000	 22.782397 
453.000000	 22.675895 
452.000000	 22.542238 
451.000000	 22.390580 
450.000000	 22.236490 
449.000000	 22.099423 
448.000000	 21.996974 
447.000000	 21.940732 
446.000000	 21.931481 
445.000000	 21.958613 
444.000000	 22.001910 
443.000000	 22.036552 
442.000000	 22.039270 
441.000000	 21.993827 
440.000000	 21.896147 
439.000000	 21.752595 
438.000000	 21.579837 
437.000000	 21.394801 
436.000000	 21.208977 
435.000000	 21.022343 
434.000000	 20.820188 
433.000000	 20.581960 
432.000000	 20.289850 
431.000000	 19.939494 
430.000000	 19.545054 
429.000000	 19.141674 
428.000000	 18.775749 
427.000000	 18.500065 
426.000000	 18.361306 
425.000000	 18.385863 
424.000000	 18.569278 
423.000000	 18.877291 
422.000000	 19.254064 
421.000000	 19.625592 
420.000000	 19.914031 
419.000000	 20.058131 
418.000000	 20.027446 
417.000000	 19.822978 
416.000000	 19.476985 
415.000000	 19.054102 
414.000000	 18.632984 
413.000000	 18.292641 
412.000000	 18.086814 
411.000000	 18.036246 
410.000000	 18.116855 
409.000000	 18.257570 
408.000000	 18.365454 
407.000000	 18.359088 
406.000000	 18.193244 
405.000000	 17.848706 
404.000000	 17.372131 
403.000000	 16.858315 
402.000000	 16.447305 
401.000000	 16.282439 
400.000000	 16.484975 
399.000000	 17.134356 
398.000000	 18.217968 
397.000000	 19.602155 
396.000000	 21.111011 
395.000000	 22.570157 
394.000000	 23.856544 
393.000000	 24.912858 
392.000000	 25.817251 
391.000000	 26.754331 
390.000000	 27.850532 
389.000000	 29.123187 
388.000000	 30.463743 
387.000000	 31.669378 
386.000000	 32.518744 
385.000000	 32.870411 
384.000000	 32.692337 
383.000000	 32.137131 
382.000000	 31.571102 
381.000000	 31.457924 
380.000000	 32.276821 
379.000000	 34.324979 
378.000000	 37.553215 
377.000000	 41.631007 
376.000000	 45.891642 
375.000000	 49.715828 
374.000000	 52.701354 
373.000000	 54.855298 
372.000000	 56.733512 
371.000000	 59.046173 
370.000000	 62.308526 

