PE IR       SPECTRUM    SPECTRUM    ASCII       PEDS        1.60        
  -1
C-99EF~1.ASC
17/03/27
15:03:15.00
17/03/27
15:03:15.00
tln
$C-4040-8_t0007$<tbV0>[-2.6,-13.0,8.0,0.0,27,1,0]
370.000000
64









2002,4.07    
MIRTGS : RIGHTBACK : INTERNAL 2
MIR : ON : INTERNAL 2
OPTKBR

0.200000
8
8.000000
FILLER
RATIO
SPECTRUM
UNLOCKED 256

DOUBLE
64
COMBINED
1
0
0


1.000000
RATIO


1
0
TRUE
51149
0
LEFT NOT FITTED RIGHT NOT FITTED 0
NONE
NONE
15600
12.000000
4.427000
51148
TRUE
1 0 8 72 0 0 0 0 

15798.010000






#HDR
-1
-1
#GR
CM-1
%T
0.00002384185791015625
0.0
5000.000000
-1.000000
4631
8
70.954537
15.724730
#DATA
5000.000000	64.241123 
4999.000000	64.137792 
4998.000000	64.041399 
4997.000000	63.969802 
4996.000000	63.937425 
4995.000000	63.953566 
4994.000000	64.018630 
4993.000000	64.123415 
4992.000000	64.251303 
4991.000000	64.382123 
4990.000000	64.495754 
4989.000000	64.575934 
4988.000000	64.613866 
4987.000000	64.608979 
4986.000000	64.568614 
4985.000000	64.505386 
4984.000000	64.432787 
4983.000000	64.361643 
4982.000000	64.298105 
4981.000000	64.242696 
4980.000000	64.190626 
4979.000000	64.134836 
4978.000000	64.069366 
4977.000000	63.992643 
4976.000000	63.910508 
4975.000000	63.834452 
4974.000000	63.778400 
4973.000000	63.753676 
4972.000000	63.765668 
4971.000000	63.809490 
4970.000000	63.869452 
4969.000000	63.922739 
4968.000000	63.943600 
4967.000000	63.911938 
4966.000000	63.818693 
4965.000000	63.670015 
4964.000000	63.485217 
4963.000000	63.294649 
4962.000000	63.131999 
4961.000000	63.027358 
4960.000000	62.999725 
4959.000000	63.053941 
4958.000000	63.179564 
4957.000000	63.356041 
4956.000000	63.557600 
4955.000000	63.759064 
4954.000000	63.939714 
4953.000000	64.083480 
4952.000000	64.179086 
4951.000000	64.218664 
4950.000000	64.196944 
4949.000000	64.110183 
4948.000000	63.957810 
4947.000000	63.745570 
4946.000000	63.486504 
4945.000000	63.200592 
4944.000000	62.914967 
4943.000000	62.660479 
4942.000000	62.468600 
4941.000000	62.365341 
4940.000000	62.367749 
4939.000000	62.480211 
4938.000000	62.692475 
4937.000000	62.980389 
4936.000000	63.309049 
4935.000000	63.637471 
4934.000000	63.925814 
4933.000000	64.140629 
4932.000000	64.261960 
4931.000000	64.285206 
4930.000000	64.222526 
4929.000000	64.098906 
4928.000000	63.948464 
4927.000000	63.806462 
4926.000000	63.703274 
4925.000000	63.657999 
4924.000000	63.676404 
4923.000000	63.751029 
4922.000000	63.865542 
4921.000000	64.000058 
4920.000000	64.136123 
4919.000000	64.261579 
4918.000000	64.371609 
4917.000000	64.468812 
4916.000000	64.559745 
4915.000000	64.651560 
4914.000000	64.746904 
4913.000000	64.843463 
4912.000000	64.934253 
4911.000000	65.009665 
4910.000000	65.061950 
4909.000000	65.086960 
4908.000000	65.087532 
4907.000000	65.071201 
4906.000000	65.049576 
4905.000000	65.032863 
4904.000000	65.026926 
4903.000000	65.032911 
4902.000000	65.047383 
4901.000000	65.063261 
4900.000000	65.072393 
4899.000000	65.068745 
4898.000000	65.050578 
4897.000000	65.020442 
4896.000000	64.985132 
4895.000000	64.953017 
4894.000000	64.932847 
4893.000000	64.931297 
4892.000000	64.951753 
4891.000000	64.994764 
4890.000000	65.056109 
4889.000000	65.129160 
4888.000000	65.203475 
4887.000000	65.267968 
4886.000000	65.310239 
4885.000000	65.318441 
4884.000000	65.283536 
4883.000000	65.201663 
4882.000000	65.074968 
4881.000000	64.912223 
4880.000000	64.727163 
4879.000000	64.536905 
4878.000000	64.358282 
4877.000000	64.205408 
4876.000000	64.087343 
4875.000000	64.007258 
4874.000000	63.963007 
4873.000000	63.948726 
4872.000000	63.956761 
4871.000000	63.979935 
4870.000000	64.012360 
4869.000000	64.050388 
4868.000000	64.091086 
4867.000000	64.132428 
4866.000000	64.171409 
4865.000000	64.204931 
4864.000000	64.229559 
4863.000000	64.242482 
4862.000000	64.242768 
4861.000000	64.230632 
4860.000000	64.208006 
4859.000000	64.177417 
4858.000000	64.141106 
4857.000000	64.101672 
4856.000000	64.061665 
4855.000000	64.024281 
4854.000000	63.993358 
4853.000000	63.973474 
4852.000000	63.969302 
4851.000000	63.984727 
4850.000000	64.021778 
4849.000000	64.079070 
4848.000000	64.151620 
4847.000000	64.231777 
4846.000000	64.310765 
4845.000000	64.380574 
4844.000000	64.436244 
4843.000000	64.477324 
4842.000000	64.507412 
4841.000000	64.533162 
4840.000000	64.561271 
4839.000000	64.596557 
4838.000000	64.639282 
4837.000000	64.685678 
4836.000000	64.727473 
4835.000000	64.755272 
4834.000000	64.759826 
4833.000000	64.735579 
4832.000000	64.681553 
4831.000000	64.602351 
4830.000000	64.507126 
4829.000000	64.407658 
4828.000000	64.315867 
4827.000000	64.241433 
4826.000000	64.189720 
4825.000000	64.161205 
4824.000000	64.151692 
4823.000000	64.153838 
4822.000000	64.158749 
4821.000000	64.158368 
4820.000000	64.146828 
4819.000000	64.121699 
4818.000000	64.084029 
4817.000000	64.037990 
4816.000000	63.989305 
4815.000000	63.944101 
4814.000000	63.907647 
4813.000000	63.883256 
4812.000000	63.871693 
4811.000000	63.871264 
4810.000000	63.878870 
4809.000000	63.890886 
4808.000000	63.903951 
4807.000000	63.915896 
4806.000000	63.925909 
4805.000000	63.934350 
4804.000000	63.942170 
4803.000000	63.950085 
4802.000000	63.957905 
4801.000000	63.964247 
4800.000000	63.966727 
4799.000000	63.962817 
4798.000000	63.950371 
4797.000000	63.929438 
4796.000000	63.902544 
4795.000000	63.874769 
4794.000000	63.852882 
4793.000000	63.843822 
4792.000000	63.852977 
4791.000000	63.882350 
4790.000000	63.929677 
4789.000000	63.988447 
4788.000000	64.049243 
4787.000000	64.101982 
4786.000000	64.138150 
4785.000000	64.153265 
4784.000000	64.147353 
4783.000000	64.124608 
4782.000000	64.091944 
4781.000000	64.057374 
4780.000000	64.027523 
4779.000000	64.006519 
4778.000000	63.994956 
4777.000000	63.990855 
4776.000000	63.990116 
4775.000000	63.988375 
4774.000000	63.982129 
4773.000000	63.969922 
4772.000000	63.952231 
4771.000000	63.931131 
4770.000000	63.909196 
4769.000000	63.888525 
4768.000000	63.869905 
4767.000000	63.852667 
4766.000000	63.834905 
4765.000000	63.814377 
4764.000000	63.789558 
4763.000000	63.760685 
4762.000000	63.729786 
4761.000000	63.700890 
4760.000000	63.679122 
4759.000000	63.669753 
4758.000000	63.676357 
4757.000000	63.699984 
4756.000000	63.738512 
4755.000000	63.787102 
4754.000000	63.838791 
4753.000000	63.886594 
4752.000000	63.924956 
4751.000000	63.951325 
4750.000000	63.966298 
4749.000000	63.973188 
4748.000000	63.976931 
4747.000000	63.982129 
4746.000000	63.991999 
4745.000000	64.006948 
4744.000000	64.024758 
4743.000000	64.041161 
4742.000000	64.051413 
4741.000000	64.051365 
4740.000000	64.038872 
4739.000000	64.014148 
4738.000000	63.979911 
4737.000000	63.939952 
4736.000000	63.898396 
4735.000000	63.858652 
4734.000000	63.823080 
4733.000000	63.793087 
4732.000000	63.769078 
4731.000000	63.751602 
4730.000000	63.740944 
4729.000000	63.737177 
4728.000000	63.739705 
4727.000000	63.747024 
4726.000000	63.756752 
4725.000000	63.765501 
4724.000000	63.769769 
4723.000000	63.766407 
4722.000000	63.753700 
4721.000000	63.731575 
4720.000000	63.702154 
4719.000000	63.668942 
4718.000000	63.636302 
4717.000000	63.608312 
4716.000000	63.588070 
4715.000000	63.577246 
4714.000000	63.575720 
4713.000000	63.582086 
4712.000000	63.593935 
4711.000000	63.608908 
4710.000000	63.624668 
4709.000000	63.639903 
4708.000000	63.653826 
4707.000000	63.666439 
4706.000000	63.678503 
4705.000000	63.691234 
4704.000000	63.705945 
4703.000000	63.723444 
4702.000000	63.743901 
4701.000000	63.766503 
4700.000000	63.789629 
4699.000000	63.811206 
4698.000000	63.828921 
4697.000000	63.841414 
4696.000000	63.848471 
4695.000000	63.851690 
4694.000000	63.853907 
4693.000000	63.859105 
4692.000000	63.871479 
4691.000000	63.894104 
4690.000000	63.927578 
4689.000000	63.970303 
4688.000000	64.018702 
4687.000000	64.067625 
4686.000000	64.111351 
4685.000000	64.145183 
4684.000000	64.166164 
4683.000000	64.172935 
4682.000000	64.165544 
4681.000000	64.144992 
4680.000000	64.112424 
4679.000000	64.068937 
4678.000000	64.015603 
4677.000000	63.953828 
4676.000000	63.885736 
4675.000000	63.814902 
4674.000000	63.746333 
4673.000000	63.685679 
4672.000000	63.638854 
4671.000000	63.610482 
4670.000000	63.603925 
4669.000000	63.619303 
4668.000000	63.655447 
4667.000000	63.709282 
4666.000000	63.777947 
4665.000000	63.858270 
4664.000000	63.947868 
4663.000000	64.044880 
4662.000000	64.146852 
4661.000000	64.250206 
4660.000000	64.349579 
4659.000000	64.438009 
4658.000000	64.507651 
4657.000000	64.551162 
4656.000000	64.563441 
4655.000000	64.542770 
4654.000000	64.492034 
4653.000000	64.417862 
4652.000000	64.329719 
4651.000000	64.237689 
4650.000000	64.151406 
4649.000000	64.078068 
4648.000000	64.021635 
4647.000000	63.982939 
4646.000000	63.960886 
4645.000000	63.953256 
4644.000000	63.957476 
4643.000000	63.971543 
4642.000000	63.993501 
4641.000000	64.022111 
4640.000000	64.055371 
4639.000000	64.090847 
4638.000000	64.124894 
4637.000000	64.153623 
4636.000000	64.173364 
4635.000000	64.181375 
4634.000000	64.176511 
4633.000000	64.159512 
4632.000000	64.133286 
4631.000000	64.101696 
4630.000000	64.069151 
4629.000000	64.040231 
4628.000000	64.019155 
4627.000000	64.009094 
4626.000000	64.012145 
4625.000000	64.029479 
4624.000000	64.060831 
4623.000000	64.104914 
4622.000000	64.159107 
4621.000000	64.219284 
4620.000000	64.280223 
4619.000000	64.336514 
4618.000000	64.382505 
4617.000000	64.412879 
4616.000000	64.423871 
4615.000000	64.414429 
4614.000000	64.385962 
4613.000000	64.342594 
4612.000000	64.290213 
4611.000000	64.236021 
4610.000000	64.186501 
4609.000000	64.146757 
4608.000000	64.119195 
4607.000000	64.103746 
4606.000000	64.097833 
4605.000000	64.097619 
4604.000000	64.098906 
4603.000000	64.098381 
4602.000000	64.094471 
4601.000000	64.087653 
4600.000000	64.079833 
4599.000000	64.073729 
4598.000000	64.071345 
4597.000000	64.073801 
4596.000000	64.080762 
4595.000000	64.091229 
4594.000000	64.103889 
4593.000000	64.118218 
4592.000000	64.134740 
4591.000000	64.155077 
4590.000000	64.181184 
4589.000000	64.214682 
4588.000000	64.255404 
4587.000000	64.301872 
4586.000000	64.351439 
4585.000000	64.400744 
4584.000000	64.446425 
4583.000000	64.486002 
4582.000000	64.518713 
4581.000000	64.544677 
4580.000000	64.564967 
4579.000000	64.580249 
4578.000000	64.590382 
4577.000000	64.594721 
4576.000000	64.592123 
4575.000000	64.581894 
4574.000000	64.564466 
4573.000000	64.541888 
4572.000000	64.517855 
4571.000000	64.497447 
4570.000000	64.485788 
4569.000000	64.486622 
4568.000000	64.501166 
4567.000000	64.527893 
4566.000000	64.562535 
4565.000000	64.599514 
4564.000000	64.632487 
4563.000000	64.656543 
4562.000000	64.667677 
4561.000000	64.664506 
4560.000000	64.646172 
4559.000000	64.612174 
4558.000000	64.562129 
4557.000000	64.495611 
4556.000000	64.413499 
4555.000000	64.318585 
4554.000000	64.216613 
4553.000000	64.116191 
4552.000000	64.027333 
4551.000000	63.959431 
4550.000000	63.918781 
4549.000000	63.906669 
4548.000000	63.917970 
4547.000000	63.942313 
4546.000000	63.966393 
4545.000000	63.977766 
4544.000000	63.967990 
4543.000000	63.935303 
4542.000000	63.884902 
4541.000000	63.827943 
4540.000000	63.777184 
4539.000000	63.744783 
4538.000000	63.737797 
4537.000000	63.757944 
4536.000000	63.801145 
4535.000000	63.859868 
4534.000000	63.925838 
4533.000000	63.991975 
4532.000000	64.053916 
4531.000000	64.110302 
4530.000000	64.161491 
4529.000000	64.209222 
4528.000000	64.254951 
4527.000000	64.299845 
4526.000000	64.344358 
4525.000000	64.388751 
4524.000000	64.433526 
4523.000000	64.480233 
4522.000000	64.531064 
4521.000000	64.588427 
4520.000000	64.653563 
4519.000000	64.725947 
4518.000000	64.802169 
4517.000000	64.875841 
4516.000000	64.939069 
4515.000000	64.983916 
4514.000000	65.005183 
4513.000000	65.002799 
4512.000000	64.981603 
4511.000000	64.951682 
4510.000000	64.924240 
4509.000000	64.908480 
4508.000000	64.908933 
4507.000000	64.924263 
4506.000000	64.948058 
4505.000000	64.971709 
4504.000000	64.986491 
4503.000000	64.986991 
4502.000000	64.971780 
4501.000000	64.943861 
4500.000000	64.908742 
4499.000000	64.872527 
4498.000000	64.840054 
4497.000000	64.813351 
4496.000000	64.791941 
4495.000000	64.773321 
4494.000000	64.754629 
4493.000000	64.733314 
4492.000000	64.708375 
4491.000000	64.680242 
4490.000000	64.648199 
4489.000000	64.612174 
4488.000000	64.570713 
4487.000000	64.524888 
4486.000000	64.479351 
4485.000000	64.442038 
4484.000000	64.426445 
4483.000000	64.443349 
4482.000000	64.495301 
4481.000000	64.575862 
4480.000000	64.669513 
4479.000000	64.755749 
4478.000000	64.812541 
4477.000000	64.825606 
4476.000000	64.793562 
4475.000000	64.727330 
4474.000000	64.646983 
4473.000000	64.576005 
4472.000000	64.533662 
4471.000000	64.533352 
4470.000000	64.579820 
4469.000000	64.667773 
4468.000000	64.784073 
4467.000000	64.916634 
4466.000000	65.056562 
4465.000000	65.196323 
4464.000000	65.331268 
4463.000000	65.456056 
4462.000000	65.568947 
4461.000000	65.664339 
4460.000000	65.744590 
4459.000000	65.818881 
4458.000000	65.909576 
4457.000000	66.048216 
4456.000000	66.270303 
4455.000000	66.606521 
4454.000000	67.071747 
4453.000000	67.658281 
4452.000000	68.332195 
4451.000000	69.039273 
4450.000000	69.711565 
4449.000000	70.284581 
4448.000000	70.702195 
4447.000000	70.930981 
4446.000000	70.954537 
4445.000000	70.776748 
4444.000000	70.407915 
4443.000000	69.863080 
4442.000000	69.156193 
4441.000000	68.304014 
4440.000000	67.334342 
4439.000000	66.290783 
4438.000000	65.236926 
4437.000000	64.250135 
4436.000000	63.412880 
4435.000000	62.797045 
4434.000000	62.440252 
4433.000000	62.344622 
4432.000000	62.473154 
4431.000000	62.763619 
4430.000000	63.130092 
4429.000000	63.495111 
4428.000000	63.801312 
4427.000000	64.023995 
4426.000000	64.164352 
4425.000000	64.245891 
4424.000000	64.297723 
4423.000000	64.341926 
4422.000000	64.378428 
4421.000000	64.393854 
4420.000000	64.370751 
4419.000000	64.288568 
4418.000000	64.135360 
4417.000000	63.907885 
4416.000000	63.614869 
4415.000000	63.275551 
4414.000000	62.915968 
4413.000000	62.556958 
4412.000000	62.208533 
4411.000000	61.882805 
4410.000000	61.582970 
4409.000000	61.297821 
4408.000000	61.000943 
4407.000000	60.662412 
4406.000000	60.252523 
4405.000000	59.737133 
4404.000000	59.103178 
4403.000000	58.363533 
4402.000000	57.565665 
4401.000000	56.790471 
4400.000000	56.125354 
4399.000000	55.657958 
4398.000000	55.421686 
4397.000000	55.384588 
4396.000000	55.440950 
4395.000000	55.426621 
4394.000000	55.179619 
4393.000000	54.582071 
4392.000000	53.622007 
4391.000000	52.404403 
4390.000000	51.152372 
4389.000000	50.155758 
4388.000000	49.704313 
4387.000000	50.012469 
4386.000000	51.164627 
4385.000000	53.089737 
4384.000000	55.574059 
4383.000000	58.310484 
4382.000000	60.969185 
4381.000000	63.267779 
4380.000000	65.026807 
4379.000000	66.192102 
4378.000000	66.814970 
4377.000000	67.025637 
4376.000000	66.979527 
4375.000000	66.817808 
4374.000000	66.644525 
4373.000000	66.504883 
4372.000000	66.423535 
4371.000000	66.382098 
4370.000000	66.363000 
4369.000000	66.340494 
4368.000000	66.307234 
4367.000000	66.260886 
4366.000000	66.204833 
4365.000000	66.143536 
4364.000000	66.077613 
4363.000000	66.004371 
4362.000000	65.917420 
4361.000000	65.810751 
4360.000000	65.681171 
4359.000000	65.530824 
4358.000000	65.367531 
4357.000000	65.201926 
4356.000000	65.046048 
4355.000000	64.910960 
4354.000000	64.805126 
4353.000000	64.729762 
4352.000000	64.680671 
4351.000000	64.656615 
4350.000000	64.654302 
4349.000000	64.659214 
4348.000000	64.657664 
4347.000000	64.642953 
4346.000000	64.614319 
4345.000000	64.574670 
4344.000000	64.531326 
4343.000000	64.492225 
4342.000000	64.464259 
4341.000000	64.450740 
4340.000000	64.450454 
4339.000000	64.457845 
4338.000000	64.464902 
4337.000000	64.463686 
4336.000000	64.448547 
4335.000000	64.417767 
4334.000000	64.374065 
4333.000000	64.324164 
4332.000000	64.276385 
4331.000000	64.238810 
4330.000000	64.217925 
4329.000000	64.217185 
4328.000000	64.236211 
4327.000000	64.271354 
4326.000000	64.317464 
4325.000000	64.368724 
4324.000000	64.419269 
4323.000000	64.464354 
4322.000000	64.500880 
4321.000000	64.527583 
4320.000000	64.544343 
4319.000000	64.552211 
4318.000000	64.553070 
4317.000000	64.548683 
4316.000000	64.540696 
4315.000000	64.529490 
4314.000000	64.514994 
4313.000000	64.495682 
4312.000000	64.469337 
4311.000000	64.433932 
4310.000000	64.388751 
4309.000000	64.335227 
4308.000000	64.277362 
4307.000000	64.221477 
4306.000000	64.175176 
4305.000000	64.145946 
4304.000000	64.139509 
4303.000000	64.157891 
4302.000000	64.198732 
4301.000000	64.255976 
4300.000000	64.320755 
4299.000000	64.383244 
4298.000000	64.434695 
4297.000000	64.468908 
4296.000000	64.483165 
4295.000000	64.478111 
4294.000000	64.457106 
4293.000000	64.424490 
4292.000000	64.385485 
4291.000000	64.344573 
4290.000000	64.305996 
4289.000000	64.273667 
4288.000000	64.251041 
4287.000000	64.241909 
4286.000000	64.248561 
4285.000000	64.271664 
4284.000000	64.308953 
4283.000000	64.355301 
4282.000000	64.402890 
4281.000000	64.442539 
4280.000000	64.465594 
4279.000000	64.465522 
4278.000000	64.439415 
4277.000000	64.388537 
4276.000000	64.317798 
4275.000000	64.234805 
4274.000000	64.148163 
4273.000000	64.066100 
4272.000000	63.994932 
4271.000000	63.939166 
4270.000000	63.901352 
4269.000000	63.883137 
4268.000000	63.885068 
4267.000000	63.907480 
4266.000000	63.949918 
4265.000000	64.011287 
4264.000000	64.088177 
4263.000000	64.175629 
4262.000000	64.266705 
4261.000000	64.353609 
4260.000000	64.428496 
4259.000000	64.484906 
4258.000000	64.518690 
4257.000000	64.528489 
4256.000000	64.516067 
4255.000000	64.485454 
4254.000000	64.441943 
4253.000000	64.391183 
4252.000000	64.338111 
4251.000000	64.286136 
4250.000000	64.236807 
4249.000000	64.190435 
4248.000000	64.146685 
4247.000000	64.104914 
4246.000000	64.065027 
4245.000000	64.027714 
4244.000000	63.994741 
4243.000000	63.967990 
4242.000000	63.949704 
4241.000000	63.941502 
4240.000000	63.943862 
4239.000000	63.955783 
4238.000000	63.974547 
4237.000000	63.996028 
4236.000000	64.015316 
4235.000000	64.027881 
4234.000000	64.029860 
4233.000000	64.018750 
4232.000000	63.994169 
4231.000000	63.957834 
4230.000000	63.913512 
4229.000000	63.866019 
4228.000000	63.821077 
4227.000000	63.784074 
4226.000000	63.759708 
4225.000000	63.751053 
4224.000000	63.759255 
4223.000000	63.783431 
4222.000000	63.820815 
4221.000000	63.867425 
4220.000000	63.918471 
4219.000000	63.969373 
4218.000000	64.016270 
4217.000000	64.056301 
4216.000000	64.087796 
4215.000000	64.109611 
4214.000000	64.121294 
4213.000000	64.122080 
4212.000000	64.111542 
4211.000000	64.088582 
4210.000000	64.052534 
4209.000000	64.003229 
4208.000000	63.941955 
4207.000000	63.871884 
4206.000000	63.798069 
4205.000000	63.727760 
4204.000000	63.669514 
4203.000000	63.631725 
4202.000000	63.620781 
4201.000000	63.639402 
4200.000000	63.685703 
4199.000000	63.753104 
4198.000000	63.831448 
4197.000000	63.908386 
4196.000000	63.971948 
4195.000000	64.013290 
4194.000000	64.028215 
4193.000000	64.017653 
4192.000000	63.986754 
4191.000000	63.943672 
4190.000000	63.896584 
4189.000000	63.851952 
4188.000000	63.812446 
4187.000000	63.777446 
4186.000000	63.743305 
4185.000000	63.706088 
4184.000000	63.662362 
4183.000000	63.611435 
4182.000000	63.554930 
4181.000000	63.496160 
4180.000000	63.439369 
4179.000000	63.387537 
4178.000000	63.343000 
4177.000000	63.306474 
4176.000000	63.278746 
4175.000000	63.260602 
4174.000000	63.254094 
4173.000000	63.262152 
4172.000000	63.288450 
4171.000000	63.336014 
4170.000000	63.405776 
4169.000000	63.495397 
4168.000000	63.599109 
4167.000000	63.708066 
4166.000000	63.812041 
4165.000000	63.900828 
4164.000000	63.966870 
4163.000000	64.005780 
4162.000000	64.017653 
4161.000000	64.005947 
4160.000000	63.977336 
4159.000000	63.939166 
4158.000000	63.898420 
4157.000000	63.859772 
4156.000000	63.826274 
4155.000000	63.798069 
4154.000000	63.773965 
4153.000000	63.751482 
4152.000000	63.728523 
4151.000000	63.703966 
4150.000000	63.678121 
4149.000000	63.653135 
4148.000000	63.632297 
4147.000000	63.619780 
4146.000000	63.619446 
4145.000000	63.634276 
4144.000000	63.665151 
4143.000000	63.710832 
4142.000000	63.767838 
4141.000000	63.830399 
4140.000000	63.891744 
4139.000000	63.945531 
4138.000000	63.987374 
4137.000000	64.014983 
4136.000000	64.028906 
4135.000000	64.032340 
4134.000000	64.029788 
4133.000000	64.025902 
4132.000000	64.023613 
4131.000000	64.024114 
4130.000000	64.025712 
4129.000000	64.025187 
4128.000000	64.018177 
4127.000000	64.000511 
4126.000000	63.969922 
4125.000000	63.927197 
4124.000000	63.875961 
4123.000000	63.822150 
4122.000000	63.772678 
4121.000000	63.734030 
4120.000000	63.709950 
4119.000000	63.700389 
4118.000000	63.701415 
4117.000000	63.705968 
4116.000000	63.705635 
4115.000000	63.692951 
4114.000000	63.662862 
4113.000000	63.614296 
4112.000000	63.550138 
4111.000000	63.476848 
4110.000000	63.402271 
4109.000000	63.334774 
4108.000000	63.281464 
4107.000000	63.247251 
4106.000000	63.233685 
4105.000000	63.239979 
4104.000000	63.263273 
4103.000000	63.299894 
4102.000000	63.345456 
4101.000000	63.396716 
4100.000000	63.451075 
4099.000000	63.507676 
4098.000000	63.566112 
4097.000000	63.626718 
4096.000000	63.689303 
4095.000000	63.752841 
4094.000000	63.815331 
4093.000000	63.873052 
4092.000000	63.921284 
4091.000000	63.955354 
4090.000000	63.971948 
4089.000000	63.969922 
4088.000000	63.950991 
4087.000000	63.920450 
4086.000000	63.885569 
4085.000000	63.854837 
4084.000000	63.834929 
4083.000000	63.829994 
4082.000000	63.839602 
4081.000000	63.859319 
4080.000000	63.881301 
4079.000000	63.896417 
4078.000000	63.896989 
4077.000000	63.878154 
4076.000000	63.840198 
4075.000000	63.787889 
4074.000000	63.730049 
4073.000000	63.676667 
4072.000000	63.637471 
4071.000000	63.618874 
4070.000000	63.623499 
4069.000000	63.649797 
4068.000000	63.692879 
4067.000000	63.745927 
4066.000000	63.801765 
4065.000000	63.854360 
4064.000000	63.899326 
4063.000000	63.934254 
4062.000000	63.958406 
4061.000000	63.972115 
4060.000000	63.976216 
4059.000000	63.971281 
4058.000000	63.958144 
4057.000000	63.937520 
4056.000000	63.910484 
4055.000000	63.878297 
4054.000000	63.842487 
4053.000000	63.804745 
4052.000000	63.767051 
4051.000000	63.731741 
4050.000000	63.701033 
4049.000000	63.677453 
4048.000000	63.663387 
4047.000000	63.660955 
4046.000000	63.671064 
4045.000000	63.693928 
4044.000000	63.727927 
4043.000000	63.770723 
4042.000000	63.819026 
4041.000000	63.869524 
4040.000000	63.919305 
4039.000000	63.966202 
4038.000000	64.008569 
4037.000000	64.045071 
4036.000000	64.074420 
4035.000000	64.095067 
4034.000000	64.105248 
4033.000000	64.103055 
4032.000000	64.087104 
4031.000000	64.057612 
4030.000000	64.016842 
4029.000000	63.969397 
4028.000000	63.921785 
4027.000000	63.881254 
4026.000000	63.854837 
4025.000000	63.847589 
4024.000000	63.861918 
4023.000000	63.897037 
4022.000000	63.949275 
4021.000000	64.012646 
4020.000000	64.080333 
4019.000000	64.145708 
4018.000000	64.203500 
4017.000000	64.250278 
4016.000000	64.284777 
4015.000000	64.307594 
4014.000000	64.320516 
4013.000000	64.325571 
4012.000000	64.324760 
4011.000000	64.319658 
4010.000000	64.310860 
4009.000000	64.298367 
4008.000000	64.281845 
4007.000000	64.261078 
4006.000000	64.236235 
4005.000000	64.208197 
4004.000000	64.178752 
4003.000000	64.150214 
4002.000000	64.125180 
4001.000000	64.105677 
4000.000000	64.092683 
3999.000000	64.085459 
3998.000000	64.082145 
3997.000000	64.079570 
3996.000000	64.074158 
3995.000000	64.062619 
3994.000000	64.042925 
3993.000000	64.014768 
3992.000000	63.979363 
3991.000000	63.938879 
3990.000000	63.895964 
3989.000000	63.853001 
3988.000000	63.811635 
3987.000000	63.772678 
3986.000000	63.735795 
3985.000000	63.700652 
3984.000000	63.667440 
3983.000000	63.636970 
3982.000000	63.611054 
3981.000000	63.591861 
3980.000000	63.581728 
3979.000000	63.581919 
3978.000000	63.592696 
3977.000000	63.612556 
3976.000000	63.639116 
3975.000000	63.669276 
3974.000000	63.700318 
3973.000000	63.730382 
3972.000000	63.758778 
3971.000000	63.786029 
3970.000000	63.812994 
3969.000000	63.840341 
3968.000000	63.867616 
3967.000000	63.893485 
3966.000000	63.915371 
3965.000000	63.930106 
3964.000000	63.934636 
3963.000000	63.927602 
3962.000000	63.909220 
3961.000000	63.881444 
3960.000000	63.847756 
3959.000000	63.812637 
3958.000000	63.780164 
3957.000000	63.753366 
3956.000000	63.733983 
3955.000000	63.722300 
3954.000000	63.717484 
3953.000000	63.718080 
3952.000000	63.722586 
3951.000000	63.729763 
3950.000000	63.738489 
3949.000000	63.747906 
3948.000000	63.756823 
3947.000000	63.763999 
3946.000000	63.767719 
3945.000000	63.766765 
3944.000000	63.760209 
3943.000000	63.748478 
3942.000000	63.733339 
3941.000000	63.717675 
3940.000000	63.704991 
3939.000000	63.698506 
3938.000000	63.700413 
3937.000000	63.711261 
3936.000000	63.729763 
3935.000000	63.753151 
3934.000000	63.777875 
3933.000000	63.800477 
3932.000000	63.818335 
3931.000000	63.829922 
3930.000000	63.834786 
3929.000000	63.833403 
3928.000000	63.826775 
3927.000000	63.815808 
3926.000000	63.801336 
3925.000000	63.784360 
3924.000000	63.766169 
3923.000000	63.748550 
3922.000000	63.733434 
3921.000000	63.723325 
3920.000000	63.720083 
3919.000000	63.724660 
3918.000000	63.736629 
3917.000000	63.753819 
3916.000000	63.772988 
3915.000000	63.790535 
3914.000000	63.803482 
3913.000000	63.809990 
3912.000000	63.809990 
3911.000000	63.805270 
3910.000000	63.798570 
3909.000000	63.792729 
3908.000000	63.790059 
3907.000000	63.791489 
3906.000000	63.796687 
3905.000000	63.804149 
3904.000000	63.811922 
3903.000000	63.818264 
3902.000000	63.822197 
3901.000000	63.824033 
3900.000000	63.825058 
3899.000000	63.827395 
3898.000000	63.832950 
3897.000000	63.843154 
3896.000000	63.858389 
3895.000000	63.877964 
3894.000000	63.900566 
3893.000000	63.924241 
3892.000000	63.947176 
3891.000000	63.967561 
3890.000000	63.984274 
3889.000000	63.995909 
3888.000000	64.001083 
3887.000000	63.998031 
3886.000000	63.985300 
3885.000000	63.961839 
3884.000000	63.927531 
3883.000000	63.883948 
3882.000000	63.834476 
3881.000000	63.784599 
3880.000000	63.741183 
3879.000000	63.711166 
3878.000000	63.700199 
3877.000000	63.711166 
3876.000000	63.743638 
3875.000000	63.793325 
3874.000000	63.853001 
3873.000000	63.914346 
3872.000000	63.969230 
3871.000000	64.011383 
3870.000000	64.037156 
3869.000000	64.045786 
3868.000000	64.039397 
3867.000000	64.021325 
3866.000000	63.996553 
3865.000000	63.970375 
3864.000000	63.948249 
3863.000000	63.935446 
3862.000000	63.936114 
3861.000000	63.953638 
3860.000000	63.988947 
3859.000000	64.040756 
3858.000000	64.104509 
3857.000000	64.173364 
3856.000000	64.238739 
3855.000000	64.291477 
3854.000000	64.324259 
3853.000000	64.333128 
3852.000000	64.318346 
3851.000000	64.284300 
3850.000000	64.238071 
3849.000000	64.187407 
3848.000000	64.139294 
3847.000000	64.098381 
3846.000000	64.066791 
3845.000000	64.043784 
3844.000000	64.027428 
3843.000000	64.015102 
3842.000000	64.004349 
3841.000000	63.993453 
3840.000000	63.981080 
3839.000000	63.966727 
3838.000000	63.950634 
3837.000000	63.933348 
3836.000000	63.915848 
3835.000000	63.898849 
3834.000000	63.882493 
3833.000000	63.865876 
3832.000000	63.847661 
3831.000000	63.825583 
3830.000000	63.797187 
3829.000000	63.760471 
3828.000000	63.714289 
3827.000000	63.660049 
3826.000000	63.601589 
3825.000000	63.545036 
3824.000000	63.497352 
3823.000000	63.465595 
3822.000000	63.455057 
3821.000000	63.467860 
3820.000000	63.502359 
3819.000000	63.553571 
3818.000000	63.614463 
3817.000000	63.677334 
3816.000000	63.735556 
3815.000000	63.784360 
3814.000000	63.821864 
3813.000000	63.848423 
3812.000000	63.866829 
3811.000000	63.881087 
3810.000000	63.895297 
3809.000000	63.913488 
3808.000000	63.937640 
3807.000000	63.968372 
3806.000000	64.003682 
3805.000000	64.040589 
3804.000000	64.074325 
3803.000000	64.100027 
3802.000000	64.113020 
3801.000000	64.110136 
3800.000000	64.089941 
3799.000000	64.053106 
3798.000000	64.002513 
3797.000000	63.942837 
3796.000000	63.879632 
3795.000000	63.818430 
3794.000000	63.764119 
3793.000000	63.719964 
3792.000000	63.687205 
3791.000000	63.664960 
3790.000000	63.650703 
3789.000000	63.640904 
3788.000000	63.631820 
3787.000000	63.620662 
3786.000000	63.605499 
3785.000000	63.586568 
3784.000000	63.565683 
3783.000000	63.546347 
3782.000000	63.532185 
3781.000000	63.526511 
3780.000000	63.531160 
3779.000000	63.545942 
3778.000000	63.568782 
3777.000000	63.595867 
3776.000000	63.622856 
3775.000000	63.645839 
3774.000000	63.662219 
3773.000000	63.671183 
3772.000000	63.673925 
3771.000000	63.672995 
3770.000000	63.671469 
3769.000000	63.672089 
3768.000000	63.676524 
3767.000000	63.685083 
3766.000000	63.696980 
3765.000000	63.710618 
3764.000000	63.724231 
3763.000000	63.736724 
3762.000000	63.748216 
3761.000000	63.759636 
3760.000000	63.772630 
3759.000000	63.788914 
3758.000000	63.809728 
3757.000000	63.835287 
3756.000000	63.864707 
3755.000000	63.896393 
3754.000000	63.927960 
3753.000000	63.957285 
3752.000000	63.982415 
3751.000000	64.002370 
3750.000000	64.016747 
3749.000000	64.025712 
3748.000000	64.029622 
3747.000000	64.028882 
3746.000000	64.023852 
3745.000000	64.015007 
3744.000000	64.002966 
3743.000000	63.988637 
3742.000000	63.973426 
3741.000000	63.959074 
3740.000000	63.947033 
3739.000000	63.938260 
3738.000000	63.932681 
3737.000000	63.929295 
3736.000000	63.926172 
3735.000000	63.921022 
3734.000000	63.911914 
3733.000000	63.898086 
3732.000000	63.880181 
3731.000000	63.860225 
3730.000000	63.841605 
3729.000000	63.828039 
3728.000000	63.822531 
3727.000000	63.826417 
3726.000000	63.839149 
3725.000000	63.858509 
3724.000000	63.880753 
3723.000000	63.901925 
3722.000000	63.918995 
3721.000000	63.930392 
3720.000000	63.936376 
3719.000000	63.938426 
3718.000000	63.938689 
3717.000000	63.938736 
3716.000000	63.938760 
3715.000000	63.937234 
3714.000000	63.931226 
3713.000000	63.917350 
3712.000000	63.893032 
3711.000000	63.857436 
3710.000000	63.811898 
3709.000000	63.760375 
3708.000000	63.708305 
3707.000000	63.660979 
3706.000000	63.622426 
3705.000000	63.594317 
3704.000000	63.575887 
3703.000000	63.564252 
3702.000000	63.555693 
3701.000000	63.546824 
3700.000000	63.535952 
3699.000000	63.523316 
3698.000000	63.511180 
3697.000000	63.502526 
3696.000000	63.500189 
3695.000000	63.505768 
3694.000000	63.518571 
3693.000000	63.535594 
3692.000000	63.552141 
3691.000000	63.563084 
3690.000000	63.564157 
3689.000000	63.553142 
3688.000000	63.530921 
3687.000000	63.501405 
3686.000000	63.470959 
3685.000000	63.447022 
3684.000000	63.436579 
3683.000000	63.444519 
3682.000000	63.473105 
3681.000000	63.521051 
3680.000000	63.583755 
3679.000000	63.653993 
3678.000000	63.723516 
3677.000000	63.784217 
3676.000000	63.829612 
3675.000000	63.855552 
3674.000000	63.860583 
3673.000000	63.845753 
3672.000000	63.814139 
3671.000000	63.769841 
3670.000000	63.717603 
3669.000000	63.661932 
3668.000000	63.607287 
3667.000000	63.557291 
3666.000000	63.515114 
3665.000000	63.482594 
3664.000000	63.460373 
3663.000000	63.447904 
3662.000000	63.443541 
3661.000000	63.445258 
3660.000000	63.450980 
3659.000000	63.459467 
3658.000000	63.470339 
3657.000000	63.484525 
3656.000000	63.503527 
3655.000000	63.528752 
3654.000000	63.560461 
3653.000000	63.596987 
3652.000000	63.634133 
3651.000000	63.666057 
3650.000000	63.685989 
3649.000000	63.688278 
3648.000000	63.669276 
3647.000000	63.628935 
3646.000000	63.570499 
3645.000000	63.500118 
3644.000000	63.425803 
3643.000000	63.355469 
3642.000000	63.296079 
3641.000000	63.252639 
3640.000000	63.227820 
3639.000000	63.222122 
3638.000000	63.234138 
3637.000000	63.261342 
3636.000000	63.300108 
3635.000000	63.346362 
3634.000000	63.395595 
3633.000000	63.443136 
3632.000000	63.484597 
3631.000000	63.516330 
3630.000000	63.536167 
3629.000000	63.543844 
3628.000000	63.541245 
3627.000000	63.531613 
3626.000000	63.518977 
3625.000000	63.506889 
3624.000000	63.498067 
3623.000000	63.493657 
3622.000000	63.493371 
3621.000000	63.495779 
3620.000000	63.499569 
3619.000000	63.503456 
3618.000000	63.506865 
3617.000000	63.509464 
3616.000000	63.510990 
3615.000000	63.510704 
3614.000000	63.507223 
3613.000000	63.498544 
3612.000000	63.482546 
3611.000000	63.457512 
3610.000000	63.422846 
3609.000000	63.379502 
3608.000000	63.330459 
3607.000000	63.279843 
3606.000000	63.232564 
3605.000000	63.192844 
3604.000000	63.163733 
3603.000000	63.146924 
3602.000000	63.142967 
3601.000000	63.151240 
3600.000000	63.170623 
3599.000000	63.199925 
3598.000000	63.238430 
3597.000000	63.285326 
3596.000000	63.339757 
3595.000000	63.400006 
3594.000000	63.463306 
3593.000000	63.526177 
3592.000000	63.583683 
3591.000000	63.630533 
3590.000000	63.661336 
3589.000000	63.672232 
3588.000000	63.661193 
3587.000000	63.629221 
3586.000000	63.579773 
3585.000000	63.519048 
3584.000000	63.453888 
3583.000000	63.391160 
3582.000000	63.336038 
3581.000000	63.291597 
3580.000000	63.258099 
3579.000000	63.233566 
3578.000000	63.214468 
3577.000000	63.197183 
3576.000000	63.178968 
3575.000000	63.159084 
3574.000000	63.138556 
3573.000000	63.120412 
3572.000000	63.108325 
3571.000000	63.106203 
3570.000000	63.116526 
3569.000000	63.140082 
3568.000000	63.175511 
3567.000000	63.219380 
3566.000000	63.267016 
3565.000000	63.312840 
3564.000000	63.351368 
3563.000000	63.378119 
3562.000000	63.389921 
3561.000000	63.386034 
3560.000000	63.367938 
3559.000000	63.339543 
3558.000000	63.306188 
3557.000000	63.273501 
3556.000000	63.246631 
3555.000000	63.228845 
3554.000000	63.221240 
3553.000000	63.221955 
3552.000000	63.226938 
3551.000000	63.231062 
3550.000000	63.229417 
3549.000000	63.218355 
3548.000000	63.196563 
3547.000000	63.165283 
3546.000000	63.128280 
3545.000000	63.090825 
3544.000000	63.058900 
3543.000000	63.037467 
3542.000000	63.029980 
3541.000000	63.038039 
3540.000000	63.061189 
3539.000000	63.097167 
3538.000000	63.142228 
3537.000000	63.191843 
3536.000000	63.241028 
3535.000000	63.285017 
3534.000000	63.319754 
3533.000000	63.342428 
3532.000000	63.351726 
3531.000000	63.348126 
3530.000000	63.333511 
3529.000000	63.310718 
3528.000000	63.283276 
3527.000000	63.255000 
3526.000000	63.228964 
3525.000000	63.207244 
3524.000000	63.191008 
3523.000000	63.180232 
3522.000000	63.174057 
3521.000000	63.170742 
3520.000000	63.167905 
3519.000000	63.162899 
3518.000000	63.153052 
3517.000000	63.136410 
3516.000000	63.111448 
3515.000000	63.078165 
3514.000000	63.037848 
3513.000000	62.993574 
3512.000000	62.949609 
3511.000000	62.911057 
3510.000000	62.882685 
3509.000000	62.868475 
3508.000000	62.870192 
3507.000000	62.887883 
3506.000000	62.919187 
3505.000000	62.960600 
3504.000000	63.007760 
3503.000000	63.056850 
3502.000000	63.104891 
3501.000000	63.150262 
3500.000000	63.192319 
3499.000000	63.230490 
3498.000000	63.263678 
3497.000000	63.289809 
3496.000000	63.305830 
3495.000000	63.308286 
3494.000000	63.294386 
3493.000000	63.263368 
3492.000000	63.217258 
3491.000000	63.160991 
3490.000000	63.101577 
3489.000000	63.047099 
3488.000000	63.004684 
3487.000000	62.979054 
3486.000000	62.971282 
3485.000000	62.978553 
3484.000000	62.995600 
3483.000000	63.015580 
3482.000000	63.033103 
3481.000000	63.044762 
3480.000000	63.051247 
3479.000000	63.056159 
3478.000000	63.065719 
3477.000000	63.086175 
3476.000000	63.122200 
3475.000000	63.175058 
3474.000000	63.241791 
3473.000000	63.315606 
3472.000000	63.387203 
3471.000000	63.446903 
3470.000000	63.486671 
3469.000000	63.501834 
3468.000000	63.492155 
3467.000000	63.461732 
3466.000000	63.417696 
3465.000000	63.368439 
3464.000000	63.321638 
3463.000000	63.282561 
3462.000000	63.253617 
3461.000000	63.234210 
3460.000000	63.221788 
3459.000000	63.212966 
3458.000000	63.205146 
3457.000000	63.197207 
3456.000000	63.189721 
3455.000000	63.184833 
3454.000000	63.184785 
3453.000000	63.191556 
3452.000000	63.205814 
3451.000000	63.226699 
3450.000000	63.251543 
3449.000000	63.277006 
3448.000000	63.299894 
3447.000000	63.317775 
3446.000000	63.329505 
3445.000000	63.335156 
3444.000000	63.335752 
3443.000000	63.332724 
3442.000000	63.327264 
3441.000000	63.320207 
3440.000000	63.311815 
3439.000000	63.302087 
3438.000000	63.290643 
3437.000000	63.277482 
3436.000000	63.262557 
3435.000000	63.246297 
3434.000000	63.228964 
3433.000000	63.210511 
3432.000000	63.190436 
3431.000000	63.168263 
3430.000000	63.143420 
3429.000000	63.115549 
3428.000000	63.084840 
3427.000000	63.052344 
3426.000000	63.019824 
3425.000000	62.989544 
3424.000000	62.963962 
3423.000000	62.944817 
3422.000000	62.933492 
3421.000000	62.930321 
3420.000000	62.934947 
3419.000000	62.946176 
3418.000000	62.962698 
3417.000000	62.983083 
3416.000000	63.006043 
3415.000000	63.030195 
3414.000000	63.054108 
3413.000000	63.076233 
3412.000000	63.094830 
3411.000000	63.108301 
3410.000000	63.115358 
3409.000000	63.115477 
3408.000000	63.109350 
3407.000000	63.098716 
3406.000000	63.086175 
3405.000000	63.074707 
3404.000000	63.067102 
3403.000000	63.065052 
3402.000000	63.068914 
3401.000000	63.077282 
3400.000000	63.087749 
3399.000000	63.096785 
3398.000000	63.100814 
3397.000000	63.097000 
3396.000000	63.083863 
3395.000000	63.061666 
3394.000000	63.032293 
3393.000000	62.999057 
3392.000000	62.965774 
3391.000000	62.936544 
3390.000000	62.914800 
3389.000000	62.902903 
3388.000000	62.901735 
3387.000000	62.910795 
3386.000000	62.928318 
3385.000000	62.951660 
3384.000000	62.977576 
3383.000000	63.002848 
3382.000000	63.024616 
3381.000000	63.040471 
3380.000000	63.048720 
3379.000000	63.048315 
3378.000000	63.039207 
3377.000000	63.022017 
3376.000000	62.998509 
3375.000000	62.971544 
3374.000000	62.944722 
3373.000000	62.922263 
3372.000000	62.907886 
3371.000000	62.904357 
3370.000000	62.912440 
3369.000000	62.931084 
3368.000000	62.956762 
3367.000000	62.984418 
3366.000000	63.008284 
3365.000000	63.023400 
3364.000000	63.026452 
3363.000000	63.016366 
3362.000000	62.994837 
3361.000000	62.965536 
3360.000000	62.933111 
3359.000000	62.901687 
3358.000000	62.874293 
3357.000000	62.852096 
3356.000000	62.834644 
3355.000000	62.820148 
3354.000000	62.806415 
3353.000000	62.791728 
3352.000000	62.775301 
3351.000000	62.757754 
3350.000000	62.740039 
3349.000000	62.723946 
3348.000000	62.710809 
3347.000000	62.701773 
3346.000000	62.697172 
3345.000000	62.697124 
3344.000000	62.701296 
3343.000000	62.709760 
3342.000000	62.722778 
3341.000000	62.740921 
3340.000000	62.764739 
3339.000000	62.794494 
3338.000000	62.829613 
3337.000000	62.868738 
3336.000000	62.909674 
3335.000000	62.949752 
3334.000000	62.986159 
3333.000000	63.016319 
3332.000000	63.038301 
3331.000000	63.050913 
3330.000000	63.053655 
3329.000000	63.046669 
3328.000000	63.030338 
3327.000000	63.005661 
3326.000000	62.974071 
3325.000000	62.937450 
3324.000000	62.898063 
3323.000000	62.859010 
3322.000000	62.823629 
3321.000000	62.795138 
3320.000000	62.776184 
3319.000000	62.768292 
3318.000000	62.771487 
3317.000000	62.784194 
3316.000000	62.803363 
3315.000000	62.824988 
3314.000000	62.844944 
3313.000000	62.860131 
3312.000000	62.868595 
3311.000000	62.869954 
3310.000000	62.865328 
3309.000000	62.856864 
3308.000000	62.847065 
3307.000000	62.838029 
3306.000000	62.831306 
3305.000000	62.827324 
3304.000000	62.825608 
3303.000000	62.825036 
3302.000000	62.824559 
3301.000000	62.823438 
3300.000000	62.821531 
3299.000000	62.819576 
3298.000000	62.819027 
3297.000000	62.821698 
3296.000000	62.829327 
3295.000000	62.842893 
3294.000000	62.862205 
3293.000000	62.885499 
3292.000000	62.909817 
3291.000000	62.930989 
3290.000000	62.944197 
3289.000000	62.945389 
3288.000000	62.931823 
3287.000000	62.903332 
3286.000000	62.862396 
3285.000000	62.814116 
3284.000000	62.765097 
3283.000000	62.722373 
3282.000000	62.691879 
3281.000000	62.676739 
3280.000000	62.676835 
3279.000000	62.688827 
3278.000000	62.707066 
3277.000000	62.724900 
3276.000000	62.736463 
3275.000000	62.737822 
3274.000000	62.728047 
3273.000000	62.708830 
3272.000000	62.683963 
3271.000000	62.657666 
3270.000000	62.633919 
3269.000000	62.614870 
3268.000000	62.601017 
3267.000000	62.591099 
3266.000000	62.583088 
3265.000000	62.575387 
3264.000000	62.567234 
3263.000000	62.558913 
3262.000000	62.551689 
3261.000000	62.547254 
3260.000000	62.546777 
3259.000000	62.550234 
3258.000000	62.556147 
3257.000000	62.562060 
3256.000000	62.564897 
3255.000000	62.561821 
3254.000000	62.551212 
3253.000000	62.533187 
3252.000000	62.509274 
3251.000000	62.481880 
3250.000000	62.453913 
3249.000000	62.427926 
3248.000000	62.405395 
3247.000000	62.386703 
3246.000000	62.371158 
3245.000000	62.357735 
3244.000000	62.345433 
3243.000000	62.334251 
3242.000000	62.324762 
3241.000000	62.318587 
3240.000000	62.317299 
3239.000000	62.322688 
3238.000000	62.335705 
3237.000000	62.356662 
3236.000000	62.384581 
3235.000000	62.417840 
3234.000000	62.454199 
3233.000000	62.491559 
3232.000000	62.527918 
3231.000000	62.561941 
3230.000000	62.592744 
3229.000000	62.620115 
3228.000000	62.644457 
3227.000000	62.666487 
3226.000000	62.686777 
3225.000000	62.705779 
3224.000000	62.723398 
3223.000000	62.738871 
3222.000000	62.750792 
3221.000000	62.757110 
3220.000000	62.755656 
3219.000000	62.744998 
3218.000000	62.724971 
3217.000000	62.696957 
3216.000000	62.664198 
3215.000000	62.631678 
3214.000000	62.604880 
3213.000000	62.588810 
3212.000000	62.586617 
3211.000000	62.599158 
3210.000000	62.624311 
3209.000000	62.657713 
3208.000000	62.693428 
3207.000000	62.725257 
3206.000000	62.747740 
3205.000000	62.757420 
3204.000000	62.752699 
3203.000000	62.733697 
3202.000000	62.702035 
3201.000000	62.660241 
3200.000000	62.610864 
3199.000000	62.556242 
3198.000000	62.498855 
3197.000000	62.441325 
3196.000000	62.386536 
3195.000000	62.337946 
3194.000000	62.299251 
3193.000000	62.274003 
3192.000000	62.264633 
3191.000000	62.272214 
3190.000000	62.295722 
3189.000000	62.332558 
3188.000000	62.378430 
3187.000000	62.428331 
3186.000000	62.476968 
3185.000000	62.519717 
3184.000000	62.553191 
3183.000000	62.575125 
3182.000000	62.584280 
3181.000000	62.580323 
3180.000000	62.563681 
3179.000000	62.535238 
3178.000000	62.496471 
3177.000000	62.449479 
3176.000000	62.397360 
3175.000000	62.344336 
3174.000000	62.295484 
3173.000000	62.256073 
3172.000000	62.230634 
3171.000000	62.221765 
3170.000000	62.229633 
3169.000000	62.251567 
3168.000000	62.282824 
3167.000000	62.317061 
3166.000000	62.348175 
3165.000000	62.371373 
3164.000000	62.384605 
3163.000000	62.388300 
3162.000000	62.385392 
3161.000000	62.380051 
3160.000000	62.376689 
3159.000000	62.378358 
3158.000000	62.386274 
3157.000000	62.399554 
3156.000000	62.415790 
3155.000000	62.432169 
3154.000000	62.445855 
3153.000000	62.455153 
3152.000000	62.459230 
3151.000000	62.458133 
3150.000000	62.452268 
3149.000000	62.442088 
3148.000000	62.427735 
3147.000000	62.409305 
3146.000000	62.387418 
3145.000000	62.363314 
3144.000000	62.339115 
3143.000000	62.317299 
3142.000000	62.300610 
3141.000000	62.291240 
3140.000000	62.290048 
3139.000000	62.296557 
3138.000000	62.308549 
3137.000000	62.323164 
3136.000000	62.337470 
3135.000000	62.349534 
3134.000000	62.358427 
3133.000000	62.364673 
3132.000000	62.369847 
3131.000000	62.375760 
3130.000000	62.383556 
3129.000000	62.393593 
3128.000000	62.405085 
3127.000000	62.416577 
3126.000000	62.426519 
3125.000000	62.433981 
3124.000000	62.438917 
3123.000000	62.442255 
3122.000000	62.445497 
3121.000000	62.450122 
3120.000000	62.456989 
3119.000000	62.465953 
3118.000000	62.475705 
3117.000000	62.484049 
3116.000000	62.488532 
3115.000000	62.487268 
3114.000000	62.479472 
3113.000000	62.465596 
3112.000000	62.447094 
3111.000000	62.426161 
3110.000000	62.404990 
3109.000000	62.385320 
3108.000000	62.367987 
3107.000000	62.353134 
3106.000000	62.340283 
3105.000000	62.329006 
3104.000000	62.318944 
3103.000000	62.310028 
3102.000000	62.302255 
3101.000000	62.295675 
3100.000000	62.289905 
3099.000000	62.283968 
3098.000000	62.276601 
3097.000000	62.266254 
3096.000000	62.251973 
3095.000000	62.233519 
3094.000000	62.211847 
3093.000000	62.188935 
3092.000000	62.167549 
3091.000000	62.150502 
3090.000000	62.140130 
3089.000000	62.137842 
3088.000000	62.143802 
3087.000000	62.156867 
3086.000000	62.175393 
3085.000000	62.197351 
3084.000000	62.220788 
3083.000000	62.243890 
3082.000000	62.265062 
3081.000000	62.282681 
3080.000000	62.295317 
3079.000000	62.301564 
3078.000000	62.300443 
3077.000000	62.291860 
3076.000000	62.276792 
3075.000000	62.257289 
3074.000000	62.236261 
3073.000000	62.216997 
3072.000000	62.202477 
3071.000000	62.195062 
3070.000000	62.195944 
3069.000000	62.205052 
3068.000000	62.221193 
3067.000000	62.242579 
3066.000000	62.267041 
3065.000000	62.292361 
3064.000000	62.316489 
3063.000000	62.337398 
3062.000000	62.353277 
3061.000000	62.362289 
3060.000000	62.363123 
3059.000000	62.355184 
3058.000000	62.338924 
3057.000000	62.316250 
3056.000000	62.290096 
3055.000000	62.263989 
3054.000000	62.241291 
3053.000000	62.224745 
3052.000000	62.215542 
3051.000000	62.213540 
3050.000000	62.217044 
3049.000000	62.223672 
3048.000000	62.230587 
3047.000000	62.235069 
3046.000000	62.235116 
3045.000000	62.229561 
3044.000000	62.218308 
3043.000000	62.201976 
3042.000000	62.181925 
3041.000000	62.159705 
3040.000000	62.137293 
3039.000000	62.116670 
3038.000000	62.099647 
3037.000000	62.087607 
3036.000000	62.081456 
3035.000000	62.081217 
3034.000000	62.085819 
3033.000000	62.093544 
3032.000000	62.102270 
3031.000000	62.110257 
3030.000000	62.116146 
3029.000000	62.119889 
3028.000000	62.122440 
3027.000000	62.125968 
3026.000000	62.132954 
3025.000000	62.145781 
3024.000000	62.166023 
3023.000000	62.193822 
3022.000000	62.228012 
3021.000000	62.265706 
3020.000000	62.303113 
3019.000000	62.335729 
3018.000000	62.359619 
3017.000000	62.371730 
3016.000000	62.370514 
3015.000000	62.356042 
3014.000000	62.329888 
3013.000000	62.294840 
3012.000000	62.254190 
3011.000000	62.211441 
3010.000000	62.169647 
3009.000000	62.131071 
3008.000000	62.096977 
3007.000000	62.067985 
3006.000000	62.044119 
3005.000000	62.024974 
3004.000000	62.010407 
3003.000000	62.000012 
3002.000000	61.993718 
3001.000000	61.991119 
3000.000000	61.991786 
2999.000000	61.994528 
2998.000000	61.998152 
2997.000000	62.001228 
2996.000000	62.002611 
2995.000000	62.001419 
2994.000000	61.997580 
2993.000000	61.991739 
2992.000000	61.985063 
2991.000000	61.978769 
2990.000000	61.973929 
2989.000000	61.970996 
2988.000000	61.969614 
2987.000000	61.968636 
2986.000000	61.966753 
2985.000000	61.962771 
2984.000000	61.956238 
2983.000000	61.947536 
2982.000000	61.937713 
2981.000000	61.928319 
2980.000000	61.921072 
2979.000000	61.917257 
2978.000000	61.917352 
2977.000000	61.920928 
2976.000000	61.926865 
2975.000000	61.933636 
2974.000000	61.939477 
2973.000000	61.942791 
2972.000000	61.942577 
2971.000000	61.938476 
2970.000000	61.930918 
2969.000000	61.920928 
2968.000000	61.909747 
2967.000000	61.898446 
2966.000000	61.887884 
2965.000000	61.878132 
2964.000000	61.868810 
2963.000000	61.858868 
2962.000000	61.847257 
2961.000000	61.833095 
2960.000000	61.815953 
2959.000000	61.796307 
2958.000000	61.775636 
2957.000000	61.755919 
2956.000000	61.739349 
2955.000000	61.727881 
2954.000000	61.722636 
2953.000000	61.723637 
2952.000000	61.729836 
2951.000000	61.739635 
2950.000000	61.751103 
2949.000000	61.762523 
2948.000000	61.772727 
2947.000000	61.780881 
2946.000000	61.786556 
2945.000000	61.789417 
2944.000000	61.789321 
2943.000000	61.786222 
2942.000000	61.780190 
2941.000000	61.771678 
2940.000000	61.761188 
2939.000000	61.749434 
2938.000000	61.736989 
2937.000000	61.724424 
2936.000000	61.711835 
2935.000000	61.699223 
2934.000000	61.686134 
2933.000000	61.672210 
2932.000000	61.657094 
2931.000000	61.640524 
2930.000000	61.622500 
2929.000000	61.603379 
2928.000000	61.583495 
2927.000000	61.563444 
2926.000000	61.543989 
2925.000000	61.526012 
2924.000000	61.510539 
2923.000000	61.498737 
2922.000000	61.491870 
2921.000000	61.490917 
2920.000000	61.496019 
2919.000000	61.506485 
2918.000000	61.520504 
2917.000000	61.535835 
2916.000000	61.549949 
2915.000000	61.560845 
2914.000000	61.567568 
2913.000000	61.570334 
2912.000000	61.570286 
2911.000000	61.569070 
2910.000000	61.568427 
2909.000000	61.569571 
2908.000000	61.572837 
2907.000000	61.577773 
2906.000000	61.583185 
2905.000000	61.587619 
2904.000000	61.589694 
2903.000000	61.588501 
2902.000000	61.584043 
2901.000000	61.577057 
2900.000000	61.568999 
2899.000000	61.561632 
2898.000000	61.556601 
2897.000000	61.555027 
2896.000000	61.557435 
2895.000000	61.563515 
2894.000000	61.572384 
2893.000000	61.582756 
2892.000000	61.593484 
2891.000000	61.603784 
2890.000000	61.613464 
2889.000000	61.622977 
2888.000000	61.633276 
2887.000000	61.645340 
2886.000000	61.659765 
2885.000000	61.676526 
2884.000000	61.694502 
2883.000000	61.711692 
2882.000000	61.725473 
2881.000000	61.733436 
2880.000000	61.733746 
2879.000000	61.725854 
2878.000000	61.710572 
2877.000000	61.689901 
2876.000000	61.666679 
2875.000000	61.644077 
2874.000000	61.624526 
2873.000000	61.609411 
2872.000000	61.598896 
2871.000000	61.592149 
2870.000000	61.587691 
2869.000000	61.584091 
2868.000000	61.580443 
2867.000000	61.576747 
2866.000000	61.573934 
2865.000000	61.573195 
2864.000000	61.575627 
2863.000000	61.581563 
2862.000000	61.590075 
2861.000000	61.599063 
2860.000000	61.605501 
2859.000000	61.606240 
2858.000000	61.598658 
2857.000000	61.581659 
2856.000000	61.555910 
2855.000000	61.524128 
2854.000000	61.490345 
2853.000000	61.459469 
2852.000000	61.436152 
2851.000000	61.424183 
2850.000000	61.425566 
2849.000000	61.440324 
2848.000000	61.466598 
2847.000000	61.500978 
2846.000000	61.538982 
2845.000000	61.575818 
2844.000000	61.607074 
2843.000000	61.629080 
2842.000000	61.639666 
2841.000000	61.638021 
2840.000000	61.625146 
2839.000000	61.603283 
2838.000000	61.575675 
2837.000000	61.546397 
2836.000000	61.519312 
2835.000000	61.497879 
2834.000000	61.484527 
2833.000000	61.480474 
2832.000000	61.485981 
2831.000000	61.500120 
2830.000000	61.521625 
2829.000000	61.548757 
2828.000000	61.579847 
2827.000000	61.613368 
2826.000000	61.647820 
2825.000000	61.681556 
2824.000000	61.712670 
2823.000000	61.738920 
2822.000000	61.757898 
2821.000000	61.767268 
2820.000000	61.765122 
2819.000000	61.750316 
2818.000000	61.723041 
2817.000000	61.685013 
2816.000000	61.639523 
2815.000000	61.591076 
2814.000000	61.544752 
2813.000000	61.505293 
2812.000000	61.476612 
2811.000000	61.461091 
2810.000000	61.458826 
2809.000000	61.468052 
2808.000000	61.485576 
2807.000000	61.507368 
2806.000000	61.529231 
2805.000000	61.547493 
2804.000000	61.559343 
2803.000000	61.563134 
2802.000000	61.558341 
2801.000000	61.545658 
2800.000000	61.526536 
2799.000000	61.503171 
2798.000000	61.477804 
2797.000000	61.452746 
2796.000000	61.429977 
2795.000000	61.410999 
2794.000000	61.396622 
2793.000000	61.387133 
2792.000000	61.382460 
2791.000000	61.382126 
2790.000000	61.385321 
2789.000000	61.390805 
2788.000000	61.396980 
2787.000000	61.401915 
2786.000000	61.403846 
2785.000000	61.401033 
2784.000000	61.392450 
2783.000000	61.378097 
2782.000000	61.359024 
2781.000000	61.336946 
2780.000000	61.314320 
2779.000000	61.293649 
2778.000000	61.277127 
2777.000000	61.265993 
2776.000000	61.260485 
2775.000000	61.259698 
2774.000000	61.262083 
2773.000000	61.265826 
2772.000000	61.269330 
2771.000000	61.271524 
2770.000000	61.272263 
2769.000000	61.272168 
2768.000000	61.272406 
2767.000000	61.274290 
2766.000000	61.278939 
2765.000000	61.287021 
2764.000000	61.298418 
2763.000000	61.312460 
2762.000000	61.327815 
2761.000000	61.342930 
2760.000000	61.356282 
2759.000000	61.366629 
2758.000000	61.373329 
2757.000000	61.376428 
2756.000000	61.376380 
2755.000000	61.374020 
2754.000000	61.370229 
2753.000000	61.365604 
2752.000000	61.360359 
2751.000000	61.354303 
2750.000000	61.347270 
2749.000000	61.339092 
2748.000000	61.329936 
2747.000000	61.320376 
2746.000000	61.311388 
2745.000000	61.304187 
2744.000000	61.299753 
2743.000000	61.298823 
2742.000000	61.301565 
2741.000000	61.307334 
2740.000000	61.314916 
2739.000000	61.322689 
2738.000000	61.329174 
2737.000000	61.333060 
2736.000000	61.333656 
2735.000000	61.330962 
2734.000000	61.325526 
2733.000000	61.318373 
2732.000000	61.310505 
2731.000000	61.302947 
2730.000000	61.296081 
2729.000000	61.289954 
2728.000000	61.283946 
2727.000000	61.277008 
2726.000000	61.267948 
2725.000000	61.255645 
2724.000000	61.239647 
2723.000000	61.220216 
2722.000000	61.198520 
2721.000000	61.176466 
2720.000000	61.156249 
2719.000000	61.139869 
2718.000000	61.128735 
2717.000000	61.123251 
2716.000000	61.122727 
2715.000000	61.125659 
2714.000000	61.129951 
2713.000000	61.133503 
2712.000000	61.134624 
2711.000000	61.132144 
2710.000000	61.125707 
2709.000000	61.115741 
2708.000000	61.103153 
2707.000000	61.088991 
2706.000000	61.074447 
2705.000000	61.060452 
2704.000000	61.047911 
2703.000000	61.037349 
2702.000000	61.029219 
2701.000000	61.023759 
2700.000000	61.020803 
2699.000000	61.019849 
2698.000000	61.020088 
2697.000000	61.020588 
2696.000000	61.020278 
2695.000000	61.018443 
2694.000000	61.014819 
2693.000000	61.009740 
2692.000000	61.004066 
2691.000000	60.999083 
2690.000000	60.996174 
2689.000000	60.996413 
2688.000000	61.000275 
2687.000000	61.007642 
2686.000000	61.017560 
2685.000000	61.028718 
2684.000000	61.039471 
2683.000000	61.048388 
2682.000000	61.054635 
2681.000000	61.057949 
2680.000000	61.058783 
2679.000000	61.058115 
2678.000000	61.056923 
2677.000000	61.056137 
2676.000000	61.055994 
2675.000000	61.056351 
2674.000000	61.056351 
2673.000000	61.055183 
2672.000000	61.051988 
2671.000000	61.046433 
2670.000000	61.038541 
2669.000000	61.028790 
2668.000000	61.017894 
2667.000000	61.006641 
2666.000000	60.995674 
2665.000000	60.985350 
2664.000000	60.975766 
2663.000000	60.966658 
2662.000000	60.957717 
2661.000000	60.948538 
2660.000000	60.938882 
2659.000000	60.928678 
2658.000000	60.918188 
2657.000000	60.908007 
2656.000000	60.899043 
2655.000000	60.892200 
2654.000000	60.888457 
2653.000000	60.888457 
2652.000000	60.892319 
2651.000000	60.899186 
2650.000000	60.907649 
2649.000000	60.915613 
2648.000000	60.920572 
2647.000000	60.920453 
2646.000000	60.913991 
2645.000000	60.901093 
2644.000000	60.883212 
2643.000000	60.862612 
2642.000000	60.841989 
2641.000000	60.823774 
2640.000000	60.809564 
2639.000000	60.799956 
2638.000000	60.794472 
2637.000000	60.792064 
2636.000000	60.791540 
2635.000000	60.792183 
2634.000000	60.793709 
2633.000000	60.796523 
2632.000000	60.801506 
2631.000000	60.809445 
2630.000000	60.820555 
2629.000000	60.834169 
2628.000000	60.848617 
2627.000000	60.861372 
2626.000000	60.869431 
2625.000000	60.870194 
2624.000000	60.861778 
2623.000000	60.843729 
2622.000000	60.817050 
2621.000000	60.784244 
2620.000000	60.749101 
2619.000000	60.715889 
2618.000000	60.688781 
2617.000000	60.670995 
2616.000000	60.664153 
2615.000000	60.668063 
2614.000000	60.680842 
2613.000000	60.699129 
2612.000000	60.719299 
2611.000000	60.738110 
2610.000000	60.753607 
2609.000000	60.765171 
2608.000000	60.773611 
2607.000000	60.780429 
2606.000000	60.787057 
2605.000000	60.794115 
2604.000000	60.801100 
2603.000000	60.806274 
2602.000000	60.807394 
2601.000000	60.802292 
2600.000000	60.789966 
2599.000000	60.770988 
2598.000000	60.747694 
2597.000000	60.723686 
2596.000000	60.702753 
2595.000000	60.687851 
2594.000000	60.680460 
2593.000000	60.679793 
2592.000000	60.683321 
2591.000000	60.687232 
2590.000000	60.687899 
2589.000000	60.682487 
2588.000000	60.669875 
2587.000000	60.650873 
2586.000000	60.628056 
2585.000000	60.604739 
2584.000000	60.584044 
2583.000000	60.568094 
2582.000000	60.557460 
2581.000000	60.551309 
2580.000000	60.547685 
2579.000000	60.544228 
2578.000000	60.539054 
2577.000000	60.531115 
2576.000000	60.520577 
2575.000000	60.508489 
2574.000000	60.496520 
2573.000000	60.486292 
2572.000000	60.479164 
2571.000000	60.475921 
2570.000000	60.476446 
2569.000000	60.479927 
2568.000000	60.485053 
2567.000000	60.490417 
2566.000000	60.495114 
2565.000000	60.498428 
2564.000000	60.500550 
2563.000000	60.502219 
2562.000000	60.504555 
2561.000000	60.508513 
2560.000000	60.514712 
2559.000000	60.523319 
2558.000000	60.533857 
2557.000000	60.545516 
2556.000000	60.557365 
2555.000000	60.568547 
2554.000000	60.578298 
2553.000000	60.586166 
2552.000000	60.591816 
2551.000000	60.595297 
2550.000000	60.596561 
2549.000000	60.595440 
2548.000000	60.591888 
2547.000000	60.585927 
2546.000000	60.577821 
2545.000000	60.568070 
2544.000000	60.557436 
2543.000000	60.546708 
2542.000000	60.536742 
2541.000000	60.528039 
2540.000000	60.520648 
2539.000000	60.514521 
2538.000000	60.509371 
2537.000000	60.504961 
2536.000000	60.501241 
2535.000000	60.498404 
2534.000000	60.496687 
2533.000000	60.496401 
2532.000000	60.497450 
2531.000000	60.499691 
2530.000000	60.502958 
2529.000000	60.506987 
2528.000000	60.511565 
2527.000000	60.516643 
2526.000000	60.522294 
2525.000000	60.528445 
2524.000000	60.534930 
2523.000000	60.541224 
2522.000000	60.546374 
2521.000000	60.549187 
2520.000000	60.548281 
2519.000000	60.542392 
2518.000000	60.530829 
2517.000000	60.513710 
2516.000000	60.491967 
2515.000000	60.467433 
2514.000000	60.442447 
2513.000000	60.419631 
2512.000000	60.401177 
2511.000000	60.388517 
2510.000000	60.381793 
2509.000000	60.380268 
2508.000000	60.381865 
2507.000000	60.383868 
2506.000000	60.383200 
2505.000000	60.377335 
2504.000000	60.364699 
2503.000000	60.345196 
2502.000000	60.320186 
2501.000000	60.292196 
2500.000000	60.264492 
2499.000000	60.240316 
2498.000000	60.222196 
2497.000000	60.211563 
2496.000000	60.208415 
2495.000000	60.211658 
2494.000000	60.219311 
2493.000000	60.229158 
2492.000000	60.239100 
2491.000000	60.247898 
2490.000000	60.254740 
2489.000000	60.259699 
2488.000000	60.263276 
2487.000000	60.266351 
2486.000000	60.269689 
2485.000000	60.274028 
2484.000000	60.279965 
2483.000000	60.287785 
2482.000000	60.297942 
2481.000000	60.310649 
2480.000000	60.325598 
2479.000000	60.341978 
2478.000000	60.358667 
2477.000000	60.373973 
2476.000000	60.386109 
2475.000000	60.393357 
2474.000000	60.394597 
2473.000000	60.389590 
2472.000000	60.378885 
2471.000000	60.363912 
2470.000000	60.346603 
2469.000000	60.329103 
2468.000000	60.312938 
2467.000000	60.298967 
2466.000000	60.286974 
2465.000000	60.275936 
2464.000000	60.264182 
2463.000000	60.249757 
2462.000000	60.231208 
2461.000000	60.208010 
2460.000000	60.181140 
2459.000000	60.152482 
2458.000000	60.124850 
2457.000000	60.101580 
2456.000000	60.085988 
2455.000000	60.080146 
2454.000000	60.085153 
2453.000000	60.100626 
2452.000000	60.124969 
2451.000000	60.155534 
2450.000000	60.189175 
2449.000000	60.222673 
2448.000000	60.253214 
2447.000000	60.278725 
2446.000000	60.297989 
2445.000000	60.310530 
2444.000000	60.316610 
2443.000000	60.316777 
2442.000000	60.311937 
2441.000000	60.302734 
2440.000000	60.289764 
2439.000000	60.273432 
2438.000000	60.253953 
2437.000000	60.231089 
2436.000000	60.204839 
2435.000000	60.175132 
2434.000000	60.142278 
2433.000000	60.106778 
2432.000000	60.069561 
2431.000000	60.031867 
2430.000000	59.994816 
2429.000000	59.959912 
2428.000000	59.928607 
2427.000000	59.902620 
2426.000000	59.883570 
2425.000000	59.873294 
2424.000000	59.873199 
2423.000000	59.884095 
2422.000000	59.905529 
2421.000000	59.935736 
2420.000000	59.971332 
2419.000000	60.008025 
2418.000000	60.041141 
2417.000000	60.066580 
2416.000000	60.081338 
2415.000000	60.084438 
2414.000000	60.076951 
2413.000000	60.061645 
2412.000000	60.042119 
2411.000000	60.022020 
2410.000000	60.004043 
2409.000000	59.989643 
2408.000000	59.978747 
2407.000000	59.970140 
2406.000000	59.962177 
2405.000000	59.953641 
2404.000000	59.944057 
2403.000000	59.933876 
2402.000000	59.924340 
2401.000000	59.917044 
2400.000000	59.913468 
2399.000000	59.914326 
2398.000000	59.919738 
2397.000000	59.928989 
2396.000000	59.940671 
2395.000000	59.953117 
2394.000000	59.964585 
2393.000000	59.973764 
2392.000000	59.979557 
2391.000000	59.981131 
2390.000000	59.977960 
2389.000000	59.969663 
2388.000000	59.956336 
2387.000000	59.938454 
2386.000000	59.917140 
2385.000000	59.893941 
2384.000000	59.871125 
2383.000000	59.851050 
2382.000000	59.835910 
2381.000000	59.827065 
2380.000000	59.824848 
2379.000000	59.828209 
2378.000000	59.835052 
2377.000000	59.842777 
2376.000000	59.848690 
2375.000000	59.851050 
2374.000000	59.849047 
2373.000000	59.843420 
2372.000000	59.836196 
2371.000000	59.830141 
2370.000000	59.828090 
2369.000000	59.832119 
2368.000000	59.843015 
2367.000000	59.859967 
2366.000000	59.880852 
2365.000000	59.902596 
2364.000000	59.921813 
2363.000000	59.935569 
2362.000000	59.941959 
2361.000000	59.940361 
2360.000000	59.931516 
2359.000000	59.917306 
2358.000000	59.900093 
2357.000000	59.882283 
2356.000000	59.865736 
2355.000000	59.851646 
2354.000000	59.840059 
2353.000000	59.829998 
2352.000000	59.819698 
2351.000000	59.807157 
2350.000000	59.790611 
2349.000000	59.768867 
2348.000000	59.742069 
2347.000000	59.711289 
2346.000000	59.679031 
2345.000000	59.648418 
2344.000000	59.623098 
2343.000000	59.606003 
2342.000000	59.599113 
2341.000000	59.603095 
2340.000000	59.616947 
2339.000000	59.638094 
2338.000000	59.662961 
2337.000000	59.687495 
2336.000000	59.707927 
2335.000000	59.721350 
2334.000000	59.726262 
2333.000000	59.722685 
2332.000000	59.711861 
2331.000000	59.696054 
2330.000000	59.678006 
2329.000000	59.660410 
2328.000000	59.645414 
2327.000000	59.634304 
2326.000000	59.627604 
2325.000000	59.625053 
2324.000000	59.625959 
2323.000000	59.629130 
2322.000000	59.633445 
2321.000000	59.637737 
2320.000000	59.640979 
2319.000000	59.642195 
2318.000000	59.640574 
2317.000000	59.635543 
2316.000000	59.626841 
2315.000000	59.614682 
2314.000000	59.599828 
2313.000000	59.583544 
2312.000000	59.567594 
2311.000000	59.553742 
2310.000000	59.543561 
2309.000000	59.537959 
2308.000000	59.537053 
2307.000000	59.540200 
2306.000000	59.546089 
2305.000000	59.552979 
2304.000000	59.559035 
2303.000000	59.562540 
2302.000000	59.562253 
2301.000000	59.557437 
2300.000000	59.547877 
2299.000000	59.533715 
2298.000000	59.515619 
2297.000000	59.494662 
2296.000000	59.472107 
2295.000000	59.449458 
2294.000000	59.428358 
2293.000000	59.410429 
2292.000000	59.396958 
2291.000000	59.388995 
2290.000000	59.386730 
2289.000000	59.389710 
2288.000000	59.396767 
2287.000000	59.406352 
2286.000000	59.416747 
2285.000000	59.426379 
2284.000000	59.433937 
2283.000000	59.438681 
2282.000000	59.440374 
2281.000000	59.439134 
2280.000000	59.435343 
2279.000000	59.429430 
2278.000000	59.421825 
2277.000000	59.412789 
2276.000000	59.402489 
2275.000000	59.391188 
2274.000000	59.379291 
2273.000000	59.367585 
2272.000000	59.357309 
2271.000000	59.349989 
2270.000000	59.347319 
2269.000000	59.350490 
2268.000000	59.360051 
2267.000000	59.375357 
2266.000000	59.394764 
2265.000000	59.415626 
2264.000000	59.434604 
2263.000000	59.448528 
2262.000000	59.455013 
2261.000000	59.453010 
2260.000000	59.442949 
2259.000000	59.426736 
2258.000000	59.407234 
2257.000000	59.387397 
2256.000000	59.369707 
2255.000000	59.355401 
2254.000000	59.344339 
2253.000000	59.335184 
2252.000000	59.326052 
2251.000000	59.315133 
2250.000000	59.301376 
2249.000000	59.284758 
2248.000000	59.266376 
2247.000000	59.248065 
2246.000000	59.232068 
2245.000000	59.220218 
2244.000000	59.213733 
2243.000000	59.212708 
2242.000000	59.216284 
2241.000000	59.223151 
2240.000000	59.231710 
2239.000000	59.240603 
2238.000000	59.248924 
2237.000000	59.256315 
2236.000000	59.262847 
2235.000000	59.268641 
2234.000000	59.273600 
2233.000000	59.277200 
2232.000000	59.278512 
2231.000000	59.276366 
2230.000000	59.269642 
2229.000000	59.257721 
2228.000000	59.240937 
2227.000000	59.220647 
2226.000000	59.199237 
2225.000000	59.179472 
2224.000000	59.164214 
2223.000000	59.155726 
2222.000000	59.154891 
2221.000000	59.160995 
2220.000000	59.171891 
2219.000000	59.184288 
2218.000000	59.194612 
2217.000000	59.199762 
2216.000000	59.197688 
2215.000000	59.188008 
2214.000000	59.171485 
2213.000000	59.150457 
2212.000000	59.127569 
2211.000000	59.105467 
2210.000000	59.086370 
2209.000000	59.071397 
2208.000000	59.060764 
2207.000000	59.053897 
2206.000000	59.050035 
2205.000000	59.048461 
2204.000000	59.048676 
2203.000000	59.050798 
2202.000000	59.055304 
2201.000000	59.062671 
2200.000000	59.073209 
2199.000000	59.086728 
2198.000000	59.102439 
2197.000000	59.119057 
2196.000000	59.134888 
2195.000000	59.147977 
2194.000000	59.156584 
2193.000000	59.159541 
2192.000000	59.156560 
2191.000000	59.148335 
2190.000000	59.136271 
2189.000000	59.122443 
2188.000000	59.109044 
2187.000000	59.097862 
2186.000000	59.089994 
2185.000000	59.085583 
2184.000000	59.083819 
2183.000000	59.083676 
2182.000000	59.083795 
2181.000000	59.083175 
2180.000000	59.081053 
2179.000000	59.077167 
2178.000000	59.071373 
2177.000000	59.063673 
2176.000000	59.053826 
2175.000000	59.041476 
2174.000000	59.026408 
2173.000000	59.008646 
2172.000000	58.989143 
2171.000000	58.969664 
2170.000000	58.952856 
2169.000000	58.941721 
2168.000000	58.938860 
2167.000000	58.945989 
2166.000000	58.963012 
2165.000000	58.988070 
2164.000000	59.017992 
2163.000000	59.048438 
2162.000000	59.075212 
2161.000000	59.094548 
2160.000000	59.103941 
2159.000000	59.102368 
2158.000000	59.090232 
2157.000000	59.068965 
2156.000000	59.040832 
2155.000000	59.008336 
2154.000000	58.974123 
2153.000000	58.940434 
2152.000000	58.909320 
2151.000000	58.882355 
2150.000000	58.860874 
2149.000000	58.845639 
2148.000000	58.836865 
2147.000000	58.834266 
2146.000000	58.837008 
2145.000000	58.843898 
2144.000000	58.853340 
2143.000000	58.863782 
2142.000000	58.873558 
2141.000000	58.881187 
2140.000000	58.885359 
2139.000000	58.884930 
2138.000000	58.879208 
2137.000000	58.868002 
2136.000000	58.851718 
2135.000000	58.831453 
2134.000000	58.808636 
2133.000000	58.785033 
2132.000000	58.762335 
2131.000000	58.741736 
2130.000000	58.723902 
2129.000000	58.708953 
2128.000000	58.696675 
2127.000000	58.686614 
2126.000000	58.678746 
2125.000000	58.673357 
2124.000000	58.671402 
2123.000000	58.674192 
2122.000000	58.682823 
2121.000000	58.697628 
2120.000000	58.717942 
2119.000000	58.742094 
2118.000000	58.767342 
2117.000000	58.790421 
2116.000000	58.808302 
2115.000000	58.818840 
2114.000000	58.820962 
2113.000000	58.814716 
2112.000000	58.801436 
2111.000000	58.782982 
2110.000000	58.761429 
2109.000000	58.738589 
2108.000000	58.715867 
2107.000000	58.694100 
2106.000000	58.673906 
2105.000000	58.655595 
2104.000000	58.639574 
2103.000000	58.626008 
2102.000000	58.615064 
2101.000000	58.606648 
2100.000000	58.600211 
2099.000000	58.595156 
2098.000000	58.590841 
2097.000000	58.587050 
2096.000000	58.583903 
2095.000000	58.582401 
2094.000000	58.584189 
2093.000000	58.590936 
2092.000000	58.604001 
2091.000000	58.623957 
2090.000000	58.650374 
2089.000000	58.681464 
2088.000000	58.714461 
2087.000000	58.746051 
2086.000000	58.772850 
2085.000000	58.792185 
2084.000000	58.802151 
2083.000000	58.802103 
2082.000000	58.792114 
2081.000000	58.773374 
2080.000000	58.747196 
2079.000000	58.715343 
2078.000000	58.679270 
2077.000000	58.641004 
2076.000000	58.602023 
2075.000000	58.563947 
2074.000000	58.527922 
2073.000000	58.495092 
2072.000000	58.465933 
2071.000000	58.440399 
2070.000000	58.417701 
2069.000000	58.396625 
2068.000000	58.375835 
2067.000000	58.354306 
2066.000000	58.331561 
2065.000000	58.307981 
2064.000000	58.284878 
2063.000000	58.264279 
2062.000000	58.248353 
2061.000000	58.238935 
2060.000000	58.237195 
2059.000000	58.243298 
2058.000000	58.256006 
2057.000000	58.272933 
2056.000000	58.290958 
2055.000000	58.307147 
2054.000000	58.318710 
2053.000000	58.324337 
2052.000000	58.324193 
2051.000000	58.320164 
2050.000000	58.315253 
2049.000000	58.312988 
2048.000000	58.316445 
2047.000000	58.327364 
2046.000000	58.346128 
2045.000000	58.370828 
2044.000000	58.397984 
2043.000000	58.423304 
2042.000000	58.442759 
2041.000000	58.453488 
2040.000000	58.454227 
2039.000000	58.445811 
2038.000000	58.430624 
2037.000000	58.411788 
2036.000000	58.392047 
2035.000000	58.373188 
2034.000000	58.355760 
2033.000000	58.339166 
2032.000000	58.322191 
2031.000000	58.303856 
2030.000000	58.283996 
2029.000000	58.263349 
2028.000000	58.243680 
2027.000000	58.227109 
2026.000000	58.215689 
2025.000000	58.210587 
2024.000000	58.212113 
2023.000000	58.219170 
2022.000000	58.230066 
2021.000000	58.242869 
2020.000000	58.255934 
2019.000000	58.268308 
2018.000000	58.279681 
2017.000000	58.290362 
2016.000000	58.300709 
2015.000000	58.310794 
2014.000000	58.320116 
2013.000000	58.327603 
2012.000000	58.331680 
2011.000000	58.330702 
2010.000000	58.323407 
2009.000000	58.309197 
2008.000000	58.288407 
2007.000000	58.262491 
2006.000000	58.233571 
2005.000000	58.204412 
2004.000000	58.177828 
2003.000000	58.156228 
2002.000000	58.141183 
2001.000000	58.133053 
2000.000000	58.131313 
1999.000000	58.134508 
1998.000000	58.140563 
1997.000000	58.147382 
1996.000000	58.153176 
1995.000000	58.156800 
1994.000000	58.157706 
1993.000000	58.155941 
1992.000000	58.151984 
1991.000000	58.146452 
1990.000000	58.139777 
1989.000000	58.132100 
1988.000000	58.123350 
1987.000000	58.113312 
1986.000000	58.101892 
1985.000000	58.089280 
1984.000000	58.075785 
1983.000000	58.061909 
1982.000000	58.048152 
1981.000000	58.034586 
1980.000000	58.021163 
1979.000000	58.007574 
1978.000000	57.993555 
1977.000000	57.979011 
1976.000000	57.964658 
1975.000000	57.951641 
1974.000000	57.941699 
1973.000000	57.936668 
1972.000000	57.938122 
1971.000000	57.946634 
1970.000000	57.961654 
1969.000000	57.981348 
1968.000000	58.002805 
1967.000000	58.022761 
1966.000000	58.038067 
1965.000000	58.046531 
1964.000000	58.047246 
1963.000000	58.040642 
1962.000000	58.028340 
1961.000000	58.012795 
1960.000000	57.996487 
1959.000000	57.981419 
1958.000000	57.968854 
1957.000000	57.959103 
1956.000000	57.951664 
1955.000000	57.945537 
1954.000000	57.939648 
1953.000000	57.933354 
1952.000000	57.926416 
1951.000000	57.919168 
1950.000000	57.912278 
1949.000000	57.906579 
1948.000000	57.902574 
1947.000000	57.900404 
1946.000000	57.899665 
1945.000000	57.899594 
1944.000000	57.899141 
1943.000000	57.897448 
1942.000000	57.894062 
1941.000000	57.889223 
1940.000000	57.883787 
1939.000000	57.879233 
1938.000000	57.877063 
1937.000000	57.878422 
1936.000000	57.883977 
1935.000000	57.893371 
1934.000000	57.905316 
1933.000000	57.917857 
1932.000000	57.928800 
1931.000000	57.936334 
1930.000000	57.939314 
1929.000000	57.937574 
1928.000000	57.931804 
1927.000000	57.923460 
1926.000000	57.914233 
1925.000000	57.905769 
1924.000000	57.898831 
1923.000000	57.893562 
1922.000000	57.889342 
1921.000000	57.885169 
1920.000000	57.880067 
1919.000000	57.873272 
1918.000000	57.864451 
1917.000000	57.854032 
1916.000000	57.842683 
1915.000000	57.831192 
1914.000000	57.820200 
1913.000000	57.809925 
1912.000000	57.800197 
1911.000000	57.790493 
1910.000000	57.780265 
1909.000000	57.768988 
1908.000000	57.756662 
1907.000000	57.743740 
1906.000000	57.731199 
1905.000000	57.720446 
1904.000000	57.712841 
1903.000000	57.709503 
1902.000000	57.711005 
1901.000000	57.717299 
1900.000000	57.727456 
1899.000000	57.739710 
1898.000000	57.751774 
1897.000000	57.761025 
1896.000000	57.765007 
1895.000000	57.761740 
1894.000000	57.750248 
1893.000000	57.730650 
1892.000000	57.704401 
1891.000000	57.673907 
1890.000000	57.642149 
1889.000000	57.612252 
1888.000000	57.586932 
1887.000000	57.568120 
1886.000000	57.556843 
1885.000000	57.553219 
1884.000000	57.556486 
1883.000000	57.565236 
1882.000000	57.577753 
1881.000000	57.592010 
1880.000000	57.606124 
1879.000000	57.618308 
1878.000000	57.626891 
1877.000000	57.630705 
1876.000000	57.628989 
1875.000000	57.621788 
1874.000000	57.609820 
1873.000000	57.594633 
1872.000000	57.577991 
1871.000000	57.561850 
1870.000000	57.547640 
1869.000000	57.536029 
1868.000000	57.526850 
1867.000000	57.519221 
1866.000000	57.511734 
1865.000000	57.503128 
1864.000000	57.492423 
1863.000000	57.479262 
1862.000000	57.464170 
1861.000000	57.448196 
1860.000000	57.432866 
1859.000000	57.419705 
1858.000000	57.410025 
1857.000000	57.404661 
1856.000000	57.403969 
1855.000000	57.407617 
1854.000000	57.414865 
1853.000000	57.424688 
1852.000000	57.435989 
1851.000000	57.447552 
1850.000000	57.458233 
1849.000000	57.466769 
1848.000000	57.472062 
1847.000000	57.472968 
1846.000000	57.468485 
1845.000000	57.458043 
1844.000000	57.441306 
1843.000000	57.418656 
1842.000000	57.391142 
1841.000000	57.360649 
1840.000000	57.329916 
1839.000000	57.302308 
1838.000000	57.281112 
1837.000000	57.269358 
1836.000000	57.268857 
1835.000000	57.279968 
1834.000000	57.301473 
1833.000000	57.330513 
1832.000000	57.363247 
1831.000000	57.395410 
1830.000000	57.423067 
1829.000000	57.442903 
1828.000000	57.452893 
1827.000000	57.452368 
1826.000000	57.441926 
1825.000000	57.423186 
1824.000000	57.398390 
1823.000000	57.370209 
1822.000000	57.341337 
1821.000000	57.314419 
1820.000000	57.291531 
1819.000000	57.274198 
1818.000000	57.263064 
1817.000000	57.257676 
1816.000000	57.256770 
1815.000000	57.258200 
1814.000000	57.259702 
1813.000000	57.259249 
1812.000000	57.255864 
1811.000000	57.249498 
1810.000000	57.241272 
1809.000000	57.232975 
1808.000000	57.226586 
1807.000000	57.223582 
1806.000000	57.224822 
1805.000000	57.229900 
1804.000000	57.237935 
1803.000000	57.247543 
1802.000000	57.257366 
1801.000000	57.266592 
1800.000000	57.274770 
1799.000000	57.281875 
1798.000000	57.288050 
1797.000000	57.293319 
1796.000000	57.297301 
1795.000000	57.299041 
1794.000000	57.297539 
1793.000000	57.291722 
1792.000000	57.281231 
1791.000000	57.266449 
1790.000000	57.248473 
1789.000000	57.228589 
1788.000000	57.208490 
1787.000000	57.189297 
1786.000000	57.171440 
1785.000000	57.154607 
1784.000000	57.138133 
1783.000000	57.121396 
1782.000000	57.104229 
1781.000000	57.087421 
1780.000000	57.072401 
1779.000000	57.061266 
1778.000000	57.056140 
1777.000000	57.058525 
1776.000000	57.068562 
1775.000000	57.084703 
1774.000000	57.104158 
1773.000000	57.123255 
1772.000000	57.138037 
1771.000000	57.145643 
1770.000000	57.144594 
1769.000000	57.135367 
1768.000000	57.120060 
1767.000000	57.101774 
1766.000000	57.083892 
1765.000000	57.069230 
1764.000000	57.059621 
1763.000000	57.055783 
1762.000000	57.057476 
1761.000000	57.063865 
1760.000000	57.073807 
1759.000000	57.086348 
1758.000000	57.100462 
1757.000000	57.115173 
1756.000000	57.128906 
1755.000000	57.139849 
1754.000000	57.145738 
1753.000000	57.144331 
1752.000000	57.133579 
1751.000000	57.112240 
1750.000000	57.080245 
1749.000000	57.039356 
1748.000000	56.992530 
1747.000000	56.943440 
1746.000000	56.896162 
1745.000000	56.854414 
1744.000000	56.821393 
1743.000000	56.799197 
1742.000000	56.788706 
1741.000000	56.789445 
1740.000000	56.799936 
1739.000000	56.817650 
1738.000000	56.839394 
1737.000000	56.861448 
1736.000000	56.880331 
1735.000000	56.892824 
1734.000000	56.896615 
1733.000000	56.890511 
1732.000000	56.874132 
1731.000000	56.848287 
1730.000000	56.814765 
1729.000000	56.776690 
1728.000000	56.737780 
1727.000000	56.702995 
1726.000000	56.677269 
1725.000000	56.665563 
1724.000000	56.672263 
1723.000000	56.699895 
1722.000000	56.748485 
1721.000000	56.814455 
1720.000000	56.890940 
1719.000000	56.968188 
1718.000000	57.035279 
1717.000000	57.082080 
1716.000000	57.101321 
1715.000000	57.090353 
1714.000000	57.051801 
1713.000000	56.992983 
1712.000000	56.924510 
1711.000000	56.857895 
1710.000000	56.803536 
1709.000000	56.769037 
1708.000000	56.757903 
1707.000000	56.770038 
1706.000000	56.801700 
1705.000000	56.847262 
1704.000000	56.899809 
1703.000000	56.952524 
1702.000000	56.999230 
1701.000000	57.034659 
1700.000000	57.055282 
1699.000000	57.058405 
1698.000000	57.043385 
1697.000000	57.011342 
1696.000000	56.965637 
1695.000000	56.911754 
1694.000000	56.856489 
1693.000000	56.807351 
1692.000000	56.770777 
1691.000000	56.751155 
1690.000000	56.749486 
1689.000000	56.763267 
1688.000000	56.786799 
1687.000000	56.812644 
1686.000000	56.833171 
1685.000000	56.842374 
1684.000000	56.837272 
1683.000000	56.818294 
1682.000000	56.789016 
1681.000000	56.754875 
1680.000000	56.721925 
1679.000000	56.694960 
1678.000000	56.676530 
1677.000000	56.666421 
1676.000000	56.662392 
1675.000000	56.660747 
1674.000000	56.658029 
1673.000000	56.651544 
1672.000000	56.639909 
1671.000000	56.623339 
1670.000000	56.603193 
1669.000000	56.581664 
1668.000000	56.560206 
1667.000000	56.540393 
1666.000000	56.523203 
1665.000000	56.509947 
1664.000000	56.502175 
1663.000000	56.502223 
1662.000000	56.512832 
1661.000000	56.536674 
1660.000000	56.575417 
1659.000000	56.628704 
1658.000000	56.693577 
1657.000000	56.764459 
1656.000000	56.834053 
1655.000000	56.894779 
1654.000000	56.939792 
1653.000000	56.965088 
1652.000000	56.969237 
1651.000000	56.953716 
1650.000000	56.922101 
1649.000000	56.879353 
1648.000000	56.830215 
1647.000000	56.778788 
1646.000000	56.727671 
1645.000000	56.678819 
1644.000000	56.633162 
1643.000000	56.591582 
1642.000000	56.554579 
1641.000000	56.522774 
1640.000000	56.496596 
1639.000000	56.475996 
1638.000000	56.460285 
1637.000000	56.447982 
1636.000000	56.437349 
1635.000000	56.426882 
1634.000000	56.415605 
1633.000000	56.403231 
1632.000000	56.390380 
1631.000000	56.378388 
1630.000000	56.368517 
1629.000000	56.361889 
1628.000000	56.359291 
1627.000000	56.361055 
1626.000000	56.367230 
1625.000000	56.377339 
1624.000000	56.391024 
1623.000000	56.407499 
1622.000000	56.425547 
1621.000000	56.443285 
1620.000000	56.458282 
1619.000000	56.467580 
1618.000000	56.468462 
1617.000000	56.458663 
1616.000000	56.437206 
1615.000000	56.404542 
1614.000000	56.363224 
1613.000000	56.316828 
1612.000000	56.269407 
1611.000000	56.224513 
1610.000000	56.184959 
1609.000000	56.151866 
1608.000000	56.124973 
1607.000000	56.103038 
1606.000000	56.084537 
1605.000000	56.068372 
1604.000000	56.054210 
1603.000000	56.042504 
1602.000000	56.034398 
1601.000000	56.031179 
1600.000000	56.033921 
1599.000000	56.042695 
1598.000000	56.056714 
1597.000000	56.074190 
1596.000000	56.092667 
1595.000000	56.109833 
1594.000000	56.123542 
1593.000000	56.132173 
1592.000000	56.134963 
1591.000000	56.131935 
1590.000000	56.123661 
1589.000000	56.111145 
1588.000000	56.095623 
1587.000000	56.078624 
1586.000000	56.061673 
1585.000000	56.046175 
1584.000000	56.033420 
1583.000000	56.024408 
1582.000000	56.019520 
1581.000000	56.018304 
1580.000000	56.019759 
1579.000000	56.022357 
1578.000000	56.024217 
1577.000000	56.023573 
1576.000000	56.019163 
1575.000000	56.010508 
1574.000000	55.997538 
1573.000000	55.981040 
1572.000000	55.962133 
1571.000000	55.942654 
1570.000000	55.924892 
1569.000000	55.911588 
1568.000000	55.905532 
1567.000000	55.909252 
1566.000000	55.924654 
1565.000000	55.952382 
1564.000000	55.991387 
1563.000000	56.038689 
1562.000000	56.089949 
1561.000000	56.139707 
1560.000000	56.182360 
1559.000000	56.213164 
1558.000000	56.229019 
1557.000000	56.229066 
1556.000000	56.214833 
1555.000000	56.189441 
1554.000000	56.156992 
1553.000000	56.121850 
1552.000000	56.088089 
1551.000000	56.059050 
1550.000000	56.037235 
1549.000000	56.024146 
1548.000000	56.020307 
1547.000000	56.025123 
1546.000000	56.036806 
1545.000000	56.052255 
1544.000000	56.067609 
1543.000000	56.078600 
1542.000000	56.081581 
1541.000000	56.074237 
1540.000000	56.055879 
1539.000000	56.027388 
1538.000000	55.991196 
1537.000000	55.950927 
1536.000000	55.910444 
1535.000000	55.873560 
1534.000000	55.843305 
1533.000000	55.821561 
1532.000000	55.809283 
1531.000000	55.806493 
1530.000000	55.812287 
1529.000000	55.825233 
1528.000000	55.843520 
1527.000000	55.865240 
1526.000000	55.888152 
1525.000000	55.909657 
1524.000000	55.927062 
1523.000000	55.937910 
1522.000000	55.940008 
1521.000000	55.932140 
1520.000000	55.914092 
1519.000000	55.887031 
1518.000000	55.853700 
1517.000000	55.818343 
1516.000000	55.786180 
1515.000000	55.762791 
1514.000000	55.753159 
1513.000000	55.760455 
1512.000000	55.785536 
1511.000000	55.826282 
1510.000000	55.877971 
1509.000000	55.934047 
1508.000000	55.987381 
1507.000000	56.031489 
1506.000000	56.061935 
1505.000000	56.076312 
1504.000000	56.074595 
1503.000000	56.058406 
1502.000000	56.030488 
1501.000000	55.993676 
1500.000000	55.950427 
1499.000000	55.902481 
1498.000000	55.851054 
1497.000000	55.797314 
1496.000000	55.742692 
1495.000000	55.689072 
1494.000000	55.638599 
1493.000000	55.593514 
1492.000000	55.555725 
1491.000000	55.525922 
1490.000000	55.504202 
1489.000000	55.489516 
1488.000000	55.480694 
1487.000000	55.476379 
1486.000000	55.475640 
1485.000000	55.477809 
1484.000000	55.482673 
1483.000000	55.489945 
1482.000000	55.499243 
1481.000000	55.509924 
1480.000000	55.520987 
1479.000000	55.531120 
1478.000000	55.538654 
1477.000000	55.542182 
1476.000000	55.540108 
1475.000000	55.531167 
1474.000000	55.514597 
1473.000000	55.490612 
1472.000000	55.460119 
1471.000000	55.424952 
1470.000000	55.387425 
1469.000000	55.350136 
1468.000000	55.315923 
1467.000000	55.287623 
1466.000000	55.267548 
1465.000000	55.257272 
1464.000000	55.257678 
1463.000000	55.268454 
1462.000000	55.287790 
1461.000000	55.312657 
1460.000000	55.339074 
1459.000000	55.362939 
1458.000000	55.380368 
1457.000000	55.388903 
1456.000000	55.387663 
1455.000000	55.377268 
1454.000000	55.359840 
1453.000000	55.337762 
1452.000000	55.313563 
1451.000000	55.288481 
1450.000000	55.262851 
1449.000000	55.235600 
1448.000000	55.205225 
1447.000000	55.170464 
1446.000000	55.131340 
1445.000000	55.089282 
1444.000000	55.047297 
1443.000000	55.009412 
1442.000000	54.979729 
1441.000000	54.961466 
1440.000000	54.956054 
1439.000000	54.962778 
1438.000000	54.979205 
1437.000000	55.001449 
1436.000000	55.025362 
1435.000000	55.046892 
1434.000000	55.063199 
1433.000000	55.072736 
1432.000000	55.075812 
1431.000000	55.073928 
1430.000000	55.069828 
1429.000000	55.066442 
1428.000000	55.066132 
1427.000000	55.070471 
1426.000000	55.079364 
1425.000000	55.091500 
1424.000000	55.104136 
1423.000000	55.114030 
1422.000000	55.117750 
1421.000000	55.112862 
1420.000000	55.098080 
1419.000000	55.073547 
1418.000000	55.041027 
1417.000000	55.003619 
1416.000000	54.964947 
1415.000000	54.928922 
1414.000000	54.898905 
1413.000000	54.877471 
1412.000000	54.866099 
1411.000000	54.865193 
1410.000000	54.874157 
1409.000000	54.891324 
1408.000000	54.914116 
1407.000000	54.939270 
1406.000000	54.963040 
1405.000000	54.981946 
1404.000000	54.993081 
1403.000000	54.994821 
1402.000000	54.986739 
1401.000000	54.970216 
1400.000000	54.947900 
1399.000000	54.923391 
1398.000000	54.900455 
1397.000000	54.882240 
1396.000000	54.870891 
1395.000000	54.867005 
1394.000000	54.869794 
1393.000000	54.877090 
1392.000000	54.886007 
1391.000000	54.893302 
1390.000000	54.896163 
1389.000000	54.892611 
1388.000000	54.881882 
1387.000000	54.864263 
1386.000000	54.841041 
1385.000000	54.814147 
1384.000000	54.785752 
1383.000000	54.758143 
1382.000000	54.733300 
1381.000000	54.712820 
1380.000000	54.697751 
1379.000000	54.688525 
1378.000000	54.685020 
1377.000000	54.686164 
1376.000000	54.690480 
1375.000000	54.695773 
1374.000000	54.700016 
1373.000000	54.701375 
1372.000000	54.698896 
1371.000000	54.692387 
1370.000000	54.682683 
1369.000000	54.671216 
1368.000000	54.659843 
1367.000000	54.650235 
1366.000000	54.643440 
1365.000000	54.639577 
1364.000000	54.637885 
1363.000000	54.637145 
1362.000000	54.635739 
1361.000000	54.632282 
1360.000000	54.625749 
1359.000000	54.615712 
1358.000000	54.602193 
1357.000000	54.585695 
1356.000000	54.566788 
1355.000000	54.546499 
1354.000000	54.526066 
1353.000000	54.507112 
1352.000000	54.491639 
1351.000000	54.481530 
1350.000000	54.478454 
1349.000000	54.483389 
1348.000000	54.495978 
1347.000000	54.514837 
1346.000000	54.537606 
1345.000000	54.561448 
1344.000000	54.583406 
1343.000000	54.601240 
1342.000000	54.613733 
1341.000000	54.620742 
1340.000000	54.623222 
1339.000000	54.622602 
1338.000000	54.620409 
1337.000000	54.617643 
1336.000000	54.614782 
1335.000000	54.611587 
1334.000000	54.607319 
1333.000000	54.601311 
1332.000000	54.593014 
1331.000000	54.582262 
1330.000000	54.569196 
1329.000000	54.554176 
1328.000000	54.537653 
1327.000000	54.520225 
1326.000000	54.502296 
1325.000000	54.484391 
1324.000000	54.466652 
1323.000000	54.449105 
1322.000000	54.431653 
1321.000000	54.414010 
1320.000000	54.396080 
1319.000000	54.377961 
1318.000000	54.360151 
1317.000000	54.343390 
1316.000000	54.328513 
1315.000000	54.316329 
1314.000000	54.307150 
1313.000000	54.300713 
1312.000000	54.296422 
1311.000000	54.293274 
1310.000000	54.290318 
1309.000000	54.286456 
1308.000000	54.281163 
1307.000000	54.274272 
1306.000000	54.265952 
1305.000000	54.256677 
1304.000000	54.247069 
1303.000000	54.237699 
1302.000000	54.229140 
1301.000000	54.221582 
1300.000000	54.215002 
1299.000000	54.209160 
1298.000000	54.203820 
1297.000000	54.198789 
1296.000000	54.193878 
1295.000000	54.189157 
1294.000000	54.185009 
1293.000000	54.181909 
1292.000000	54.180240 
1291.000000	54.180145 
1290.000000	54.181671 
1289.000000	54.184269 
1288.000000	54.186987 
1287.000000	54.188632 
1286.000000	54.187941 
1285.000000	54.183506 
1284.000000	54.174208 
1283.000000	54.159164 
1282.000000	54.138231 
1281.000000	54.111981 
1280.000000	54.081702 
1279.000000	54.049277 
1278.000000	54.017019 
1277.000000	53.987336 
1276.000000	53.962469 
1275.000000	53.943920 
1274.000000	53.932785 
1273.000000	53.929352 
1272.000000	53.933477 
1271.000000	53.944396 
1270.000000	53.960895 
1269.000000	53.981184 
1268.000000	54.003238 
1267.000000	54.024600 
1266.000000	54.042983 
1265.000000	54.056406 
1264.000000	54.063510 
1263.000000	54.064011 
1262.000000	54.058504 
1261.000000	54.048466 
1260.000000	54.035949 
1259.000000	54.023003 
1258.000000	54.011201 
1257.000000	54.001355 
1256.000000	53.993296 
1255.000000	53.986120 
1254.000000	53.978562 
1253.000000	53.969383 
1252.000000	53.957867 
1251.000000	53.943920 
1250.000000	53.928232 
1249.000000	53.911733 
1248.000000	53.895401 
1247.000000	53.880047 
1246.000000	53.865933 
1245.000000	53.853058 
1244.000000	53.841114 
1243.000000	53.830051 
1242.000000	53.819990 
1241.000000	53.811717 
1240.000000	53.806138 
1239.000000	53.804516 
1238.000000	53.807830 
1237.000000	53.816771 
1236.000000	53.831100 
1235.000000	53.849601 
1234.000000	53.870344 
1233.000000	53.890967 
1232.000000	53.909063 
1231.000000	53.922557 
1230.000000	53.930091 
1229.000000	53.931307 
1228.000000	53.926825 
1227.000000	53.917932 
1226.000000	53.906250 
1225.000000	53.893470 
1224.000000	53.880906 
1223.000000	53.869175 
1222.000000	53.858160 
1221.000000	53.847122 
1220.000000	53.835129 
1219.000000	53.821372 
1218.000000	53.805518 
1217.000000	53.787779 
1216.000000	53.769016 
1215.000000	53.750348 
1214.000000	53.733110 
1213.000000	53.718328 
1212.000000	53.706550 
1211.000000	53.698062 
1210.000000	53.692889 
1209.000000	53.690743 
1208.000000	53.691601 
1207.000000	53.695487 
1206.000000	53.702640 
1205.000000	53.712964 
1204.000000	53.726100 
1203.000000	53.741216 
1202.000000	53.756785 
1201.000000	53.770899 
1200.000000	53.781723 
1199.000000	53.787779 
1198.000000	53.788566 
1197.000000	53.784537 
1196.000000	53.776979 
1195.000000	53.767514 
1194.000000	53.757977 
1193.000000	53.749680 
1192.000000	53.743076 
1191.000000	53.737425 
1190.000000	53.731632 
1189.000000	53.724098 
1188.000000	53.713536 
1187.000000	53.698945 
1186.000000	53.680276 
1185.000000	53.658032 
1184.000000	53.633189 
1183.000000	53.606963 
1182.000000	53.580307 
1181.000000	53.553795 
1180.000000	53.527712 
1179.000000	53.502106 
1178.000000	53.477001 
1177.000000	53.452587 
1176.000000	53.429555 
1175.000000	53.408646 
1174.000000	53.390693 
1173.000000	53.376698 
1172.000000	53.367543 
1171.000000	53.363728 
1170.000000	53.365492 
1169.000000	53.373074 
1168.000000	53.386807 
1167.000000	53.406691 
1166.000000	53.432440 
1165.000000	53.463244 
1164.000000	53.497385 
1163.000000	53.532338 
1162.000000	53.564715 
1161.000000	53.590726 
1160.000000	53.606677 
1159.000000	53.610086 
1158.000000	53.599810 
1157.000000	53.576874 
1156.000000	53.543949 
1155.000000	53.505563 
1154.000000	53.466391 
1153.000000	53.430843 
1152.000000	53.401684 
1151.000000	53.380131 
1150.000000	53.365182 
1149.000000	53.354406 
1148.000000	53.344535 
1147.000000	53.332424 
1146.000000	53.315520 
1145.000000	53.292417 
1144.000000	53.262901 
1143.000000	53.228163 
1142.000000	53.190088 
1141.000000	53.151392 
1140.000000	53.114891 
1139.000000	53.083252 
1138.000000	53.058457 
1137.000000	53.041934 
1136.000000	53.033900 
1135.000000	53.034043 
1134.000000	53.041243 
1133.000000	53.054261 
1132.000000	53.071522 
1131.000000	53.091382 
1130.000000	53.112387 
1129.000000	53.133273 
1128.000000	53.152632 
1127.000000	53.169369 
1126.000000	53.182697 
1125.000000	53.192067 
1124.000000	53.197360 
1123.000000	53.198671 
1122.000000	53.196477 
1121.000000	53.191542 
1120.000000	53.185129 
1119.000000	53.178715 
1118.000000	53.173875 
1117.000000	53.172087 
1116.000000	53.174328 
1115.000000	53.180766 
1114.000000	53.190565 
1113.000000	53.202176 
1112.000000	53.213477 
1111.000000	53.222227 
1110.000000	53.226923 
1109.000000	53.227043 
1108.000000	53.223252 
1107.000000	53.216838 
1106.000000	53.209376 
1105.000000	53.202295 
1104.000000	53.195881 
1103.000000	53.189563 
1102.000000	53.181815 
1101.000000	53.170728 
1100.000000	53.154826 
1099.000000	53.133893 
1098.000000	53.108978 
1097.000000	53.082346 
1096.000000	53.056669 
1095.000000	53.034353 
1094.000000	53.016448 
1093.000000	53.002238 
1092.000000	52.989387 
1091.000000	52.974724 
1090.000000	52.955079 
1089.000000	52.928543 
1088.000000	52.895140 
1087.000000	52.857327 
1086.000000	52.819085 
1085.000000	52.785253 
1084.000000	52.760028 
1083.000000	52.746129 
1082.000000	52.743768 
1081.000000	52.750968 
1080.000000	52.764272 
1079.000000	52.779674 
1078.000000	52.793645 
1077.000000	52.803826 
1076.000000	52.809596 
1075.000000	52.811574 
1074.000000	52.810955 
1073.000000	52.809047 
1072.000000	52.806425 
1071.000000	52.803015 
1070.000000	52.798175 
1069.000000	52.791285 
1068.000000	52.782320 
1067.000000	52.771997 
1066.000000	52.761697 
1065.000000	52.752923 
1064.000000	52.746987 
1063.000000	52.744150 
1062.000000	52.743721 
1061.000000	52.743935 
1060.000000	52.742648 
1059.000000	52.738046 
1058.000000	52.729368 
1057.000000	52.716636 
1056.000000	52.700781 
1055.000000	52.683401 
1054.000000	52.665996 
1053.000000	52.649092 
1052.000000	52.632713 
1051.000000	52.616357 
1050.000000	52.599930 
1049.000000	52.584266 
1048.000000	52.571082 
1047.000000	52.563142 
1046.000000	52.562952 
1045.000000	52.572131 
1044.000000	52.589941 
1043.000000	52.612972 
1042.000000	52.635383 
1041.000000	52.650308 
1040.000000	52.651381 
1039.000000	52.634620 
1038.000000	52.599716 
1037.000000	52.550768 
1036.000000	52.495241 
1035.000000	52.442574 
1034.000000	52.401852 
1033.000000	52.380347 
1032.000000	52.381396 
1031.000000	52.404904 
1030.000000	52.447414 
1029.000000	52.503371 
1028.000000	52.566790 
1027.000000	52.631878 
1026.000000	52.694034 
1025.000000	52.749514 
1024.000000	52.795243 
1023.000000	52.828526 
1022.000000	52.847027 
1021.000000	52.849197 
1020.000000	52.834892 
1019.000000	52.805519 
1018.000000	52.764773 
1017.000000	52.717638 
1016.000000	52.670359 
1015.000000	52.628302 
1014.000000	52.595090 
1013.000000	52.571606 
1012.000000	52.556085 
1011.000000	52.545118 
1010.000000	52.534985 
1009.000000	52.522945 
1008.000000	52.508139 
1007.000000	52.491855 
1006.000000	52.477073 
1005.000000	52.466821 
1004.000000	52.463412 
1003.000000	52.467083 
1002.000000	52.475976 
1001.000000	52.486419 
1000.000000	52.493906 
999.000000	 52.494072 
998.000000	 52.484059 
997.000000	 52.462983 
996.000000	 52.432417 
995.000000	 52.396249 
994.000000	 52.359700 
993.000000	 52.327656 
992.000000	 52.304148 
991.000000	 52.291536 
990.000000	 52.290248 
989.000000	 52.298688 
988.000000	 52.313899 
987.000000	 52.332019 
986.000000	 52.349138 
985.000000	 52.361965 
984.000000	 52.367949 
983.000000	 52.365398 
982.000000	 52.353835 
981.000000	 52.333879 
980.000000	 52.306699 
979.000000	 52.273988 
978.000000	 52.238130 
977.000000	 52.201700 
976.000000	 52.167892 
975.000000	 52.139425 
974.000000	 52.119016 
973.000000	 52.107644 
972.000000	 52.104878 
971.000000	 52.108311 
970.000000	 52.113890 
969.000000	 52.117061 
968.000000	 52.113676 
967.000000	 52.101230 
966.000000	 52.079486 
965.000000	 52.050566 
964.000000	 52.018332 
963.000000	 51.987528 
962.000000	 51.962375 
961.000000	 51.945734 
960.000000	 51.938390 
959.000000	 51.939201 
958.000000	 51.945543 
957.000000	 51.954460 
956.000000	 51.963543 
955.000000	 51.971101 
954.000000	 51.976585 
953.000000	 51.980257 
952.000000	 51.982855 
951.000000	 51.984429 
950.000000	 51.984477 
949.000000	 51.982164 
948.000000	 51.976680 
947.000000	 51.967787 
946.000000	 51.955986 
945.000000	 51.942372 
944.000000	 51.928639 
943.000000	 51.916837 
942.000000	 51.908659 
941.000000	 51.905035 
940.000000	 51.906132 
939.000000	 51.911234 
938.000000	 51.919126 
937.000000	 51.928305 
936.000000	 51.937246 
935.000000	 51.944470 
934.000000	 51.948833 
933.000000	 51.949405 
932.000000	 51.945519 
931.000000	 51.936626 
930.000000	 51.921916 
929.000000	 51.900315 
928.000000	 51.870942 
927.000000	 51.833319 
926.000000	 51.787400 
925.000000	 51.734209 
924.000000	 51.675462 
923.000000	 51.614546 
922.000000	 51.555967 
921.000000	 51.505494 
920.000000	 51.468276 
919.000000	 51.448702 
918.000000	 51.449966 
917.000000	 51.472592 
916.000000	 51.513791 
915.000000	 51.567673 
914.000000	 51.626253 
913.000000	 51.680397 
912.000000	 51.720857 
911.000000	 51.740670 
910.000000	 51.735925 
909.000000	 51.707196 
908.000000	 51.658916 
907.000000	 51.599287 
906.000000	 51.538681 
905.000000	 51.488018 
904.000000	 51.456713 
903.000000	 51.451373 
902.000000	 51.474308 
901.000000	 51.523995 
900.000000	 51.594448 
899.000000	 51.676344 
898.000000	 51.757431 
897.000000	 51.825428 
896.000000	 51.868510 
895.000000	 51.877331 
894.000000	 51.845788 
893.000000	 51.772475 
892.000000	 51.660442 
891.000000	 51.516842 
890.000000	 51.352024 
889.000000	 51.179003 
888.000000	 51.010918 
887.000000	 50.859498 
886.000000	 50.733709 
885.000000	 50.638937 
884.000000	 50.576519 
883.000000	 50.544238 
882.000000	 50.536847 
881.000000	 50.547003 
880.000000	 50.567507 
879.000000	 50.592374 
878.000000	 50.617742 
877.000000	 50.641894 
876.000000	 50.665998 
875.000000	 50.692820 
874.000000	 50.725841 
873.000000	 50.767683 
872.000000	 50.819087 
871.000000	 50.877737 
870.000000	 50.938582 
869.000000	 50.994443 
868.000000	 51.037597 
867.000000	 51.062107 
866.000000	 51.064753 
865.000000	 51.046967 
864.000000	 51.014900 
863.000000	 50.978183 
862.000000	 50.948357 
861.000000	 50.935602 
860.000000	 50.946640 
859.000000	 50.982379 
858.000000	 51.038432 
857.000000	 51.104998 
856.000000	 51.169323 
855.000000	 51.218748 
854.000000	 51.243901 
853.000000	 51.240777 
852.000000	 51.211380 
851.000000	 51.163077 
850.000000	 51.106142 
849.000000	 51.050829 
848.000000	 51.004648 
847.000000	 50.970697 
846.000000	 50.947380 
845.000000	 50.929808 
844.000000	 50.911569 
843.000000	 50.887441 
842.000000	 50.854992 
841.000000	 50.815296 
840.000000	 50.772595 
839.000000	 50.732111 
838.000000	 50.699234 
837.000000	 50.677537 
836.000000	 50.668072 
835.000000	 50.668811 
834.000000	 50.675368 
833.000000	 50.682687 
832.000000	 50.685119 
831.000000	 50.678396 
830.000000	 50.658822 
829.000000	 50.624036 
828.000000	 50.573086 
827.000000	 50.506210 
826.000000	 50.426435 
825.000000	 50.339245 
824.000000	 50.253152 
823.000000	 50.178503 
822.000000	 50.125503 
821.000000	 50.102472 
820.000000	 50.113534 
819.000000	 50.157785 
818.000000	 50.229120 
817.000000	 50.317072 
816.000000	 50.409579 
815.000000	 50.494790 
814.000000	 50.562548 
813.000000	 50.606155 
812.000000	 50.622963 
811.000000	 50.614333 
810.000000	 50.584411 
809.000000	 50.539064 
808.000000	 50.485277 
807.000000	 50.428891 
806.000000	 50.374436 
805.000000	 50.324273 
804.000000	 50.279474 
803.000000	 50.239896 
802.000000	 50.205254 
801.000000	 50.175619 
800.000000	 50.151658 
799.000000	 50.135254 
798.000000	 50.128936 
797.000000	 50.135421 
796.000000	 50.156784 
795.000000	 50.193810 
794.000000	 50.245404 
793.000000	 50.308394 
792.000000	 50.378036 
791.000000	 50.448751 
790.000000	 50.515031 
789.000000	 50.572609 
788.000000	 50.618910 
787.000000	 50.653624 
786.000000	 50.678062 
785.000000	 50.694894 
784.000000	 50.706911 
783.000000	 50.717186 
782.000000	 50.727272 
781.000000	 50.737762 
780.000000	 50.746941 
779.000000	 50.751924 
778.000000	 50.748538 
777.000000	 50.733470 
776.000000	 50.704336 
775.000000	 50.660681 
774.000000	 50.604391 
773.000000	 50.539684 
772.000000	 50.471925 
771.000000	 50.406670 
770.000000	 50.348210 
769.000000	 50.298786 
768.000000	 50.258517 
767.000000	 50.225973 
766.000000	 50.198364 
765.000000	 50.172924 
764.000000	 50.148081 
763.000000	 50.123977 
762.000000	 50.101661 
761.000000	 50.083041 
760.000000	 50.069522 
759.000000	 50.062131 
758.000000	 50.059652 
757.000000	 50.060510 
756.000000	 50.062990 
755.000000	 50.066399 
754.000000	 50.071334 
753.000000	 50.079655 
752.000000	 50.094270 
751.000000	 50.117349 
750.000000	 50.149416 
749.000000	 50.188183 
748.000000	 50.228786 
747.000000	 50.264048 
746.000000	 50.286269 
745.000000	 50.288105 
744.000000	 50.264453 
743.000000	 50.213527 
742.000000	 50.137591 
741.000000	 50.041890 
740.000000	 49.934220 
739.000000	 49.823451 
738.000000	 49.718570 
737.000000	 49.627423 
736.000000	 49.555921 
735.000000	 49.507951 
734.000000	 49.484825 
733.000000	 49.485564 
732.000000	 49.507069 
731.000000	 49.543833 
730.000000	 49.588990 
729.000000	 49.634647 
728.000000	 49.673199 
727.000000	 49.697661 
726.000000	 49.703168 
725.000000	 49.687170 
724.000000	 49.650216 
723.000000	 49.595570 
722.000000	 49.529290 
721.000000	 49.459147 
720.000000	 49.393677 
719.000000	 49.340939 
718.000000	 49.307060 
717.000000	 49.295306 
716.000000	 49.305725 
715.000000	 49.335145 
714.000000	 49.377703 
713.000000	 49.425959 
712.000000	 49.471902 
711.000000	 49.508166 
710.000000	 49.528717 
709.000000	 49.529957 
708.000000	 49.510693 
707.000000	 49.472570 
706.000000	 49.419474 
705.000000	 49.356937 
704.000000	 49.291586 
703.000000	 49.230003 
702.000000	 49.178147 
701.000000	 49.140143 
700.000000	 49.117875 
699.000000	 49.110865 
698.000000	 49.116396 
697.000000	 49.130463 
696.000000	 49.148154 
695.000000	 49.165487 
694.000000	 49.180102 
693.000000	 49.191403 
692.000000	 49.200367 
691.000000	 49.208283 
690.000000	 49.215912 
689.000000	 49.222874 
688.000000	 49.227213 
687.000000	 49.225854 
686.000000	 49.215221 
685.000000	 49.192953 
684.000000	 49.158310 
683.000000	 49.112319 
682.000000	 49.057197 
681.000000	 48.995828 
680.000000	 48.931074 
679.000000	 48.864984 
678.000000	 48.798942 
677.000000	 48.733615 
676.000000	 48.669838 
675.000000	 48.608994 
674.000000	 48.553442 
673.000000	 48.506140 
672.000000	 48.470091 
671.000000	 48.447251 
670.000000	 48.437738 
669.000000	 48.439002 
668.000000	 48.446631 
667.000000	 48.454642 
666.000000	 48.457694 
665.000000	 48.452019 
664.000000	 48.437142 
663.000000	 48.415756 
662.000000	 48.393583 
661.000000	 48.377609 
660.000000	 48.374772 
659.000000	 48.390078 
658.000000	 48.425078 
657.000000	 48.477482 
656.000000	 48.541402 
655.000000	 48.608684 
654.000000	 48.670721 
653.000000	 48.719859 
652.000000	 48.751091 
651.000000	 48.762273 
650.000000	 48.754453 
649.000000	 48.730444 
648.000000	 48.693704 
647.000000	 48.647546 
646.000000	 48.594856 
645.000000	 48.537993 
644.000000	 48.479175 
643.000000	 48.421239 
642.000000	 48.368549 
641.000000	 48.326182 
640.000000	 48.299574 
639.000000	 48.292541 
638.000000	 48.306226 
637.000000	 48.338103 
636.000000	 48.382329 
635.000000	 48.429799 
634.000000	 48.469781 
633.000000	 48.492956 
632.000000	 48.493456 
631.000000	 48.469805 
630.000000	 48.425054 
629.000000	 48.365998 
628.000000	 48.301053 
627.000000	 48.238396 
626.000000	 48.183846 
625.000000	 48.139858 
624.000000	 48.105525 
623.000000	 48.077964 
622.000000	 48.053717 
621.000000	 48.030567 
620.000000	 48.008513 
619.000000	 47.989773 
618.000000	 47.978115 
617.000000	 47.977256 
616.000000	 47.989177 
615.000000	 48.013043 
614.000000	 48.043584 
613.000000	 48.072004 
612.000000	 48.086786 
611.000000	 48.076868 
610.000000	 48.033094 
609.000000	 47.950839 
608.000000	 47.830748 
607.000000	 47.679471 
606.000000	 47.508263 
605.000000	 47.331619 
604.000000	 47.164797 
603.000000	 47.022199 
602.000000	 46.915769 
601.000000	 46.853780 
600.000000	 46.839880 
599.000000	 46.872782 
598.000000	 46.946406 
597.000000	 47.051000 
596.000000	 47.172856 
595.000000	 47.298002 
594.000000	 47.412347 
593.000000	 47.505474 
592.000000	 47.570753 
591.000000	 47.606945 
590.000000	 47.617459 
589.000000	 47.609019 
588.000000	 47.590184 
587.000000	 47.567868 
586.000000	 47.546577 
585.000000	 47.526717 
584.000000	 47.505831 
583.000000	 47.479653 
582.000000	 47.444438 
581.000000	 47.398614 
580.000000	 47.344136 
579.000000	 47.286105 
578.000000	 47.231554 
577.000000	 47.187423 
576.000000	 47.158217 
575.000000	 47.144317 
574.000000	 47.141695 
573.000000	 47.143149 
572.000000	 47.139954 
571.000000	 47.123980 
570.000000	 47.090268 
569.000000	 47.038149 
568.000000	 46.971774 
567.000000	 46.898794 
566.000000	 46.828722 
565.000000	 46.769928 
564.000000	 46.728515 
563.000000	 46.707129 
562.000000	 46.704196 
561.000000	 46.715140 
560.000000	 46.732854 
559.000000	 46.750020 
558.000000	 46.759748 
557.000000	 46.756887 
556.000000	 46.738839 
555.000000	 46.705746 
554.000000	 46.659779 
553.000000	 46.604156 
552.000000	 46.542835 
551.000000	 46.479582 
550.000000	 46.417498 
549.000000	 46.358609 
548.000000	 46.304392 
547.000000	 46.255683 
546.000000	 46.212983 
545.000000	 46.176409 
544.000000	 46.145248 
543.000000	 46.118593 
542.000000	 46.094918 
541.000000	 46.073555 
540.000000	 46.053862 
539.000000	 46.037030 
538.000000	 46.025061 
537.000000	 46.021676 
536.000000	 46.031069 
535.000000	 46.056222 
534.000000	 46.098208 
533.000000	 46.153140 
532.000000	 46.212577 
531.000000	 46.263504 
530.000000	 46.291542 
529.000000	 46.282982 
528.000000	 46.228528 
527.000000	 46.125888 
526.000000	 45.981001 
525.000000	 45.806431 
524.000000	 45.619225 
523.000000	 45.437502 
522.000000	 45.277500 
521.000000	 45.150637 
520.000000	 45.062708 
519.000000	 45.014619 
518.000000	 45.003271 
517.000000	 45.023465 
516.000000	 45.068812 
515.000000	 45.132589 
514.000000	 45.207762 
513.000000	 45.285773 
512.000000	 45.357799 
511.000000	 45.413041 
510.000000	 45.442342 
509.000000	 45.439362 
508.000000	 45.403075 
507.000000	 45.337796 
506.000000	 45.253968 
505.000000	 45.166563 
504.000000	 45.091795 
503.000000	 45.043611 
502.000000	 45.031070 
501.000000	 45.056581 
500.000000	 45.115852 
499.000000	 45.199298 
498.000000	 45.295047 
497.000000	 45.391607 
496.000000	 45.480561 
495.000000	 45.557522 
494.000000	 45.620822 
493.000000	 45.670676 
492.000000	 45.707917 
491.000000	 45.732665 
490.000000	 45.744752 
489.000000	 45.742154 
488.000000	 45.724654 
487.000000	 45.690345 
486.000000	 45.638108 
485.000000	 45.565247 
484.000000	 45.469403 
483.000000	 45.348453 
482.000000	 45.202970 
481.000000	 45.035791 
480.000000	 44.852709 
479.000000	 44.662570 
478.000000	 44.476747 
477.000000	 44.307160 
476.000000	 44.164323 
475.000000	 44.055891 
474.000000	 43.985223 
473.000000	 43.952178 
472.000000	 43.953227 
471.000000	 43.984007 
470.000000	 44.039773 
469.000000	 44.114661 
468.000000	 44.201350 
467.000000	 44.290208 
466.000000	 44.369983 
465.000000	 44.427680 
464.000000	 44.452047 
463.000000	 44.436383 
462.000000	 44.380378 
461.000000	 44.292044 
460.000000	 44.183802 
459.000000	 44.073057 
458.000000	 43.972992 
457.000000	 43.890523 
456.000000	 43.822550 
455.000000	 43.755698 
454.000000	 43.673849 
453.000000	 43.563389 
452.000000	 43.422174 
451.000000	 43.262028 
450.000000	 43.108606 
449.000000	 42.996811 
448.000000	 42.954707 
447.000000	 42.993974 
446.000000	 43.102264 
445.000000	 43.245029 
444.000000	 43.374681 
443.000000	 43.444395 
442.000000	 43.425774 
441.000000	 43.317103 
440.000000	 43.144679 
439.000000	 42.953658 
438.000000	 42.796564 
437.000000	 42.713832 
436.000000	 42.719841 
435.000000	 42.797350 
434.000000	 42.900013 
433.000000	 42.968487 
432.000000	 42.952299 
431.000000	 42.825055 
430.000000	 42.587900 
429.000000	 42.279481 
428.000000	 41.967892 
427.000000	 41.732096 
426.000000	 41.636228 
425.000000	 41.717433 
424.000000	 41.974258 
423.000000	 42.368459 
422.000000	 42.835855 
421.000000	 43.300580 
420.000000	 43.693208 
419.000000	 43.968176 
418.000000	 44.114685 
417.000000	 44.146323 
416.000000	 44.096159 
415.000000	 44.020676 
414.000000	 43.983912 
413.000000	 44.037222 
412.000000	 44.204831 
411.000000	 44.501829 
410.000000	 44.906377 
409.000000	 45.372891 
408.000000	 45.814538 
407.000000	 46.123099 
406.000000	 46.173954 
405.000000	 45.866155 
404.000000	 45.132994 
403.000000	 43.941330 
402.000000	 42.333865 
401.000000	 40.444326 
400.000000	 38.466167 
399.000000	 36.617159 
398.000000	 35.100030 
397.000000	 34.052062 
396.000000	 33.544611 
395.000000	 33.576846 
394.000000	 34.086155 
393.000000	 34.968256 
392.000000	 36.125707 
391.000000	 37.489581 
390.000000	 39.082288 
389.000000	 40.998530 
388.000000	 43.355846 
387.000000	 46.229147 
386.000000	 49.604439 
385.000000	 53.327536 
384.000000	 57.110548 
383.000000	 60.541224 
382.000000	 63.251638 
381.000000	 64.871859 
380.000000	 65.185666 
379.000000	 64.034390 
378.000000	 61.329007 
377.000000	 57.073998 
376.000000	 51.349663 
375.000000	 44.440317 
374.000000	 36.814856 
373.000000	 29.204988 
372.000000	 22.523045 
371.000000	 17.741394 
370.000000	 15.724730 

