PE IR       SPECTRUM    SPECTRUM    ASCII       PEDS        1.60        
  -1
C-9965~1.ASC
17/03/27
15:07:52.00
17/03/27
15:07:52.00
tln
$C-4040-8_t0008$<tbV0>[-5.2,-13.0,8.0,0.0,27,1,0]
370.000000
64









2002,4.07    
MIRTGS : RIGHTBACK : INTERNAL 2
MIR : ON : INTERNAL 2
OPTKBR

0.200000
8
8.000000
FILLER
RATIO
SPECTRUM
UNLOCKED 256

DOUBLE
64
COMBINED
1
0
0


1.000000
RATIO


1
0
TRUE
51149
0
LEFT NOT FITTED RIGHT NOT FITTED 0
NONE
NONE
15600
12.000000
4.427000
51148
TRUE
1 0 8 72 0 0 0 0 

15798.010000






#HDR
-1
-1
#GR
CM-1
%T
0.00002384185791015625
0.0
5000.000000
-1.000000
4631
8
92.211961
25.609683
#DATA
5000.000000	63.827919 
4999.000000	63.723421 
4998.000000	63.645195 
4997.000000	63.604092 
4996.000000	63.607740 
4995.000000	63.658833 
4994.000000	63.753056 
4993.000000	63.877844 
4992.000000	64.015269 
4991.000000	64.145159 
4990.000000	64.248943 
4989.000000	64.312553 
4988.000000	64.330148 
4987.000000	64.304399 
4986.000000	64.245438 
4985.000000	64.167928 
4984.000000	64.086699 
4983.000000	64.013242 
4982.000000	63.953685 
4981.000000	63.908147 
4980.000000	63.872027 
4979.000000	63.838958 
4978.000000	63.803529 
4977.000000	63.764309 
4976.000000	63.725972 
4975.000000	63.697886 
4974.000000	63.690495 
4973.000000	63.711881 
4972.000000	63.764572 
4971.000000	63.842916 
4970.000000	63.933897 
4969.000000	64.018464 
4968.000000	64.075541 
4967.000000	64.087700 
4966.000000	64.046168 
4965.000000	63.953232 
4964.000000	63.821411 
4963.000000	63.671922 
4962.000000	63.529515 
4961.000000	63.417387 
4960.000000	63.352012 
4959.000000	63.340353 
4958.000000	63.379025 
4957.000000	63.457250 
4956.000000	63.559746 
4955.000000	63.670396 
4954.000000	63.774204 
4953.000000	63.857078 
4952.000000	63.906073 
4951.000000	63.909292 
4950.000000	63.857007 
4949.000000	63.741874 
4948.000000	63.562774 
4947.000000	63.326859 
4946.000000	63.051557 
4945.000000	62.762737 
4944.000000	62.493062 
4943.000000	62.276244 
4942.000000	62.142300 
4941.000000	62.110638 
4940.000000	62.187266 
4939.000000	62.362575 
4938.000000	62.613558 
4937.000000	62.907361 
4936.000000	63.207411 
4935.000000	63.478660 
4934.000000	63.694214 
4933.000000	63.837623 
4932.000000	63.905382 
4931.000000	63.904786 
4930.000000	63.852643 
4929.000000	63.770270 
4928.000000	63.681054 
4927.000000	63.605713 
4926.000000	63.560152 
4925.000000	63.552737 
4924.000000	63.584947 
4923.000000	63.651633 
4922.000000	63.742661 
4921.000000	63.846302 
4920.000000	63.950514 
4919.000000	64.047265 
4918.000000	64.132857 
4917.000000	64.209365 
4916.000000	64.282321 
4915.000000	64.358544 
4914.000000	64.442896 
4913.000000	64.535903 
4912.000000	64.633846 
4911.000000	64.728212 
4910.000000	64.808893 
4909.000000	64.865732 
4908.000000	64.893150 
4907.000000	64.888668 
4906.000000	64.854717 
4905.000000	64.795994 
4904.000000	64.718580 
4903.000000	64.629125 
4902.000000	64.534378 
4901.000000	64.440345 
4900.000000	64.352512 
4899.000000	64.277100 
4898.000000	64.220333 
4897.000000	64.188051 
4896.000000	64.183616 
4895.000000	64.206480 
4894.000000	64.251089 
4893.000000	64.306855 
4892.000000	64.359784 
4891.000000	64.395594 
4890.000000	64.402651 
4889.000000	64.373517 
4888.000000	64.307641 
4887.000000	64.210534 
4886.000000	64.093899 
4885.000000	63.971281 
4884.000000	63.858413 
4883.000000	63.769721 
4882.000000	63.717722 
4881.000000	63.711094 
4880.000000	63.753581 
4879.000000	63.843798 
4878.000000	63.973999 
4877.000000	64.131188 
4876.000000	64.297461 
4875.000000	64.452314 
4874.000000	64.575862 
4873.000000	64.652466 
4872.000000	64.674019 
4871.000000	64.641475 
4870.000000	64.565777 
4869.000000	64.464449 
4868.000000	64.357233 
4867.000000	64.261031 
4866.000000	64.187121 
4865.000000	64.138484 
4864.000000	64.111208 
4863.000000	64.096593 
4862.000000	64.085412 
4861.000000	64.071011 
4860.000000	64.051389 
4859.000000	64.030289 
4858.000000	64.014029 
4857.000000	64.011359 
4856.000000	64.029002 
4855.000000	64.071083 
4854.000000	64.136552 
4853.000000	64.220547 
4852.000000	64.315247 
4851.000000	64.411520 
4850.000000	64.501190 
4849.000000	64.577341 
4848.000000	64.635443 
4847.000000	64.672636 
4846.000000	64.687991 
4845.000000	64.683032 
4844.000000	64.661288 
4843.000000	64.628481 
4842.000000	64.590907 
4841.000000	64.555215 
4840.000000	64.526176 
4839.000000	64.506864 
4838.000000	64.497232 
4837.000000	64.494466 
4836.000000	64.493680 
4835.000000	64.490365 
4834.000000	64.480757 
4833.000000	64.463090 
4832.000000	64.437556 
4831.000000	64.406466 
4830.000000	64.373040 
4829.000000	64.340472 
4828.000000	64.310574 
4827.000000	64.283370 
4826.000000	64.257383 
4825.000000	64.230489 
4824.000000	64.200592 
4823.000000	64.166498 
4822.000000	64.128279 
4821.000000	64.087724 
4820.000000	64.047455 
4819.000000	64.010858 
4818.000000	63.981962 
4817.000000	63.965010 
4816.000000	63.964009 
4815.000000	63.982295 
4814.000000	64.021778 
4813.000000	64.082407 
4812.000000	64.161682 
4811.000000	64.254570 
4810.000000	64.353418 
4809.000000	64.449453 
4808.000000	64.533662 
4807.000000	64.598250 
4806.000000	64.638185 
4805.000000	64.651465 
4804.000000	64.640116 
4803.000000	64.608502 
4802.000000	64.562582 
4801.000000	64.508342 
4800.000000	64.451336 
4799.000000	64.395642 
4798.000000	64.344310 
4797.000000	64.299607 
4796.000000	64.263987 
4795.000000	64.240312 
4794.000000	64.231610 
4793.000000	64.240717 
4792.000000	64.269328 
4791.000000	64.317393 
4790.000000	64.382386 
4789.000000	64.459252 
4788.000000	64.540743 
4787.000000	64.618515 
4786.000000	64.684081 
4785.000000	64.730596 
4784.000000	64.753580 
4783.000000	64.751720 
4782.000000	64.727020 
4781.000000	64.684224 
4780.000000	64.630413 
4779.000000	64.574265 
4778.000000	64.524173 
4777.000000	64.487838 
4776.000000	64.469909 
4775.000000	64.472484 
4774.000000	64.493703 
4773.000000	64.528608 
4772.000000	64.570045 
4771.000000	64.610195 
4770.000000	64.641880 
4769.000000	64.660143 
4768.000000	64.662504 
4767.000000	64.649200 
4766.000000	64.622569 
4765.000000	64.586472 
4764.000000	64.545583 
4763.000000	64.504599 
4762.000000	64.467525 
4761.000000	64.437222 
4760.000000	64.415597 
4759.000000	64.403414 
4758.000000	64.400362 
4757.000000	64.405560 
4756.000000	64.418029 
4755.000000	64.436936 
4754.000000	64.460921 
4753.000000	64.488720 
4752.000000	64.518809 
4751.000000	64.549565 
4750.000000	64.579176 
4749.000000	64.605784 
4748.000000	64.627909 
4747.000000	64.644527 
4746.000000	64.655613 
4745.000000	64.661550 
4744.000000	64.663052 
4743.000000	64.660573 
4742.000000	64.654445 
4741.000000	64.643764 
4740.000000	64.626693 
4739.000000	64.601016 
4738.000000	64.565205 
4737.000000	64.519095 
4736.000000	64.464473 
4735.000000	64.405393 
4734.000000	64.347314 
4733.000000	64.295887 
4732.000000	64.255571 
4731.000000	64.228510 
4730.000000	64.214348 
4729.000000	64.210176 
4728.000000	64.212012 
4727.000000	64.215540 
4726.000000	64.217829 
4725.000000	64.217901 
4724.000000	64.216589 
4723.000000	64.215755 
4722.000000	64.217376 
4721.000000	64.222073 
4720.000000	64.229249 
4719.000000	64.236783 
4718.000000	64.242649 
4717.000000	64.245605 
4716.000000	64.246582 
4715.000000	64.248681 
4714.000000	64.256381 
4713.000000	64.274358 
4712.000000	64.305567 
4711.000000	64.350032 
4710.000000	64.404392 
4709.000000	64.462113 
4708.000000	64.515686 
4707.000000	64.557838 
4706.000000	64.583325 
4705.000000	64.589619 
4704.000000	64.577627 
4703.000000	64.551067 
4702.000000	64.514827 
4701.000000	64.474344 
4700.000000	64.434027 
4699.000000	64.397382 
4698.000000	64.367103 
4697.000000	64.345312 
4696.000000	64.334368 
4695.000000	64.336156 
4694.000000	64.352440 
4693.000000	64.383530 
4692.000000	64.427614 
4691.000000	64.480543 
4690.000000	64.535927 
4689.000000	64.586520 
4688.000000	64.625477 
4687.000000	64.648199 
4686.000000	64.653372 
4685.000000	64.643788 
4684.000000	64.625740 
4683.000000	64.608001 
4682.000000	64.599418 
4681.000000	64.606738 
4680.000000	64.632391 
4679.000000	64.674401 
4678.000000	64.725542 
4677.000000	64.775586 
4676.000000	64.812850 
4675.000000	64.827752 
4674.000000	64.814448 
4673.000000	64.772129 
4672.000000	64.705061 
4671.000000	64.621210 
4670.000000	64.530706 
4669.000000	64.443516 
4668.000000	64.367747 
4667.000000	64.308142 
4666.000000	64.266562 
4665.000000	64.242529 
4664.000000	64.234495 
4663.000000	64.240860 
4662.000000	64.260864 
4661.000000	64.294242 
4660.000000	64.340829 
4659.000000	64.399242 
4658.000000	64.465785 
4657.000000	64.533948 
4656.000000	64.595103 
4655.000000	64.639425 
4654.000000	64.657950 
4653.000000	64.644193 
4652.000000	64.595842 
4651.000000	64.515590 
4650.000000	64.410948 
4649.000000	64.293050 
4648.000000	64.174747 
4647.000000	64.068555 
4646.000000	63.984608 
4645.000000	63.929462 
4644.000000	63.905143 
4643.000000	63.910079 
4642.000000	63.939237 
4641.000000	63.986420 
4640.000000	64.044904 
4639.000000	64.109325 
4638.000000	64.175415 
4637.000000	64.240622 
4636.000000	64.302778 
4635.000000	64.360213 
4634.000000	64.410853 
4633.000000	64.452219 
4632.000000	64.481329 
4631.000000	64.495563 
4630.000000	64.493370 
4629.000000	64.474773 
4628.000000	64.441800 
4627.000000	64.398503 
4626.000000	64.350008 
4625.000000	64.302015 
4624.000000	64.259552 
4623.000000	64.226222 
4622.000000	64.203763 
4621.000000	64.192748 
4620.000000	64.192152 
4619.000000	64.200353 
4618.000000	64.214873 
4617.000000	64.232635 
4616.000000	64.250469 
4615.000000	64.265155 
4614.000000	64.274024 
4613.000000	64.275026 
4612.000000	64.267563 
4611.000000	64.252233 
4610.000000	64.231014 
4609.000000	64.206719 
4608.000000	64.182400 
4607.000000	64.160633 
4606.000000	64.143371 
4605.000000	64.131712 
4604.000000	64.125919 
4603.000000	64.125466 
4602.000000	64.130020 
4601.000000	64.139175 
4600.000000	64.152526 
4599.000000	64.169073 
4598.000000	64.186835 
4597.000000	64.202690 
4596.000000	64.212417 
4595.000000	64.211702 
4594.000000	64.196991 
4593.000000	64.166641 
4592.000000	64.122104 
4591.000000	64.067077 
4590.000000	64.006972 
4589.000000	63.947987 
4588.000000	63.895559 
4587.000000	63.853764 
4586.000000	63.824439 
4585.000000	63.807678 
4584.000000	63.802051 
4583.000000	63.805723 
4582.000000	63.816952 
4581.000000	63.834166 
4580.000000	63.855671 
4579.000000	63.879799 
4578.000000	63.904380 
4577.000000	63.926672 
4576.000000	63.943409 
4575.000000	63.951945 
4574.000000	63.950681 
4573.000000	63.939523 
4572.000000	63.919830 
4571.000000	63.894605 
4570.000000	63.867330 
4569.000000	63.841056 
4568.000000	63.818025 
4567.000000	63.799428 
4566.000000	63.785958 
4565.000000	63.777780 
4564.000000	63.775491 
4563.000000	63.780689 
4562.000000	63.795018 
4561.000000	63.819789 
4560.000000	63.854384 
4559.000000	63.895630 
4558.000000	63.937473 
4557.000000	63.971924 
4556.000000	63.990402 
4555.000000	63.985419 
4554.000000	63.953256 
4553.000000	63.895344 
4552.000000	63.817334 
4551.000000	63.727807 
4550.000000	63.636374 
4549.000000	63.551330 
4548.000000	63.477611 
4547.000000	63.415980 
4546.000000	63.363647 
4545.000000	63.315773 
4544.000000	63.267803 
4543.000000	63.216829 
4542.000000	63.163065 
4541.000000	63.108968 
4540.000000	63.057923 
4539.000000	63.012933 
4538.000000	62.974476 
4537.000000	62.941122 
4536.000000	62.908601 
4535.000000	62.872982 
4534.000000	62.831163 
4533.000000	62.784147 
4532.000000	62.736630 
4531.000000	62.697529 
4530.000000	62.676811 
4529.000000	62.685060 
4528.000000	62.729859 
4527.000000	62.814164 
4526.000000	62.934660 
4525.000000	63.081884 
4524.000000	63.241529 
4523.000000	63.396620 
4522.000000	63.530635 
4521.000000	63.630557 
4520.000000	63.688921 
4519.000000	63.705086 
4518.000000	63.684630 
4517.000000	63.637208 
4516.000000	63.574886 
4515.000000	63.510155 
4514.000000	63.454127 
4513.000000	63.416266 
4512.000000	63.402128 
4511.000000	63.415646 
4510.000000	63.455247 
4509.000000	63.515067 
4508.000000	63.584399 
4507.000000	63.649702 
4506.000000	63.697695 
4505.000000	63.717889 
4504.000000	63.705611 
4503.000000	63.662672 
4502.000000	63.596963 
4501.000000	63.520431 
4500.000000	63.445782 
4499.000000	63.383483 
4498.000000	63.338851 
4497.000000	63.310980 
4496.000000	63.293695 
4495.000000	63.277792 
4494.000000	63.254475 
4493.000000	63.217735 
4492.000000	63.165950 
4491.000000	63.102173 
4490.000000	63.031053 
4489.000000	62.959504 
4488.000000	62.892770 
4487.000000	62.836933 
4486.000000	62.798094 
4485.000000	62.782025 
4484.000000	62.797331 
4483.000000	62.848114 
4482.000000	62.929606 
4481.000000	63.029313 
4480.000000	63.128733 
4479.000000	63.207554 
4478.000000	63.246083 
4477.000000	63.234472 
4476.000000	63.176035 
4475.000000	63.086271 
4474.000000	62.989354 
4473.000000	62.910652 
4472.000000	62.869524 
4471.000000	62.875723 
4470.000000	62.928080 
4469.000000	63.013696 
4468.000000	63.112831 
4467.000000	63.209962 
4466.000000	63.297963 
4465.000000	63.376760 
4464.000000	63.453698 
4463.000000	63.537073 
4462.000000	63.637256 
4461.000000	63.754653 
4460.000000	63.891363 
4459.000000	64.050602 
4458.000000	64.244818 
4457.000000	64.494228 
4456.000000	64.824461 
4455.000000	65.260362 
4454.000000	65.814304 
4453.000000	66.478180 
4452.000000	67.218780 
4451.000000	67.982482 
4450.000000	68.699431 
4449.000000	69.300770 
4448.000000	69.724512 
4447.000000	69.932126 
4446.000000	69.905948 
4445.000000	69.654750 
4444.000000	69.198894 
4443.000000	68.566608 
4442.000000	67.786622 
4441.000000	66.888046 
4440.000000	65.904235 
4439.000000	64.875292 
4438.000000	63.854384 
4437.000000	62.902665 
4436.000000	62.081670 
4435.000000	61.443424 
4434.000000	61.014437 
4433.000000	60.795807 
4432.000000	60.758280 
4431.000000	60.854053 
4430.000000	61.021542 
4429.000000	61.202979 
4428.000000	61.348128 
4427.000000	61.427617 
4426.000000	61.426091 
4425.000000	61.350107 
4424.000000	61.213350 
4423.000000	61.042428 
4422.000000	60.873293 
4421.000000	60.733079 
4420.000000	60.628342 
4419.000000	60.560321 
4418.000000	60.530304 
4417.000000	60.532236 
4416.000000	60.556292 
4415.000000	60.591697 
4414.000000	60.628819 
4413.000000	60.659718 
4412.000000	60.681152 
4411.000000	60.687589 
4410.000000	60.678148 
4409.000000	60.662412 
4408.000000	60.659837 
4407.000000	60.696268 
4406.000000	60.795807 
4405.000000	60.977911 
4404.000000	61.245322 
4403.000000	61.571049 
4402.000000	61.918187 
4401.000000	62.225890 
4400.000000	62.471103 
4399.000000	62.641596 
4398.000000	62.819957 
4397.000000	63.155984 
4396.000000	63.874435 
4395.000000	65.211129 
4394.000000	67.357134 
4393.000000	70.392584 
4392.000000	74.226903 
4391.000000	78.590703 
4390.000000	83.052110 
4389.000000	87.091779 
4388.000000	90.199494 
4387.000000	91.976070 
4386.000000	92.211961 
4385.000000	90.921783 
4384.000000	88.347291 
4383.000000	84.887075 
4382.000000	81.020331 
4381.000000	77.195382 
4380.000000	73.777103 
4379.000000	70.973634 
4378.000000	68.862724 
4377.000000	67.385649 
4376.000000	66.424441 
4375.000000	65.829324 
4374.000000	65.463829 
4373.000000	65.234923 
4372.000000	65.062904 
4371.000000	64.922833 
4370.000000	64.796328 
4369.000000	64.692664 
4368.000000	64.604449 
4367.000000	64.534783 
4366.000000	64.484333 
4365.000000	64.454579 
4364.000000	64.443278 
4363.000000	64.450359 
4362.000000	64.477539 
4361.000000	64.517283 
4360.000000	64.552927 
4359.000000	64.571166 
4358.000000	64.563035 
4357.000000	64.518833 
4356.000000	64.432311 
4355.000000	64.308404 
4354.000000	64.158678 
4353.000000	63.998460 
4352.000000	63.843154 
4351.000000	63.696289 
4350.000000	63.557195 
4349.000000	63.436031 
4348.000000	63.341426 
4347.000000	63.270473 
4346.000000	63.218760 
4345.000000	63.185429 
4344.000000	63.169336 
4343.000000	63.166427 
4342.000000	63.174295 
4341.000000	63.191461 
4340.000000	63.217496 
4339.000000	63.251304 
4338.000000	63.291764 
4337.000000	63.336968 
4336.000000	63.383889 
4335.000000	63.427925 
4334.000000	63.463592 
4333.000000	63.485240 
4332.000000	63.487267 
4331.000000	63.465666 
4330.000000	63.419222 
4329.000000	63.350701 
4328.000000	63.266706 
4327.000000	63.177061 
4326.000000	63.094305 
4325.000000	63.030052 
4324.000000	62.992620 
4323.000000	62.984728 
4322.000000	63.003683 
4321.000000	63.041400 
4320.000000	63.086128 
4319.000000	63.125896 
4318.000000	63.151288 
4317.000000	63.157844 
4316.000000	63.145971 
4315.000000	63.121151 
4314.000000	63.091635 
4313.000000	63.065862 
4312.000000	63.049840 
4311.000000	63.045454 
4310.000000	63.050389 
4309.000000	63.059186 
4308.000000	63.065361 
4307.000000	63.063621 
4306.000000	63.051748 
4305.000000	63.031554 
4304.000000	63.008880 
4303.000000	62.991690 
4302.000000	62.988710 
4301.000000	63.007664 
4300.000000	63.052845 
4299.000000	63.124704 
4298.000000	63.218188 
4297.000000	63.323688 
4296.000000	63.428378 
4295.000000	63.518357 
4294.000000	63.581752 
4293.000000	63.610887 
4292.000000	63.604545 
4291.000000	63.568210 
4290.000000	63.512969 
4289.000000	63.452887 
4288.000000	63.401699 
4287.000000	63.370013 
4286.000000	63.362240 
4285.000000	63.376688 
4284.000000	63.405776 
4283.000000	63.438916 
4282.000000	63.465380 
4281.000000	63.477277 
4280.000000	63.471555 
4279.000000	63.450455 
4278.000000	63.420200 
4277.000000	63.388943 
4276.000000	63.363647 
4275.000000	63.348507 
4274.000000	63.343930 
4273.000000	63.346791 
4272.000000	63.352227 
4271.000000	63.354873 
4270.000000	63.350653 
4269.000000	63.338041 
4268.000000	63.317847 
4267.000000	63.293719 
4266.000000	63.270139 
4265.000000	63.252162 
4264.000000	63.243222 
4263.000000	63.245272 
4262.000000	63.258433 
4261.000000	63.281202 
4260.000000	63.311076 
4259.000000	63.345074 
4258.000000	63.380360 
4257.000000	63.414478 
4256.000000	63.445568 
4255.000000	63.472104 
4254.000000	63.492774 
4253.000000	63.506674 
4252.000000	63.513231 
4251.000000	63.512563 
4250.000000	63.505458 
4249.000000	63.493585 
4248.000000	63.479375 
4247.000000	63.466143 
4246.000000	63.457489 
4245.000000	63.456797 
4244.000000	63.466358 
4243.000000	63.486528 
4242.000000	63.515853 
4241.000000	63.551139 
4240.000000	63.588523 
4239.000000	63.624143 
4238.000000	63.655233 
4237.000000	63.680672 
4236.000000	63.700795 
4235.000000	63.716959 
4234.000000	63.730502 
4233.000000	63.742375 
4232.000000	63.752174 
4231.000000	63.758277 
4230.000000	63.758468 
4229.000000	63.750791 
4228.000000	63.734436 
4227.000000	63.710427 
4226.000000	63.681435 
4225.000000	63.651371 
4224.000000	63.624382 
4223.000000	63.604044 
4222.000000	63.591742 
4221.000000	63.586854 
4220.000000	63.587307 
4219.000000	63.590550 
4218.000000	63.594150 
4217.000000	63.597083 
4216.000000	63.600063 
4215.000000	63.605284 
4214.000000	63.615345 
4213.000000	63.632464 
4212.000000	63.657879 
4211.000000	63.691139 
4210.000000	63.729524 
4209.000000	63.769245 
4208.000000	63.806104 
4207.000000	63.836717 
4206.000000	63.859295 
4205.000000	63.873958 
4204.000000	63.882923 
4203.000000	63.889288 
4202.000000	63.896036 
4201.000000	63.904428 
4200.000000	63.913488 
4199.000000	63.920021 
4198.000000	63.919377 
4197.000000	63.906288 
4196.000000	63.876605 
4195.000000	63.829302 
4194.000000	63.766765 
4193.000000	63.694691 
4192.000000	63.620448 
4191.000000	63.552141 
4190.000000	63.495826 
4189.000000	63.453745 
4188.000000	63.423967 
4187.000000	63.401007 
4186.000000	63.378095 
4185.000000	63.349413 
4184.000000	63.312268 
4183.000000	63.267993 
4182.000000	63.221621 
4181.000000	63.180303 
4180.000000	63.150787 
4179.000000	63.136672 
4178.000000	63.138103 
4177.000000	63.151168 
4176.000000	63.169836 
4175.000000	63.187599 
4174.000000	63.200259 
4173.000000	63.207364 
4172.000000	63.212704 
4171.000000	63.223266 
4170.000000	63.247179 
4169.000000	63.291096 
4168.000000	63.358283 
4167.000000	63.447260 
4166.000000	63.551759 
4165.000000	63.662004 
4164.000000	63.767719 
4163.000000	63.859510 
4162.000000	63.931035 
4161.000000	63.979363 
4160.000000	64.005970 
4159.000000	64.014530 
4158.000000	64.009737 
4157.000000	63.995766 
4156.000000	63.976073 
4155.000000	63.952112 
4154.000000	63.924694 
4153.000000	63.893938 
4152.000000	63.860917 
4151.000000	63.827323 
4150.000000	63.795971 
4149.000000	63.770079 
4148.000000	63.752698 
4147.000000	63.745832 
4146.000000	63.750171 
4145.000000	63.764786 
4144.000000	63.787460 
4143.000000	63.815307 
4142.000000	63.845634 
4141.000000	63.876223 
4140.000000	63.905858 
4139.000000	63.934755 
4138.000000	63.964033 
4137.000000	63.995170 
4136.000000	64.029264 
4135.000000	64.066410 
4134.000000	64.105153 
4133.000000	64.142513 
4132.000000	64.174365 
4131.000000	64.196968 
4130.000000	64.207124 
4129.000000	64.203238 
4128.000000	64.185404 
4127.000000	64.155840 
4126.000000	64.118051 
4125.000000	64.076423 
4124.000000	64.035129 
4123.000000	63.997578 
4122.000000	63.966059 
4121.000000	63.941860 
4120.000000	63.924980 
4119.000000	63.914537 
4118.000000	63.909363 
4117.000000	63.908481 
4116.000000	63.911151 
4115.000000	63.917446 
4114.000000	63.927626 
4113.000000	63.942384 
4112.000000	63.962459 
4111.000000	63.988471 
4110.000000	64.020133 
4109.000000	64.056134 
4108.000000	64.094710 
4107.000000	64.133000 
4106.000000	64.167523 
4105.000000	64.194536 
4104.000000	64.210891 
4103.000000	64.214444 
4102.000000	64.204478 
4101.000000	64.182376 
4100.000000	64.151573 
4099.000000	64.117217 
4098.000000	64.085626 
4097.000000	64.062929 
4096.000000	64.054083 
4095.000000	64.061808 
4094.000000	64.086198 
4093.000000	64.124274 
4092.000000	64.170670 
4091.000000	64.218711 
4090.000000	64.261627 
4089.000000	64.293742 
4088.000000	64.311170 
4087.000000	64.312481 
4086.000000	64.298319 
4085.000000	64.270925 
4084.000000	64.233255 
4083.000000	64.188218 
4082.000000	64.138150 
4081.000000	64.085006 
4080.000000	64.030361 
4079.000000	63.975763 
4078.000000	63.923120 
4077.000000	63.875174 
4076.000000	63.835191 
4075.000000	63.806200 
4074.000000	63.791012 
4073.000000	63.791179 
4072.000000	63.806843 
4071.000000	63.836097 
4070.000000	63.875579 
4069.000000	63.920640 
4068.000000	63.966417 
4067.000000	64.008450 
4066.000000	64.043688 
4065.000000	64.070606 
4064.000000	64.089679 
4063.000000	64.102530 
4062.000000	64.111900 
4061.000000	64.120507 
4060.000000	64.130449 
4059.000000	64.142394 
4058.000000	64.155840 
4057.000000	64.168906 
4056.000000	64.178991 
4055.000000	64.183306 
4054.000000	64.179897 
4053.000000	64.167928 
4052.000000	64.148402 
4051.000000	64.123868 
4050.000000	64.097547 
4049.000000	64.072990 
4048.000000	64.053702 
4047.000000	64.042329 
4046.000000	64.040303 
4045.000000	64.047765 
4044.000000	64.063763 
4043.000000	64.086461 
4042.000000	64.113330 
4041.000000	64.141488 
4040.000000	64.168000 
4039.000000	64.190101 
4038.000000	64.205360 
4037.000000	64.211893 
4036.000000	64.208292 
4035.000000	64.194297 
4034.000000	64.170646 
4033.000000	64.138770 
4032.000000	64.101076 
4031.000000	64.060378 
4030.000000	64.020037 
4029.000000	63.983464 
4028.000000	63.954186 
4027.000000	63.935351 
4026.000000	63.929414 
4025.000000	63.937926 
4024.000000	63.961076 
4023.000000	63.997054 
4022.000000	64.042448 
4021.000000	64.091920 
4020.000000	64.139747 
4019.000000	64.180040 
4018.000000	64.208507 
4017.000000	64.223074 
4016.000000	64.224338 
4015.000000	64.215350 
4014.000000	64.200615 
4013.000000	64.185094 
4012.000000	64.172673 
4011.000000	64.165258 
4010.000000	64.162063 
4009.000000	64.160084 
4008.000000	64.155387 
4007.000000	64.144682 
4006.000000	64.126157 
4005.000000	64.100933 
4004.000000	64.072751 
4003.000000	64.047622 
4002.000000	64.032053 
4001.000000	64.031457 
4000.000000	64.048576 
3999.000000	64.082670 
3998.000000	64.129734 
3997.000000	64.183092 
3996.000000	64.235019 
3995.000000	64.278507 
3994.000000	64.308667 
3993.000000	64.323735 
3992.000000	64.325118 
3991.000000	64.316654 
3990.000000	64.303016 
3989.000000	64.288473 
3988.000000	64.275884 
3987.000000	64.265656 
3986.000000	64.256191 
3985.000000	64.244151 
3984.000000	64.225673 
3983.000000	64.197683 
3982.000000	64.158868 
3981.000000	64.110040 
3980.000000	64.054083 
3979.000000	63.995289 
3978.000000	63.938593 
3977.000000	63.888382 
3976.000000	63.847804 
3975.000000	63.818216 
3974.000000	63.799452 
3973.000000	63.790655 
3972.000000	63.790392 
3971.000000	63.797044 
3970.000000	63.809180 
3969.000000	63.825416 
3968.000000	63.844323 
3967.000000	63.863730 
3966.000000	63.881397 
3965.000000	63.894939 
3964.000000	63.902831 
3963.000000	63.904237 
3962.000000	63.900232 
3961.000000	63.893437 
3960.000000	63.887810 
3959.000000	63.887691 
3958.000000	63.896298 
3957.000000	63.914918 
3956.000000	63.942456 
3955.000000	63.975930 
3954.000000	64.011168 
3953.000000	64.043545 
3952.000000	64.070010 
3951.000000	64.088797 
3950.000000	64.099550 
3949.000000	64.102649 
3948.000000	64.098763 
3947.000000	64.087939 
3946.000000	64.069342 
3945.000000	64.041423 
3944.000000	64.003419 
3943.000000	63.955307 
3942.000000	63.898801 
3941.000000	63.837313 
3940.000000	63.775897 
3939.000000	63.720226 
3938.000000	63.675260 
3937.000000	63.644838 
3936.000000	63.630223 
3935.000000	63.631176 
3934.000000	63.645792 
3933.000000	63.671517 
3932.000000	63.705563 
3931.000000	63.745379 
3930.000000	63.788700 
3929.000000	63.833475 
3928.000000	63.877582 
3927.000000	63.918852 
3926.000000	63.955140 
3925.000000	63.984894 
3924.000000	64.006924 
3923.000000	64.020848 
3922.000000	64.026570 
3921.000000	64.024806 
3920.000000	64.016532 
3919.000000	64.002990 
3918.000000	63.985490 
3917.000000	63.965535 
3916.000000	63.944816 
3915.000000	63.925266 
3914.000000	63.909077 
3913.000000	63.898372 
3912.000000	63.894820 
3911.000000	63.899159 
3910.000000	63.911056 
3909.000000	63.928961 
3908.000000	63.950467 
3907.000000	63.972640 
3906.000000	63.992786 
3905.000000	64.009046 
3904.000000	64.020395 
3903.000000	64.026880 
3902.000000	64.029192 
3901.000000	64.028716 
3900.000000	64.027357 
3899.000000	64.027428 
3898.000000	64.031100 
3897.000000	64.040017 
3896.000000	64.055299 
3895.000000	64.076662 
3894.000000	64.102673 
3893.000000	64.130282 
3892.000000	64.155530 
3891.000000	64.173817 
3890.000000	64.181041 
3889.000000	64.174294 
3888.000000	64.152598 
3887.000000	64.117336 
3886.000000	64.072322 
3885.000000	64.022898 
3884.000000	63.975071 
3883.000000	63.934230 
3882.000000	63.904356 
3881.000000	63.887524 
3880.000000	63.883900 
3879.000000	63.891601 
3878.000000	63.907432 
3877.000000	63.927388 
3876.000000	63.947463 
3875.000000	63.963890 
3874.000000	63.973903 
3873.000000	63.976192 
3872.000000	63.971257 
3871.000000	63.961100 
3870.000000	63.948655 
3869.000000	63.937020 
3868.000000	63.928818 
3867.000000	63.925695 
3866.000000	63.928151 
3865.000000	63.935828 
3864.000000	63.947987 
3863.000000	63.963699 
3862.000000	63.982486 
3861.000000	64.004564 
3860.000000	64.030194 
3859.000000	64.059281 
3858.000000	64.090275 
3857.000000	64.120316 
3856.000000	64.144968 
3855.000000	64.158916 
3854.000000	64.157652 
3853.000000	64.138627 
3852.000000	64.102220 
3851.000000	64.052367 
3850.000000	63.995194 
3849.000000	63.937902 
3848.000000	63.887357 
3847.000000	63.848757 
3846.000000	63.825464 
3845.000000	63.818550 
3844.000000	63.827538 
3843.000000	63.850259 
3842.000000	63.883399 
3841.000000	63.922548 
3840.000000	63.962483 
3839.000000	63.997817 
3838.000000	64.023351 
3837.000000	64.034962 
3836.000000	64.030361 
3835.000000	64.009571 
3834.000000	63.974905 
3833.000000	63.930082 
3832.000000	63.880181 
3831.000000	63.829636 
3830.000000	63.781881 
3829.000000	63.738393 
3828.000000	63.699030 
3827.000000	63.662862 
3826.000000	63.629293 
3825.000000	63.598608 
3824.000000	63.572454 
3823.000000	63.552927 
3822.000000	63.542222 
3821.000000	63.541173 
3820.000000	63.549089 
3819.000000	63.563871 
3818.000000	63.582825 
3817.000000	63.603472 
3816.000000	63.624525 
3815.000000	63.646173 
3814.000000	63.670158 
3813.000000	63.698625 
3812.000000	63.733601 
3811.000000	63.775825 
3810.000000	63.824295 
3809.000000	63.876223 
3808.000000	63.927245 
3807.000000	63.972830 
3806.000000	64.008331 
3805.000000	64.030885 
3804.000000	64.038634 
3803.000000	64.031243 
3802.000000	64.009571 
3801.000000	63.975715 
3800.000000	63.932657 
3799.000000	63.883876 
3798.000000	63.833546 
3797.000000	63.786530 
3796.000000	63.746809 
3795.000000	63.716959 
3794.000000	63.697338 
3793.000000	63.686060 
3792.000000	63.679027 
3791.000000	63.670969 
3790.000000	63.656592 
3789.000000	63.632273 
3788.000000	63.596987 
3787.000000	63.552951 
3786.000000	63.505053 
3785.000000	63.459992 
3784.000000	63.424348 
3783.000000	63.403439 
3782.000000	63.399457 
3781.000000	63.411951 
3780.000000	63.437676 
3779.000000	63.472223 
3778.000000	63.510656 
3777.000000	63.549280 
3776.000000	63.585972 
3775.000000	63.620686 
3774.000000	63.654279 
3773.000000	63.688373 
3772.000000	63.724064 
3771.000000	63.761663 
3770.000000	63.800096 
3769.000000	63.836979 
3768.000000	63.869285 
3767.000000	63.894033 
3766.000000	63.909292 
3765.000000	63.914370 
3764.000000	63.910102 
3763.000000	63.898944 
3762.000000	63.884449 
3761.000000	63.870882 
3760.000000	63.862061 
3759.000000	63.861012 
3758.000000	63.868904 
3757.000000	63.885259 
3756.000000	63.907623 
3755.000000	63.932228 
3754.000000	63.954830 
3753.000000	63.971567 
3752.000000	63.979721 
3751.000000	63.978457 
3750.000000	63.968992 
3749.000000	63.953757 
3748.000000	63.936090 
3747.000000	63.919329 
3746.000000	63.906192 
3745.000000	63.898277 
3744.000000	63.896155 
3743.000000	63.899350 
3742.000000	63.907003 
3741.000000	63.918089 
3740.000000	63.931488 
3739.000000	63.945865 
3738.000000	63.959574 
3737.000000	63.970494 
3736.000000	63.975858 
3735.000000	63.972663 
3734.000000	63.958573 
3733.000000	63.932514 
3732.000000	63.895463 
3731.000000	63.850307 
3730.000000	63.802027 
3729.000000	63.756585 
3728.000000	63.719558 
3727.000000	63.695454 
3726.000000	63.686299 
3725.000000	63.691902 
3724.000000	63.709616 
3723.000000	63.735723 
3722.000000	63.766336 
3721.000000	63.798379 
3720.000000	63.829970 
3719.000000	63.860607 
3718.000000	63.890314 
3717.000000	63.919210 
3716.000000	63.946628 
3715.000000	63.971185 
3714.000000	63.990664 
3713.000000	64.002943 
3712.000000	64.006733 
3711.000000	64.002084 
3710.000000	63.990521 
3709.000000	63.975024 
3708.000000	63.959002 
3707.000000	63.945531 
3706.000000	63.936209 
3705.000000	63.931155 
3704.000000	63.928794 
3703.000000	63.926792 
3702.000000	63.922858 
3701.000000	63.915562 
3700.000000	63.904976 
3699.000000	63.892674 
3698.000000	63.881254 
3697.000000	63.873291 
3696.000000	63.871002 
3695.000000	63.875126 
3694.000000	63.884997 
3693.000000	63.898372 
3692.000000	63.912010 
3691.000000	63.922595 
3690.000000	63.927173 
3689.000000	63.923835 
3688.000000	63.912415 
3687.000000	63.894653 
3686.000000	63.873553 
3685.000000	63.852858 
3684.000000	63.836407 
3683.000000	63.827323 
3682.000000	63.827657 
3681.000000	63.837814 
3680.000000	63.856554 
3679.000000	63.880968 
3678.000000	63.907313 
3677.000000	63.931226 
3676.000000	63.948559 
3675.000000	63.955903 
3674.000000	63.950991 
3673.000000	63.933038 
3672.000000	63.902831 
3671.000000	63.862586 
3670.000000	63.815879 
3669.000000	63.767075 
3668.000000	63.721036 
3667.000000	63.681936 
3666.000000	63.653373 
3665.000000	63.636851 
3664.000000	63.631772 
3663.000000	63.635587 
3662.000000	63.644504 
3661.000000	63.654303 
3660.000000	63.661646 
3659.000000	63.664984 
3658.000000	63.665127 
3657.000000	63.665199 
3656.000000	63.669705 
3655.000000	63.683223 
3654.000000	63.708639 
3653.000000	63.746023 
3652.000000	63.791799 
3651.000000	63.839626 
3650.000000	63.881254 
3649.000000	63.909006 
3648.000000	63.916921 
3647.000000	63.902854 
3646.000000	63.868379 
3645.000000	63.818478 
3644.000000	63.760399 
3643.000000	63.701748 
3642.000000	63.649487 
3641.000000	63.608598 
3640.000000	63.581991 
3639.000000	63.570523 
3638.000000	63.573503 
3637.000000	63.589549 
3636.000000	63.616394 
3635.000000	63.651371 
3634.000000	63.691091 
3633.000000	63.731527 
3632.000000	63.768053 
3631.000000	63.796043 
3630.000000	63.811922 
3629.000000	63.813853 
3628.000000	63.802719 
3627.000000	63.781666 
3626.000000	63.755393 
3625.000000	63.728857 
3624.000000	63.706302 
3623.000000	63.690447 
3622.000000	63.681697 
3621.000000	63.678717 
3620.000000	63.679265 
3619.000000	63.680744 
3618.000000	63.681530 
3617.000000	63.680577 
3616.000000	63.677835 
3615.000000	63.673615 
3614.000000	63.667964 
3613.000000	63.660335 
3612.000000	63.649344 
3611.000000	63.633227 
3610.000000	63.610243 
3609.000000	63.579773 
3608.000000	63.542628 
3607.000000	63.501334 
3606.000000	63.459753 
3605.000000	63.422346 
3604.000000	63.393378 
3603.000000	63.376450 
3602.000000	63.373875 
3601.000000	63.386416 
3600.000000	63.413310 
3599.000000	63.452577 
3598.000000	63.501548 
3597.000000	63.556933 
3596.000000	63.615369 
3595.000000	63.673448 
3594.000000	63.728308 
3593.000000	63.777494 
3592.000000	63.818836 
3591.000000	63.850569 
3590.000000	63.871145 
3589.000000	63.879895 
3588.000000	63.876557 
3587.000000	63.862061 
3586.000000	63.837838 
3585.000000	63.806390 
3584.000000	63.770437 
3583.000000	63.733124 
3582.000000	63.697123 
3581.000000	63.664746 
3580.000000	63.637232 
3579.000000	63.615131 
3578.000000	63.598227 
3577.000000	63.585925 
3576.000000	63.577198 
3575.000000	63.571119 
3574.000000	63.566803 
3573.000000	63.563776 
3572.000000	63.561630 
3571.000000	63.560342 
3570.000000	63.559889 
3569.000000	63.560461 
3568.000000	63.562703 
3567.000000	63.567304 
3566.000000	63.574981 
3565.000000	63.585782 
3564.000000	63.599371 
3563.000000	63.614225 
3562.000000	63.627743 
3561.000000	63.636398 
3560.000000	63.636350 
3559.000000	63.624310 
3558.000000	63.598132 
3557.000000	63.557934 
3556.000000	63.506317 
3555.000000	63.448405 
3554.000000	63.391041 
3553.000000	63.341689 
3552.000000	63.306951 
3551.000000	63.291430 
3550.000000	63.296937 
3549.000000	63.321924 
3548.000000	63.361954 
3547.000000	63.410592 
3546.000000	63.460826 
3545.000000	63.505983 
3544.000000	63.541102 
3543.000000	63.563299 
3542.000000	63.572335 
3541.000000	63.570141 
3540.000000	63.560271 
3539.000000	63.546919 
3538.000000	63.533592 
3537.000000	63.522863 
3536.000000	63.515210 
3535.000000	63.510060 
3534.000000	63.505530 
3533.000000	63.499546 
3532.000000	63.490533 
3531.000000	63.478159 
3530.000000	63.463187 
3529.000000	63.447213 
3528.000000	63.432216 
3527.000000	63.419961 
3526.000000	63.411617 
3525.000000	63.407206 
3524.000000	63.406300 
3523.000000	63.407969 
3522.000000	63.410973 
3521.000000	63.414072 
3520.000000	63.416290 
3519.000000	63.416910 
3518.000000	63.415431 
3517.000000	63.411355 
3516.000000	63.403964 
3515.000000	63.392448 
3514.000000	63.376283 
3513.000000	63.355326 
3512.000000	63.330030 
3511.000000	63.301753 
3510.000000	63.273119 
3509.000000	63.247394 
3508.000000	63.227820 
3507.000000	63.217115 
3506.000000	63.216590 
3505.000000	63.225913 
3504.000000	63.242816 
3503.000000	63.264465 
3502.000000	63.287949 
3501.000000	63.311433 
3500.000000	63.334298 
3499.000000	63.357520 
3498.000000	63.382959 
3497.000000	63.412451 
3496.000000	63.446807 
3495.000000	63.484883 
3494.000000	63.523387 
3493.000000	63.557696 
3492.000000	63.582825 
3491.000000	63.594436 
3490.000000	63.590240 
3489.000000	63.571000 
3488.000000	63.540244 
3487.000000	63.503599 
3486.000000	63.467121 
3485.000000	63.436388 
3484.000000	63.414525 
3483.000000	63.401937 
3482.000000	63.396000 
3481.000000	63.392376 
3480.000000	63.385581 
3479.000000	63.370943 
3478.000000	63.345503 
3477.000000	63.308882 
3476.000000	63.263344 
3475.000000	63.213133 
3474.000000	63.163566 
3473.000000	63.119745 
3472.000000	63.086128 
3471.000000	63.065576 
3470.000000	63.059449 
3469.000000	63.067555 
3468.000000	63.089156 
3467.000000	63.123250 
3466.000000	63.168478 
3465.000000	63.223242 
3464.000000	63.285326 
3463.000000	63.351631 
3462.000000	63.417911 
3461.000000	63.478779 
3460.000000	63.528585 
3459.000000	63.562011 
3458.000000	63.575410 
3457.000000	63.567399 
3456.000000	63.539409 
3455.000000	63.495731 
3454.000000	63.443064 
3453.000000	63.389158 
3452.000000	63.341569 
3451.000000	63.306260 
3450.000000	63.286972 
3449.000000	63.284349 
3448.000000	63.296246 
3447.000000	63.318181 
3446.000000	63.344502 
3445.000000	63.369321 
3444.000000	63.387727 
3443.000000	63.396501 
3442.000000	63.394451 
3441.000000	63.382172 
3440.000000	63.361668 
3439.000000	63.335847 
3438.000000	63.307762 
3437.000000	63.280224 
3436.000000	63.255214 
3435.000000	63.233780 
3434.000000	63.215994 
3433.000000	63.201498 
3432.000000	63.189458 
3431.000000	63.178777 
3430.000000	63.168358 
3429.000000	63.157296 
3428.000000	63.144946 
3427.000000	63.130784 
3426.000000	63.114619 
3425.000000	63.096642 
3424.000000	63.077545 
3423.000000	63.058257 
3422.000000	63.039779 
3421.000000	63.022971 
3420.000000	63.008522 
3419.000000	62.997007 
3418.000000	62.988781 
3417.000000	62.984085 
3416.000000	62.983202 
3415.000000	62.986207 
3414.000000	62.992930 
3413.000000	63.002777 
3412.000000	63.014531 
3411.000000	63.026785 
3410.000000	63.037705 
3409.000000	63.045954 
3408.000000	63.050746 
3407.000000	63.052225 
3406.000000	63.051247 
3405.000000	63.049197 
3404.000000	63.047766 
3403.000000	63.047957 
3402.000000	63.049912 
3401.000000	63.052845 
3400.000000	63.055205 
3399.000000	63.055324 
3398.000000	63.051939 
3397.000000	63.044905 
3396.000000	63.035440 
3395.000000	63.025832 
3394.000000	63.018989 
3393.000000	63.017654 
3392.000000	63.023591 
3391.000000	63.037276 
3390.000000	63.057661 
3389.000000	63.082695 
3388.000000	63.109779 
3387.000000	63.136482 
3386.000000	63.160943 
3385.000000	63.182187 
3384.000000	63.199973 
3383.000000	63.214445 
3382.000000	63.225722 
3381.000000	63.233494 
3380.000000	63.237047 
3379.000000	63.235449 
3378.000000	63.227748 
3377.000000	63.213992 
3376.000000	63.194608 
3375.000000	63.171148 
3374.000000	63.145494 
3373.000000	63.119792 
3372.000000	63.095855 
3371.000000	63.074755 
3370.000000	63.056778 
3369.000000	63.041496 
3368.000000	63.027977 
3367.000000	63.015151 
3366.000000	63.002157 
3365.000000	62.988781 
3364.000000	62.975478 
3363.000000	62.963151 
3362.000000	62.952995 
3361.000000	62.946057 
3360.000000	62.942910 
3359.000000	62.943148 
3358.000000	62.945604 
3357.000000	62.948584 
3356.000000	62.950468 
3355.000000	62.950038 
3354.000000	62.946748 
3353.000000	62.940716 
3352.000000	62.932777 
3351.000000	62.924051 
3350.000000	62.915468 
3349.000000	62.907528 
3348.000000	62.900137 
3347.000000	62.892770 
3346.000000	62.884712 
3345.000000	62.875461 
3344.000000	62.864971 
3343.000000	62.853837 
3342.000000	62.843227 
3341.000000	62.834882 
3340.000000	62.830519 
3339.000000	62.831687 
3338.000000	62.839221 
3337.000000	62.853288 
3336.000000	62.873244 
3335.000000	62.897634 
3334.000000	62.924623 
3333.000000	62.952017 
3332.000000	62.977552 
3331.000000	62.999200 
3330.000000	63.015270 
3329.000000	63.024640 
3328.000000	63.026976 
3327.000000	63.022661 
3326.000000	63.012933 
3325.000000	62.999629 
3324.000000	62.985134 
3323.000000	62.971925 
3322.000000	62.962055 
3321.000000	62.957167 
3320.000000	62.957787 
3319.000000	62.963485 
3318.000000	62.972903 
3317.000000	62.984013 
3316.000000	62.994480 
3315.000000	63.002157 
3314.000000	63.005256 
3313.000000	63.002753 
3312.000000	62.994408 
3311.000000	62.980794 
3310.000000	62.963199 
3309.000000	62.943196 
3308.000000	62.922739 
3307.000000	62.903618 
3306.000000	62.887525 
3305.000000	62.875533 
3304.000000	62.868165 
3303.000000	62.865185 
3302.000000	62.865900 
3301.000000	62.869000 
3300.000000	62.872838 
3299.000000	62.875676 
3298.000000	62.876081 
3297.000000	62.872886 
3296.000000	62.865328 
3295.000000	62.853026 
3294.000000	62.836003 
3293.000000	62.814784 
3292.000000	62.790083 
3291.000000	62.763237 
3290.000000	62.735986 
3289.000000	62.710499 
3288.000000	62.689161 
3287.000000	62.674617 
3286.000000	62.668943 
3285.000000	62.673544 
3284.000000	62.688398 
3283.000000	62.712168 
3282.000000	62.742066 
3281.000000	62.774324 
3280.000000	62.804961 
3279.000000	62.830185 
3278.000000	62.847304 
3277.000000	62.855195 
3276.000000	62.854146 
3275.000000	62.845635 
3274.000000	62.831783 
3273.000000	62.814760 
3272.000000	62.796282 
3271.000000	62.777328 
3270.000000	62.758111 
3269.000000	62.738752 
3268.000000	62.719488 
3267.000000	62.701272 
3266.000000	62.685608 
3265.000000	62.674665 
3264.000000	62.670397 
3263.000000	62.673878 
3262.000000	62.685036 
3261.000000	62.702155 
3260.000000	62.722492 
3259.000000	62.742710 
3258.000000	62.759923 
3257.000000	62.772178 
3256.000000	62.778973 
3255.000000	62.781190 
3254.000000	62.780499 
3253.000000	62.778759 
3252.000000	62.777447 
3251.000000	62.777018 
3250.000000	62.776827 
3249.000000	62.775659 
3248.000000	62.772107 
3247.000000	62.765312 
3246.000000	62.755489 
3245.000000	62.743902 
3244.000000	62.732672 
3243.000000	62.724423 
3242.000000	62.721514 
3241.000000	62.725472 
3240.000000	62.736630 
3239.000000	62.753987 
3238.000000	62.775683 
3237.000000	62.799072 
3236.000000	62.821102 
3235.000000	62.839055 
3234.000000	62.850737 
3233.000000	62.855148 
3232.000000	62.852430 
3231.000000	62.844014 
3230.000000	62.832212 
3229.000000	62.819981 
3228.000000	62.810325 
3227.000000	62.805676 
3226.000000	62.807178 
3225.000000	62.814569 
3224.000000	62.826347 
3223.000000	62.839746 
3222.000000	62.851762 
3221.000000	62.859821 
3220.000000	62.862396 
3219.000000	62.859559 
3218.000000	62.852835 
3217.000000	62.844777 
3216.000000	62.838220 
3215.000000	62.835526 
3214.000000	62.837862 
3213.000000	62.845253 
3212.000000	62.856292 
3211.000000	62.868928 
3210.000000	62.880754 
3209.000000	62.889862 
3208.000000	62.894797 
3207.000000	62.894916 
3206.000000	62.890410 
3205.000000	62.882280 
3204.000000	62.871551 
3203.000000	62.858986 
3202.000000	62.844967 
3201.000000	62.829542 
3200.000000	62.812447 
3199.000000	62.793397 
3198.000000	62.772393 
3197.000000	62.749910 
3196.000000	62.727069 
3195.000000	62.705516 
3194.000000	62.686705 
3193.000000	62.671804 
3192.000000	62.661528 
3191.000000	62.655949 
3190.000000	62.654566 
3189.000000	62.656474 
3188.000000	62.660789 
3187.000000	62.666916 
3186.000000	62.674450 
3185.000000	62.683129 
3184.000000	62.692809 
3183.000000	62.702631 
3182.000000	62.711119 
3181.000000	62.715840 
3180.000000	62.714147 
3179.000000	62.703371 
3178.000000	62.681841 
3177.000000	62.649226 
3176.000000	62.606811 
3175.000000	62.557554 
3174.000000	62.505793 
3173.000000	62.456250 
3172.000000	62.413382 
3171.000000	62.381148 
3170.000000	62.362575 
3169.000000	62.359499 
3168.000000	62.372684 
3167.000000	62.401676 
3166.000000	62.445116 
3165.000000	62.500452 
3164.000000	62.564253 
3163.000000	62.631869 
3162.000000	62.698292 
3161.000000	62.758183 
3160.000000	62.806987 
3159.000000	62.841391 
3158.000000	62.860083 
3157.000000	62.864065 
3156.000000	62.855839 
3155.000000	62.839245 
3154.000000	62.817716 
3153.000000	62.794542 
3152.000000	62.771105 
3151.000000	62.747573 
3150.000000	62.722563 
3149.000000	62.694406 
3148.000000	62.661457 
3147.000000	62.623167 
3146.000000	62.580442 
3145.000000	62.535810 
3144.000000	62.492680 
3143.000000	62.454915 
3142.000000	62.425971 
3141.000000	62.408208 
3140.000000	62.401962 
3139.000000	62.405920 
3138.000000	62.416982 
3137.000000	62.431406 
3136.000000	62.445282 
3135.000000	62.455797 
3134.000000	62.461066 
3133.000000	62.461352 
3132.000000	62.458705 
3131.000000	62.456440 
3130.000000	62.457990 
3129.000000	62.466120 
3128.000000	62.482309 
3127.000000	62.505769 
3126.000000	62.533640 
3125.000000	62.561440 
3124.000000	62.584066 
3123.000000	62.596797 
3122.000000	62.596726 
3121.000000	62.583470 
3120.000000	62.559390 
3119.000000	62.529468 
3118.000000	62.500166 
3117.000000	62.478399 
3116.000000	62.469935 
3115.000000	62.478446 
3114.000000	62.504386 
3113.000000	62.545204 
3112.000000	62.595462 
3111.000000	62.648320 
3110.000000	62.696695 
3109.000000	62.734436 
3108.000000	62.757515 
3107.000000	62.764477 
3106.000000	62.756443 
3105.000000	62.736654 
3104.000000	62.709212 
3103.000000	62.678623 
3102.000000	62.648224 
3101.000000	62.620353 
3100.000000	62.595701 
3099.000000	62.573909 
3098.000000	62.553787 
3097.000000	62.534189 
3096.000000	62.514448 
3095.000000	62.494325 
3094.000000	62.474417 
3093.000000	62.455606 
3092.000000	62.438917 
3091.000000	62.424898 
3090.000000	62.413811 
3089.000000	62.405657 
3088.000000	62.400126 
3087.000000	62.397170 
3086.000000	62.396764 
3085.000000	62.399458 
3084.000000	62.405824 
3083.000000	62.416481 
3082.000000	62.431859 
3081.000000	62.451958 
3080.000000	62.475872 
3079.000000	62.502121 
3078.000000	62.528800 
3077.000000	62.553572 
3076.000000	62.574291 
3075.000000	62.589192 
3074.000000	62.597131 
3073.000000	62.597846 
3072.000000	62.591838 
3071.000000	62.580490 
3070.000000	62.565469 
3069.000000	62.548732 
3068.000000	62.532281 
3067.000000	62.517809 
3066.000000	62.506341 
3065.000000	62.498259 
3064.000000	62.493419 
3063.000000	62.490797 
3062.000000	62.489199 
3061.000000	62.487125 
3060.000000	62.483406 
3059.000000	62.477207 
3058.000000	62.468695 
3057.000000	62.458777 
3056.000000	62.449288 
3055.000000	62.442350 
3054.000000	62.440156 
3053.000000	62.444353 
3052.000000	62.455630 
3051.000000	62.473368 
3050.000000	62.495493 
3049.000000	62.519025 
3048.000000	62.540197 
3047.000000	62.555551 
3046.000000	62.562251 
3045.000000	62.558770 
3044.000000	62.545204 
3043.000000	62.523365 
3042.000000	62.496256 
3041.000000	62.467503 
3040.000000	62.440323 
3039.000000	62.417101 
3038.000000	62.398719 
3037.000000	62.384772 
3036.000000	62.373614 
3035.000000	62.363171 
3034.000000	62.351536 
3033.000000	62.337851 
3032.000000	62.322473 
3031.000000	62.307190 
3030.000000	62.294554 
3029.000000	62.287664 
3028.000000	62.289190 
3027.000000	62.300729 
3026.000000	62.322068 
3025.000000	62.351393 
3024.000000	62.385272 
3023.000000	62.419247 
3022.000000	62.448549 
3021.000000	62.469124 
3020.000000	62.478423 
3019.000000	62.475633 
3018.000000	62.461853 
3017.000000	62.439870 
3016.000000	62.413477 
3015.000000	62.386679 
3014.000000	62.362957 
3013.000000	62.344765 
3012.000000	62.333250 
3011.000000	62.328410 
3010.000000	62.329411 
3009.000000	62.334918 
3008.000000	62.343573 
3007.000000	62.354230 
3006.000000	62.366008 
3005.000000	62.378525 
3004.000000	62.391257 
3003.000000	62.403464 
3002.000000	62.413930 
3001.000000	62.421083 
3000.000000	62.423157 
2999.000000	62.418556 
2998.000000	62.406396 
2997.000000	62.386536 
2996.000000	62.359833 
2995.000000	62.328410 
2994.000000	62.294888 
2993.000000	62.262177 
2992.000000	62.232637 
2991.000000	62.207937 
2990.000000	62.188553 
2989.000000	62.174105 
2988.000000	62.163448 
2987.000000	62.155079 
2986.000000	62.147617 
2985.000000	62.140226 
2984.000000	62.132477 
2983.000000	62.124300 
2982.000000	62.115311 
2981.000000	62.104797 
2980.000000	62.091326 
2979.000000	62.073183 
2978.000000	62.048387 
2977.000000	62.015748 
2976.000000	61.975336 
2975.000000	61.929154 
2974.000000	61.880850 
2973.000000	61.835527 
2972.000000	61.798572 
2971.000000	61.774945 
2970.000000	61.767673 
2969.000000	61.777567 
2968.000000	61.802506 
2967.000000	61.838245 
2966.000000	61.878991 
2965.000000	61.918687 
2964.000000	61.952090 
2963.000000	61.975502 
2962.000000	61.987137 
2961.000000	61.987066 
2960.000000	61.976766 
2959.000000	61.958861 
2958.000000	61.936140 
2957.000000	61.911225 
2956.000000	61.886525 
2955.000000	61.863970 
2954.000000	61.845183 
2953.000000	61.831521 
2952.000000	61.824131 
2951.000000	61.824083 
2950.000000	61.832141 
2949.000000	61.848473 
2948.000000	61.872673 
2947.000000	61.903429 
2946.000000	61.938595 
2945.000000	61.975383 
2944.000000	62.010693 
2943.000000	62.041521 
2942.000000	62.065196 
2941.000000	62.080240 
2940.000000	62.086153 
2939.000000	62.083745 
2938.000000	62.074708 
2937.000000	62.061452 
2936.000000	62.046313 
2935.000000	62.030959 
2934.000000	62.015938 
2933.000000	62.000918 
2932.000000	61.984825 
2931.000000	61.966514 
2930.000000	61.945223 
2929.000000	61.921072 
2928.000000	61.894917 
2927.000000	61.868667 
2926.000000	61.844444 
2925.000000	61.824584 
2924.000000	61.811017 
2923.000000	61.804938 
2922.000000	61.806583 
2921.000000	61.815118 
2920.000000	61.828637 
2919.000000	61.844396 
2918.000000	61.859250 
2917.000000	61.870121 
2916.000000	61.874675 
2915.000000	61.871933 
2914.000000	61.862206 
2913.000000	61.847305 
2912.000000	61.830163 
2911.000000	61.814284 
2910.000000	61.802744 
2909.000000	61.797976 
2908.000000	61.801195 
2907.000000	61.812090 
2906.000000	61.829137 
2905.000000	61.849594 
2904.000000	61.870193 
2903.000000	61.887717 
2902.000000	61.899733 
2901.000000	61.904740 
2900.000000	61.902499 
2899.000000	61.894130 
2898.000000	61.881542 
2897.000000	61.866927 
2896.000000	61.852335 
2895.000000	61.839270 
2894.000000	61.828732 
2893.000000	61.821436 
2892.000000	61.817765 
2891.000000	61.818027 
2890.000000	61.822462 
2889.000000	61.831378 
2888.000000	61.844658 
2887.000000	61.861610 
2886.000000	61.880803 
2885.000000	61.900186 
2884.000000	61.917424 
2883.000000	61.930012 
2882.000000	61.936259 
2881.000000	61.935281 
2880.000000	61.927580 
2879.000000	61.914682 
2878.000000	61.899280 
2877.000000	61.884331 
2876.000000	61.872935 
2875.000000	61.867547 
2874.000000	61.869859 
2873.000000	61.880254 
2872.000000	61.898088 
2871.000000	61.921429 
2870.000000	61.947202 
2869.000000	61.971688 
2868.000000	61.990737 
2867.000000	62.000465 
2866.000000	61.997818 
2865.000000	61.981296 
2864.000000	61.951398 
2863.000000	61.910676 
2862.000000	61.863636 
2861.000000	61.815953 
2860.000000	61.773657 
2859.000000	61.741709 
2858.000000	61.723375 
2857.000000	61.719346 
2856.000000	61.727857 
2855.000000	61.744952 
2854.000000	61.765718 
2853.000000	61.785483 
2852.000000	61.800694 
2851.000000	61.809849 
2850.000000	61.813545 
2849.000000	61.814284 
2848.000000	61.815285 
2847.000000	61.819863 
2846.000000	61.830186 
2845.000000	61.846971 
2844.000000	61.869120 
2843.000000	61.893963 
2842.000000	61.917805 
2841.000000	61.937022 
2840.000000	61.948800 
2839.000000	61.951589 
2838.000000	61.945438 
2837.000000	61.931681 
2836.000000	61.912536 
2835.000000	61.890602 
2834.000000	61.868286 
2833.000000	61.847472 
2832.000000	61.829376 
2831.000000	61.814713 
2830.000000	61.804080 
2829.000000	61.798000 
2828.000000	61.797213 
2827.000000	61.802458 
2826.000000	61.814188 
2825.000000	61.832213 
2824.000000	61.855483 
2823.000000	61.881971 
2822.000000	61.908769 
2821.000000	61.932563 
2820.000000	61.950278 
2819.000000	61.960077 
2818.000000	61.961317 
2817.000000	61.955046 
2816.000000	61.943817 
2815.000000	61.930918 
2814.000000	61.919951 
2813.000000	61.913657 
2812.000000	61.913585 
2811.000000	61.919546 
2810.000000	61.930060 
2809.000000	61.942362 
2808.000000	61.953639 
2807.000000	61.961221 
2806.000000	61.963391 
2805.000000	61.959385 
2804.000000	61.949372 
2803.000000	61.933946 
2802.000000	61.914086 
2801.000000	61.890530 
2800.000000	61.863851 
2799.000000	61.834359 
2798.000000	61.802506 
2797.000000	61.769032 
2796.000000	61.735081 
2795.000000	61.702179 
2794.000000	61.672210 
2793.000000	61.646842 
2792.000000	61.627626 
2791.000000	61.615276 
2790.000000	61.609911 
2789.000000	61.611056 
2788.000000	61.618113 
2787.000000	61.630249 
2786.000000	61.646485 
2785.000000	61.665964 
2784.000000	61.687588 
2783.000000	61.710047 
2782.000000	61.731958 
2781.000000	61.751627 
2780.000000	61.767578 
2779.000000	61.778712 
2778.000000	61.784553 
2777.000000	61.785364 
2776.000000	61.781954 
2775.000000	61.775732 
2774.000000	61.768054 
2773.000000	61.760234 
2772.000000	61.752915 
2771.000000	61.746454 
2770.000000	61.740541 
2769.000000	61.734533 
2768.000000	61.727857 
2767.000000	61.720371 
2766.000000	61.712288 
2765.000000	61.704301 
2764.000000	61.697244 
2763.000000	61.692118 
2762.000000	61.689662 
2761.000000	61.690163 
2760.000000	61.693382 
2759.000000	61.698698 
2758.000000	61.705303 
2757.000000	61.712384 
2756.000000	61.719346 
2755.000000	61.725711 
2754.000000	61.731290 
2753.000000	61.735939 
2752.000000	61.739540 
2751.000000	61.741781 
2750.000000	61.742401 
2749.000000	61.741352 
2748.000000	61.738777 
2747.000000	61.735391 
2746.000000	61.732411 
2745.000000	61.731338 
2744.000000	61.733603 
2743.000000	61.739873 
2742.000000	61.749887 
2741.000000	61.762022 
2740.000000	61.773657 
2739.000000	61.781477 
2738.000000	61.782145 
2737.000000	61.773324 
2736.000000	61.754202 
2735.000000	61.725735 
2734.000000	61.690592 
2733.000000	61.652541 
2732.000000	61.615777 
2731.000000	61.583995 
2730.000000	61.559772 
2729.000000	61.544251 
2728.000000	61.537241 
2727.000000	61.537241 
2726.000000	61.542367 
2725.000000	61.550664 
2724.000000	61.560559 
2723.000000	61.570906 
2722.000000	61.581134 
2721.000000	61.590456 
2720.000000	61.598300 
2719.000000	61.603689 
2718.000000	61.605572 
2717.000000	61.602807 
2716.000000	61.594843 
2715.000000	61.581897 
2714.000000	61.565136 
2713.000000	61.546349 
2712.000000	61.527848 
2711.000000	61.511850 
2710.000000	61.499905 
2709.000000	61.492586 
2708.000000	61.489367 
2707.000000	61.489176 
2706.000000	61.490416 
2705.000000	61.492180 
2704.000000	61.494112 
2703.000000	61.496996 
2702.000000	61.502456 
2701.000000	61.512207 
2700.000000	61.527657 
2699.000000	61.548852 
2698.000000	61.574554 
2697.000000	61.601686 
2696.000000	61.626577 
2695.000000	61.645078 
2694.000000	61.653804 
2693.000000	61.650681 
2692.000000	61.635422 
2691.000000	61.609578 
2690.000000	61.575865 
2689.000000	61.537790 
2688.000000	61.498713 
2687.000000	61.461448 
2686.000000	61.427903 
2685.000000	61.398911 
2684.000000	61.374545 
2683.000000	61.354589 
2682.000000	61.338853 
2681.000000	61.327290 
2680.000000	61.320161 
2679.000000	61.317753 
2678.000000	61.320233 
2677.000000	61.327099 
2676.000000	61.337137 
2675.000000	61.348223 
2674.000000	61.357736 
2673.000000	61.362981 
2672.000000	61.361742 
2671.000000	61.352634 
2670.000000	61.335563 
2669.000000	61.311936 
2668.000000	61.284208 
2667.000000	61.255502 
2666.000000	61.229038 
2665.000000	61.207461 
2664.000000	61.192393 
2663.000000	61.184263 
2662.000000	61.182427 
2661.000000	61.185359 
2660.000000	61.191391 
2659.000000	61.198782 
2658.000000	61.206269 
2657.000000	61.212968 
2656.000000	61.218595 
2655.000000	61.223363 
2654.000000	61.227560 
2653.000000	61.231350 
2652.000000	61.234927 
2651.000000	61.237955 
2650.000000	61.240053 
2649.000000	61.240577 
2648.000000	61.238980 
2647.000000	61.234927 
2646.000000	61.228489 
2645.000000	61.220073 
2644.000000	61.210632 
2643.000000	61.201000 
2642.000000	61.191987 
2641.000000	61.183929 
2640.000000	61.176753 
2639.000000	61.170053 
2638.000000	61.163210 
2637.000000	61.155867 
2636.000000	61.147952 
2635.000000	61.140036 
2634.000000	61.133360 
2633.000000	61.129355 
2632.000000	61.129522 
2631.000000	61.134791 
2630.000000	61.145281 
2629.000000	61.159944 
2628.000000	61.176848 
2627.000000	61.193418 
2626.000000	61.207079 
2625.000000	61.215734 
2624.000000	61.218047 
2623.000000	61.214041 
2622.000000	61.204743 
2621.000000	61.192131 
2620.000000	61.178803 
2619.000000	61.167502 
2618.000000	61.160469 
2617.000000	61.159300 
2616.000000	61.164307 
2615.000000	61.174535 
2614.000000	61.187815 
2613.000000	61.201262 
2612.000000	61.211729 
2611.000000	61.216402 
2610.000000	61.213541 
2609.000000	61.202597 
2608.000000	61.184525 
2607.000000	61.161351 
2606.000000	61.135745 
2605.000000	61.110329 
2604.000000	61.087393 
2603.000000	61.068272 
2602.000000	61.053466 
2601.000000	61.042499 
2600.000000	61.034607 
2599.000000	61.028957 
2598.000000	61.024761 
2597.000000	61.021685 
2596.000000	61.019396 
2595.000000	61.017990 
2594.000000	61.016988 
2593.000000	61.016178 
2592.000000	61.015176 
2591.000000	61.013960 
2590.000000	61.013007 
2589.000000	61.012959 
2588.000000	61.014866 
2587.000000	61.019468 
2586.000000	61.027193 
2585.000000	61.037588 
2584.000000	61.049318 
2583.000000	61.059904 
2582.000000	61.066651 
2581.000000	61.066937 
2580.000000	61.059045 
2579.000000	61.042499 
2578.000000	61.018323 
2577.000000	60.988783 
2576.000000	60.957050 
2575.000000	60.926461 
2574.000000	60.899925 
2573.000000	60.879468 
2572.000000	60.866045 
2571.000000	60.859465 
2570.000000	60.858964 
2569.000000	60.863184 
2568.000000	60.870790 
2567.000000	60.880422 
2566.000000	60.891318 
2565.000000	60.902881 
2564.000000	60.914802 
2563.000000	60.926771 
2562.000000	60.938382 
2561.000000	60.948777 
2560.000000	60.956788 
2559.000000	60.961270 
2558.000000	60.961079 
2557.000000	60.955548 
2556.000000	60.944676 
2555.000000	60.929226 
2554.000000	60.910654 
2553.000000	60.891008 
2552.000000	60.872530 
2551.000000	60.857129 
2550.000000	60.846138 
2549.000000	60.840153 
2548.000000	60.838890 
2547.000000	60.841298 
2546.000000	60.845899 
2545.000000	60.851073 
2544.000000	60.855174 
2543.000000	60.857033 
2542.000000	60.855746 
2541.000000	60.851025 
2540.000000	60.843014 
2539.000000	60.832452 
2538.000000	60.820722 
2537.000000	60.809779 
2536.000000	60.801720 
2535.000000	60.798740 
2534.000000	60.802459 
2533.000000	60.813617 
2532.000000	60.831761 
2531.000000	60.855150 
2530.000000	60.881185 
2529.000000	60.906624 
2528.000000	60.928297 
2527.000000	60.943531 
2526.000000	60.950732 
2525.000000	60.949611 
2524.000000	60.941147 
2523.000000	60.927343 
2522.000000	60.910487 
2521.000000	60.893011 
2520.000000	60.876774 
2519.000000	60.862731 
2518.000000	60.850811 
2517.000000	60.840153 
2516.000000	60.829234 
2515.000000	60.816645 
2514.000000	60.801458 
2513.000000	60.783362 
2512.000000	60.763072 
2511.000000	60.742139 
2510.000000	60.722613 
2509.000000	60.706663 
2508.000000	60.695672 
2507.000000	60.689926 
2506.000000	60.688424 
2505.000000	60.689020 
2504.000000	60.689306 
2503.000000	60.686874 
2502.000000	60.680580 
2501.000000	60.670471 
2500.000000	60.658288 
2499.000000	60.646796 
2498.000000	60.639142 
2497.000000	60.637831 
2496.000000	60.644030 
2495.000000	60.657119 
2494.000000	60.674715 
2493.000000	60.692930 
2492.000000	60.707187 
2491.000000	60.713195 
2490.000000	60.707855 
2489.000000	60.690116 
2488.000000	60.661077 
2487.000000	60.623884 
2486.000000	60.583114 
2485.000000	60.544037 
2484.000000	60.511755 
2483.000000	60.490322 
2482.000000	60.482215 
2481.000000	60.487937 
2480.000000	60.506081 
2479.000000	60.533738 
2478.000000	60.567069 
2477.000000	60.601830 
2476.000000	60.634136 
2475.000000	60.660743 
2474.000000	60.679483 
2473.000000	60.689282 
2472.000000	60.690188 
2471.000000	60.683202 
2470.000000	60.670208 
2469.000000	60.653853 
2468.000000	60.637068 
2467.000000	60.623192 
2466.000000	60.615181 
2465.000000	60.614895 
2464.000000	60.622692 
2463.000000	60.637259 
2462.000000	60.655570 
2461.000000	60.673451 
2460.000000	60.686349 
2459.000000	60.690116 
2458.000000	60.682320 
2457.000000	60.662746 
2456.000000	60.633683 
2455.000000	60.599398 
2454.000000	60.565185 
2453.000000	60.536384 
2452.000000	60.517001 
2451.000000	60.509204 
2450.000000	60.512423 
2449.000000	60.523915 
2448.000000	60.539388 
2447.000000	60.554099 
2446.000000	60.564041 
2445.000000	60.566949 
2444.000000	60.562443 
2443.000000	60.552000 
2442.000000	60.538506 
2441.000000	60.525441 
2440.000000	60.515761 
2439.000000	60.511326 
2438.000000	60.512495 
2437.000000	60.518074 
2436.000000	60.525870 
2435.000000	60.532903 
2434.000000	60.536313 
2433.000000	60.533571 
2432.000000	60.522961 
2431.000000	60.504078 
2430.000000	60.477328 
2429.000000	60.444474 
2428.000000	60.407876 
2427.000000	60.370588 
2426.000000	60.335874 
2425.000000	60.306859 
2424.000000	60.286164 
2423.000000	60.275316 
2422.000000	60.274410 
2421.000000	60.282301 
2420.000000	60.296702 
2419.000000	60.314869 
2418.000000	60.333895 
2417.000000	60.351562 
2416.000000	60.366487 
2415.000000	60.378360 
2414.000000	60.387849 
2413.000000	60.395956 
2412.000000	60.403466 
2411.000000	60.410737 
2410.000000	60.417103 
2409.000000	60.421442 
2408.000000	60.422277 
2407.000000	60.418105 
2406.000000	60.407972 
2405.000000	60.391950 
2404.000000	60.371208 
2403.000000	60.347604 
2402.000000	60.323715 
2401.000000	60.302114 
2400.000000	60.285091 
2399.000000	60.274219 
2398.000000	60.270309 
2397.000000	60.273480 
2396.000000	60.283184 
2395.000000	60.298371 
2394.000000	60.317468 
2393.000000	60.338687 
2392.000000	60.360264 
2391.000000	60.380268 
2390.000000	60.396909 
2389.000000	60.408520 
2388.000000	60.414290 
2387.000000	60.414171 
2386.000000	60.408973 
2385.000000	60.400176 
2384.000000	60.389971 
2383.000000	60.380864 
2382.000000	60.374879 
2381.000000	60.373258 
2380.000000	60.376358 
2379.000000	60.383629 
2378.000000	60.393500 
2377.000000	60.404253 
2376.000000	60.414171 
2375.000000	60.422086 
2374.000000	60.427641 
2373.000000	60.430955 
2372.000000	60.432744 
2371.000000	60.433745 
2370.000000	60.434651 
2369.000000	60.435533 
2368.000000	60.435867 
2367.000000	60.434556 
2366.000000	60.430407 
2365.000000	60.422253 
2364.000000	60.409212 
2363.000000	60.390806 
2362.000000	60.367321 
2361.000000	60.339570 
2360.000000	60.308933 
2359.000000	60.276937 
2358.000000	60.245299 
2357.000000	60.215616 
2356.000000	60.189104 
2355.000000	60.166549 
2354.000000	60.148239 
2353.000000	60.133814 
2352.000000	60.122418 
2351.000000	60.112977 
2350.000000	60.104465 
2349.000000	60.095834 
2348.000000	60.086727 
2347.000000	60.077118 
2346.000000	60.068011 
2345.000000	60.060501 
2344.000000	60.056114 
2343.000000	60.056090 
2342.000000	60.061311 
2341.000000	60.072207 
2340.000000	60.088348 
2339.000000	60.108590 
2338.000000	60.131001 
2337.000000	60.153079 
2336.000000	60.172176 
2335.000000	60.185837 
2334.000000	60.192084 
2333.000000	60.189795 
2332.000000	60.178947 
2331.000000	60.160756 
2330.000000	60.137462 
2329.000000	60.112023 
2328.000000	60.087680 
2327.000000	60.067415 
2326.000000	60.053420 
2325.000000	60.047030 
2324.000000	60.048484 
2323.000000	60.057020 
2322.000000	60.071325 
2321.000000	60.089635 
2320.000000	60.110139 
2319.000000	60.130739 
2318.000000	60.149312 
2317.000000	60.163640 
2316.000000	60.171484 
2315.000000	60.171246 
2314.000000	60.162043 
2313.000000	60.144448 
2312.000000	60.120344 
2311.000000	60.093092 
2310.000000	60.066676 
2309.000000	60.045194 
2308.000000	60.031795 
2307.000000	60.027861 
2306.000000	60.032606 
2305.000000	60.043215 
2304.000000	60.055398 
2303.000000	60.064411 
2302.000000	60.066175 
2301.000000	60.058212 
2300.000000	60.040187 
2299.000000	60.013675 
2298.000000	59.982085 
2297.000000	59.949278 
2296.000000	59.919238 
2295.000000	59.894967 
2294.000000	59.878253 
2293.000000	59.869408 
2292.000000	59.867405 
2291.000000	59.870314 
2290.000000	59.875726 
2289.000000	59.881377 
2288.000000	59.885549 
2287.000000	59.887623 
2286.000000	59.887981 
2285.000000	59.887623 
2284.000000	59.888243 
2283.000000	59.891319 
2282.000000	59.898042 
2281.000000	59.908890 
2280.000000	59.923481 
2279.000000	59.940743 
2278.000000	59.959101 
2277.000000	59.976816 
2276.000000	59.992504 
2275.000000	60.005092 
2274.000000	60.013961 
2273.000000	60.018849 
2272.000000	60.019898 
2271.000000	60.017251 
2270.000000	60.011148 
2269.000000	60.001659 
2268.000000	59.989356 
2267.000000	59.974789 
2266.000000	59.959053 
2265.000000	59.943127 
2264.000000	59.928059 
2263.000000	59.914469 
2262.000000	59.902524 
2261.000000	59.891915 
2260.000000	59.882307 
2259.000000	59.873366 
2258.000000	59.864926 
2257.000000	59.857416 
2256.000000	59.851694 
2255.000000	59.848761 
2254.000000	59.849333 
2253.000000	59.853482 
2252.000000	59.860420 
2251.000000	59.868478 
2250.000000	59.875392 
2249.000000	59.878921 
2248.000000	59.877300 
2247.000000	59.869837 
2246.000000	59.857225 
2245.000000	59.841203 
2244.000000	59.824395 
2243.000000	59.809565 
2242.000000	59.798884 
2241.000000	59.793448 
2240.000000	59.793019 
2239.000000	59.796214 
2238.000000	59.800553 
2237.000000	59.803271 
2236.000000	59.801602 
2235.000000	59.793710 
2234.000000	59.778690 
2233.000000	59.756827 
2232.000000	59.729385 
2231.000000	59.698367 
2230.000000	59.666204 
2229.000000	59.635281 
2228.000000	59.607744 
2227.000000	59.585165 
2226.000000	59.568619 
2225.000000	59.558701 
2224.000000	59.555363 
2223.000000	59.558272 
2222.000000	59.566831 
2221.000000	59.580564 
2220.000000	59.598684 
2219.000000	59.620356 
2218.000000	59.644627 
2217.000000	59.670519 
2216.000000	59.696745 
2215.000000	59.721779 
2214.000000	59.744000 
2213.000000	59.761786 
2212.000000	59.773993 
2211.000000	59.779644 
2210.000000	59.778213 
2209.000000	59.769773 
2208.000000	59.755086 
2207.000000	59.735274 
2206.000000	59.711790 
2205.000000	59.686183 
2204.000000	59.660077 
2203.000000	59.634804 
2202.000000	59.611225 
2201.000000	59.589982 
2200.000000	59.571361 
2199.000000	59.555244 
2198.000000	59.541177 
2197.000000	59.528636 
2196.000000	59.516882 
2195.000000	59.505271 
2194.000000	59.492993 
2193.000000	59.479451 
2192.000000	59.464240 
2191.000000	59.447288 
2190.000000	59.428930 
2189.000000	59.409856 
2188.000000	59.391188 
2187.000000	59.374475 
2186.000000	59.361314 
2185.000000	59.352946 
2184.000000	59.350204 
2183.000000	59.353184 
2182.000000	59.361267 
2181.000000	59.372997 
2180.000000	59.386563 
2179.000000	59.399938 
2178.000000	59.411573 
2177.000000	59.420466 
2176.000000	59.426569 
2175.000000	59.430575 
2174.000000	59.433746 
2173.000000	59.437370 
2172.000000	59.442496 
2171.000000	59.449458 
2170.000000	59.457874 
2169.000000	59.466791 
2168.000000	59.474778 
2167.000000	59.480524 
2166.000000	59.482955 
2165.000000	59.481692 
2164.000000	59.476995 
2163.000000	59.469556 
2162.000000	59.460234 
2161.000000	59.450030 
2160.000000	59.439873 
2159.000000	59.430503 
2158.000000	59.422540 
2157.000000	59.416627 
2156.000000	59.413623 
2155.000000	59.414243 
2154.000000	59.418964 
2153.000000	59.427714 
2152.000000	59.439492 
2151.000000	59.452509 
2150.000000	59.464073 
2149.000000	59.471344 
2148.000000	59.471869 
2147.000000	59.464287 
2146.000000	59.448528 
2145.000000	59.426188 
2144.000000	59.400129 
2143.000000	59.373688 
2142.000000	59.349966 
2141.000000	59.331059 
2140.000000	59.317731 
2139.000000	59.309291 
2138.000000	59.303975 
2137.000000	59.299755 
2136.000000	59.294962 
2135.000000	59.288692 
2134.000000	59.280896 
2133.000000	59.272241 
2132.000000	59.263396 
2131.000000	59.254741 
2130.000000	59.245944 
2129.000000	59.236025 
2128.000000	59.223699 
2127.000000	59.207916 
2126.000000	59.188389 
2125.000000	59.165883 
2124.000000	59.142279 
2123.000000	59.120321 
2122.000000	59.102749 
2121.000000	59.091663 
2120.000000	59.087991 
2119.000000	59.091234 
2118.000000	59.099483 
2117.000000	59.110093 
2116.000000	59.120249 
2115.000000	59.127759 
2114.000000	59.131336 
2113.000000	59.131073 
2112.000000	59.127974 
2111.000000	59.123730 
2110.000000	59.120225 
2109.000000	59.118890 
2108.000000	59.120392 
2107.000000	59.124445 
2106.000000	59.129953 
2105.000000	59.135079 
2104.000000	59.138059 
2103.000000	59.137248 
2102.000000	59.131741 
2101.000000	59.121632 
2100.000000	59.107923 
2099.000000	59.092569 
2098.000000	59.077644 
2097.000000	59.065437 
2096.000000	59.057831 
2095.000000	59.055805 
2094.000000	59.059357 
2093.000000	59.067606 
2092.000000	59.078955 
2091.000000	59.091496 
2090.000000	59.102964 
2089.000000	59.111452 
2088.000000	59.115409 
2087.000000	59.113621 
2086.000000	59.105134 
2085.000000	59.089326 
2084.000000	59.065914 
2083.000000	59.035158 
2082.000000	58.998060 
2081.000000	58.956360 
2080.000000	58.912849 
2079.000000	58.870792 
2078.000000	58.833789 
2077.000000	58.805084 
2076.000000	58.787345 
2075.000000	58.781790 
2074.000000	58.788299 
2073.000000	58.805131 
2072.000000	58.829665 
2071.000000	58.858799 
2070.000000	58.889555 
2069.000000	58.919548 
2068.000000	58.947610 
2067.000000	58.973455 
2066.000000	58.997416 
2065.000000	59.019970 
2064.000000	59.041070 
2063.000000	59.059667 
2062.000000	59.073901 
2061.000000	59.081220 
2060.000000	59.079337 
2059.000000	59.066772 
2058.000000	59.043645 
2057.000000	59.011888 
2056.000000	58.975219 
2055.000000	58.938384 
2054.000000	58.906292 
2053.000000	58.882951 
2052.000000	58.870482 
2051.000000	58.868813 
2050.000000	58.875918 
2049.000000	58.888292 
2048.000000	58.901906 
2047.000000	58.913302 
2046.000000	58.920073 
2045.000000	58.921384 
2044.000000	58.917498 
2043.000000	58.909559 
2042.000000	58.898997 
2041.000000	58.887243 
2040.000000	58.875370 
2039.000000	58.863997 
2038.000000	58.853197 
2037.000000	58.842778 
2036.000000	58.832311 
2035.000000	58.821058 
2034.000000	58.808159 
2033.000000	58.792901 
2032.000000	58.775186 
2031.000000	58.755254 
2030.000000	58.734202 
2029.000000	58.713841 
2028.000000	58.696556 
2027.000000	58.684706 
2026.000000	58.680319 
2025.000000	58.683967 
2024.000000	58.695054 
2023.000000	58.711385 
2022.000000	58.730220 
2021.000000	58.748435 
2020.000000	58.763670 
2019.000000	58.774662 
2018.000000	58.781480 
2017.000000	58.785200 
2016.000000	58.787417 
2015.000000	58.789396 
2014.000000	58.791875 
2013.000000	58.794689 
2012.000000	58.796930 
2011.000000	58.797168 
2010.000000	58.793783 
2009.000000	58.785557 
2008.000000	58.771920 
2007.000000	58.753299 
2006.000000	58.730936 
2005.000000	58.706855 
2004.000000	58.683609 
2003.000000	58.663630 
2002.000000	58.649158 
2001.000000	58.641695 
2000.000000	58.641767 
1999.000000	58.648729 
1998.000000	58.660650 
1997.000000	58.674478 
1996.000000	58.686637 
1995.000000	58.693695 
1994.000000	58.693075 
1993.000000	58.683419 
1992.000000	58.665347 
1991.000000	58.640885 
1990.000000	58.613252 
1989.000000	58.585929 
1988.000000	58.562040 
1987.000000	58.543682 
1986.000000	58.531713 
1985.000000	58.525633 
1984.000000	58.523988 
1983.000000	58.524703 
1982.000000	58.525848 
1981.000000	58.525872 
1980.000000	58.524107 
1979.000000	58.520555 
1978.000000	58.515954 
1977.000000	58.511281 
1976.000000	58.507609 
1975.000000	58.505558 
1974.000000	58.505201 
1973.000000	58.506131 
1972.000000	58.507490 
1971.000000	58.508038 
1970.000000	58.506631 
1969.000000	58.502388 
1968.000000	58.495163 
1967.000000	58.485627 
1966.000000	58.475255 
1965.000000	58.465838 
1964.000000	58.459115 
1963.000000	58.456134 
1962.000000	58.456993 
1961.000000	58.460617 
1960.000000	58.464980 
1959.000000	58.467745 
1958.000000	58.466815 
1957.000000	58.461117 
1956.000000	58.450770 
1955.000000	58.437418 
1954.000000	58.423662 
1953.000000	58.412551 
1952.000000	58.406805 
1951.000000	58.407998 
1950.000000	58.416318 
1949.000000	58.430385 
1948.000000	58.447694 
1947.000000	58.465075 
1946.000000	58.479428 
1945.000000	58.488416 
1944.000000	58.490180 
1943.000000	58.484292 
1942.000000	58.470940 
1941.000000	58.451461 
1940.000000	58.427786 
1939.000000	58.402371 
1938.000000	58.377790 
1937.000000	58.356404 
1936.000000	58.340120 
1935.000000	58.329987 
1934.000000	58.326101 
1933.000000	58.327531 
1932.000000	58.332777 
1931.000000	58.339858 
1930.000000	58.346915 
1929.000000	58.352565 
1928.000000	58.356237 
1927.000000	58.358049 
1926.000000	58.358669 
1925.000000	58.359050 
1924.000000	58.359885 
1923.000000	58.361434 
1922.000000	58.363318 
1921.000000	58.364963 
1920.000000	58.365607 
1919.000000	58.364820 
1918.000000	58.362364 
1917.000000	58.358550 
1916.000000	58.353781 
1915.000000	58.348321 
1914.000000	58.342242 
1913.000000	58.335280 
1912.000000	58.326697 
1911.000000	58.315801 
1910.000000	58.301758 
1909.000000	58.284235 
1908.000000	58.263325 
1907.000000	58.239960 
1906.000000	58.215737 
1905.000000	58.192729 
1904.000000	58.173131 
1903.000000	58.159017 
1902.000000	58.151817 
1901.000000	58.152198 
1900.000000	58.159875 
1899.000000	58.173489 
1898.000000	58.190703 
1897.000000	58.208656 
1896.000000	58.224272 
1895.000000	58.234715 
1894.000000	58.237910 
1893.000000	58.233070 
1892.000000	58.220624 
1891.000000	58.202195 
1890.000000	58.180284 
1889.000000	58.157730 
1888.000000	58.137273 
1887.000000	58.121013 
1886.000000	58.110380 
1885.000000	58.105611 
1884.000000	58.106064 
1883.000000	58.110237 
1882.000000	58.115935 
1881.000000	58.120775 
1880.000000	58.122491 
1879.000000	58.119511 
1878.000000	58.111119 
1877.000000	58.097863 
1876.000000	58.081340 
1875.000000	58.063960 
1874.000000	58.048367 
1873.000000	58.036994 
1872.000000	58.031558 
1871.000000	58.032751 
1870.000000	58.040213 
1869.000000	58.052515 
1868.000000	58.067631 
1867.000000	58.083438 
1866.000000	58.098268 
1865.000000	58.110833 
1864.000000	58.120393 
1863.000000	58.126735 
1862.000000	58.129620 
1861.000000	58.128952 
1860.000000	58.124279 
1859.000000	58.115100 
1858.000000	58.100914 
1857.000000	58.081817 
1856.000000	58.058500 
1855.000000	58.032751 
1854.000000	58.007001 
1853.000000	57.984185 
1852.000000	57.966923 
1851.000000	57.957053 
1850.000000	57.954931 
1849.000000	57.959318 
1848.000000	57.967662 
1847.000000	57.976365 
1846.000000	57.981538 
1845.000000	57.979941 
1844.000000	57.969427 
1843.000000	57.949662 
1842.000000	57.921910 
1841.000000	57.889008 
1840.000000	57.854819 
1839.000000	57.823562 
1838.000000	57.799100 
1837.000000	57.784152 
1836.000000	57.780265 
1835.000000	57.787346 
1834.000000	57.803893 
1833.000000	57.827019 
1832.000000	57.853198 
1831.000000	57.878708 
1830.000000	57.900166 
1829.000000	57.915163 
1828.000000	57.922506 
1827.000000	57.922363 
1826.000000	57.916116 
1825.000000	57.905626 
1824.000000	57.892894 
1823.000000	57.879638 
1822.000000	57.866764 
1821.000000	57.854628 
1820.000000	57.842993 
1819.000000	57.831525 
1818.000000	57.819914 
1817.000000	57.808017 
1816.000000	57.796001 
1815.000000	57.784175 
1814.000000	57.772946 
1813.000000	57.762479 
1812.000000	57.753014 
1811.000000	57.744598 
1810.000000	57.737183 
1809.000000	57.730841 
1808.000000	57.725691 
1807.000000	57.722067 
1806.000000	57.720351 
1805.000000	57.720685 
1804.000000	57.723164 
1803.000000	57.727384 
1802.000000	57.732868 
1801.000000	57.739138 
1800.000000	57.745528 
1799.000000	57.751512 
1798.000000	57.756423 
1797.000000	57.759737 
1796.000000	57.760858 
1795.000000	57.759332 
1794.000000	57.754898 
1793.000000	57.747673 
1792.000000	57.738494 
1791.000000	57.728838 
1790.000000	57.720375 
1789.000000	57.714605 
1788.000000	57.712697 
1787.000000	57.714843 
1786.000000	57.720589 
1785.000000	57.728576 
1784.000000	57.736754 
1783.000000	57.743287 
1782.000000	57.746744 
1781.000000	57.746362 
1780.000000	57.742381 
1779.000000	57.735800 
1778.000000	57.728195 
1777.000000	57.721090 
1776.000000	57.715582 
1775.000000	57.712173 
1774.000000	57.710671 
1773.000000	57.710456 
1772.000000	57.710671 
1771.000000	57.710742 
1770.000000	57.710647 
1769.000000	57.711005 
1768.000000	57.712864 
1767.000000	57.717466 
1766.000000	57.725715 
1765.000000	57.737898 
1764.000000	57.752966 
1763.000000	57.768940 
1762.000000	57.782697 
1761.000000	57.790923 
1760.000000	57.790374 
1759.000000	57.778954 
1758.000000	57.756090 
1757.000000	57.723069 
1756.000000	57.682442 
1755.000000	57.637906 
1754.000000	57.593250 
1753.000000	57.552051 
1752.000000	57.516598 
1751.000000	57.488155 
1750.000000	57.466673 
1749.000000	57.451415 
1748.000000	57.441210 
1747.000000	57.434797 
1746.000000	57.431292 
1745.000000	57.430052 
1744.000000	57.430887 
1743.000000	57.433700 
1742.000000	57.438302 
1741.000000	57.443976 
1740.000000	57.449817 
1739.000000	57.454586 
1738.000000	57.457017 
1737.000000	57.456207 
1736.000000	57.451629 
1735.000000	57.443547 
1734.000000	57.432794 
1733.000000	57.420682 
1732.000000	57.408571 
1731.000000	57.397699 
1730.000000	57.388901 
1729.000000	57.382774 
1728.000000	57.379555 
1727.000000	57.379555 
1726.000000	57.383108 
1725.000000	57.390785 
1724.000000	57.403373 
1723.000000	57.421159 
1722.000000	57.444143 
1721.000000	57.471036 
1720.000000	57.499241 
1719.000000	57.524919 
1718.000000	57.543873 
1717.000000	57.552194 
1716.000000	57.547187 
1715.000000	57.528233 
1714.000000	57.497143 
1713.000000	57.457733 
1712.000000	57.415318 
1711.000000	57.375478 
1710.000000	57.343268 
1709.000000	57.322287 
1708.000000	57.314372 
1707.000000	57.319593 
1706.000000	57.336282 
1705.000000	57.361483 
1704.000000	57.391381 
1703.000000	57.421803 
1702.000000	57.448887 
1701.000000	57.468891 
1700.000000	57.479119 
1699.000000	57.477736 
1698.000000	57.464432 
1697.000000	57.440423 
1696.000000	57.408332 
1695.000000	57.372164 
1694.000000	57.336473 
1693.000000	57.306051 
1692.000000	57.284569 
1691.000000	57.274222 
1690.000000	57.275009 
1689.000000	57.284855 
1688.000000	57.299995 
1687.000000	57.315969 
1686.000000	57.328319 
1685.000000	57.333755 
1684.000000	57.330751 
1683.000000	57.320165 
1682.000000	57.304596 
1681.000000	57.287931 
1680.000000	57.274246 
1679.000000	57.266974 
1678.000000	57.267785 
1677.000000	57.276296 
1676.000000	57.290291 
1675.000000	57.306122 
1674.000000	57.320213 
1673.000000	57.329154 
1672.000000	57.330822 
1671.000000	57.324552 
1670.000000	57.311129 
1669.000000	57.292318 
1668.000000	57.270073 
1667.000000	57.246613 
1666.000000	57.223820 
1665.000000	57.203555 
1664.000000	57.187604 
1663.000000	57.178235 
1662.000000	57.177925 
1661.000000	57.189130 
1660.000000	57.213544 
1659.000000	57.251501 
1658.000000	57.301068 
1657.000000	57.358002 
1656.000000	57.415986 
1655.000000	57.467889 
1654.000000	57.506656 
1653.000000	57.526993 
1652.000000	57.525801 
1651.000000	57.503032 
1650.000000	57.461023 
1649.000000	57.404351 
1648.000000	57.338476 
1647.000000	57.269144 
1646.000000	57.201313 
1645.000000	57.139158 
1644.000000	57.085514 
1643.000000	57.042431 
1642.000000	57.010674 
1641.000000	56.990098 
1640.000000	56.979346 
1639.000000	56.975984 
1638.000000	56.976652 
1637.000000	56.977295 
1636.000000	56.974291 
1635.000000	56.964945 
1634.000000	56.948375 
1633.000000	56.925487 
1632.000000	56.898999 
1631.000000	56.872606 
1630.000000	56.849980 
1629.000000	56.833791 
1628.000000	56.825256 
1627.000000	56.823706 
1626.000000	56.827092 
1625.000000	56.832337 
1624.000000	56.836581 
1623.000000	56.837654 
1622.000000	56.834435 
1621.000000	56.826996 
1620.000000	56.816029 
1619.000000	56.802845 
1618.000000	56.788611 
1617.000000	56.774282 
1616.000000	56.760263 
1615.000000	56.746768 
1614.000000	56.734395 
1613.000000	56.723690 
1612.000000	56.715250 
1611.000000	56.709527 
1610.000000	56.706809 
1609.000000	56.706571 
1608.000000	56.707501 
1607.000000	56.707859 
1606.000000	56.705880 
1605.000000	56.700158 
1604.000000	56.690216 
1603.000000	56.676650 
1602.000000	56.661033 
1601.000000	56.645131 
1600.000000	56.630635 
1599.000000	56.618595 
1598.000000	56.609344 
1597.000000	56.602358 
1596.000000	56.596803 
1595.000000	56.592059 
1594.000000	56.587982 
1593.000000	56.584477 
1592.000000	56.581759 
1591.000000	56.580162 
1590.000000	56.579875 
1589.000000	56.580638 
1588.000000	56.582093 
1587.000000	56.583690 
1586.000000	56.585216 
1585.000000	56.587052 
1584.000000	56.589961 
1583.000000	56.594705 
1582.000000	56.601977 
1581.000000	56.611752 
1580.000000	56.623172 
1579.000000	56.634497 
1578.000000	56.643652 
1577.000000	56.648874 
1576.000000	56.649112 
1575.000000	56.644463 
1574.000000	56.635689 
1573.000000	56.624221 
1572.000000	56.611752 
1571.000000	56.600427 
1570.000000	56.592321 
1569.000000	56.590008 
1568.000000	56.595969 
1567.000000	56.612443 
1566.000000	56.641340 
1565.000000	56.682920 
1564.000000	56.735706 
1563.000000	56.795573 
1562.000000	56.856393 
1561.000000	56.910324 
1560.000000	56.949257 
1559.000000	56.966257 
1558.000000	56.957221 
1557.000000	56.921744 
1556.000000	56.863403 
1555.000000	56.788587 
1554.000000	56.705570 
1553.000000	56.622982 
1552.000000	56.548500 
1551.000000	56.488609 
1550.000000	56.447958 
1549.000000	56.429481 
1548.000000	56.434106 
1547.000000	56.460547 
1546.000000	56.505179 
1545.000000	56.561660 
1544.000000	56.622028 
1543.000000	56.677198 
1542.000000	56.718897 
1541.000000	56.740474 
1540.000000	56.738400 
1539.000000	56.712460 
1538.000000	56.665754 
1537.000000	56.604003 
1536.000000	56.534433 
1535.000000	56.464624 
1534.000000	56.401276 
1533.000000	56.349277 
1532.000000	56.311678 
1531.000000	56.289839 
1530.000000	56.283497 
1529.000000	56.291055 
1528.000000	56.310057 
1527.000000	56.337547 
1526.000000	56.369805 
1525.000000	56.402730 
1524.000000	56.432199 
1523.000000	56.454610 
1522.000000	56.467580 
1521.000000	56.470322 
1520.000000	56.463456 
1519.000000	56.449031 
1518.000000	56.430196 
1517.000000	56.410574 
1516.000000	56.393647 
1515.000000	56.381964 
1514.000000	56.376910 
1513.000000	56.378102 
1512.000000	56.383872 
1511.000000	56.391215 
1510.000000	56.396794 
1509.000000	56.397438 
1508.000000	56.390929 
1507.000000	56.376218 
1506.000000	56.354045 
1505.000000	56.325769 
1504.000000	56.293106 
1503.000000	56.257605 
1502.000000	56.220507 
1501.000000	56.182670 
1500.000000	56.144571 
1499.000000	56.106996 
1498.000000	56.070971 
1497.000000	56.038355 
1496.000000	56.011247 
1495.000000	55.991649 
1494.000000	55.980801 
1493.000000	55.978751 
1492.000000	55.984163 
1491.000000	55.994009 
1490.000000	56.004834 
1489.000000	56.013274 
1488.000000	56.017184 
1487.000000	56.015872 
1486.000000	56.010413 
1485.000000	56.003284 
1484.000000	55.997729 
1483.000000	55.996680 
1482.000000	56.002426 
1481.000000	56.015992 
1480.000000	56.036901 
1479.000000	56.063437 
1478.000000	56.092429 
1477.000000	56.120085 
1476.000000	56.141924 
1475.000000	56.153845 
1474.000000	56.153059 
1473.000000	56.138634 
1472.000000	56.112027 
1471.000000	56.077003 
1470.000000	56.038928 
1469.000000	56.003689 
1468.000000	55.976748 
1467.000000	55.961656 
1466.000000	55.959773 
1465.000000	55.969285 
1464.000000	55.986213 
1463.000000	56.004762 
1462.000000	56.018376 
1461.000000	56.021499 
1460.000000	56.010246 
1459.000000	55.983996 
1458.000000	55.945348 
1457.000000	55.899786 
1456.000000	55.854487 
1455.000000	55.816435 
1454.000000	55.790877 
1453.000000	55.779790 
1452.000000	55.781769 
1451.000000	55.791974 
1450.000000	55.803871 
1449.000000	55.810499 
1448.000000	55.806565 
1447.000000	55.789494 
1446.000000	55.760073 
1445.000000	55.721735 
1444.000000	55.679702 
1443.000000	55.639719 
1442.000000	55.606794 
1441.000000	55.584144 
1440.000000	55.572819 
1439.000000	55.572104 
1438.000000	55.579924 
1437.000000	55.593800 
1436.000000	55.611252 
1435.000000	55.629873 
1434.000000	55.648040 
1433.000000	55.664086 
1432.000000	55.677199 
1431.000000	55.686855 
1430.000000	55.693387 
1429.000000	55.697751 
1428.000000	55.701375 
1427.000000	55.706286 
1426.000000	55.714106 
1425.000000	55.726170 
1424.000000	55.742359 
1423.000000	55.761051 
1422.000000	55.779337 
1421.000000	55.793642 
1420.000000	55.800271 
1419.000000	55.796360 
1418.000000	55.780410 
1417.000000	55.752825 
1416.000000	55.715703 
1415.000000	55.672454 
1414.000000	55.627059 
1413.000000	55.583381 
1412.000000	55.544710 
1411.000000	55.513238 
1410.000000	55.490255 
1409.000000	55.475926 
1408.000000	55.469489 
1407.000000	55.469346 
1406.000000	55.473184 
1405.000000	55.478429 
1404.000000	55.482697 
1403.000000	55.484032 
1402.000000	55.481076 
1401.000000	55.473470 
1400.000000	55.461883 
1399.000000	55.447936 
1398.000000	55.433630 
1397.000000	55.421257 
1396.000000	55.412745 
1395.000000	55.409145 
1394.000000	55.410456 
1393.000000	55.415463 
1392.000000	55.421996 
1391.000000	55.427241 
1390.000000	55.428576 
1389.000000	55.423974 
1388.000000	55.412554 
1387.000000	55.394721 
1386.000000	55.372238 
1385.000000	55.347585 
1384.000000	55.323672 
1383.000000	55.303263 
1382.000000	55.288410 
1381.000000	55.280256 
1380.000000	55.278587 
1379.000000	55.282616 
1378.000000	55.290699 
1377.000000	55.300879 
1376.000000	55.311274 
1375.000000	55.319952 
1374.000000	55.325889 
1373.000000	55.328559 
1372.000000	55.328345 
1371.000000	55.325937 
1370.000000	55.322575 
1369.000000	55.319666 
1368.000000	55.318570 
1367.000000	55.320096 
1366.000000	55.324482 
1365.000000	55.331230 
1364.000000	55.339193 
1363.000000	55.346894 
1362.000000	55.352854 
1361.000000	55.356001 
1360.000000	55.355954 
1359.000000	55.352997 
1358.000000	55.347895 
1357.000000	55.341625 
1356.000000	55.335164 
1355.000000	55.329203 
1354.000000	55.323910 
1353.000000	55.318975 
1352.000000	55.313920 
1351.000000	55.307960 
1350.000000	55.300283 
1349.000000	55.289840 
1348.000000	55.275893 
1347.000000	55.257964 
1346.000000	55.235862 
1345.000000	55.209898 
1344.000000	55.180644 
1343.000000	55.149221 
1342.000000	55.117201 
1341.000000	55.086445 
1340.000000	55.058693 
1339.000000	55.035614 
1338.000000	55.018568 
1337.000000	55.008363 
1336.000000	55.005240 
1335.000000	55.009078 
1334.000000	55.019497 
1333.000000	55.035638 
1332.000000	55.056381 
1331.000000	55.080151 
1330.000000	55.105209 
1329.000000	55.129456 
1328.000000	55.151009 
1327.000000	55.168342 
1326.000000	55.180621 
1325.000000	55.188202 
1324.000000	55.191802 
1323.000000	55.192732 
1322.000000	55.191755 
1321.000000	55.189514 
1320.000000	55.185270 
1319.000000	55.177617 
1318.000000	55.164384 
1317.000000	55.143737 
1316.000000	55.114459 
1315.000000	55.076646 
1314.000000	55.031991 
1313.000000	54.983615 
1312.000000	54.935550 
1311.000000	54.891920 
1310.000000	54.856133 
1309.000000	54.830193 
1308.000000	54.814672 
1307.000000	54.808712 
1306.000000	54.810476 
1305.000000	54.817676 
1304.000000	54.828071 
1303.000000	54.839944 
1302.000000	54.851984 
1301.000000	54.863476 
1300.000000	54.873919 
1299.000000	54.882955 
1298.000000	54.890012 
1297.000000	54.894661 
1296.000000	54.896354 
1295.000000	54.894757 
1294.000000	54.890036 
1293.000000	54.882645 
1292.000000	54.873657 
1291.000000	54.864025 
1290.000000	54.854941 
1289.000000	54.846763 
1288.000000	54.839372 
1287.000000	54.831647 
1286.000000	54.821968 
1285.000000	54.808425 
1284.000000	54.789257 
1283.000000	54.763507 
1282.000000	54.731321 
1281.000000	54.694175 
1280.000000	54.654645 
1279.000000	54.616260 
1278.000000	54.582977 
1277.000000	54.558205 
1276.000000	54.544544 
1275.000000	54.543089 
1274.000000	54.553580 
1273.000000	54.574275 
1272.000000	54.602336 
1271.000000	54.634213 
1270.000000	54.666280 
1269.000000	54.695296 
1268.000000	54.718971 
1267.000000	54.735660 
1266.000000	54.744815 
1265.000000	54.746794 
1264.000000	54.742527 
1263.000000	54.733467 
1262.000000	54.721021 
1261.000000	54.706430 
1260.000000	54.690504 
1259.000000	54.673814 
1258.000000	54.656577 
1257.000000	54.638791 
1256.000000	54.620575 
1255.000000	54.602289 
1254.000000	54.584598 
1253.000000	54.568457 
1252.000000	54.554986 
1251.000000	54.545474 
1250.000000	54.540753 
1249.000000	54.541158 
1248.000000	54.546403 
1247.000000	54.555249 
1246.000000	54.565644 
1245.000000	54.575109 
1244.000000	54.580998 
1243.000000	54.581236 
1242.000000	54.574847 
1241.000000	54.562258 
1240.000000	54.545116 
1239.000000	54.526114 
1238.000000	54.508471 
1237.000000	54.495120 
1236.000000	54.488039 
1235.000000	54.487895 
1234.000000	54.494190 
1233.000000	54.505276 
1232.000000	54.518938 
1231.000000	54.533076 
1230.000000	54.546117 
1229.000000	54.557275 
1228.000000	54.566454 
1227.000000	54.574108 
1226.000000	54.580593 
1225.000000	54.586005 
1224.000000	54.589867 
1223.000000	54.591155 
1222.000000	54.588580 
1221.000000	54.581022 
1220.000000	54.567790 
1219.000000	54.548883 
1218.000000	54.525160 
1217.000000	54.498195 
1216.000000	54.470181 
1215.000000	54.443264 
1214.000000	54.419565 
1213.000000	54.400706 
1212.000000	54.387474 
1211.000000	54.380083 
1210.000000	54.377961 
1209.000000	54.380011 
1208.000000	54.384708 
1207.000000	54.390430 
1206.000000	54.395556 
1205.000000	54.398798 
1204.000000	54.399156 
1203.000000	54.395961 
1202.000000	54.388976 
1201.000000	54.378247 
1200.000000	54.364228 
1199.000000	54.347562 
1198.000000	54.329061 
1197.000000	54.309654 
1196.000000	54.290246 
1195.000000	54.271721 
1194.000000	54.254746 
1193.000000	54.239821 
1192.000000	54.227328 
1191.000000	54.217386 
1190.000000	54.209947 
1189.000000	54.204797 
1188.000000	54.201817 
1187.000000	54.200696 
1186.000000	54.201149 
1185.000000	54.202771 
1184.000000	54.205060 
1183.000000	54.207253 
1182.000000	54.208683 
1181.000000	54.208517 
1180.000000	54.206013 
1179.000000	54.200625 
1178.000000	54.192256 
1177.000000	54.181337 
1176.000000	54.168868 
1175.000000	54.156208 
1174.000000	54.144930 
1173.000000	54.136490 
1172.000000	54.131913 
1171.000000	54.131507 
1170.000000	54.134702 
1169.000000	54.140114 
1168.000000	54.145884 
1167.000000	54.149818 
1166.000000	54.149913 
1165.000000	54.144716 
1164.000000	54.133558 
1163.000000	54.116773 
1162.000000	54.095673 
1161.000000	54.071927 
1160.000000	54.047775 
1159.000000	54.025411 
1158.000000	54.006862 
1157.000000	53.993606 
1156.000000	53.986477 
1155.000000	53.985619 
1154.000000	53.990411 
1153.000000	53.999590 
1152.000000	54.011416 
1151.000000	54.023838 
1150.000000	54.034876 
1149.000000	54.042959 
1148.000000	54.047012 
1147.000000	54.046654 
1146.000000	54.041910 
1145.000000	54.033255 
1144.000000	54.021310 
1143.000000	54.006552 
1142.000000	53.989481 
1141.000000	53.970503 
1140.000000	53.950023 
1139.000000	53.928971 
1138.000000	53.908824 
1137.000000	53.891444 
1136.000000	53.878855 
1135.000000	53.872847 
1134.000000	53.874349 
1133.000000	53.883099 
1132.000000	53.897571 
1131.000000	53.915047 
1130.000000	53.932356 
1129.000000	53.946471 
1128.000000	53.955173 
1127.000000	53.957486 
1126.000000	53.953862 
1125.000000	53.945565 
1124.000000	53.934359 
1123.000000	53.921937 
1122.000000	53.909373 
1121.000000	53.897070 
1120.000000	53.884720 
1119.000000	53.871870 
1118.000000	53.858327 
1117.000000	53.844428 
1116.000000	53.831028 
1115.000000	53.819346 
1114.000000	53.810620 
1113.000000	53.805422 
1112.000000	53.803372 
1111.000000	53.803396 
1110.000000	53.803896 
1109.000000	53.803277 
1108.000000	53.800392 
1107.000000	53.794717 
1106.000000	53.786420 
1105.000000	53.776550 
1104.000000	53.765892 
1103.000000	53.754782 
1102.000000	53.742885 
1101.000000	53.729104 
1100.000000	53.712058 
1099.000000	53.690576 
1098.000000	53.664302 
1097.000000	53.634190 
1096.000000	53.602433 
1095.000000	53.572249 
1094.000000	53.546977 
1093.000000	53.529214 
1092.000000	53.520083 
1091.000000	53.518652 
1090.000000	53.522014 
1089.000000	53.525948 
1088.000000	53.525733 
1087.000000	53.517580 
1086.000000	53.499150 
1085.000000	53.470826 
1084.000000	53.435277 
1083.000000	53.397631 
1082.000000	53.363823 
1081.000000	53.339886 
1080.000000	53.330302 
1079.000000	53.337359 
1078.000000	53.360867 
1077.000000	53.397917 
1076.000000	53.443765 
1075.000000	53.492426 
1074.000000	53.538250 
1073.000000	53.576445 
1072.000000	53.603816 
1071.000000	53.619098 
1070.000000	53.622865 
1069.000000	53.616905 
1068.000000	53.603649 
1067.000000	53.585815 
1066.000000	53.565859 
1065.000000	53.545784 
1064.000000	53.526902 
1063.000000	53.510069 
1062.000000	53.495430 
1061.000000	53.482341 
1060.000000	53.469800 
1059.000000	53.456282 
1058.000000	53.440880 
1057.000000	53.423309 
1056.000000	53.404927 
1055.000000	53.388118 
1054.000000	53.376173 
1053.000000	53.372645 
1052.000000	53.380346 
1051.000000	53.400230 
1050.000000	53.431248 
1049.000000	53.470134 
1048.000000	53.512096 
1047.000000	53.551626 
1046.000000	53.583836 
1045.000000	53.605628 
1044.000000	53.615856 
1043.000000	53.615403 
1042.000000	53.606176 
1041.000000	53.590464 
1040.000000	53.570079 
1039.000000	53.546047 
1038.000000	53.518843 
1037.000000	53.488683 
1036.000000	53.456544 
1035.000000	53.424024 
1034.000000	53.393125 
1033.000000	53.365945 
1032.000000	53.343963 
1031.000000	53.327846 
1030.000000	53.317189 
1029.000000	53.310418 
1028.000000	53.305649 
1027.000000	53.300738 
1026.000000	53.294229 
1025.000000	53.285026 
1024.000000	53.272414 
1023.000000	53.255772 
1022.000000	53.234243 
1021.000000	53.207087 
1020.000000	53.173542 
1019.000000	53.134202 
1018.000000	53.091263 
1017.000000	53.048849 
1016.000000	53.012490 
1015.000000	52.988004 
1014.000000	52.980256 
1013.000000	52.991509 
1012.000000	53.020620 
1011.000000	53.063440 
1010.000000	53.113627 
1009.000000	53.164243 
1008.000000	53.209257 
1007.000000	53.244447 
1006.000000	53.268194 
1005.000000	53.281235 
1004.000000	53.285670 
1003.000000	53.283858 
1002.000000	53.277420 
1001.000000	53.267145 
1000.000000	53.252673 
999.000000	 53.233504 
998.000000	 53.209137 
997.000000	 53.180694 
996.000000	 53.149986 
995.000000	 53.119850 
994.000000	 53.093075 
993.000000	 53.071808 
992.000000	 53.057098 
991.000000	 53.048443 
990.000000	 53.044247 
989.000000	 53.042292 
988.000000	 53.040194 
987.000000	 53.035879 
986.000000	 53.027868 
985.000000	 53.015518 
984.000000	 52.999019 
983.000000	 52.979254 
982.000000	 52.957439 
981.000000	 52.934980 
980.000000	 52.913689 
979.000000	 52.895402 
978.000000	 52.881884 
977.000000	 52.874350 
976.000000	 52.873849 
975.000000	 52.880740 
974.000000	 52.894258 
973.000000	 52.913045 
972.000000	 52.935147 
971.000000	 52.958464 
970.000000	 52.980709 
969.000000	 53.000283 
968.000000	 53.015899 
967.000000	 53.027105 
966.000000	 53.034067 
965.000000	 53.037548 
964.000000	 53.038692 
963.000000	 53.038644 
962.000000	 53.038501 
961.000000	 53.038406 
960.000000	 53.037881 
959.000000	 53.035116 
958.000000	 53.027701 
957.000000	 53.012585 
956.000000	 52.987146 
955.000000	 52.949976 
954.000000	 52.901554 
953.000000	 52.844476 
952.000000	 52.783203 
951.000000	 52.723979 
950.000000	 52.673101 
949.000000	 52.635216 
948.000000	 52.612495 
947.000000	 52.603983 
946.000000	 52.606129 
945.000000	 52.613568 
944.000000	 52.620577 
943.000000	 52.622127 
942.000000	 52.615356 
941.000000	 52.600502 
940.000000	 52.579855 
939.000000	 52.556371 
938.000000	 52.532815 
937.000000	 52.510952 
936.000000	 52.490639 
935.000000	 52.469682 
934.000000	 52.445197 
933.000000	 52.414774 
932.000000	 52.377557 
931.000000	 52.335262 
930.000000	 52.292227 
929.000000	 52.254915 
928.000000	 52.230262 
927.000000	 52.224755 
926.000000	 52.243089 
925.000000	 52.287483 
924.000000	 52.357125 
923.000000	 52.447390 
922.000000	 52.551007 
921.000000	 52.657437 
920.000000	 52.755570 
919.000000	 52.833104 
918.000000	 52.878713 
917.000000	 52.882528 
916.000000	 52.839040 
915.000000	 52.747201 
914.000000	 52.611088 
913.000000	 52.440071 
912.000000	 52.248358 
911.000000	 52.052927 
910.000000	 51.871585 
909.000000	 51.720070 
908.000000	 51.610374 
907.000000	 51.548314 
906.000000	 51.533246 
905.000000	 51.557970 
904.000000	 51.610660 
903.000000	 51.675891 
902.000000	 51.737833 
901.000000	 51.782369 
900.000000	 51.800155 
899.000000	 51.787304 
898.000000	 51.746678 
897.000000	 51.686406 
896.000000	 51.618528 
895.000000	 51.556134 
894.000000	 51.511096 
893.000000	 51.491618 
892.000000	 51.500988 
891.000000	 51.538157 
890.000000	 51.597380 
889.000000	 51.670217 
888.000000	 51.746821 
887.000000	 51.818251 
886.000000	 51.877427 
885.000000	 51.919627 
884.000000	 51.943206 
883.000000	 51.948809 
882.000000	 51.939988 
881.000000	 51.922178 
880.000000	 51.902294 
879.000000	 51.887130 
878.000000	 51.883459 
877.000000	 51.896786 
876.000000	 51.929497 
875.000000	 51.980280 
874.000000	 52.044272 
873.000000	 52.113986 
872.000000	 52.180957 
871.000000	 52.237296 
870.000000	 52.277588 
869.000000	 52.298998 
868.000000	 52.301740 
867.000000	 52.287602 
866.000000	 52.259373 
865.000000	 52.219223 
864.000000	 52.168202 
863.000000	 52.106332 
862.000000	 52.033948 
861.000000	 51.952338 
860.000000	 51.864910 
859.000000	 51.777410 
858.000000	 51.697564 
857.000000	 51.633572 
856.000000	 51.592397 
855.000000	 51.577782 
854.000000	 51.588821 
853.000000	 51.620268 
852.000000	 51.663517 
851.000000	 51.708006 
850.000000	 51.743674 
849.000000	 51.762938 
848.000000	 51.762413 
847.000000	 51.742625 
846.000000	 51.708221 
845.000000	 51.666831 
844.000000	 51.627159 
843.000000	 51.597237 
842.000000	 51.582360 
841.000000	 51.585149 
840.000000	 51.604437 
839.000000	 51.636123 
838.000000	 51.673936 
837.000000	 51.710915 
836.000000	 51.740932 
835.000000	 51.759481 
834.000000	 51.765346 
833.000000	 51.760149 
832.000000	 51.748299 
831.000000	 51.735544 
830.000000	 51.727318 
829.000000	 51.727080 
828.000000	 51.735424 
827.000000	 51.749968 
826.000000	 51.766157 
825.000000	 51.778483 
824.000000	 51.782035 
823.000000	 51.773810 
822.000000	 51.752543 
821.000000	 51.718878 
820.000000	 51.674389 
819.000000	 51.621365 
818.000000	 51.562356 
817.000000	 51.500344 
816.000000	 51.438474 
815.000000	 51.380228 
814.000000	 51.329779 
813.000000	 51.290988 
812.000000	 51.267147 
811.000000	 51.259970 
810.000000	 51.268601 
809.000000	 51.289653 
808.000000	 51.317048 
807.000000	 51.343631 
806.000000	 51.362252 
805.000000	 51.367306 
804.000000	 51.355767 
803.000000	 51.327466 
802.000000	 51.284742 
801.000000	 51.231908 
800.000000	 51.173973 
799.000000	 51.116323 
798.000000	 51.063680 
797.000000	 51.020050 
796.000000	 50.988149 
795.000000	 50.968933 
794.000000	 50.961351 
793.000000	 50.962495 
792.000000	 50.968170 
791.000000	 50.973606 
790.000000	 50.974631 
789.000000	 50.968170 
788.000000	 50.953412 
787.000000	 50.931167 
786.000000	 50.904130 
785.000000	 50.875973 
784.000000	 50.850605 
783.000000	 50.831007 
782.000000	 50.819039 
781.000000	 50.814819 
780.000000	 50.817441 
779.000000	 50.825572 
778.000000	 50.837659 
777.000000	 50.852560 
776.000000	 50.869393 
775.000000	 50.887250 
774.000000	 50.905513 
773.000000	 50.923299 
772.000000	 50.940227 
771.000000	 50.956273 
770.000000	 50.972199 
769.000000	 50.989174 
768.000000	 51.007771 
767.000000	 51.027321 
766.000000	 51.045918 
765.000000	 51.060700 
764.000000	 51.068401 
763.000000	 51.066613 
762.000000	 51.054811 
761.000000	 51.034450 
760.000000	 51.009297 
759.000000	 50.983834 
758.000000	 50.962233 
757.000000	 50.946545 
756.000000	 50.935816 
755.000000	 50.926446 
754.000000	 50.912785 
753.000000	 50.889825 
752.000000	 50.854992 
751.000000	 50.809669 
750.000000	 50.759387 
749.000000	 50.712633 
748.000000	 50.678682 
747.000000	 50.665068 
746.000000	 50.675034 
745.000000	 50.707459 
744.000000	 50.756764 
743.000000	 50.814890 
742.000000	 50.873041 
741.000000	 50.923514 
740.000000	 50.961136 
739.000000	 50.983285 
738.000000	 50.989580 
737.000000	 50.981211 
736.000000	 50.959920 
735.000000	 50.927472 
734.000000	 50.885415 
733.000000	 50.836157 
732.000000	 50.781989 
731.000000	 50.726962 
730.000000	 50.674581 
729.000000	 50.628137 
728.000000	 50.588870 
727.000000	 50.556015 
726.000000	 50.526666 
725.000000	 50.496506 
724.000000	 50.461506 
723.000000	 50.418901 
722.000000	 50.368833 
721.000000	 50.314044 
720.000000	 50.259733 
719.000000	 50.212001 
718.000000	 50.176668 
717.000000	 50.157499 
716.000000	 50.155377 
715.000000	 50.167798 
714.000000	 50.189304 
713.000000	 50.212597 
712.000000	 50.229763 
711.000000	 50.234055 
710.000000	 50.221228 
709.000000	 50.190639 
708.000000	 50.144267 
707.000000	 50.087285 
706.000000	 50.026369 
705.000000	 49.968791 
704.000000	 49.921226 
703.000000	 49.888586 
702.000000	 49.873018 
701.000000	 49.873805 
700.000000	 49.888134 
699.000000	 49.911236 
698.000000	 49.937415 
697.000000	 49.961209 
696.000000	 49.978137 
695.000000	 49.986004 
694.000000	 49.984693 
693.000000	 49.976348 
692.000000	 49.964118 
691.000000	 49.951815 
690.000000	 49.942731 
689.000000	 49.938726 
688.000000	 49.939727 
687.000000	 49.943828 
686.000000	 49.947619 
685.000000	 49.947094 
684.000000	 49.938797 
683.000000	 49.920320 
682.000000	 49.891614 
681.000000	 49.854373 
680.000000	 49.812865 
679.000000	 49.772572 
678.000000	 49.739885 
677.000000	 49.720978 
676.000000	 49.720048 
675.000000	 49.738812 
674.000000	 49.775052 
673.000000	 49.823975 
672.000000	 49.877190 
671.000000	 49.924659 
670.000000	 49.955797 
669.000000	 49.961709 
668.000000	 49.936389 
667.000000	 49.878430 
666.000000	 49.790954 
665.000000	 49.681329 
664.000000	 49.559950 
663.000000	 49.438667 
662.000000	 49.328517 
661.000000	 49.237990 
660.000000	 49.171781 
659.000000	 49.130487 
658.000000	 49.111032 
657.000000	 49.108242 
656.000000	 49.115872 
655.000000	 49.128818 
654.000000	 49.143028 
653.000000	 49.157190 
652.000000	 49.171733 
651.000000	 49.188637 
650.000000	 49.209475 
649.000000	 49.235057 
648.000000	 49.264645 
647.000000	 49.295711 
646.000000	 49.325037 
645.000000	 49.348616 
644.000000	 49.362969 
643.000000	 49.365496 
642.000000	 49.355435 
641.000000	 49.333453 
640.000000	 49.301648 
639.000000	 49.262690 
638.000000	 49.219465 
637.000000	 49.174690 
636.000000	 49.131059 
635.000000	 49.091219 
634.000000	 49.057960 
633.000000	 49.033498 
632.000000	 49.018979 
631.000000	 49.014997 
630.000000	 49.020862 
629.000000	 49.033904 
628.000000	 49.049592 
627.000000	 49.062299 
626.000000	 49.066162 
625.000000	 49.055838 
624.000000	 49.028444 
623.000000	 48.983883 
622.000000	 48.925709 
621.000000	 48.860692 
620.000000	 48.797488 
619.000000	 48.744893 
618.000000	 48.709630 
617.000000	 48.695349 
616.000000	 48.700642 
615.000000	 48.719692 
614.000000	 48.743176 
613.000000	 48.760485 
612.000000	 48.762845 
611.000000	 48.745131 
610.000000	 48.709106 
609.000000	 48.663091 
608.000000	 48.620653 
607.000000	 48.596930 
606.000000	 48.604226 
605.000000	 48.648142 
604.000000	 48.725724 
603.000000	 48.825979 
602.000000	 48.933100 
601.000000	 49.030208 
600.000000	 49.104118 
599.000000	 49.147796 
598.000000	 49.162125 
597.000000	 49.153900 
596.000000	 49.132847 
595.000000	 49.108266 
594.000000	 49.086809 
593.000000	 49.070405 
592.000000	 49.057388 
591.000000	 49.042510 
590.000000	 49.020671 
589.000000	 48.987770 
588.000000	 48.943018 
587.000000	 48.888707 
586.000000	 48.829627 
585.000000	 48.771810 
584.000000	 48.720097 
583.000000	 48.678684 
582.000000	 48.649859 
581.000000	 48.634767 
580.000000	 48.633098 
579.000000	 48.643851 
578.000000	 48.664999 
577.000000	 48.693180 
576.000000	 48.722982 
575.000000	 48.746442 
574.000000	 48.754000 
573.000000	 48.735666 
572.000000	 48.683643 
571.000000	 48.594784 
570.000000	 48.472070 
569.000000	 48.324608 
568.000000	 48.166489 
567.000000	 48.014378 
566.000000	 47.883653 
565.000000	 47.784972 
564.000000	 47.722148 
563.000000	 47.691845 
562.000000	 47.684669 
561.000000	 47.688221 
560.000000	 47.689628 
559.000000	 47.678375 
558.000000	 47.648429 
557.000000	 47.598409 
556.000000	 47.532296 
555.000000	 47.457623 
554.000000	 47.383689 
553.000000	 47.318983 
552.000000	 47.270512 
551.000000	 47.242450 
550.000000	 47.236204 
549.000000	 47.250199 
548.000000	 47.281169 
547.000000	 47.324204 
546.000000	 47.373509 
545.000000	 47.422528 
544.000000	 47.463655 
543.000000	 47.489690 
542.000000	 47.493958 
541.000000	 47.472357 
540.000000	 47.424197 
539.000000	 47.353053 
538.000000	 47.267270 
537.000000	 47.177791 
536.000000	 47.096657 
535.000000	 47.033500 
534.000000	 46.994876 
533.000000	 46.980118 
532.000000	 46.981668 
531.000000	 46.986508 
530.000000	 46.980404 
529.000000	 46.949100 
528.000000	 46.882176 
527.000000	 46.776080 
526.000000	 46.635365 
525.000000	 46.471548 
524.000000	 46.300745 
523.000000	 46.140265 
522.000000	 46.005678 
521.000000	 45.908641 
520.000000	 45.855379 
519.000000	 45.846009 
518.000000	 45.875096 
517.000000	 45.933580 
516.000000	 46.010065 
515.000000	 46.091723 
514.000000	 46.166777 
513.000000	 46.224498 
512.000000	 46.257972 
511.000000	 46.262192 
510.000000	 46.238017 
509.000000	 46.189594 
508.000000	 46.127986 
507.000000	 46.067476 
506.000000	 46.027350 
505.000000	 46.027994 
504.000000	 46.087551 
503.000000	 46.217966 
502.000000	 46.420145 
501.000000	 46.682667 
500.000000	 46.979856 
499.000000	 47.275424 
498.000000	 47.528433 
497.000000	 47.701001 
496.000000	 47.765278 
495.000000	 47.709512 
494.000000	 47.540283 
493.000000	 47.281503 
492.000000	 46.970200 
491.000000	 46.648502 
490.000000	 46.356892 
489.000000	 46.125626 
488.000000	 45.973467 
487.000000	 45.903229 
486.000000	 45.904517 
485.000000	 45.957517 
484.000000	 46.038436 
483.000000	 46.125364 
482.000000	 46.202445 
481.000000	 46.260643 
480.000000	 46.296453 
479.000000	 46.308708 
478.000000	 46.294689 
477.000000	 46.249079 
476.000000	 46.164226 
475.000000	 46.031689 
474.000000	 45.845675 
473.000000	 45.607209 
472.000000	 45.326352 
471.000000	 45.021057 
470.000000	 44.715118 
469.000000	 44.431066 
468.000000	 44.187355 
467.000000	 43.995404 
466.000000	 43.860268 
465.000000	 43.779087 
464.000000	 43.746590 
463.000000	 43.757009 
462.000000	 43.807268 
461.000000	 43.896555 
460.000000	 44.024467 
459.000000	 44.184970 
458.000000	 44.367074 
457.000000	 44.551396 
456.000000	 44.716548 
455.000000	 44.839835 
454.000000	 44.908070 
453.000000	 44.919562 
452.000000	 44.889235 
451.000000	 44.846200 
450.000000	 44.825863 
449.000000	 44.861483 
448.000000	 44.971656 
447.000000	 45.154380 
446.000000	 45.383882 
445.000000	 45.616459 
444.000000	 45.798683 
443.000000	 45.881462 
442.000000	 45.834350 
441.000000	 45.654845 
440.000000	 45.367026 
439.000000	 45.018482 
438.000000	 44.670510 
437.000000	 44.384479 
436.000000	 44.206500 
435.000000	 44.158983 
434.000000	 44.241261 
433.000000	 44.427275 
432.000000	 44.676637 
431.000000	 44.941043 
430.000000	 45.169663 
429.000000	 45.324921 
428.000000	 45.396161 
427.000000	 45.389056 
426.000000	 45.312500 
425.000000	 45.184206 
424.000000	 45.026946 
423.000000	 44.859266 
422.000000	 44.692015 
421.000000	 44.532275 
420.000000	 44.384789 
419.000000	 44.259047 
418.000000	 44.172883 
417.000000	 44.138431 
416.000000	 44.161176 
415.000000	 44.255065 
414.000000	 44.436573 
413.000000	 44.702696 
412.000000	 45.039701 
411.000000	 45.415925 
410.000000	 45.798087 
409.000000	 46.187710 
408.000000	 46.584844 
407.000000	 47.028994 
406.000000	 47.505450 
405.000000	 47.926688 
404.000000	 48.124504 
403.000000	 47.864699 
402.000000	 46.930956 
401.000000	 45.229458 
400.000000	 42.792510 
399.000000	 39.811182 
398.000000	 36.570143 
397.000000	 33.392953 
396.000000	 30.563354 
395.000000	 28.224158 
394.000000	 26.523542 
393.000000	 25.609683 
392.000000	 25.695085 
391.000000	 27.021241 
390.000000	 29.735565 
389.000000	 33.810067 
388.000000	 38.938093 
387.000000	 44.564175 
386.000000	 49.958443 
385.000000	 54.382014 
384.000000	 57.285976 
383.000000	 58.428859 
382.000000	 57.898426 
381.000000	 56.093764 
380.000000	 53.666973 
379.000000	 51.295757 
378.000000	 49.572467 
377.000000	 48.749184 
376.000000	 48.881936 
375.000000	 49.547147 
374.000000	 50.021219 
373.000000	 49.359440 
372.000000	 46.654415 
371.000000	 41.320681 
370.000000	 33.279228 

