PE IR       SPECTRUM    SPECTRUM    ASCII       PEDS        1.60        
  -1
C-1B64~1.ASC
17/03/27
17:06:22.00
17/03/27
17:06:22.00
tln
$C-4040-8_t0032$<tbV0>[-10.4,-7.8,8.0,0.0,27,1,0]
370.000000
64









2002,4.07    
MIRTGS : RIGHTBACK : INTERNAL 2
MIR : ON : INTERNAL 2
OPTKBR

0.200000
8
8.000000
FILLER
RATIO
SPECTRUM
UNLOCKED 256

DOUBLE
64
COMBINED
1
0
0


1.000000
RATIO


1
0
TRUE
51149
0
LEFT NOT FITTED RIGHT NOT FITTED 0
NONE
NONE
15600
12.000000
4.427000
51148
TRUE
1 0 8 72 0 0 0 0 

15798.010000






#HDR
-1
-1
#GR
CM-1
%T
0.00002384185791015625
0.0
5000.000000
-1.000000
4631
8
91.394996
45.204186
#DATA
5000.000000	64.610385 
4999.000000	64.577317 
4998.000000	64.537024 
4997.000000	64.492893 
4996.000000	64.449572 
4995.000000	64.411926 
4994.000000	64.383316 
4993.000000	64.364838 
4992.000000	64.354753 
4991.000000	64.348649 
4990.000000	64.341044 
4989.000000	64.326524 
4988.000000	64.301967 
4987.000000	64.267182 
4986.000000	64.225530 
4985.000000	64.182806 
4984.000000	64.147257 
4983.000000	64.127874 
4982.000000	64.132666 
4981.000000	64.166712 
4980.000000	64.231204 
4979.000000	64.322662 
4978.000000	64.433073 
4977.000000	64.551639 
4976.000000	64.666438 
4975.000000	64.767217 
4974.000000	64.846825 
4973.000000	64.902782 
4972.000000	64.937138 
4971.000000	64.955902 
4970.000000	64.967441 
4969.000000	64.979839 
4968.000000	64.999628 
4967.000000	65.029144 
4966.000000	65.067386 
4965.000000	65.109229 
4964.000000	65.147972 
4963.000000	65.176153 
4962.000000	65.188312 
4961.000000	65.181779 
4960.000000	65.157866 
4959.000000	65.121173 
4958.000000	65.078544 
4957.000000	65.038013 
4956.000000	65.006685 
4955.000000	64.989352 
4954.000000	64.987349 
4953.000000	64.998340 
4952.000000	65.016937 
4951.000000	65.035820 
4950.000000	65.047860 
4949.000000	65.047740 
4948.000000	65.033793 
4947.000000	65.007734 
4946.000000	64.974832 
4945.000000	64.942550 
4944.000000	64.918112 
4943.000000	64.906644 
4942.000000	64.909052 
4941.000000	64.922451 
4940.000000	64.939785 
4939.000000	64.951968 
4938.000000	64.949893 
4937.000000	64.926886 
4936.000000	64.880537 
4935.000000	64.813375 
4934.000000	64.732503 
4933.000000	64.647698 
4932.000000	64.569425 
4931.000000	64.506363 
4930.000000	64.463520 
4929.000000	64.441323 
4928.000000	64.436268 
4927.000000	64.442348 
4926.000000	64.453029 
4925.000000	64.463186 
4924.000000	64.470005 
4923.000000	64.473724 
4922.000000	64.476704 
4921.000000	64.482855 
4920.000000	64.495062 
4919.000000	64.514970 
4918.000000	64.542007 
4917.000000	64.574074 
4916.000000	64.607906 
4915.000000	64.640069 
4914.000000	64.668107 
4913.000000	64.690828 
4912.000000	64.708399 
4911.000000	64.722228 
4910.000000	64.733624 
4909.000000	64.744472 
4908.000000	64.756274 
4907.000000	64.771127 
4906.000000	64.791226 
4905.000000	64.819121 
4904.000000	64.857101 
4903.000000	64.905953 
4902.000000	64.963746 
4901.000000	65.025401 
4900.000000	65.082931 
4899.000000	65.126371 
4898.000000	65.145611 
4897.000000	65.133237 
4896.000000	65.086150 
4895.000000	65.007066 
4894.000000	64.904046 
4893.000000	64.789223 
4892.000000	64.675879 
4891.000000	64.575886 
4890.000000	64.497447 
4889.000000	64.443492 
4888.000000	64.412450 
4887.000000	64.399838 
4886.000000	64.400219 
4885.000000	64.408898 
4884.000000	64.423441 
4883.000000	64.443445 
4882.000000	64.470362 
4881.000000	64.504933 
4880.000000	64.546942 
4879.000000	64.593815 
4878.000000	64.641070 
4877.000000	64.682936 
4876.000000	64.713692 
4875.000000	64.729070 
4874.000000	64.727401 
4873.000000	64.710021 
4872.000000	64.681029 
4871.000000	64.646434 
4870.000000	64.612555 
4869.000000	64.584946 
4868.000000	64.567923 
4867.000000	64.563274 
4866.000000	64.570832 
4865.000000	64.587688 
4864.000000	64.609622 
4863.000000	64.631319 
4862.000000	64.647388 
4861.000000	64.653778 
4860.000000	64.647841 
4859.000000	64.630198 
4858.000000	64.604377 
4857.000000	64.576554 
4856.000000	64.553761 
4855.000000	64.542913 
4854.000000	64.549469 
4853.000000	64.575862 
4852.000000	64.621043 
4851.000000	64.680552 
4850.000000	64.747500 
4849.000000	64.814066 
4848.000000	64.873123 
4847.000000	64.919114 
4846.000000	64.948821 
4845.000000	64.961695 
4844.000000	64.959192 
4843.000000	64.943742 
4842.000000	64.917802 
4841.000000	64.883494 
4840.000000	64.841890 
4839.000000	64.794158 
4838.000000	64.741468 
4837.000000	64.685583 
4836.000000	64.629554 
4835.000000	64.577388 
4834.000000	64.534449 
4833.000000	64.505672 
4832.000000	64.496111 
4831.000000	64.508605 
4830.000000	64.544653 
4829.000000	64.603376 
4828.000000	64.681577 
4827.000000	64.773797 
4826.000000	64.872455 
4825.000000	64.968681 
4824.000000	65.052580 
4823.000000	65.114712 
4822.000000	65.147161 
4821.000000	65.144824 
4820.000000	65.106463 
4819.000000	65.035009 
4818.000000	64.937758 
4817.000000	64.825201 
4816.000000	64.709496 
4815.000000	64.602351 
4814.000000	64.513540 
4813.000000	64.449357 
4812.000000	64.412164 
4811.000000	64.400863 
4810.000000	64.411687 
4809.000000	64.439702 
4808.000000	64.479732 
4807.000000	64.527416 
4806.000000	64.578509 
4805.000000	64.629817 
4804.000000	64.677667 
4803.000000	64.718818 
4802.000000	64.749693 
4801.000000	64.767456 
4800.000000	64.770317 
4799.000000	64.757966 
4798.000000	64.732003 
4797.000000	64.695572 
4796.000000	64.652943 
4795.000000	64.608860 
4794.000000	64.567661 
4793.000000	64.532613 
4792.000000	64.505600 
4791.000000	64.487171 
4790.000000	64.476752 
4789.000000	64.473128 
4788.000000	64.475035 
4787.000000	64.480566 
4786.000000	64.488196 
4785.000000	64.496302 
4784.000000	64.503622 
4783.000000	64.508771 
4782.000000	64.510893 
4781.000000	64.509844 
4780.000000	64.506435 
4779.000000	64.501643 
4778.000000	64.497017 
4777.000000	64.493775 
4776.000000	64.492893 
4775.000000	64.494776 
4774.000000	64.499163 
4773.000000	64.504981 
4772.000000	64.511227 
4771.000000	64.517331 
4770.000000	64.523530 
4769.000000	64.530658 
4768.000000	64.540672 
4767.000000	64.556002 
4766.000000	64.578819 
4765.000000	64.610338 
4764.000000	64.650034 
4763.000000	64.695501 
4762.000000	64.742755 
4761.000000	64.786934 
4760.000000	64.823246 
4759.000000	64.848113 
4758.000000	64.859986 
4757.000000	64.859914 
4756.000000	64.851236 
4755.000000	64.838838 
4754.000000	64.828395 
4753.000000	64.824700 
4752.000000	64.831233 
4751.000000	64.848780 
4750.000000	64.876151 
4749.000000	64.909482 
4748.000000	64.943790 
4747.000000	64.973020 
4746.000000	64.991807 
4745.000000	64.995765 
4744.000000	64.982271 
4743.000000	64.950633 
4742.000000	64.902210 
4741.000000	64.840388 
4740.000000	64.770102 
4739.000000	64.697122 
4738.000000	64.627432 
4737.000000	64.566421 
4736.000000	64.518332 
4735.000000	64.485430 
4734.000000	64.468312 
4733.000000	64.465737 
4732.000000	64.475512 
4731.000000	64.494442 
4730.000000	64.519596 
4729.000000	64.548325 
4728.000000	64.579129 
4727.000000	64.610719 
4726.000000	64.642667 
4725.000000	64.674353 
4724.000000	64.704990 
4723.000000	64.733481 
4722.000000	64.758038 
4721.000000	64.776849 
4720.000000	64.787840 
4719.000000	64.789700 
4718.000000	64.781451 
4717.000000	64.763069 
4716.000000	64.735198 
4715.000000	64.699339 
4714.000000	64.657640 
4713.000000	64.612960 
4712.000000	64.568614 
4711.000000	64.528155 
4710.000000	64.494657 
4709.000000	64.470529 
4708.000000	64.457106 
4707.000000	64.454555 
4706.000000	64.461588 
4705.000000	64.476132 
4704.000000	64.495491 
4703.000000	64.517235 
4702.000000	64.539384 
4701.000000	64.560866 
4700.000000	64.581274 
4699.000000	64.601016 
4698.000000	64.620780 
4697.000000	64.640879 
4696.000000	64.660930 
4695.000000	64.679360 
4694.000000	64.693832 
4693.000000	64.701414 
4692.000000	64.699625 
4691.000000	64.686942 
4690.000000	64.663577 
4689.000000	64.631700 
4688.000000	64.595365 
4687.000000	64.559459 
4686.000000	64.528775 
4685.000000	64.506912 
4684.000000	64.495539 
4683.000000	64.494061 
4682.000000	64.499902 
4681.000000	64.509081 
4680.000000	64.517498 
4679.000000	64.521741 
4678.000000	64.520120 
4677.000000	64.512848 
4676.000000	64.501976 
4675.000000	64.490461 
4674.000000	64.481616 
4673.000000	64.478015 
4672.000000	64.481186 
4671.000000	64.491343 
4670.000000	64.507627 
4669.000000	64.528536 
4668.000000	64.552545 
4667.000000	64.578366 
4666.000000	64.605522 
4665.000000	64.633893 
4664.000000	64.664077 
4663.000000	64.696621 
4662.000000	64.731526 
4661.000000	64.767956 
4660.000000	64.803504 
4659.000000	64.834380 
4658.000000	64.855885 
4657.000000	64.863491 
4656.000000	64.853954 
4655.000000	64.826416 
4654.000000	64.783215 
4653.000000	64.730072 
4652.000000	64.675045 
4651.000000	64.627432 
4650.000000	64.595794 
4649.000000	64.586400 
4648.000000	64.601945 
4647.000000	64.641022 
4646.000000	64.698219 
4645.000000	64.765644 
4644.000000	64.834260 
4643.000000	64.895915 
4642.000000	64.944267 
4641.000000	64.976167 
4640.000000	64.991426 
4639.000000	64.992642 
4638.000000	64.983701 
4637.000000	64.969515 
4636.000000	64.954757 
4635.000000	64.943194 
4634.000000	64.937210 
4633.000000	64.937639 
4632.000000	64.944005 
4631.000000	64.954590 
4630.000000	64.967179 
4629.000000	64.979219 
4628.000000	64.988493 
4627.000000	64.993309 
4626.000000	64.992618 
4625.000000	64.986205 
4624.000000	64.974498 
4623.000000	64.958453 
4622.000000	64.939188 
4621.000000	64.918041 
4620.000000	64.896178 
4619.000000	64.874863 
4618.000000	64.855146 
4617.000000	64.837765 
4616.000000	64.822721 
4615.000000	64.809799 
4614.000000	64.797925 
4613.000000	64.785790 
4612.000000	64.771914 
4611.000000	64.754533 
4610.000000	64.732837 
4609.000000	64.707565 
4608.000000	64.680814 
4607.000000	64.655661 
4606.000000	64.636039 
4605.000000	64.625501 
4604.000000	64.626502 
4603.000000	64.639616 
4602.000000	64.662957 
4601.000000	64.692354 
4600.000000	64.722442 
4599.000000	64.747619 
4598.000000	64.763045 
4597.000000	64.765810 
4596.000000	64.755558 
4595.000000	64.734315 
4594.000000	64.705967 
4593.000000	64.675307 
4592.000000	64.647126 
4591.000000	64.624881 
4590.000000	64.610576 
4589.000000	64.603829 
4588.000000	64.603161 
4587.000000	64.605474 
4586.000000	64.607238 
4585.000000	64.605045 
4584.000000	64.596319 
4583.000000	64.579796 
4582.000000	64.555287 
4581.000000	64.524340 
4580.000000	64.489626 
4579.000000	64.455008 
4578.000000	64.424753 
4577.000000	64.403319 
4576.000000	64.394593 
4575.000000	64.401245 
4574.000000	64.424133 
4573.000000	64.461970 
4572.000000	64.511466 
4571.000000	64.568018 
4570.000000	64.626550 
4569.000000	64.681649 
4568.000000	64.728784 
4567.000000	64.764881 
4566.000000	64.788770 
4565.000000	64.800882 
4564.000000	64.803099 
4563.000000	64.797997 
4562.000000	64.788460 
4561.000000	64.777803 
4560.000000	64.768385 
4559.000000	64.761352 
4558.000000	64.756822 
4557.000000	64.754557 
4556.000000	64.753866 
4555.000000	64.754223 
4554.000000	64.755654 
4553.000000	64.758753 
4552.000000	64.764666 
4551.000000	64.774584 
4550.000000	64.789080 
4549.000000	64.807248 
4548.000000	64.826464 
4547.000000	64.842152 
4546.000000	64.848232 
4545.000000	64.838480 
4544.000000	64.807701 
4543.000000	64.753723 
4542.000000	64.677596 
4541.000000	64.585351 
4540.000000	64.486455 
4539.000000	64.393854 
4538.000000	64.320397 
4537.000000	64.278101 
4536.000000	64.275646 
4535.000000	64.316773 
4534.000000	64.399433 
4533.000000	64.515757 
4532.000000	64.653372 
4531.000000	64.797115 
4530.000000	64.931225 
4529.000000	65.042066 
4528.000000	65.119862 
4527.000000	65.160036 
4526.000000	65.163278 
4525.000000	65.134334 
4524.000000	65.080571 
4523.000000	65.010476 
4522.000000	64.932203 
4521.000000	64.852809 
4520.000000	64.777660 
4519.000000	64.711022 
4518.000000	64.655804 
4517.000000	64.613652 
4516.000000	64.585399 
4515.000000	64.570593 
4514.000000	64.568161 
4513.000000	64.575958 
4512.000000	64.591646 
4511.000000	64.612269 
4510.000000	64.635205 
4509.000000	64.657688 
4508.000000	64.677596 
4507.000000	64.693140 
4506.000000	64.703416 
4505.000000	64.708018 
4504.000000	64.707231 
4503.000000	64.701676 
4502.000000	64.692664 
4501.000000	64.682459 
4500.000000	64.673113 
4499.000000	64.666104 
4498.000000	64.662003 
4497.000000	64.660453 
4496.000000	64.659571 
4495.000000	64.656710 
4494.000000	64.649295 
4493.000000	64.635634 
4492.000000	64.615964 
4491.000000	64.592337 
4490.000000	64.567637 
4489.000000	64.545130 
4488.000000	64.527773 
4487.000000	64.517641 
4486.000000	64.515233 
4485.000000	64.519381 
4484.000000	64.528369 
4483.000000	64.539361 
4482.000000	64.549374 
4481.000000	64.554929 
4480.000000	64.552783 
4479.000000	64.539980 
4478.000000	64.514255 
4477.000000	64.474654 
4476.000000	64.421606 
4475.000000	64.357852 
4474.000000	64.288473 
4473.000000	64.219999 
4472.000000	64.159560 
4471.000000	64.113593 
4470.000000	64.086699 
4469.000000	64.080500 
4468.000000	64.093589 
4467.000000	64.121985 
4466.000000	64.160418 
4465.000000	64.203524 
4464.000000	64.247155 
4463.000000	64.289069 
4462.000000	64.328956 
4461.000000	64.367389 
4460.000000	64.405179 
4459.000000	64.441871 
4458.000000	64.475512 
4457.000000	64.502906 
4456.000000	64.520192 
4455.000000	64.524722 
4454.000000	64.514851 
4453.000000	64.492177 
4452.000000	64.459204 
4451.000000	64.419698 
4450.000000	64.376497 
4449.000000	64.331197 
4448.000000	64.283919 
4447.000000	64.233756 
4446.000000	64.180064 
4445.000000	64.123821 
4444.000000	64.067912 
4443.000000	64.017271 
4442.000000	63.978052 
4441.000000	63.956046 
4440.000000	63.955068 
4439.000000	63.975739 
4438.000000	64.014911 
4437.000000	64.066123 
4436.000000	64.120864 
4435.000000	64.170289 
4434.000000	64.207315 
4433.000000	64.227771 
4432.000000	64.231228 
4431.000000	64.220428 
4430.000000	64.199662 
4429.000000	64.174008 
4428.000000	64.148116 
4427.000000	64.125466 
4426.000000	64.108633 
4425.000000	64.098477 
4424.000000	64.094448 
4423.000000	64.095234 
4422.000000	64.099574 
4421.000000	64.106845 
4420.000000	64.117407 
4419.000000	64.132428 
4418.000000	64.153718 
4417.000000	64.179801 
4416.000000	64.205908 
4415.000000	64.224362 
4414.000000	64.226913 
4413.000000	64.210748 
4412.000000	64.179229 
4411.000000	64.141607 
4410.000000	64.110016 
4409.000000	64.094614 
4408.000000	64.100694 
4407.000000	64.126038 
4406.000000	64.162755 
4405.000000	64.198136 
4404.000000	64.221096 
4403.000000	64.226865 
4402.000000	64.218449 
4401.000000	64.207482 
4400.000000	64.208626 
4399.000000	64.234590 
4398.000000	64.290976 
4397.000000	64.369606 
4396.000000	64.457273 
4395.000000	64.538311 
4394.000000	64.605426 
4393.000000	64.662241 
4392.000000	64.726734 
4391.000000	64.828944 
4390.000000	64.981389 
4389.000000	65.170907 
4388.000000	65.354299 
4387.000000	65.468358 
4386.000000	65.449547 
4385.000000	65.257239 
4384.000000	64.890217 
4383.000000	64.395117 
4382.000000	63.866424 
4381.000000	63.421273 
4380.000000	63.164377 
4379.000000	63.162112 
4378.000000	63.424801 
4377.000000	63.903355 
4376.000000	64.499330 
4375.000000	65.094900 
4374.000000	65.583300 
4373.000000	65.897488 
4372.000000	66.018199 
4371.000000	65.986132 
4370.000000	65.873885 
4369.000000	65.786767 
4368.000000	65.819001 
4367.000000	66.065120 
4366.000000	66.596746 
4365.000000	67.460274 
4364.000000	68.667745 
4363.000000	70.178365 
4362.000000	71.895575 
4361.000000	73.660302 
4360.000000	75.267767 
4359.000000	76.489353 
4358.000000	77.113723 
4357.000000	76.992511 
4356.000000	76.075482 
4355.000000	74.433469 
4354.000000	72.247767 
4353.000000	69.791412 
4352.000000	67.366290 
4351.000000	65.251922 
4350.000000	63.647389 
4349.000000	62.646532 
4348.000000	62.229394 
4347.000000	62.289476 
4346.000000	62.667465 
4345.000000	63.195872 
4344.000000	63.736891 
4343.000000	64.197063 
4342.000000	64.539384 
4341.000000	64.751005 
4340.000000	64.854931 
4339.000000	64.878082 
4338.000000	64.851379 
4337.000000	64.794373 
4336.000000	64.721059 
4335.000000	64.640212 
4334.000000	64.558529 
4333.000000	64.483451 
4332.000000	64.425444 
4331.000000	64.396905 
4330.000000	64.404082 
4329.000000	64.447402 
4328.000000	64.523077 
4327.000000	64.623379 
4326.000000	64.737725 
4325.000000	64.855194 
4324.000000	64.965319 
4323.000000	65.060353 
4322.000000	65.139198 
4321.000000	65.203237 
4320.000000	65.248656 
4319.000000	65.272402 
4318.000000	65.278768 
4317.000000	65.270709 
4316.000000	65.248608 
4315.000000	65.211462 
4314.000000	65.158319 
4313.000000	65.089106 
4312.000000	65.007376 
4311.000000	64.918088 
4310.000000	64.827370 
4309.000000	64.742040 
4308.000000	64.668488 
4307.000000	64.610910 
4306.000000	64.570617 
4305.000000	64.545512 
4304.000000	64.531207 
4303.000000	64.522171 
4302.000000	64.513373 
4301.000000	64.501380 
4300.000000	64.485073 
4299.000000	64.465165 
4298.000000	64.443898 
4297.000000	64.423871 
4296.000000	64.407229 
4295.000000	64.394068 
4294.000000	64.383268 
4293.000000	64.373302 
4292.000000	64.362621 
4291.000000	64.349985 
4290.000000	64.335608 
4289.000000	64.321208 
4288.000000	64.309668 
4287.000000	64.303827 
4286.000000	64.306664 
4285.000000	64.320111 
4284.000000	64.345502 
4283.000000	64.383077 
4282.000000	64.432501 
4281.000000	64.492583 
4280.000000	64.561676 
4279.000000	64.637303 
4278.000000	64.715147 
4277.000000	64.789080 
4276.000000	64.851975 
4275.000000	64.896631 
4274.000000	64.916896 
4273.000000	64.908766 
4272.000000	64.872622 
4271.000000	64.811921 
4270.000000	64.733195 
4269.000000	64.644217 
4268.000000	64.552998 
4267.000000	64.466023 
4266.000000	64.387845 
4265.000000	64.320492 
4264.000000	64.264535 
4263.000000	64.219260 
4262.000000	64.183449 
4261.000000	64.155936 
4260.000000	64.135670 
4259.000000	64.121985 
4258.000000	64.114141 
4257.000000	64.111447 
4256.000000	64.112734 
4255.000000	64.117622 
4254.000000	64.126038 
4253.000000	64.138650 
4252.000000	64.156222 
4251.000000	64.179444 
4250.000000	64.208173 
4249.000000	64.240670 
4248.000000	64.274215 
4247.000000	64.305782 
4246.000000	64.332842 
4245.000000	64.353919 
4244.000000	64.368939 
4243.000000	64.379096 
4242.000000	64.386296 
4241.000000	64.392495 
4240.000000	64.399409 
4239.000000	64.407682 
4238.000000	64.417529 
4237.000000	64.429140 
4236.000000	64.442229 
4235.000000	64.456176 
4234.000000	64.469957 
4233.000000	64.482831 
4232.000000	64.493513 
4231.000000	64.500355 
4230.000000	64.501571 
4229.000000	64.495778 
4228.000000	64.482903 
4227.000000	64.464545 
4226.000000	64.443683 
4225.000000	64.424014 
4224.000000	64.409089 
4223.000000	64.401245 
4222.000000	64.400482 
4221.000000	64.404511 
4220.000000	64.409875 
4219.000000	64.412927 
4218.000000	64.410614 
4217.000000	64.401817 
4216.000000	64.387774 
4215.000000	64.372158 
4214.000000	64.359211 
4213.000000	64.353752 
4212.000000	64.359426 
4211.000000	64.378499 
4210.000000	64.411473 
4209.000000	64.456582 
4208.000000	64.510321 
4207.000000	64.567375 
4206.000000	64.622235 
4205.000000	64.667963 
4204.000000	64.697217 
4203.000000	64.703178 
4202.000000	64.680743 
4201.000000	64.627981 
4200.000000	64.546799 
4199.000000	64.443778 
4198.000000	64.329075 
4197.000000	64.214658 
4196.000000	64.111447 
4195.000000	64.027476 
4194.000000	63.966178 
4193.000000	63.925504 
4192.000000	63.899540 
4191.000000	63.879537 
4190.000000	63.857841 
4189.000000	63.829350 
4188.000000	63.794565 
4187.000000	63.757371 
4186.000000	63.726520 
4185.000000	63.711476 
4184.000000	63.721704 
4183.000000	63.762521 
4182.000000	63.835239 
4181.000000	63.936257 
4180.000000	64.057898 
4179.000000	64.190244 
4178.000000	64.322113 
4177.000000	64.442873 
4176.000000	64.543914 
4175.000000	64.619421 
4174.000000	64.667677 
4173.000000	64.690637 
4172.000000	64.694237 
4171.000000	64.686512 
4170.000000	64.676141 
4169.000000	64.669895 
4168.000000	64.672279 
4167.000000	64.683318 
4166.000000	64.699125 
4165.000000	64.712262 
4164.000000	64.714765 
4163.000000	64.699840 
4162.000000	64.663624 
4161.000000	64.606881 
4160.000000	64.534807 
4159.000000	64.456939 
4158.000000	64.384722 
4157.000000	64.329552 
4156.000000	64.299678 
4155.000000	64.299106 
4154.000000	64.326810 
4153.000000	64.377284 
4152.000000	64.441752 
4151.000000	64.510822 
4150.000000	64.576506 
4149.000000	64.633274 
4148.000000	64.678359 
4147.000000	64.712190 
4146.000000	64.737272 
4145.000000	64.756441 
4144.000000	64.771652 
4143.000000	64.784049 
4142.000000	64.793562 
4141.000000	64.799690 
4140.000000	64.801788 
4139.000000	64.800143 
4138.000000	64.795446 
4137.000000	64.789462 
4136.000000	64.783573 
4135.000000	64.778232 
4134.000000	64.772486 
4133.000000	64.764165 
4132.000000	64.750838 
4131.000000	64.730739 
4130.000000	64.703655 
4129.000000	64.671778 
4128.000000	64.638471 
4127.000000	64.607572 
4126.000000	64.582037 
4125.000000	64.563202 
4124.000000	64.550518 
4123.000000	64.541554 
4122.000000	64.533352 
4121.000000	64.523148 
4120.000000	64.509510 
4119.000000	64.492797 
4118.000000	64.474558 
4117.000000	64.457082 
4116.000000	64.443016 
4115.000000	64.434552 
4114.000000	64.432811 
4113.000000	64.437651 
4112.000000	64.447951 
4111.000000	64.461874 
4110.000000	64.477157 
4109.000000	64.491724 
4108.000000	64.503502 
4107.000000	64.511132 
4106.000000	64.513564 
4105.000000	64.510989 
4104.000000	64.504313 
4103.000000	64.495849 
4102.000000	64.488887 
4101.000000	64.486956 
4100.000000	64.493393 
4099.000000	64.510178 
4098.000000	64.537358 
4097.000000	64.572811 
4096.000000	64.612388 
4095.000000	64.650964 
4094.000000	64.683461 
4093.000000	64.705967 
4092.000000	64.716553 
4091.000000	64.715600 
4090.000000	64.705443 
4089.000000	64.689612 
4088.000000	64.671802 
4087.000000	64.654707 
4086.000000	64.639616 
4085.000000	64.626455 
4084.000000	64.614486 
4083.000000	64.603042 
4082.000000	64.592337 
4081.000000	64.583969 
4080.000000	64.580607 
4079.000000	64.585161 
4078.000000	64.599728 
4077.000000	64.624381 
4076.000000	64.656615 
4075.000000	64.691591 
4074.000000	64.723229 
4073.000000	64.745473 
4072.000000	64.754223 
4071.000000	64.748406 
4070.000000	64.730262 
4069.000000	64.704704 
4068.000000	64.677715 
4067.000000	64.654827 
4066.000000	64.639210 
4065.000000	64.630794 
4064.000000	64.626479 
4063.000000	64.620947 
4062.000000	64.608526 
4061.000000	64.584851 
4060.000000	64.548277 
4059.000000	64.500498 
4058.000000	64.446187 
4057.000000	64.391922 
4056.000000	64.344263 
4055.000000	64.308691 
4054.000000	64.288163 
4053.000000	64.283418 
4052.000000	64.292764 
4051.000000	64.313173 
4050.000000	64.341330 
4049.000000	64.374351 
4048.000000	64.410138 
4047.000000	64.447474 
4046.000000	64.485192 
4045.000000	64.522194 
4044.000000	64.556789 
4043.000000	64.587020 
4042.000000	64.610862 
4041.000000	64.626884 
4040.000000	64.634704 
4039.000000	64.635419 
4038.000000	64.631557 
4037.000000	64.626550 
4036.000000	64.623785 
4035.000000	64.625692 
4034.000000	64.632749 
4033.000000	64.643812 
4032.000000	64.655971 
4031.000000	64.665126 
4030.000000	64.666891 
4029.000000	64.657974 
4028.000000	64.637184 
4027.000000	64.604830 
4026.000000	64.563941 
4025.000000	64.519047 
4024.000000	64.476108 
4023.000000	64.440679 
4022.000000	64.417719 
4021.000000	64.410638 
4020.000000	64.420437 
4019.000000	64.445948 
4018.000000	64.483451 
4017.000000	64.527344 
4016.000000	64.571022 
4015.000000	64.608073 
4014.000000	64.632916 
4013.000000	64.641785 
4012.000000	64.633655 
4011.000000	64.610266 
4010.000000	64.575934 
4009.000000	64.536499 
4008.000000	64.498567 
4007.000000	64.468598 
4006.000000	64.451503 
4005.000000	64.450407 
4004.000000	64.466238 
4003.000000	64.497828 
4002.000000	64.542555 
4001.000000	64.596891 
4000.000000	64.656805 
3999.000000	64.718222 
3998.000000	64.777493 
3997.000000	64.831471 
3996.000000	64.877510 
3995.000000	64.913511 
3994.000000	64.938378 
3993.000000	64.951395 
3992.000000	64.952731 
3991.000000	64.943051 
3990.000000	64.923954 
3989.000000	64.897418 
3988.000000	64.865922 
3987.000000	64.831733 
3986.000000	64.797139 
3985.000000	64.764022 
3984.000000	64.734053 
3983.000000	64.708280 
3982.000000	64.687204 
3981.000000	64.671015 
3980.000000	64.659762 
3979.000000	64.653182 
3978.000000	64.650821 
3977.000000	64.652252 
3976.000000	64.657235 
3975.000000	64.665603 
3974.000000	64.677286 
3973.000000	64.692282 
3972.000000	64.710545 
3971.000000	64.731788 
3970.000000	64.755582 
3969.000000	64.781403 
3968.000000	64.808154 
3967.000000	64.834403 
3966.000000	64.857912 
3965.000000	64.876484 
3964.000000	64.887499 
3963.000000	64.888596 
3962.000000	64.877820 
3961.000000	64.854168 
3960.000000	64.817857 
3959.000000	64.770579 
3958.000000	64.714956 
3957.000000	64.654302 
3956.000000	64.592194 
3955.000000	64.532089 
3954.000000	64.476609 
3953.000000	64.427590 
3952.000000	64.386081 
3951.000000	64.352703 
3950.000000	64.327931 
3949.000000	64.312529 
3948.000000	64.306902 
3947.000000	64.311742 
3946.000000	64.327025 
3945.000000	64.352178 
3944.000000	64.384865 
3943.000000	64.421796 
3942.000000	64.458560 
3941.000000	64.490866 
3940.000000	64.514470 
3939.000000	64.526939 
3938.000000	64.527893 
3937.000000	64.519047 
3936.000000	64.503979 
3935.000000	64.487051 
3934.000000	64.472389 
3933.000000	64.463233 
3932.000000	64.461255 
3931.000000	64.466333 
3930.000000	64.477038 
3929.000000	64.491415 
3928.000000	64.507532 
3927.000000	64.523744 
3926.000000	64.538764 
3925.000000	64.551734 
3924.000000	64.561986 
3923.000000	64.568305 
3922.000000	64.569044 
3921.000000	64.562535 
3920.000000	64.547467 
3919.000000	64.523291 
3918.000000	64.490342 
3917.000000	64.450836 
3916.000000	64.408040 
3915.000000	64.365577 
3914.000000	64.327049 
3913.000000	64.295244 
3912.000000	64.271950 
3911.000000	64.257884 
3910.000000	64.252901 
3909.000000	64.256191 
3908.000000	64.266848 
3907.000000	64.283967 
3906.000000	64.306712 
3905.000000	64.334011 
3904.000000	64.364767 
3903.000000	64.397692 
3902.000000	64.431190 
3901.000000	64.463329 
3900.000000	64.492130 
3899.000000	64.515709 
3898.000000	64.532637 
3897.000000	64.542222 
3896.000000	64.544820 
3895.000000	64.541935 
3894.000000	64.535903 
3893.000000	64.529848 
3892.000000	64.527297 
3891.000000	64.531469 
3890.000000	64.544916 
3889.000000	64.568853 
3888.000000	64.602828 
3887.000000	64.644670 
3886.000000	64.691162 
3885.000000	64.737963 
3884.000000	64.780640 
3883.000000	64.814972 
3882.000000	64.838051 
3881.000000	64.847970 
3880.000000	64.844083 
3879.000000	64.826607 
3878.000000	64.796614 
3877.000000	64.755964 
3876.000000	64.707231 
3875.000000	64.653611 
3874.000000	64.598727 
3873.000000	64.546442 
3872.000000	64.500427 
3871.000000	64.463663 
3870.000000	64.437937 
3869.000000	64.423823 
3868.000000	64.420676 
3867.000000	64.426326 
3866.000000	64.438152 
3865.000000	64.453005 
3864.000000	64.468669 
3863.000000	64.483451 
3862.000000	64.497137 
3861.000000	64.510750 
3860.000000	64.526247 
3859.000000	64.545488 
3858.000000	64.569306 
3857.000000	64.597105 
3856.000000	64.626097 
3855.000000	64.652156 
3854.000000	64.670419 
3853.000000	64.676570 
3852.000000	64.668035 
3851.000000	64.645099 
3850.000000	64.610862 
3849.000000	64.570689 
3848.000000	64.531064 
3847.000000	64.498233 
3846.000000	64.476513 
3845.000000	64.467525 
3844.000000	64.470124 
3843.000000	64.481043 
3842.000000	64.495706 
3841.000000	64.509749 
3840.000000	64.520215 
3839.000000	64.525771 
3838.000000	64.526486 
3837.000000	64.523363 
3836.000000	64.517211 
3835.000000	64.508724 
3834.000000	64.497804 
3833.000000	64.484310 
3832.000000	64.468073 
3831.000000	64.449858 
3830.000000	64.431929 
3829.000000	64.417505 
3828.000000	64.410209 
3827.000000	64.413309 
3826.000000	64.428710 
3825.000000	64.456129 
3824.000000	64.492702 
3823.000000	64.533591 
3822.000000	64.573121 
3821.000000	64.605855 
3820.000000	64.627957 
3819.000000	64.637970 
3818.000000	64.637207 
3817.000000	64.629268 
3816.000000	64.619302 
3815.000000	64.612579 
3814.000000	64.613199 
3813.000000	64.623689 
3812.000000	64.643812 
3811.000000	64.671301 
3810.000000	64.701652 
3809.000000	64.729809 
3808.000000	64.750814 
3807.000000	64.760971 
3806.000000	64.758229 
3805.000000	64.742565 
3804.000000	64.715385 
3803.000000	64.679121 
3802.000000	64.636564 
3801.000000	64.590549 
3800.000000	64.543509 
3799.000000	64.497637 
3798.000000	64.454841 
3797.000000	64.417028 
3796.000000	64.385962 
3795.000000	64.363193 
3794.000000	64.349532 
3793.000000	64.344978 
3792.000000	64.348316 
3791.000000	64.357471 
3790.000000	64.369463 
3789.000000	64.381408 
3788.000000	64.391136 
3787.000000	64.397811 
3786.000000	64.401888 
3785.000000	64.404940 
3784.000000	64.408755 
3783.000000	64.414739 
3782.000000	64.423203 
3781.000000	64.433240 
3780.000000	64.442968 
3779.000000	64.450073 
3778.000000	64.452624 
3777.000000	64.449810 
3776.000000	64.442396 
3775.000000	64.432382 
3774.000000	64.422655 
3773.000000	64.416098 
3772.000000	64.414882 
3771.000000	64.419913 
3770.000000	64.430689 
3769.000000	64.445757 
3768.000000	64.462971 
3767.000000	64.480566 
3766.000000	64.497327 
3765.000000	64.512634 
3764.000000	64.526414 
3763.000000	64.538836 
3762.000000	64.550042 
3761.000000	64.559912 
3760.000000	64.567852 
3759.000000	64.573454 
3758.000000	64.576363 
3757.000000	64.576649 
3756.000000	64.574742 
3755.000000	64.571499 
3754.000000	64.567780 
3753.000000	64.564156 
3752.000000	64.560747 
3751.000000	64.557051 
3750.000000	64.552378 
3749.000000	64.546132 
3748.000000	64.537978 
3747.000000	64.528083 
3746.000000	64.516806 
3745.000000	64.504718 
3744.000000	64.492297 
3743.000000	64.479756 
3742.000000	64.467358 
3741.000000	64.455842 
3740.000000	64.446306 
3739.000000	64.440536 
3738.000000	64.440488 
3737.000000	64.448142 
3736.000000	64.464592 
3735.000000	64.489841 
3734.000000	64.522767 
3733.000000	64.561104 
3732.000000	64.602041 
3731.000000	64.642405 
3730.000000	64.679479 
3729.000000	64.711117 
3728.000000	64.736056 
3727.000000	64.753293 
3726.000000	64.762282 
3725.000000	64.762234 
3724.000000	64.752578 
3723.000000	64.732909 
3722.000000	64.703679 
3721.000000	64.666295 
3720.000000	64.623641 
3719.000000	64.579415 
3718.000000	64.537644 
3717.000000	64.501881 
3716.000000	64.474582 
3715.000000	64.456772 
3714.000000	64.447903 
3713.000000	64.446139 
3712.000000	64.448928 
3711.000000	64.453458 
3710.000000	64.457368 
3709.000000	64.458942 
3708.000000	64.457583 
3707.000000	64.453840 
3706.000000	64.449119 
3705.000000	64.445137 
3704.000000	64.443516 
3703.000000	64.445281 
3702.000000	64.450526 
3701.000000	64.458131 
3700.000000	64.466285 
3699.000000	64.472866 
3698.000000	64.476132 
3697.000000	64.474964 
3696.000000	64.469742 
3695.000000	64.462399 
3694.000000	64.455795 
3693.000000	64.453220 
3692.000000	64.457082 
3691.000000	64.468026 
3690.000000	64.484667 
3689.000000	64.503836 
3688.000000	64.521288 
3687.000000	64.532732 
3686.000000	64.535212 
3685.000000	64.527893 
3684.000000	64.512062 
3683.000000	64.490461 
3682.000000	64.466857 
3681.000000	64.445018 
3680.000000	64.427638 
3679.000000	64.416074 
3678.000000	64.410471 
3677.000000	64.409804 
3676.000000	64.412522 
3675.000000	64.416885 
3674.000000	64.421486 
3673.000000	64.425230 
3672.000000	64.427018 
3671.000000	64.426279 
3670.000000	64.422202 
3669.000000	64.414882 
3668.000000	64.404940 
3667.000000	64.394044 
3666.000000	64.384436 
3665.000000	64.378690 
3664.000000	64.379119 
3663.000000	64.386892 
3662.000000	64.401769 
3661.000000	64.422249 
3660.000000	64.445996 
3659.000000	64.470505 
3658.000000	64.493870 
3657.000000	64.515185 
3656.000000	64.534759 
3655.000000	64.553689 
3654.000000	64.573383 
3653.000000	64.594864 
3652.000000	64.618039 
3651.000000	64.641785 
3650.000000	64.663934 
3649.000000	64.682173 
3648.000000	64.694213 
3647.000000	64.699077 
3646.000000	64.696645 
3645.000000	64.687943 
3644.000000	64.674282 
3643.000000	64.657211 
3642.000000	64.637875 
3641.000000	64.617085 
3640.000000	64.595127 
3639.000000	64.572191 
3638.000000	64.548206 
3637.000000	64.523458 
3636.000000	64.498591 
3635.000000	64.474439 
3634.000000	64.452695 
3633.000000	64.435267 
3632.000000	64.424300 
3631.000000	64.421534 
3630.000000	64.428138 
3629.000000	64.444136 
3628.000000	64.468145 
3627.000000	64.497375 
3626.000000	64.527869 
3625.000000	64.555478 
3624.000000	64.576053 
3623.000000	64.586925 
3622.000000	64.587283 
3621.000000	64.578628 
3620.000000	64.564323 
3619.000000	64.548325 
3618.000000	64.534521 
3617.000000	64.525294 
3616.000000	64.521074 
3615.000000	64.520287 
3614.000000	64.520001 
3613.000000	64.516878 
3612.000000	64.508509 
3611.000000	64.493751 
3610.000000	64.473176 
3609.000000	64.448666 
3608.000000	64.422988 
3607.000000	64.398980 
3606.000000	64.378595 
3605.000000	64.362859 
3604.000000	64.352035 
3603.000000	64.345526 
3602.000000	64.342427 
3601.000000	64.341950 
3600.000000	64.343714 
3599.000000	64.347410 
3598.000000	64.352703 
3597.000000	64.358735 
3596.000000	64.364218 
3595.000000	64.367699 
3594.000000	64.367890 
3593.000000	64.363741 
3592.000000	64.355063 
3591.000000	64.342451 
3590.000000	64.327383 
3589.000000	64.311885 
3588.000000	64.298009 
3587.000000	64.287304 
3586.000000	64.280724 
3585.000000	64.278602 
3584.000000	64.280796 
3583.000000	64.286804 
3582.000000	64.296150 
3581.000000	64.308547 
3580.000000	64.324021 
3579.000000	64.342784 
3578.000000	64.364862 
3577.000000	64.389801 
3576.000000	64.416217 
3575.000000	64.441895 
3574.000000	64.463925 
3573.000000	64.479207 
3572.000000	64.485096 
3571.000000	64.479923 
3570.000000	64.463376 
3569.000000	64.436984 
3568.000000	64.403486 
3567.000000	64.367032 
3566.000000	64.332103 
3565.000000	64.303541 
3564.000000	64.285612 
3563.000000	64.282107 
3562.000000	64.295291 
3561.000000	64.325785 
3560.000000	64.372372 
3559.000000	64.431715 
3558.000000	64.498662 
3557.000000	64.566516 
3556.000000	64.627981 
3555.000000	64.676070 
3554.000000	64.705204 
3553.000000	64.712071 
3552.000000	64.696145 
3551.000000	64.659905 
3550.000000	64.608240 
3549.000000	64.547610 
3548.000000	64.484739 
3547.000000	64.425969 
3546.000000	64.375972 
3545.000000	64.337682 
3544.000000	64.311861 
3543.000000	64.297652 
3542.000000	64.292955 
3541.000000	64.295148 
3540.000000	64.301490 
3539.000000	64.309358 
3538.000000	64.316892 
3537.000000	64.322376 
3536.000000	64.325141 
3535.000000	64.324665 
3534.000000	64.321279 
3533.000000	64.315629 
3532.000000	64.308691 
3531.000000	64.301729 
3530.000000	64.295697 
3529.000000	64.291095 
3528.000000	64.287805 
3527.000000	64.285111 
3526.000000	64.282703 
3525.000000	64.280819 
3524.000000	64.280319 
3523.000000	64.282679 
3522.000000	64.289522 
3521.000000	64.302015 
3520.000000	64.320230 
3519.000000	64.342880 
3518.000000	64.367389 
3517.000000	64.390301 
3516.000000	64.408349 
3515.000000	64.419174 
3514.000000	64.421415 
3513.000000	64.415192 
3512.000000	64.402055 
3511.000000	64.384746 
3510.000000	64.366412 
3509.000000	64.350271 
3508.000000	64.338994 
3507.000000	64.334273 
3506.000000	64.336967 
3505.000000	64.346718 
3504.000000	64.362335 
3503.000000	64.381718 
3502.000000	64.402318 
3501.000000	64.421248 
3500.000000	64.435863 
3499.000000	64.444136 
3498.000000	64.445042 
3497.000000	64.438986 
3496.000000	64.427375 
3495.000000	64.412641 
3494.000000	64.397597 
3493.000000	64.384913 
3492.000000	64.376544 
3491.000000	64.373850 
3490.000000	64.376974 
3489.000000	64.385294 
3488.000000	64.397287 
3487.000000	64.410996 
3486.000000	64.424276 
3485.000000	64.435029 
3484.000000	64.441418 
3483.000000	64.442157 
3482.000000	64.436531 
3481.000000	64.424705 
3480.000000	64.407563 
3479.000000	64.386749 
3478.000000	64.364147 
3477.000000	64.341950 
3476.000000	64.321899 
3475.000000	64.305090 
3474.000000	64.291858 
3473.000000	64.281821 
3472.000000	64.274215 
3471.000000	64.268374 
3470.000000	64.263987 
3469.000000	64.261007 
3468.000000	64.259576 
3467.000000	64.259886 
3466.000000	64.261460 
3465.000000	64.263463 
3464.000000	64.264535 
3463.000000	64.263415 
3462.000000	64.259362 
3461.000000	64.252662 
3460.000000	64.244818 
3459.000000	64.238500 
3458.000000	64.236950 
3457.000000	64.243054 
3456.000000	64.258813 
3455.000000	64.284181 
3454.000000	64.317059 
3453.000000	64.353203 
3452.000000	64.387464 
3451.000000	64.414477 
3450.000000	64.429879 
3449.000000	64.431285 
3448.000000	64.418649 
3447.000000	64.394259 
3446.000000	64.362215 
3445.000000	64.327502 
3444.000000	64.295125 
3443.000000	64.269185 
3442.000000	64.252185 
3441.000000	64.244723 
3440.000000	64.245748 
3439.000000	64.252996 
3438.000000	64.263653 
3437.000000	64.274954 
3436.000000	64.284944 
3435.000000	64.292526 
3434.000000	64.297270 
3433.000000	64.299178 
3432.000000	64.298319 
3431.000000	64.294552 
3430.000000	64.287519 
3429.000000	64.276647 
3428.000000	64.261484 
3427.000000	64.242362 
3426.000000	64.220356 
3425.000000	64.197444 
3424.000000	64.175939 
3423.000000	64.158320 
3422.000000	64.146184 
3421.000000	64.140343 
3420.000000	64.140057 
3419.000000	64.143395 
3418.000000	64.147901 
3417.000000	64.151263 
3416.000000	64.152002 
3415.000000	64.149689 
3414.000000	64.144849 
3413.000000	64.138841 
3412.000000	64.132952 
3411.000000	64.128208 
3410.000000	64.124774 
3409.000000	64.122200 
3408.000000	64.119458 
3407.000000	64.115738 
3406.000000	64.110779 
3405.000000	64.105439 
3404.000000	64.101290 
3403.000000	64.100646 
3402.000000	64.105796 
3401.000000	64.118337 
3400.000000	64.138555 
3399.000000	64.164924 
3398.000000	64.194345 
3397.000000	64.222502 
3396.000000	64.244937 
3395.000000	64.257931 
3394.000000	64.259290 
3393.000000	64.248871 
3392.000000	64.228630 
3391.000000	64.202046 
3390.000000	64.173364 
3389.000000	64.146637 
3388.000000	64.124894 
3387.000000	64.109492 
3386.000000	64.100074 
3385.000000	64.094924 
3384.000000	64.091897 
3383.000000	64.088940 
3382.000000	64.084768 
3381.000000	64.079117 
3380.000000	64.072847 
3379.000000	64.067316 
3378.000000	64.064073 
3377.000000	64.063978 
3376.000000	64.067387 
3375.000000	64.073705 
3374.000000	64.081692 
3373.000000	64.090132 
3372.000000	64.097666 
3371.000000	64.103245 
3370.000000	64.105916 
3369.000000	64.105057 
3368.000000	64.100193 
3367.000000	64.091157 
3366.000000	64.078211 
3365.000000	64.061856 
3364.000000	64.043521 
3363.000000	64.025449 
3362.000000	64.010381 
3361.000000	64.001202 
3360.000000	64.000535 
3359.000000	64.009928 
3358.000000	64.029479 
3357.000000	64.057397 
3356.000000	64.090037 
3355.000000	64.122676 
3354.000000	64.150571 
3353.000000	64.170145 
3352.000000	64.179587 
3351.000000	64.179754 
3350.000000	64.173793 
3349.000000	64.166617 
3348.000000	64.163398 
3347.000000	64.168262 
3346.000000	64.183211 
3345.000000	64.207267 
3344.000000	64.236879 
3343.000000	64.266467 
3342.000000	64.290142 
3341.000000	64.302945 
3340.000000	64.302182 
3339.000000	64.287853 
3338.000000	64.262604 
3337.000000	64.230442 
3336.000000	64.195704 
3335.000000	64.161896 
3334.000000	64.131069 
3333.000000	64.104104 
3332.000000	64.081335 
3331.000000	64.063310 
3330.000000	64.051318 
3329.000000	64.047455 
3328.000000	64.054250 
3327.000000	64.073657 
3326.000000	64.106249 
3325.000000	64.150404 
3324.000000	64.201879 
3323.000000	64.254665 
3322.000000	64.301562 
3321.000000	64.335918 
3320.000000	64.352655 
3319.000000	64.349651 
3318.000000	64.327812 
3317.000000	64.290952 
3316.000000	64.244914 
3315.000000	64.196395 
3314.000000	64.151620 
3313.000000	64.115691 
3312.000000	64.091300 
3311.000000	64.078998 
3310.000000	64.076733 
3309.000000	64.081048 
3308.000000	64.087343 
3307.000000	64.091491 
3306.000000	64.090704 
3305.000000	64.084434 
3304.000000	64.074420 
3303.000000	64.064502 
3302.000000	64.059114 
3301.000000	64.062428 
3300.000000	64.077234 
3299.000000	64.103937 
3298.000000	64.140486 
3297.000000	64.182734 
3296.000000	64.225840 
3295.000000	64.264869 
3294.000000	64.296150 
3293.000000	64.317560 
3292.000000	64.328718 
3291.000000	64.330220 
3290.000000	64.323353 
3289.000000	64.308857 
3288.000000	64.287042 
3287.000000	64.257812 
3286.000000	64.221620 
3285.000000	64.179730 
3284.000000	64.134860 
3283.000000	64.090847 
3282.000000	64.052009 
3281.000000	64.022302 
3280.000000	64.004540 
3279.000000	63.999629 
3278.000000	64.006614 
3277.000000	64.022898 
3276.000000	64.045262 
3275.000000	64.070463 
3274.000000	64.096140 
3273.000000	64.121007 
3272.000000	64.145064 
3271.000000	64.168548 
3270.000000	64.191722 
3269.000000	64.214181 
3268.000000	64.234614 
3267.000000	64.251136 
3266.000000	64.261341 
3265.000000	64.263439 
3264.000000	64.256143 
3263.000000	64.239573 
3262.000000	64.214682 
3261.000000	64.183378 
3260.000000	64.148044 
3259.000000	64.111328 
3258.000000	64.075446 
3257.000000	64.042329 
3256.000000	64.013099 
3255.000000	63.988137 
3254.000000	63.967466 
3253.000000	63.951158 
3252.000000	63.939571 
3251.000000	63.933682 
3250.000000	63.934898 
3249.000000	63.944911 
3248.000000	63.965249 
3247.000000	63.996601 
3246.000000	64.038228 
3245.000000	64.087533 
3244.000000	64.140510 
3243.000000	64.191961 
3242.000000	64.236330 
3241.000000	64.268779 
3240.000000	64.286279 
3239.000000	64.287900 
3238.000000	64.275360 
3237.000000	64.252042 
3236.000000	64.222407 
3235.000000	64.190959 
3234.000000	64.161491 
3233.000000	64.136672 
3232.000000	64.117932 
3231.000000	64.105606 
3230.000000	64.099645 
3229.000000	64.099359 
3228.000000	64.103627 
3227.000000	64.110946 
3226.000000	64.119338 
3225.000000	64.126276 
3224.000000	64.128899 
3223.000000	64.124369 
3222.000000	64.110565 
3221.000000	64.086437 
3220.000000	64.052581 
3219.000000	64.011192 
3218.000000	63.966083 
3217.000000	63.921999 
3216.000000	63.884043 
3215.000000	63.856577 
3214.000000	63.842630 
3213.000000	63.843393 
3212.000000	63.858175 
3211.000000	63.884592 
3210.000000	63.918876 
3209.000000	63.956737 
3208.000000	63.994073 
3207.000000	64.027118 
3206.000000	64.053440 
3205.000000	64.071726 
3204.000000	64.081859 
3203.000000	64.084672 
3202.000000	64.081740 
3201.000000	64.074683 
3200.000000	64.065051 
3199.000000	64.054274 
3198.000000	64.043498 
3197.000000	64.033508 
3196.000000	64.024996 
3195.000000	64.018464 
3194.000000	64.014124 
3193.000000	64.012074 
3192.000000	64.012074 
3191.000000	64.014077 
3190.000000	64.017939 
3189.000000	64.023780 
3188.000000	64.032006 
3187.000000	64.043116 
3186.000000	64.057588 
3185.000000	64.075660 
3184.000000	64.097023 
3183.000000	64.120578 
3182.000000	64.144420 
3181.000000	64.166021 
3180.000000	64.182639 
3179.000000	64.191746 
3178.000000	64.191699 
3177.000000	64.181709 
3176.000000	64.162254 
3175.000000	64.134788 
3174.000000	64.101719 
3173.000000	64.065790 
3172.000000	64.029836 
3171.000000	63.996744 
3170.000000	63.969016 
3169.000000	63.948822 
3168.000000	63.937902 
3167.000000	63.937258 
3166.000000	63.946843 
3165.000000	63.965487 
3164.000000	63.990783 
3163.000000	64.019036 
3162.000000	64.046001 
3161.000000	64.067244 
3160.000000	64.079213 
3159.000000	64.079880 
3158.000000	64.069104 
3157.000000	64.048767 
3156.000000	64.022278 
3155.000000	63.993954 
3154.000000	63.967776 
3153.000000	63.946747 
3152.000000	63.932013 
3151.000000	63.923096 
3150.000000	63.917946 
3149.000000	63.914036 
3148.000000	63.908958 
3147.000000	63.901305 
3146.000000	63.891077 
3145.000000	63.879585 
3144.000000	63.868927 
3143.000000	63.861203 
3142.000000	63.857913 
3141.000000	63.859724 
3140.000000	63.866066 
3139.000000	63.875961 
3138.000000	63.888144 
3137.000000	63.901901 
3136.000000	63.917255 
3135.000000	63.934850 
3134.000000	63.955616 
3133.000000	63.980245 
3132.000000	64.008474 
3131.000000	64.038848 
3130.000000	64.068651 
3129.000000	64.094400 
3128.000000	64.112520 
3127.000000	64.120364 
3126.000000	64.117074 
3125.000000	64.103770 
3124.000000	64.083361 
3123.000000	64.060258 
3122.000000	64.039373 
3121.000000	64.025044 
3120.000000	64.020156 
3119.000000	64.025378 
3118.000000	64.039349 
3117.000000	64.058709 
3116.000000	64.079022 
3115.000000	64.095616 
3114.000000	64.104461 
3113.000000	64.103102 
3112.000000	64.091134 
3111.000000	64.069890 
3110.000000	64.042258 
3109.000000	64.011859 
3108.000000	63.982415 
3107.000000	63.956832 
3106.000000	63.937115 
3105.000000	63.924360 
3104.000000	63.919067 
3103.000000	63.920927 
3102.000000	63.929486 
3101.000000	63.944220 
3100.000000	63.964366 
3099.000000	63.988661 
3098.000000	64.015650 
3097.000000	64.043450 
3096.000000	64.069914 
3095.000000	64.092612 
3094.000000	64.109206 
3093.000000	64.117932 
3092.000000	64.117717 
3091.000000	64.108562 
3090.000000	64.091563 
3089.000000	64.068508 
3088.000000	64.041996 
3087.000000	64.014530 
3086.000000	63.988614 
3085.000000	63.965940 
3084.000000	63.947510 
3083.000000	63.933300 
3082.000000	63.922834 
3081.000000	63.914990 
3080.000000	63.908791 
3079.000000	63.903570 
3078.000000	63.899207 
3077.000000	63.895940 
3076.000000	63.894104 
3075.000000	63.893723 
3074.000000	63.893938 
3073.000000	63.892960 
3072.000000	63.888263 
3071.000000	63.877534 
3070.000000	63.859391 
3069.000000	63.834023 
3068.000000	63.803434 
3067.000000	63.771343 
3066.000000	63.742423 
3065.000000	63.720965 
3064.000000	63.710045 
3063.000000	63.710522 
3062.000000	63.721036 
3061.000000	63.738369 
3060.000000	63.758397 
3059.000000	63.777256 
3058.000000	63.792347 
3057.000000	63.802886 
3056.000000	63.809752 
3055.000000	63.814783 
3054.000000	63.819956 
3053.000000	63.826489 
3052.000000	63.834214 
3051.000000	63.841629 
3050.000000	63.846278 
3049.000000	63.845920 
3048.000000	63.838648 
3047.000000	63.823890 
3046.000000	63.802433 
3045.000000	63.776302 
3044.000000	63.748455 
3043.000000	63.722133 
3042.000000	63.700366 
3041.000000	63.685584 
3040.000000	63.679170 
3039.000000	63.681554 
3038.000000	63.692259 
3037.000000	63.709974 
3036.000000	63.732933 
3035.000000	63.758993 
3034.000000	63.785648 
3033.000000	63.810443 
3032.000000	63.830971 
3031.000000	63.845109 
3030.000000	63.851356 
3029.000000	63.848924 
3028.000000	63.838291 
3027.000000	63.820815 
3026.000000	63.798928 
3025.000000	63.775539 
3024.000000	63.754057 
3023.000000	63.737773 
3022.000000	63.729119 
3021.000000	63.729596 
3020.000000	63.739156 
3019.000000	63.756585 
3018.000000	63.779592 
3017.000000	63.805389 
3016.000000	63.831233 
3015.000000	63.854885 
3014.000000	63.874769 
3013.000000	63.890027 
3012.000000	63.900279 
3011.000000	63.905668 
3010.000000	63.906383 
3009.000000	63.902783 
3008.000000	63.895177 
3007.000000	63.884282 
3006.000000	63.870930 
3005.000000	63.856482 
3004.000000	63.842248 
3003.000000	63.829493 
3002.000000	63.819122 
3001.000000	63.811492 
3000.000000	63.806295 
2999.000000	63.802504 
2998.000000	63.798975 
2997.000000	63.795113 
2996.000000	63.790965 
2995.000000	63.787198 
2994.000000	63.785171 
2993.000000	63.786482 
2992.000000	63.792395 
2991.000000	63.803100 
2990.000000	63.817834 
2989.000000	63.834691 
2988.000000	63.851118 
2987.000000	63.864493 
2986.000000	63.872838 
2985.000000	63.875293 
2984.000000	63.872337 
2983.000000	63.865518 
2982.000000	63.857388 
2981.000000	63.850688 
2980.000000	63.847780 
2979.000000	63.850092 
2978.000000	63.858103 
2977.000000	63.870859 
2976.000000	63.886737 
2975.000000	63.903188 
2974.000000	63.917636 
2973.000000	63.927078 
2972.000000	63.929009 
2971.000000	63.921260 
2970.000000	63.902211 
2969.000000	63.871169 
2968.000000	63.828492 
2967.000000	63.775992 
2966.000000	63.716626 
2965.000000	63.654708 
2964.000000	63.595128 
2963.000000	63.543057 
2962.000000	63.503074 
2961.000000	63.478183 
2960.000000	63.469409 
2959.000000	63.475513 
2958.000000	63.493251 
2957.000000	63.517928 
2956.000000	63.544297 
2955.000000	63.567876 
2954.000000	63.585638 
2953.000000	63.596439 
2952.000000	63.600993 
2951.000000	63.601279 
2950.000000	63.599705 
2949.000000	63.598418 
2948.000000	63.598418 
2947.000000	63.599586 
2946.000000	63.600683 
2945.000000	63.600206 
2944.000000	63.596701 
2943.000000	63.589715 
2942.000000	63.579487 
2941.000000	63.567399 
2940.000000	63.555121 
2939.000000	63.543963 
2938.000000	63.534522 
2937.000000	63.526415 
2936.000000	63.518404 
2935.000000	63.508582 
2934.000000	63.495302 
2933.000000	63.477969 
2932.000000	63.457083 
2931.000000	63.434290 
2930.000000	63.412189 
2929.000000	63.393735 
2928.000000	63.381242 
2927.000000	63.375854 
2926.000000	63.377404 
2925.000000	63.384437 
2924.000000	63.394784 
2923.000000	63.406133 
2922.000000	63.416504 
2921.000000	63.424801 
2920.000000	63.430690 
2919.000000	63.434624 
2918.000000	63.437461 
2917.000000	63.440036 
2916.000000	63.442897 
2915.000000	63.446187 
2914.000000	63.449907 
2913.000000	63.453698 
2912.000000	63.457441 
2911.000000	63.461017 
2910.000000	63.464283 
2909.000000	63.467192 
2908.000000	63.469600 
2907.000000	63.471436 
2906.000000	63.472676 
2905.000000	63.473939 
2904.000000	63.476204 
2903.000000	63.481259 
2902.000000	63.491010 
2901.000000	63.507008 
2900.000000	63.529992 
2899.000000	63.559103 
2898.000000	63.592147 
2897.000000	63.625836 
2896.000000	63.656592 
2895.000000	63.681268 
2894.000000	63.698053 
2893.000000	63.707041 
2892.000000	63.709855 
2891.000000	63.709402 
2890.000000	63.708567 
2889.000000	63.709664 
2888.000000	63.713288 
2887.000000	63.718581 
2886.000000	63.723111 
2885.000000	63.724160 
2884.000000	63.719344 
2883.000000	63.707852 
2882.000000	63.690352 
2881.000000	63.669347 
2880.000000	63.648104 
2879.000000	63.630056 
2878.000000	63.617777 
2877.000000	63.612341 
2876.000000	63.613057 
2875.000000	63.617587 
2874.000000	63.622522 
2873.000000	63.623905 
2872.000000	63.618230 
2871.000000	63.603210 
2870.000000	63.578128 
2869.000000	63.544058 
2868.000000	63.503408 
2867.000000	63.459944 
2866.000000	63.417840 
2865.000000	63.381195 
2864.000000	63.353252 
2863.000000	63.335800 
2862.000000	63.329529 
2861.000000	63.333678 
2860.000000	63.346219 
2859.000000	63.364577 
2858.000000	63.385844 
2857.000000	63.407683 
2856.000000	63.428187 
2855.000000	63.446021 
2854.000000	63.460350 
2853.000000	63.470864 
2852.000000	63.477444 
2851.000000	63.480186 
2850.000000	63.479423 
2849.000000	63.475990 
2848.000000	63.471150 
2847.000000	63.466596 
2846.000000	63.464188 
2845.000000	63.465785 
2844.000000	63.472843 
2843.000000	63.486099 
2842.000000	63.505244 
2841.000000	63.528871 
2840.000000	63.554692 
2839.000000	63.579940 
2838.000000	63.601636 
2837.000000	63.617491 
2836.000000	63.625955 
2835.000000	63.626599 
2834.000000	63.620090 
2833.000000	63.608169 
2832.000000	63.593196 
2831.000000	63.577890 
2830.000000	63.564729 
2829.000000	63.555788 
2828.000000	63.552355 
2827.000000	63.554906 
2826.000000	63.563060 
2825.000000	63.575720 
2824.000000	63.591480 
2823.000000	63.608694 
2822.000000	63.625812 
2821.000000	63.641381 
2820.000000	63.654375 
2819.000000	63.664054 
2818.000000	63.669896 
2817.000000	63.671588 
2816.000000	63.669085 
2815.000000	63.662576 
2814.000000	63.652634 
2813.000000	63.640046 
2812.000000	63.626217 
2811.000000	63.612389 
2810.000000	63.600087 
2809.000000	63.590121 
2808.000000	63.582849 
2807.000000	63.577699 
2806.000000	63.573360 
2805.000000	63.568401 
2804.000000	63.561415 
2803.000000	63.552069 
2802.000000	63.540911 
2801.000000	63.529729 
2800.000000	63.520932 
2799.000000	63.517165 
2798.000000	63.520503 
2797.000000	63.531732 
2796.000000	63.549995 
2795.000000	63.572931 
2794.000000	63.596963 
2793.000000	63.618230 
2792.000000	63.633370 
2791.000000	63.640236 
2790.000000	63.638091 
2789.000000	63.627815 
2788.000000	63.611268 
2787.000000	63.590908 
2786.000000	63.569068 
2785.000000	63.547587 
2784.000000	63.527560 
2783.000000	63.509488 
2782.000000	63.493537 
2781.000000	63.479828 
2780.000000	63.468480 
2779.000000	63.459897 
2778.000000	63.454532 
2777.000000	63.452553 
2776.000000	63.453912 
2775.000000	63.457989 
2774.000000	63.463926 
2773.000000	63.470458 
2772.000000	63.476562 
2771.000000	63.481426 
2770.000000	63.484835 
2769.000000	63.487148 
2768.000000	63.489079 
2767.000000	63.491439 
2766.000000	63.494944 
2765.000000	63.500261 
2764.000000	63.507461 
2763.000000	63.516402 
2762.000000	63.526773 
2761.000000	63.538122 
2760.000000	63.549971 
2759.000000	63.561773 
2758.000000	63.572859 
2757.000000	63.582539 
2756.000000	63.590025 
2755.000000	63.594841 
2754.000000	63.596725 
2753.000000	63.595914 
2752.000000	63.593387 
2751.000000	63.590502 
2750.000000	63.588833 
2749.000000	63.589477 
2748.000000	63.593196 
2747.000000	63.599658 
2746.000000	63.607716 
2745.000000	63.615345 
2744.000000	63.620233 
2743.000000	63.619995 
2742.000000	63.612890 
2741.000000	63.597989 
2740.000000	63.575315 
2739.000000	63.545870 
2738.000000	63.511562 
2737.000000	63.474774 
2736.000000	63.438105 
2735.000000	63.404202 
2734.000000	63.375496 
2733.000000	63.353991 
2732.000000	63.340973 
2731.000000	63.336992 
2730.000000	63.341760 
2729.000000	63.354158 
2728.000000	63.372278 
2727.000000	63.393759 
2726.000000	63.416171 
2725.000000	63.437128 
2724.000000	63.454723 
2723.000000	63.467478 
2722.000000	63.474535 
2721.000000	63.475561 
2720.000000	63.470578 
2719.000000	63.460183 
2718.000000	63.445091 
2717.000000	63.426423 
2716.000000	63.405251 
2715.000000	63.382816 
2714.000000	63.360428 
2713.000000	63.339376 
2712.000000	63.320541 
2711.000000	63.304662 
2710.000000	63.292026 
2709.000000	63.282608 
2708.000000	63.276028 
2707.000000	63.271903 
2706.000000	63.269948 
2705.000000	63.270092 
2704.000000	63.272404 
2703.000000	63.277125 
2702.000000	63.284683 
2701.000000	63.295388 
2700.000000	63.309335 
2699.000000	63.326168 
2698.000000	63.345026 
2697.000000	63.364458 
2696.000000	63.382554 
2695.000000	63.397073 
2694.000000	63.405728 
2693.000000	63.406991 
2692.000000	63.400387 
2691.000000	63.386726 
2690.000000	63.368129 
2689.000000	63.347744 
2688.000000	63.329172 
2687.000000	63.315796 
2686.000000	63.310074 
2685.000000	63.312983 
2684.000000	63.323974 
2683.000000	63.341045 
2682.000000	63.361406 
2681.000000	63.382077 
2680.000000	63.400721 
2679.000000	63.415861 
2678.000000	63.427209 
2677.000000	63.435173 
2676.000000	63.440752 
2675.000000	63.444924 
2674.000000	63.448238 
2673.000000	63.450694 
2672.000000	63.451719 
2671.000000	63.450694 
2670.000000	63.446736 
2669.000000	63.439178 
2668.000000	63.427448 
2667.000000	63.411402 
2666.000000	63.391160 
2665.000000	63.366985 
2664.000000	63.339495 
2663.000000	63.309478 
2662.000000	63.277935 
2661.000000	63.246107 
2660.000000	63.215470 
2659.000000	63.187408 
2658.000000	63.163137 
2657.000000	63.143563 
2656.000000	63.129067 
2655.000000	63.119578 
2654.000000	63.114643 
2653.000000	63.113737 
2652.000000	63.116073 
2651.000000	63.121175 
2650.000000	63.128447 
2649.000000	63.137793 
2648.000000	63.148736 
2647.000000	63.161063 
2646.000000	63.174104 
2645.000000	63.187074 
2644.000000	63.199329 
2643.000000	63.210034 
2642.000000	63.218617 
2641.000000	63.224554 
2640.000000	63.227725 
2639.000000	63.228034 
2638.000000	63.225555 
2637.000000	63.220453 
2636.000000	63.213181 
2635.000000	63.204288 
2634.000000	63.194608 
2633.000000	63.185310 
2632.000000	63.177728 
2631.000000	63.172769 
2630.000000	63.170909 
2629.000000	63.171744 
2628.000000	63.174200 
2627.000000	63.176608 
2626.000000	63.177061 
2625.000000	63.174271 
2624.000000	63.167786 
2623.000000	63.158583 
2622.000000	63.148903 
2621.000000	63.141655 
2620.000000	63.139748 
2619.000000	63.145256 
2618.000000	63.158583 
2617.000000	63.178372 
2616.000000	63.201522 
2615.000000	63.224005 
2614.000000	63.241934 
2613.000000	63.252472 
2612.000000	63.254404 
2611.000000	63.248443 
2610.000000	63.237047 
2609.000000	63.223552 
2608.000000	63.211512 
2607.000000	63.203692 
2606.000000	63.201689 
2605.000000	63.205599 
2604.000000	63.214182 
2603.000000	63.225317 
2602.000000	63.236689 
2601.000000	63.246250 
2600.000000	63.252496 
2599.000000	63.254761 
2598.000000	63.252997 
2597.000000	63.247776 
2596.000000	63.240003 
2595.000000	63.230490 
2594.000000	63.220143 
2593.000000	63.209652 
2592.000000	63.199758 
2591.000000	63.190937 
2590.000000	63.183736 
2589.000000	63.178586 
2588.000000	63.175964 
2587.000000	63.176107 
2586.000000	63.178992 
2585.000000	63.184118 
2584.000000	63.190412 
2583.000000	63.196277 
2582.000000	63.199877 
2581.000000	63.199591 
2580.000000	63.194608 
2579.000000	63.185000 
2578.000000	63.171815 
2577.000000	63.156723 
2576.000000	63.141655 
2575.000000	63.128185 
2574.000000	63.117456 
2573.000000	63.110280 
2572.000000	63.106822 
2571.000000	63.107180 
2570.000000	63.111186 
2569.000000	63.118481 
2568.000000	63.128614 
2567.000000	63.140559 
2566.000000	63.153219 
2565.000000	63.165378 
2564.000000	63.175964 
2563.000000	63.184261 
2562.000000	63.190031 
2561.000000	63.193321 
2560.000000	63.194584 
2559.000000	63.194489 
2558.000000	63.193750 
2557.000000	63.193082 
2556.000000	63.192963 
2555.000000	63.193845 
2554.000000	63.195824 
2553.000000	63.198590 
2552.000000	63.201498 
2551.000000	63.203859 
2550.000000	63.204789 
2549.000000	63.203859 
2548.000000	63.200759 
2547.000000	63.195776 
2546.000000	63.189554 
2545.000000	63.183188 
2544.000000	63.177871 
2543.000000	63.174676 
2542.000000	63.174390 
2541.000000	63.177084 
2540.000000	63.182210 
2539.000000	63.188529 
2538.000000	63.194251 
2537.000000	63.197278 
2536.000000	63.195800 
2535.000000	63.188529 
2534.000000	63.175320 
2533.000000	63.157129 
2532.000000	63.136100 
2531.000000	63.115167 
2530.000000	63.097596 
2529.000000	63.086080 
2528.000000	63.082432 
2527.000000	63.086724 
2526.000000	63.097453 
2525.000000	63.111543 
2524.000000	63.125061 
2523.000000	63.134026 
2522.000000	63.135409 
2521.000000	63.127446 
2520.000000	63.110303 
2519.000000	63.085675 
2518.000000	63.056540 
2517.000000	63.026237 
2516.000000	62.998032 
2515.000000	62.974572 
2514.000000	62.957406 
2513.000000	62.947106 
2512.000000	62.943625 
2511.000000	62.946367 
2510.000000	62.954640 
2509.000000	62.967610 
2508.000000	62.984466 
2507.000000	63.004207 
2506.000000	63.025474 
2505.000000	63.046312 
2504.000000	63.064384 
2503.000000	63.077235 
2502.000000	63.082671 
2501.000000	63.079166 
2500.000000	63.066124 
2499.000000	63.043975 
2498.000000	63.014459 
2497.000000	62.980318 
2496.000000	62.944841 
2495.000000	62.911438 
2494.000000	62.883424 
2493.000000	62.863159 
2492.000000	62.851977 
2491.000000	62.849974 
2490.000000	62.855982 
2489.000000	62.868046 
2488.000000	62.883806 
2487.000000	62.901067 
2486.000000	62.918066 
2485.000000	62.933635 
2484.000000	62.947010 
2483.000000	62.957692 
2482.000000	62.965321 
2481.000000	62.969303 
2480.000000	62.968826 
2479.000000	62.963080 
2478.000000	62.951683 
2477.000000	62.935042 
2476.000000	62.914633 
2475.000000	62.893056 
2474.000000	62.873601 
2473.000000	62.859606 
2472.000000	62.853789 
2471.000000	62.857484 
2470.000000	62.870216 
2469.000000	62.889695 
2468.000000	62.912297 
2467.000000	62.933945 
2466.000000	62.951111 
2465.000000	62.961125 
2464.000000	62.963080 
2463.000000	62.957739 
2462.000000	62.947201 
2461.000000	62.934255 
2460.000000	62.921714 
2459.000000	62.911510 
2458.000000	62.904620 
2457.000000	62.901163 
2456.000000	62.900495 
2455.000000	62.901353 
2454.000000	62.902784 
2453.000000	62.904310 
2452.000000	62.906193 
2451.000000	62.909197 
2450.000000	62.914252 
2449.000000	62.921786 
2448.000000	62.931656 
2447.000000	62.943315 
2446.000000	62.955641 
2445.000000	62.967371 
2444.000000	62.977552 
2443.000000	62.985920 
2442.000000	62.993073 
2441.000000	63.000202 
2440.000000	63.008999 
2439.000000	63.020682 
2438.000000	63.036131 
2437.000000	63.054704 
2436.000000	63.074684 
2435.000000	63.092494 
2434.000000	63.103771 
2433.000000	63.103389 
2432.000000	63.086724 
2431.000000	63.050627 
2430.000000	62.994170 
2429.000000	62.920069 
2428.000000	62.833976 
2427.000000	62.745141 
2426.000000	62.664794 
2425.000000	62.604784 
2424.000000	62.575149 
2423.000000	62.582278 
2422.000000	62.627482 
2421.000000	62.705969 
2420.000000	62.807703 
2419.000000	62.918853 
2418.000000	63.024282 
2417.000000	63.110327 
2416.000000	63.167071 
2415.000000	63.189744 
2414.000000	63.179421 
2413.000000	63.141989 
2412.000000	63.086295 
2411.000000	63.022398 
2410.000000	62.959170 
2409.000000	62.903380 
2408.000000	62.858462 
2407.000000	62.825369 
2406.000000	62.802648 
2405.000000	62.787985 
2404.000000	62.779021 
2403.000000	62.773680 
2402.000000	62.771058 
2401.000000	62.770295 
2400.000000	62.771487 
2399.000000	62.774372 
2398.000000	62.779164 
2397.000000	62.785768 
2396.000000	62.794065 
2395.000000	62.803697 
2394.000000	62.814307 
2393.000000	62.825512 
2392.000000	62.836790 
2391.000000	62.847399 
2390.000000	62.856459 
2389.000000	62.863016 
2388.000000	62.866449 
2387.000000	62.866592 
2386.000000	62.863588 
2385.000000	62.857913 
2384.000000	62.850666 
2383.000000	62.843036 
2382.000000	62.836170 
2381.000000	62.830734 
2380.000000	62.826991 
2379.000000	62.824583 
2378.000000	62.823104 
2377.000000	62.822079 
2376.000000	62.821245 
2375.000000	62.820410 
2374.000000	62.819862 
2373.000000	62.819862 
2372.000000	62.820601 
2371.000000	62.821936 
2370.000000	62.823343 
2369.000000	62.824177 
2368.000000	62.823748 
2367.000000	62.821602 
2366.000000	62.817931 
2365.000000	62.813282 
2364.000000	62.808680 
2363.000000	62.805151 
2362.000000	62.803530 
2361.000000	62.804150 
2360.000000	62.806677 
2359.000000	62.810325 
2358.000000	62.813687 
2357.000000	62.815380 
2356.000000	62.814068 
2355.000000	62.809038 
2354.000000	62.800002 
2353.000000	62.786984 
2352.000000	62.770342 
2351.000000	62.750673 
2350.000000	62.728834 
2349.000000	62.705802 
2348.000000	62.682867 
2347.000000	62.661600 
2346.000000	62.643766 
2345.000000	62.631130 
2344.000000	62.625241 
2343.000000	62.626862 
2342.000000	62.636065 
2341.000000	62.651944 
2340.000000	62.672758 
2339.000000	62.696051 
2338.000000	62.719130 
2337.000000	62.739324 
2336.000000	62.754440 
2335.000000	62.763118 
2334.000000	62.764811 
2333.000000	62.760019 
2332.000000	62.750124 
2331.000000	62.737107 
2330.000000	62.723302 
2329.000000	62.710976 
2328.000000	62.702202 
2327.000000	62.698149 
2326.000000	62.699294 
2325.000000	62.704920 
2324.000000	62.713646 
2323.000000	62.723565 
2322.000000	62.732744 
2321.000000	62.739610 
2320.000000	62.743258 
2319.000000	62.743735 
2318.000000	62.741518 
2317.000000	62.737679 
2316.000000	62.733435 
2315.000000	62.729811 
2314.000000	62.727546 
2313.000000	62.726998 
2312.000000	62.728238 
2311.000000	62.731075 
2310.000000	62.735295 
2309.000000	62.740516 
2308.000000	62.746262 
2307.000000	62.751984 
2306.000000	62.756729 
2305.000000	62.759375 
2304.000000	62.758398 
2303.000000	62.752485 
2302.000000	62.740826 
2301.000000	62.723255 
2300.000000	62.700462 
2299.000000	62.673854 
2298.000000	62.645673 
2297.000000	62.618303 
2296.000000	62.594151 
2295.000000	62.575292 
2294.000000	62.563157 
2293.000000	62.558221 
2292.000000	62.560009 
2291.000000	62.567400 
2290.000000	62.578511 
2289.000000	62.591147 
2288.000000	62.603092 
2287.000000	62.612485 
2286.000000	62.618041 
2285.000000	62.619328 
2284.000000	62.616729 
2283.000000	62.611317 
2282.000000	62.604665 
2281.000000	62.598395 
2280.000000	62.593889 
2279.000000	62.591886 
2278.000000	62.592506 
2277.000000	62.595033 
2276.000000	62.598323 
2275.000000	62.601017 
2274.000000	62.601852 
2273.000000	62.599849 
2272.000000	62.594485 
2271.000000	62.585568 
2270.000000	62.573313 
2269.000000	62.558341 
2268.000000	62.541341 
2267.000000	62.523436 
2266.000000	62.505936 
2265.000000	62.490439 
2264.000000	62.478375 
2263.000000	62.471103 
2262.000000	62.469601 
2261.000000	62.474393 
2260.000000	62.485337 
2259.000000	62.501573 
2258.000000	62.521386 
2257.000000	62.542557 
2256.000000	62.562680 
2255.000000	62.579298 
2254.000000	62.590217 
2253.000000	62.594056 
2252.000000	62.590456 
2251.000000	62.579965 
2250.000000	62.564086 
2249.000000	62.545037 
2248.000000	62.525200 
2247.000000	62.507009 
2246.000000	62.492465 
2245.000000	62.482762 
2244.000000	62.478351 
2243.000000	62.479066 
2242.000000	62.484335 
2241.000000	62.493538 
2240.000000	62.506008 
2239.000000	62.521409 
2238.000000	62.539172 
2237.000000	62.558388 
2236.000000	62.577438 
2235.000000	62.594223 
2234.000000	62.606000 
2233.000000	62.609863 
2232.000000	62.603425 
2231.000000	62.585496 
2230.000000	62.556385 
2229.000000	62.517952 
2228.000000	62.473678 
2227.000000	62.427783 
2226.000000	62.384629 
2225.000000	62.347888 
2224.000000	62.319946 
2223.000000	62.301683 
2222.000000	62.292623 
2221.000000	62.291359 
2220.000000	62.295842 
2219.000000	62.304139 
2218.000000	62.314486 
2217.000000	62.326073 
2216.000000	62.338161 
2215.000000	62.350630 
2214.000000	62.363457 
2213.000000	62.376856 
2212.000000	62.390947 
2211.000000	62.405943 
2210.000000	62.422037 
2209.000000	62.439298 
2208.000000	62.457704 
2207.000000	62.476825 
2206.000000	62.496018 
2205.000000	62.514376 
2204.000000	62.530684 
2203.000000	62.544012 
2202.000000	62.553739 
2201.000000	62.559890 
2200.000000	62.563061 
2199.000000	62.564158 
2198.000000	62.563967 
2197.000000	62.562990 
2196.000000	62.561106 
2195.000000	62.557530 
2194.000000	62.551188 
2193.000000	62.541270 
2192.000000	62.527489 
2191.000000	62.510800 
2190.000000	62.493252 
2189.000000	62.477564 
2188.000000	62.466764 
2187.000000	62.463521 
2186.000000	62.469148 
2185.000000	62.483215 
2184.000000	62.503457 
2183.000000	62.526345 
2182.000000	62.547731 
2181.000000	62.563729 
2180.000000	62.571644 
2179.000000	62.570333 
2178.000000	62.560629 
2177.000000	62.544727 
2176.000000	62.525844 
2175.000000	62.507295 
2174.000000	62.491917 
2173.000000	62.481307 
2172.000000	62.475800 
2171.000000	62.474513 
2170.000000	62.475633 
2169.000000	62.476706 
2168.000000	62.475323 
2167.000000	62.469267 
2166.000000	62.456846 
2165.000000	62.437009 
2164.000000	62.409567 
2163.000000	62.375187 
2162.000000	62.335443 
2161.000000	62.292838 
2160.000000	62.250208 
2159.000000	62.211012 
2158.000000	62.178540 
2157.000000	62.155771 
2156.000000	62.144660 
2155.000000	62.146067 
2154.000000	62.159323 
2153.000000	62.182426 
2152.000000	62.212109 
2151.000000	62.244415 
2150.000000	62.275147 
2149.000000	62.300634 
2148.000000	62.318181 
2147.000000	62.326240 
2146.000000	62.324500 
2145.000000	62.313628 
2144.000000	62.295126 
2143.000000	62.270879 
2142.000000	62.243199 
2141.000000	62.214326 
2140.000000	62.186813 
2139.000000	62.163186 
2138.000000	62.145924 
2137.000000	62.137174 
2136.000000	62.138342 
2135.000000	62.149786 
2134.000000	62.170720 
2133.000000	62.198925 
2132.000000	62.231302 
2131.000000	62.264227 
2130.000000	62.294363 
2129.000000	62.319135 
2128.000000	62.337231 
2127.000000	62.348794 
2126.000000	62.354969 
2125.000000	62.357234 
2124.000000	62.356948 
2123.000000	62.354946 
2122.000000	62.351131 
2121.000000	62.344670 
2120.000000	62.334442 
2119.000000	62.319540 
2118.000000	62.299513 
2117.000000	62.274622 
2116.000000	62.246155 
2115.000000	62.215995 
2114.000000	62.186217 
2113.000000	62.158799 
2112.000000	62.135267 
2111.000000	62.116909 
2110.000000	62.104296 
2109.000000	62.097597 
2108.000000	62.096381 
2107.000000	62.099862 
2106.000000	62.106776 
2105.000000	62.115693 
2104.000000	62.124538 
2103.000000	62.131500 
2102.000000	62.135314 
2101.000000	62.135672 
2100.000000	62.133026 
2099.000000	62.128639 
2098.000000	62.124300 
2097.000000	62.121891 
2096.000000	62.122702 
2095.000000	62.127327 
2094.000000	62.135529 
2093.000000	62.146592 
2092.000000	62.159633 
2091.000000	62.174248 
2090.000000	62.190508 
2089.000000	62.209343 
2088.000000	62.231850 
2087.000000	62.258791 
2086.000000	62.289810 
2085.000000	62.323284 
2084.000000	62.355732 
2083.000000	62.382817 
2082.000000	62.399554 
2081.000000	62.401795 
2080.000000	62.386727 
2079.000000	62.353563 
2078.000000	62.303900 
2077.000000	62.241530 
2076.000000	62.172126 
2075.000000	62.102413 
2074.000000	62.039232 
2073.000000	61.988592 
2072.000000	61.954879 
2071.000000	61.940264 
2070.000000	61.944293 
2069.000000	61.964225 
2068.000000	61.995720 
2067.000000	62.033510 
2066.000000	62.072420 
2065.000000	62.108063 
2064.000000	62.137365 
2063.000000	62.158846 
2062.000000	62.172269 
2061.000000	62.178230 
2060.000000	62.177443 
2059.000000	62.170147 
2058.000000	62.156152 
2057.000000	62.134981 
2056.000000	62.106275 
2055.000000	62.070465 
2054.000000	62.029170 
2053.000000	61.985254 
2052.000000	61.942505 
2051.000000	61.905217 
2050.000000	61.877059 
2049.000000	61.860775 
2048.000000	61.857342 
2047.000000	61.866188 
2046.000000	61.885309 
2045.000000	61.911582 
2044.000000	61.941242 
2043.000000	61.970567 
2042.000000	61.996555 
2041.000000	62.017059 
2040.000000	62.030887 
2039.000000	62.037801 
2038.000000	62.038540 
2037.000000	62.034606 
2036.000000	62.027931 
2035.000000	62.020778 
2034.000000	62.015128 
2033.000000	62.012600 
2032.000000	62.013912 
2031.000000	62.018895 
2030.000000	62.026429 
2029.000000	62.034749 
2028.000000	62.041783 
2027.000000	62.045693 
2026.000000	62.045359 
2025.000000	62.040376 
2024.000000	62.031316 
2023.000000	62.019467 
2022.000000	62.006711 
2021.000000	61.994791 
2020.000000	61.984992 
2019.000000	61.978149 
2018.000000	61.974167 
2017.000000	61.972379 
2016.000000	61.971688 
2015.000000	61.971020 
2014.000000	61.969852 
2013.000000	61.968469 
2012.000000	61.967730 
2011.000000	61.968755 
2010.000000	61.972784 
2009.000000	61.980748 
2008.000000	61.992549 
2007.000000	62.007188 
2006.000000	62.022995 
2005.000000	62.037920 
2004.000000	62.049937 
2003.000000	62.057685 
2002.000000	62.060713 
2001.000000	62.059521 
2000.000000	62.055468 
1999.000000	62.050056 
1998.000000	62.044811 
1997.000000	62.040734 
1996.000000	62.038183 
1995.000000	62.036609 
1994.000000	62.035393 
1993.000000	62.033677 
1992.000000	62.031078 
1991.000000	62.027454 
1990.000000	62.022995 
1989.000000	62.017989 
1988.000000	62.012648 
1987.000000	62.007093 
1986.000000	62.001180 
1985.000000	61.994647 
1984.000000	61.987233 
1983.000000	61.978793 
1982.000000	61.969494 
1981.000000	61.959719 
1980.000000	61.950063 
1979.000000	61.941289 
1978.000000	61.934041 
1977.000000	61.928629 
1976.000000	61.925053 
1975.000000	61.922907 
1974.000000	61.921596 
1973.000000	61.920166 
1972.000000	61.917805 
1971.000000	61.914110 
1970.000000	61.909079 
1969.000000	61.903214 
1968.000000	61.897444 
1967.000000	61.892867 
1966.000000	61.890578 
1965.000000	61.891245 
1964.000000	61.894869 
1963.000000	61.900377 
1962.000000	61.906242 
1961.000000	61.910510 
1960.000000	61.911559 
1959.000000	61.908674 
1958.000000	61.902260 
1957.000000	61.893868 
1956.000000	61.885738 
1955.000000	61.880254 
1954.000000	61.879229 
1953.000000	61.883306 
1952.000000	61.891841 
1951.000000	61.903023 
1950.000000	61.914396 
1949.000000	61.923241 
1948.000000	61.927294 
1947.000000	61.925148 
1946.000000	61.916518 
1945.000000	61.902379 
1944.000000	61.884188 
1943.000000	61.864185 
1942.000000	61.844635 
1941.000000	61.827826 
1940.000000	61.815714 
1939.000000	61.809587 
1938.000000	61.810278 
1937.000000	61.817574 
1936.000000	61.830520 
1935.000000	61.847066 
1934.000000	61.864495 
1933.000000	61.880016 
1932.000000	61.891269 
1931.000000	61.896777 
1930.000000	61.896157 
1929.000000	61.890363 
1928.000000	61.881136 
1927.000000	61.870574 
1926.000000	61.860609 
1925.000000	61.852359 
1924.000000	61.845922 
1923.000000	61.840581 
1922.000000	61.835193 
1921.000000	61.828732 
1920.000000	61.820673 
1919.000000	61.811423 
1918.000000	61.802172 
1917.000000	61.794590 
1916.000000	61.790394 
1915.000000	61.790704 
1914.000000	61.795663 
1913.000000	61.804294 
1912.000000	61.814761 
1911.000000	61.824798 
1910.000000	61.831998 
1909.000000	61.834406 
1908.000000	61.830663 
1907.000000	61.820411 
1906.000000	61.804199 
1905.000000	61.783242 
1904.000000	61.759376 
1903.000000	61.734533 
1902.000000	61.710667 
1901.000000	61.689424 
1900.000000	61.672043 
1899.000000	61.659145 
1898.000000	61.650753 
1897.000000	61.646389 
1896.000000	61.644983 
1895.000000	61.645388 
1894.000000	61.646294 
1893.000000	61.646842 
1892.000000	61.646604 
1891.000000	61.645770 
1890.000000	61.645007 
1889.000000	61.645317 
1888.000000	61.647725 
1887.000000	61.652946 
1886.000000	61.661148 
1885.000000	61.671900 
1884.000000	61.684083 
1883.000000	61.696243 
1882.000000	61.706686 
1881.000000	61.713981 
1880.000000	61.717247 
1879.000000	61.716389 
1878.000000	61.711955 
1877.000000	61.705231 
1876.000000	61.697769 
1875.000000	61.691045 
1874.000000	61.686158 
1873.000000	61.683559 
1872.000000	61.683154 
1871.000000	61.684179 
1870.000000	61.685609 
1869.000000	61.686348 
1868.000000	61.685633 
1867.000000	61.682939 
1866.000000	61.678147 
1865.000000	61.671304 
1864.000000	61.662769 
1863.000000	61.652731 
1862.000000	61.641573 
1861.000000	61.629295 
1860.000000	61.616253 
1859.000000	61.603021 
1858.000000	61.590385 
1857.000000	61.579227 
1856.000000	61.570525 
1855.000000	61.564898 
1854.000000	61.562538 
1853.000000	61.562943 
1852.000000	61.565375 
1851.000000	61.568808 
1850.000000	61.572337 
1849.000000	61.575365 
1848.000000	61.577725 
1847.000000	61.579751 
1846.000000	61.581897 
1845.000000	61.584687 
1844.000000	61.588406 
1843.000000	61.593079 
1842.000000	61.598396 
1841.000000	61.603784 
1840.000000	61.608576 
1839.000000	61.612272 
1838.000000	61.614513 
1837.000000	61.615180 
1836.000000	61.614274 
1835.000000	61.611866 
1834.000000	61.608028 
1833.000000	61.602711 
1832.000000	61.595916 
1831.000000	61.587548 
1830.000000	61.577820 
1829.000000	61.567187 
1828.000000	61.556315 
1827.000000	61.546039 
1826.000000	61.537241 
1825.000000	61.530566 
1824.000000	61.526393 
1823.000000	61.524581 
1822.000000	61.524462 
1821.000000	61.525058 
1820.000000	61.525011 
1819.000000	61.523032 
1818.000000	61.518096 
1817.000000	61.509585 
1816.000000	61.497426 
1815.000000	61.482048 
1814.000000	61.464285 
1813.000000	61.445403 
1812.000000	61.426711 
1811.000000	61.409330 
1810.000000	61.394500 
1809.000000	61.383128 
1808.000000	61.376023 
1807.000000	61.373424 
1806.000000	61.375308 
1805.000000	61.381220 
1804.000000	61.390209 
1803.000000	61.400890 
1802.000000	61.411666 
1801.000000	61.420893 
1800.000000	61.427211 
1799.000000	61.429858 
1798.000000	61.428928 
1797.000000	61.425232 
1796.000000	61.420416 
1795.000000	61.416435 
1794.000000	61.415147 
1793.000000	61.417770 
1792.000000	61.424541 
1791.000000	61.434650 
1790.000000	61.446309 
1789.000000	61.456966 
1788.000000	61.464047 
1787.000000	61.465430 
1786.000000	61.459827 
1785.000000	61.447167 
1784.000000	61.428475 
1783.000000	61.405420 
1782.000000	61.380100 
1781.000000	61.354446 
1780.000000	61.329984 
1779.000000	61.307930 
1778.000000	61.288714 
1777.000000	61.272764 
1776.000000	61.260390 
1775.000000	61.252117 
1774.000000	61.248683 
1773.000000	61.250925 
1772.000000	61.259269 
1771.000000	61.273813 
1770.000000	61.293864 
1769.000000	61.317968 
1768.000000	61.343884 
1767.000000	61.369180 
1766.000000	61.391639 
1765.000000	61.409592 
1764.000000	61.422109 
1763.000000	61.429286 
1762.000000	61.431908 
1761.000000	61.431336 
1760.000000	61.428856 
1759.000000	61.425614 
1758.000000	61.422276 
1757.000000	61.418986 
1756.000000	61.415386 
1755.000000	61.411094 
1754.000000	61.405682 
1753.000000	61.399054 
1752.000000	61.391353 
1751.000000	61.383080 
1750.000000	61.374926 
1749.000000	61.367464 
1748.000000	61.360931 
1747.000000	61.355066 
1746.000000	61.349129 
1745.000000	61.342215 
1744.000000	61.333322 
1743.000000	61.321711 
1742.000000	61.307024 
1741.000000	61.289572 
1740.000000	61.270117 
1739.000000	61.249709 
1738.000000	61.229538 
1737.000000	61.210536 
1736.000000	61.193585 
1735.000000	61.179161 
1734.000000	61.167597 
1733.000000	61.158847 
1732.000000	61.152648 
1731.000000	61.148524 
1730.000000	61.145687 
1729.000000	61.142969 
1728.000000	61.138725 
1727.000000	61.131334 
1726.000000	61.119174 
1725.000000	61.101675 
1724.000000	61.079359 
1723.000000	61.054277 
1722.000000	61.029696 
1721.000000	61.009788 
1720.000000	60.998487 
1719.000000	60.999011 
1718.000000	61.012625 
1717.000000	61.038470 
1716.000000	61.073589 
1715.000000	61.113452 
1714.000000	61.153030 
1713.000000	61.187672 
1712.000000	61.214327 
1711.000000	61.231637 
1710.000000	61.240410 
1709.000000	61.243033 
1708.000000	61.242794 
1707.000000	61.242961 
1706.000000	61.246085 
1705.000000	61.253523 
1704.000000	61.264872 
1703.000000	61.279058 
1702.000000	61.293768 
1701.000000	61.306738 
1700.000000	61.315584 
1699.000000	61.318826 
1698.000000	61.315870 
1697.000000	61.306977 
1696.000000	61.293172 
1695.000000	61.276221 
1694.000000	61.258006 
1693.000000	61.240410 
1692.000000	61.224985 
1691.000000	61.212897 
1690.000000	61.204600 
1689.000000	61.200046 
1688.000000	61.198592 
1687.000000	61.199164 
1686.000000	61.200451 
1685.000000	61.201214 
1684.000000	61.200022 
1683.000000	61.195850 
1682.000000	61.188077 
1681.000000	61.176776 
1680.000000	61.162328 
1679.000000	61.145710 
1678.000000	61.128211 
1677.000000	61.111521 
1676.000000	61.097264 
1675.000000	61.086988 
1674.000000	61.081528 
1673.000000	61.081314 
1672.000000	61.086058 
1671.000000	61.094903 
1670.000000	61.106562 
1669.000000	61.119580 
1668.000000	61.132431 
1667.000000	61.143994 
1666.000000	61.153507 
1665.000000	61.160588 
1664.000000	61.165261 
1663.000000	61.167597 
1662.000000	61.167597 
1661.000000	61.165094 
1660.000000	61.159801 
1659.000000	61.151432 
1658.000000	61.139702 
1657.000000	61.124682 
1656.000000	61.106944 
1655.000000	61.087608 
1654.000000	61.068224 
1653.000000	61.050581 
1652.000000	61.036443 
1651.000000	61.027193 
1650.000000	61.023831 
1649.000000	61.026668 
1648.000000	61.035323 
1647.000000	61.048746 
1646.000000	61.065602 
1645.000000	61.084151 
1644.000000	61.102867 
1643.000000	61.120176 
1642.000000	61.135029 
1641.000000	61.146640 
1640.000000	61.154651 
1639.000000	61.159181 
1638.000000	61.160540 
1637.000000	61.159348 
1636.000000	61.156105 
1635.000000	61.151266 
1634.000000	61.145114 
1633.000000	61.137676 
1632.000000	61.128759 
1631.000000	61.117935 
1630.000000	61.104989 
1629.000000	61.089801 
1628.000000	61.072397 
1627.000000	61.053252 
1626.000000	61.032962 
1625.000000	61.012625 
1624.000000	60.993409 
1623.000000	60.976672 
1622.000000	60.963606 
1621.000000	60.955166 
1620.000000	60.951757 
1619.000000	60.953187 
1618.000000	60.958719 
1617.000000	60.967040 
1616.000000	60.976433 
1615.000000	60.985136 
1614.000000	60.991573 
1613.000000	60.994815 
1612.000000	60.994648 
1611.000000	60.991668 
1610.000000	60.986948 
1609.000000	60.981988 
1608.000000	60.978293 
1607.000000	60.976934 
1606.000000	60.978484 
1605.000000	60.982990 
1604.000000	60.990118 
1603.000000	60.999321 
1602.000000	61.009883 
1601.000000	61.020994 
1600.000000	61.031770 
1599.000000	61.041355 
1598.000000	61.048960 
1597.000000	61.054062 
1596.000000	61.056637 
1595.000000	61.057162 
1594.000000	61.056542 
1593.000000	61.055970 
1592.000000	61.056518 
1591.000000	61.059165 
1590.000000	61.064195 
1589.000000	61.071395 
1588.000000	61.079716 
1587.000000	61.087632 
1586.000000	61.093044 
1585.000000	61.093902 
1584.000000	61.088299 
1583.000000	61.074852 
1582.000000	61.053133 
1581.000000	61.023759 
1580.000000	60.988426 
1579.000000	60.949587 
1578.000000	60.910344 
1577.000000	60.873770 
1576.000000	60.842490 
1575.000000	60.818028 
1574.000000	60.800671 
1573.000000	60.789346 
1572.000000	60.781955 
1571.000000	60.775947 
1570.000000	60.769009 
1569.000000	60.759854 
1568.000000	60.748219 
1567.000000	60.734939 
1566.000000	60.721349 
1565.000000	60.708880 
1564.000000	60.698342 
1563.000000	60.689806 
1562.000000	60.682582 
1561.000000	60.675525 
1560.000000	60.667753 
1559.000000	60.658788 
1558.000000	60.648918 
1557.000000	60.639119 
1556.000000	60.630774 
1555.000000	60.625100 
1554.000000	60.622644 
1553.000000	60.623002 
1552.000000	60.624861 
1551.000000	60.626363 
1550.000000	60.625696 
1549.000000	60.621547 
1548.000000	60.613727 
1547.000000	60.602974 
1546.000000	60.591006 
1545.000000	60.579895 
1544.000000	60.571718 
1543.000000	60.567760 
1542.000000	60.568499 
1541.000000	60.573577 
1540.000000	60.581994 
1539.000000	60.592389 
1538.000000	60.603761 
1537.000000	60.615324 
1536.000000	60.626983 
1535.000000	60.639095 
1534.000000	60.652160 
1533.000000	60.666680 
1532.000000	60.682702 
1531.000000	60.699748 
1530.000000	60.716772 
1529.000000	60.732269 
1528.000000	60.744571 
1527.000000	60.752034 
1526.000000	60.753512 
1525.000000	60.748386 
1524.000000	60.736727 
1523.000000	60.719227 
1522.000000	60.697221 
1521.000000	60.672378 
1520.000000	60.646700 
1519.000000	60.622167 
1518.000000	60.600614 
1517.000000	60.583424 
1516.000000	60.571360 
1515.000000	60.564613 
1514.000000	60.562872 
1513.000000	60.565352 
1512.000000	60.570979 
1511.000000	60.578775 
1510.000000	60.587739 
1509.000000	60.597205 
1508.000000	60.606360 
1507.000000	60.614681 
1506.000000	60.621404 
1505.000000	60.625815 
1504.000000	60.627365 
1503.000000	60.625696 
1502.000000	60.620689 
1501.000000	60.612463 
1500.000000	60.601425 
1499.000000	60.588026 
1498.000000	60.572695 
1497.000000	60.555911 
1496.000000	60.538148 
1495.000000	60.520029 
1494.000000	60.502457 
1493.000000	60.486721 
1492.000000	60.474419 
1491.000000	60.467410 
1490.000000	60.467219 
1489.000000	60.474753 
1488.000000	60.490083 
1487.000000	60.511851 
1486.000000	60.537624 
1485.000000	60.564088 
1484.000000	60.587716 
1483.000000	60.605359 
1482.000000	60.614776 
1481.000000	60.614919 
1480.000000	60.606288 
1479.000000	60.590600 
1478.000000	60.570454 
1477.000000	60.548925 
1476.000000	60.528993 
1475.000000	60.513067 
1474.000000	60.502648 
1473.000000	60.498261 
1472.000000	60.499405 
1471.000000	60.504841 
1470.000000	60.512804 
1469.000000	60.521411 
1468.000000	60.528922 
1467.000000	60.534024 
1466.000000	60.535550 
1465.000000	60.533022 
1464.000000	60.526204 
1463.000000	60.515356 
1462.000000	60.501050 
1461.000000	60.484409 
1460.000000	60.466718 
1459.000000	60.449838 
1458.000000	60.435771 
1457.000000	60.426616 
1456.000000	60.424113 
1455.000000	60.429382 
1454.000000	60.442829 
1453.000000	60.463738 
1452.000000	60.490083 
1451.000000	60.519075 
1450.000000	60.547351 
1449.000000	60.571599 
1448.000000	60.589098 
1447.000000	60.598087 
1446.000000	60.598134 
1445.000000	60.590267 
1444.000000	60.576772 
1443.000000	60.560750 
1442.000000	60.545420 
1441.000000	60.533690 
1440.000000	60.527276 
1439.000000	60.526466 
1438.000000	60.530066 
1437.000000	60.535526 
1436.000000	60.539722 
1435.000000	60.539937 
1434.000000	60.533976 
1433.000000	60.521245 
1432.000000	60.502290 
1431.000000	60.478639 
1430.000000	60.452294 
1429.000000	60.425114 
1428.000000	60.398435 
1427.000000	60.372638 
1426.000000	60.347628 
1425.000000	60.323214 
1424.000000	60.299491 
1423.000000	60.277199 
1422.000000	60.257935 
1421.000000	60.243606 
1420.000000	60.236358 
1419.000000	60.237741 
1418.000000	60.248112 
1417.000000	60.266304 
1416.000000	60.289978 
1415.000000	60.315990 
1414.000000	60.340881 
1413.000000	60.361504 
1412.000000	60.375475 
1411.000000	60.381650 
1410.000000	60.379791 
1409.000000	60.370874 
1408.000000	60.356354 
1407.000000	60.338401 
1406.000000	60.319280 
1405.000000	60.301494 
1404.000000	60.287570 
1403.000000	60.279679 
1402.000000	60.279631 
1401.000000	60.288214 
1400.000000	60.305190 
1399.000000	60.328912 
1398.000000	60.356712 
1397.000000	60.384988 
1396.000000	60.409760 
1395.000000	60.427546 
1394.000000	60.436105 
1393.000000	60.434508 
1392.000000	60.423278 
1391.000000	60.404229 
1390.000000	60.380101 
1389.000000	60.353755 
1388.000000	60.327410 
1387.000000	60.302662 
1386.000000	60.280299 
1385.000000	60.260248 
1384.000000	60.242080 
1383.000000	60.225272 
1382.000000	60.209488 
1381.000000	60.194873 
1380.000000	60.181879 
1379.000000	60.170960 
1378.000000	60.162615 
1377.000000	60.156798 
1376.000000	60.153269 
1375.000000	60.151219 
1374.000000	60.149693 
1373.000000	60.147643 
1372.000000	60.144543 
1371.000000	60.140085 
1370.000000	60.134983 
1369.000000	60.130262 
1368.000000	60.127615 
1367.000000	60.128617 
1366.000000	60.134649 
1365.000000	60.146546 
1364.000000	60.164332 
1363.000000	60.187125 
1362.000000	60.213351 
1361.000000	60.240960 
1360.000000	60.267734 
1359.000000	60.291647 
1358.000000	60.311174 
1357.000000	60.325288 
1356.000000	60.333776 
1355.000000	60.336899 
1354.000000	60.335254 
1353.000000	60.329246 
1352.000000	60.319399 
1351.000000	60.305833 
1350.000000	60.288572 
1349.000000	60.267543 
1348.000000	60.243082 
1347.000000	60.216140 
1346.000000	60.188102 
1345.000000	60.161042 
1344.000000	60.137271 
1343.000000	60.119080 
1342.000000	60.108304 
1341.000000	60.105705 
1340.000000	60.110831 
1339.000000	60.121870 
1338.000000	60.136008 
1337.000000	60.149717 
1336.000000	60.159516 
1335.000000	60.162734 
1334.000000	60.158157 
1333.000000	60.145783 
1332.000000	60.127115 
1331.000000	60.104560 
1330.000000	60.081005 
1329.000000	60.058784 
1328.000000	60.039639 
1327.000000	60.024571 
1326.000000	60.014104 
1325.000000	60.008192 
1324.000000	60.006952 
1323.000000	60.010528 
1322.000000	60.019302 
1321.000000	60.033464 
1320.000000	60.052895 
1319.000000	60.076618 
1318.000000	60.102868 
1317.000000	60.128974 
1316.000000	60.152173 
1315.000000	60.169863 
1314.000000	60.180401 
1313.000000	60.183405 
1312.000000	60.179591 
1311.000000	60.170555 
1310.000000	60.158348 
1309.000000	60.144805 
1308.000000	60.131216 
1307.000000	60.117959 
1306.000000	60.104751 
1305.000000	60.090708 
1304.000000	60.074973 
1303.000000	60.056734 
1302.000000	60.035753 
1301.000000	60.012531 
1300.000000	59.988117 
1299.000000	59.964132 
1298.000000	59.942150 
1297.000000	59.923505 
1296.000000	59.908866 
1295.000000	59.897994 
1294.000000	59.890103 
1293.000000	59.883880 
1292.000000	59.877872 
1291.000000	59.870958 
1290.000000	59.862589 
1289.000000	59.853053 
1288.000000	59.843301 
1287.000000	59.834814 
1286.000000	59.828853 
1285.000000	59.826397 
1284.000000	59.827685 
1283.000000	59.832191 
1282.000000	59.838628 
1281.000000	59.845590 
1280.000000	59.851765 
1279.000000	59.856438 
1278.000000	59.859514 
1277.000000	59.861350 
1276.000000	59.862446 
1275.000000	59.863114 
1274.000000	59.863424 
1273.000000	59.862971 
1272.000000	59.861207 
1271.000000	59.857702 
1270.000000	59.852552 
1269.000000	59.846735 
1268.000000	59.841895 
1267.000000	59.840154 
1266.000000	59.843611 
1265.000000	59.853434 
1264.000000	59.869480 
1263.000000	59.890103 
1262.000000	59.912419 
1261.000000	59.932875 
1260.000000	59.947991 
1259.000000	59.955239 
1258.000000	59.953522 
1257.000000	59.943389 
1256.000000	59.926700 
1255.000000	59.906268 
1254.000000	59.885144 
1253.000000	59.865999 
1252.000000	59.850573 
1251.000000	59.839487 
1250.000000	59.832215 
1249.000000	59.827375 
1248.000000	59.823131 
1247.000000	59.817767 
1246.000000	59.810113 
1245.000000	59.800100 
1244.000000	59.788346 
1243.000000	59.776353 
1242.000000	59.765648 
1241.000000	59.757804 
1240.000000	59.753775 
1239.000000	59.753751 
1238.000000	59.757184 
1237.000000	59.762835 
1236.000000	59.769129 
1235.000000	59.774446 
1234.000000	59.777498 
1233.000000	59.777402 
1232.000000	59.773850 
1231.000000	59.766864 
1230.000000	59.756708 
1229.000000	59.743905 
1228.000000	59.728980 
1227.000000	59.712743 
1226.000000	59.696102 
1225.000000	59.680247 
1224.000000	59.666180 
1223.000000	59.654355 
1222.000000	59.644794 
1221.000000	59.636783 
1220.000000	59.629487 
1219.000000	59.621882 
1218.000000	59.613537 
1217.000000	59.604692 
1216.000000	59.596395 
1215.000000	59.590315 
1214.000000	59.588050 
1213.000000	59.590673 
1212.000000	59.598159 
1211.000000	59.609127 
1210.000000	59.621262 
1209.000000	59.631705 
1208.000000	59.638118 
1207.000000	59.639334 
1206.000000	59.635925 
1205.000000	59.629869 
1204.000000	59.623932 
1203.000000	59.620881 
1202.000000	59.622597 
1201.000000	59.629273 
1200.000000	59.640073 
1199.000000	59.653234 
1198.000000	59.667038 
1197.000000	59.679961 
1196.000000	59.691238 
1195.000000	59.700632 
1194.000000	59.708094 
1193.000000	59.713482 
1192.000000	59.716010 
1191.000000	59.714436 
1190.000000	59.707379 
1189.000000	59.693837 
1188.000000	59.673833 
1187.000000	59.648537 
1186.000000	59.620738 
1185.000000	59.593892 
1184.000000	59.571623 
1183.000000	59.556722 
1182.000000	59.550690 
1181.000000	59.553241 
1180.000000	59.562563 
1179.000000	59.575748 
1178.000000	59.589433 
1177.000000	59.600186 
1176.000000	59.605073 
1175.000000	59.602093 
1174.000000	59.590291 
1173.000000	59.570074 
1172.000000	59.542965 
1171.000000	59.511590 
1170.000000	59.479188 
1169.000000	59.449434 
1168.000000	59.425616 
1167.000000	59.409999 
1166.000000	59.403371 
1165.000000	59.405016 
1164.000000	59.413123 
1163.000000	59.424638 
1162.000000	59.436941 
1161.000000	59.448051 
1160.000000	59.457373 
1159.000000	59.465789 
1158.000000	59.475016 
1157.000000	59.486532 
1156.000000	59.501481 
1155.000000	59.519410 
1154.000000	59.539127 
1153.000000	59.558892 
1152.000000	59.577107 
1151.000000	59.593105 
1150.000000	59.607219 
1149.000000	59.620928 
1148.000000	59.635782 
1147.000000	59.652566 
1146.000000	59.670782 
1145.000000	59.688401 
1144.000000	59.702014 
1143.000000	59.707665 
1142.000000	59.701609 
1141.000000	59.681630 
1140.000000	59.647917 
1139.000000	59.603190 
1138.000000	59.551858 
1137.000000	59.499835 
1136.000000	59.453058 
1135.000000	59.416699 
1134.000000	59.394025 
1133.000000	59.386301 
1132.000000	59.393239 
1131.000000	59.412407 
1130.000000	59.440207 
1129.000000	59.471940 
1128.000000	59.502649 
1127.000000	59.526920 
1126.000000	59.539461 
1125.000000	59.535479 
1124.000000	59.511375 
1123.000000	59.465479 
1122.000000	59.398889 
1121.000000	59.315419 
1120.000000	59.221458 
1119.000000	59.125804 
1118.000000	59.038400 
1117.000000	58.968329 
1116.000000	58.922791 
1115.000000	58.905696 
1114.000000	58.917570 
1113.000000	58.954811 
1112.000000	59.011340 
1111.000000	59.079146 
1110.000000	59.150815 
1109.000000	59.219622 
1108.000000	59.282040 
1107.000000	59.336400 
1106.000000	59.383988 
1105.000000	59.427618 
1104.000000	59.470820 
1103.000000	59.516406 
1102.000000	59.565281 
1101.000000	59.616708 
1100.000000	59.667205 
1099.000000	59.712147 
1098.000000	59.745430 
1097.000000	59.761476 
1096.000000	59.755587 
1095.000000	59.725403 
1094.000000	59.671044 
1093.000000	59.595489 
1092.000000	59.503793 
1091.000000	59.402608 
1090.000000	59.299063 
1089.000000	59.200263 
1088.000000	59.111881 
1087.000000	59.038519 
1086.000000	58.982944 
1085.000000	58.947443 
1084.000000	58.933210 
1083.000000	58.941483 
1082.000000	58.972740 
1081.000000	59.026741 
1080.000000	59.101510 
1079.000000	59.192633 
1078.000000	59.292745 
1077.000000	59.391784 
1076.000000	59.478640 
1075.000000	59.542131 
1074.000000	59.573078 
1073.000000	59.565997 
1072.000000	59.520912 
1071.000000	59.443092 
1070.000000	59.342718 
1069.000000	59.232831 
1068.000000	59.127092 
1067.000000	59.037303 
1066.000000	58.971524 
1065.000000	58.932518 
1064.000000	58.917856 
1063.000000	58.921217 
1062.000000	58.934497 
1061.000000	58.949112 
1060.000000	58.959197 
1059.000000	58.961868 
1058.000000	58.959031 
1057.000000	58.955836 
1056.000000	58.959436 
1055.000000	58.976888 
1054.000000	59.011936 
1053.000000	59.064006 
1052.000000	59.126877 
1051.000000	59.190225 
1050.000000	59.241485 
1049.000000	59.269475 
1048.000000	59.266877 
1047.000000	59.232378 
1046.000000	59.170866 
1045.000000	59.092354 
1044.000000	59.009480 
1043.000000	58.934545 
1042.000000	58.877849 
1041.000000	58.845734 
1040.000000	58.840513 
1039.000000	58.860492 
1038.000000	58.900833 
1037.000000	58.954906 
1036.000000	59.015226 
1035.000000	59.074831 
1034.000000	59.127593 
1033.000000	59.169006 
1032.000000	59.195685 
1031.000000	59.205961 
1030.000000	59.199285 
1029.000000	59.176516 
1028.000000	59.139919 
1027.000000	59.092998 
1026.000000	59.041023 
1025.000000	58.989906 
1024.000000	58.946204 
1023.000000	58.915233 
1022.000000	58.900570 
1021.000000	58.903098 
1020.000000	58.920907 
1019.000000	58.949637 
1018.000000	58.983349 
1017.000000	59.015893 
1016.000000	59.041976 
1015.000000	59.057903 
1014.000000	59.061884 
1013.000000	59.053969 
1012.000000	59.035587 
1011.000000	59.008312 
1010.000000	58.973503 
1009.000000	58.932137 
1008.000000	58.885073 
1007.000000	58.833432 
1006.000000	58.779001 
1005.000000	58.724522 
1004.000000	58.673381 
1003.000000	58.629202 
1002.000000	58.595108 
1001.000000	58.572173 
1000.000000	58.560109 
999.000000	 58.556985 
998.000000	 58.560776 
997.000000	 58.568811 
996.000000	 58.580303 
995.000000	 58.595490 
994.000000	 58.616733 
993.000000	 58.646821 
992.000000	 58.688640 
991.000000	 58.743381 
990.000000	 58.810019 
989.000000	 58.884716 
988.000000	 58.961033 
987.000000	 59.031081 
986.000000	 59.086942 
985.000000	 59.122323 
984.000000	 59.133601 
983.000000	 59.120559 
982.000000	 59.086728 
981.000000	 59.038257 
980.000000	 58.982634 
979.000000	 58.926749 
978.000000	 58.876538 
977.000000	 58.834958 
976.000000	 58.802151 
975.000000	 58.775377 
974.000000	 58.750700 
973.000000	 58.723878 
972.000000	 58.691692 
971.000000	 58.653068 
970.000000	 58.608937 
969.000000	 58.562350 
968.000000	 58.517408 
967.000000	 58.478188 
966.000000	 58.447194 
965.000000	 58.425426 
964.000000	 58.411860 
963.000000	 58.404564 
962.000000	 58.400845 
961.000000	 58.399128 
960.000000	 58.399629 
959.000000	 58.404421 
958.000000	 58.416771 
957.000000	 58.440232 
956.000000	 58.477449 
955.000000	 58.528804 
954.000000	 58.591675 
953.000000	 58.660864 
952.000000	 58.729267 
951.000000	 58.789706 
950.000000	 58.835697 
949.000000	 58.862948 
948.000000	 58.869171 
947.000000	 58.855462 
946.000000	 58.824563 
945.000000	 58.780193 
944.000000	 58.726024 
943.000000	 58.665919 
942.000000	 58.602929 
941.000000	 58.539938 
940.000000	 58.479499 
939.000000	 58.424472 
938.000000	 58.377623 
937.000000	 58.341550 
936.000000	 58.318066 
935.000000	 58.307552 
934.000000	 58.308982 
933.000000	 58.319807 
932.000000	 58.336448 
931.000000	 58.355021 
930.000000	 58.372354 
929.000000	 58.386611 
928.000000	 58.397483 
927.000000	 58.406066 
926.000000	 58.414459 
925.000000	 58.425259 
924.000000	 58.440327 
923.000000	 58.460593 
922.000000	 58.486199 
921.000000	 58.516120 
920.000000	 58.548712 
919.000000	 58.581495 
918.000000	 58.612442 
917.000000	 58.639383 
916.000000	 58.660459 
915.000000	 58.673930 
914.000000	 58.678317 
913.000000	 58.672809 
912.000000	 58.657622 
911.000000	 58.633804 
910.000000	 58.603453 
909.000000	 58.569312 
908.000000	 58.534836 
907.000000	 58.502936 
906.000000	 58.475589 
905.000000	 58.453607 
904.000000	 58.436822 
903.000000	 58.424425 
902.000000	 58.415460 
901.000000	 58.409404 
900.000000	 58.406352 
899.000000	 58.406710 
898.000000	 58.410954 
897.000000	 58.418583 
896.000000	 58.428025 
895.000000	 58.436560 
894.000000	 58.441019 
893.000000	 58.438086 
892.000000	 58.425760 
891.000000	 58.404254 
890.000000	 58.375978 
889.000000	 58.345031 
888.000000	 58.316326 
887.000000	 58.294272 
886.000000	 58.281683 
885.000000	 58.278942 
884.000000	 58.284544 
883.000000	 58.295726 
882.000000	 58.309721 
881.000000	 58.324694 
880.000000	 58.340215 
879.000000	 58.357048 
878.000000	 58.376502 
877.000000	 58.399462 
876.000000	 58.425521 
875.000000	 58.452582 
874.000000	 58.477091 
873.000000	 58.494901 
872.000000	 58.502531 
871.000000	 58.497858 
870.000000	 58.481097 
869.000000	 58.454298 
868.000000	 58.420443 
867.000000	 58.382463 
866.000000	 58.342576 
865.000000	 58.302021 
864.000000	 58.261156 
863.000000	 58.220219 
862.000000	 58.180069 
861.000000	 58.142471 
860.000000	 58.110094 
859.000000	 58.086085 
858.000000	 58.072853 
857.000000	 58.072066 
856.000000	 58.083605 
855.000000	 58.105850 
854.000000	 58.135533 
853.000000	 58.168292 
852.000000	 58.199357 
851.000000	 58.224058 
850.000000	 58.238458 
849.000000	 58.240056 
848.000000	 58.228158 
847.000000	 58.203601 
846.000000	 58.168745 
845.000000	 58.127641 
844.000000	 58.085465 
843.000000	 58.047914 
842.000000	 58.020186 
841.000000	 58.006262 
840.000000	 58.007979 
839.000000	 58.024740 
838.000000	 58.053445 
837.000000	 58.089017 
836.000000	 58.125138 
835.000000	 58.155798 
834.000000	 58.175873 
833.000000	 58.181977 
832.000000	 58.173036 
831.000000	 58.150315 
830.000000	 58.117008 
829.000000	 58.077359 
828.000000	 58.036065 
827.000000	 57.997322 
826.000000	 57.963585 
825.000000	 57.935357 
824.000000	 57.910990 
823.000000	 57.887530 
822.000000	 57.861375 
821.000000	 57.829666 
820.000000	 57.790780 
819.000000	 57.745361 
818.000000	 57.696127 
817.000000	 57.647824 
816.000000	 57.605767 
815.000000	 57.575273 
814.000000	 57.560420 
813.000000	 57.563328 
812.000000	 57.583642 
811.000000	 57.618212 
810.000000	 57.661700 
809.000000	 57.707262 
808.000000	 57.747602 
807.000000	 57.776927 
806.000000	 57.791519 
805.000000	 57.791066 
804.000000	 57.777976 
803.000000	 57.757306 
802.000000	 57.735586 
801.000000	 57.719087 
800.000000	 57.712459 
799.000000	 57.717823 
798.000000	 57.734537 
797.000000	 57.759380 
796.000000	 57.787489 
795.000000	 57.813525 
794.000000	 57.832670 
793.000000	 57.841825 
792.000000	 57.839918 
791.000000	 57.827758 
790.000000	 57.807636 
789.000000	 57.782459 
788.000000	 57.755184 
787.000000	 57.728338 
786.000000	 57.703757 
785.000000	 57.682681 
784.000000	 57.665491 
783.000000	 57.651829 
782.000000	 57.640838 
781.000000	 57.631683 
780.000000	 57.623362 
779.000000	 57.615017 
778.000000	 57.605600 
777.000000	 57.594108 
776.000000	 57.579398 
775.000000	 57.560467 
774.000000	 57.536077 
773.000000	 57.505130 
772.000000	 57.467055 
771.000000	 57.422256 
770.000000	 57.372331 
769.000000	 57.319927 
768.000000	 57.268834 
767.000000	 57.222962 
766.000000	 57.185649 
765.000000	 57.158637 
764.000000	 57.141399 
763.000000	 57.131218 
762.000000	 57.123303 
761.000000	 57.112836 
760.000000	 57.096052 
759.000000	 57.072281 
758.000000	 57.043933 
757.000000	 57.016658 
756.000000	 56.997609 
755.000000	 56.993651 
754.000000	 57.009243 
753.000000	 57.044792 
752.000000	 57.096099 
751.000000	 57.154846 
750.000000	 57.210826 
749.000000	 57.253575 
748.000000	 57.275152 
747.000000	 57.271456 
746.000000	 57.243275 
745.000000	 57.195234 
744.000000	 57.134699 
743.000000	 57.069921 
742.000000	 57.008481 
741.000000	 56.955814 
740.000000	 56.914663 
739.000000	 56.885814 
738.000000	 56.868243 
737.000000	 56.859683 
736.000000	 56.857252 
735.000000	 56.857967 
734.000000	 56.859421 
733.000000	 56.859111 
732.000000	 56.855487 
731.000000	 56.847357 
730.000000	 56.834745 
729.000000	 56.818628 
728.000000	 56.801128 
727.000000	 56.784820 
726.000000	 56.772184 
725.000000	 56.765103 
724.000000	 56.764268 
723.000000	 56.768751 
722.000000	 56.776595 
721.000000	 56.785368 
720.000000	 56.793045 
719.000000	 56.798458 
718.000000	 56.802034 
717.000000	 56.805849 
716.000000	 56.812834 
715.000000	 56.825828 
714.000000	 56.847071 
713.000000	 56.877279 
712.000000	 56.915712 
711.000000	 56.959962 
710.000000	 57.006525 
709.000000	 57.051396 
708.000000	 57.090854 
707.000000	 57.121658 
706.000000	 57.141661 
705.000000	 57.149100 
704.000000	 57.142972 
703.000000	 57.122564 
702.000000	 57.087826 
701.000000	 57.039213 
700.000000	 56.978583 
699.000000	 56.908559 
698.000000	 56.833004 
697.000000	 56.756401 
696.000000	 56.683802 
695.000000	 56.619787 
694.000000	 56.567740 
693.000000	 56.529307 
692.000000	 56.504178 
691.000000	 56.490254 
690.000000	 56.484150 
689.000000	 56.481695 
688.000000	 56.478881 
687.000000	 56.472849 
686.000000	 56.462073 
685.000000	 56.446218 
684.000000	 56.425690 
683.000000	 56.401276 
682.000000	 56.373453 
681.000000	 56.341767 
680.000000	 56.305408 
679.000000	 56.263422 
678.000000	 56.216096 
677.000000	 56.164669 
676.000000	 56.112504 
675.000000	 56.064629 
674.000000	 56.027364 
673.000000	 56.006169 
672.000000	 56.005191 
671.000000	 56.025981 
670.000000	 56.066727 
669.000000	 56.122422 
668.000000	 56.185460 
667.000000	 56.246614 
666.000000	 56.297254 
665.000000	 56.331348 
664.000000	 56.345701 
663.000000	 56.340026 
662.000000	 56.317281 
661.000000	 56.282520 
660.000000	 56.240916 
659.000000	 56.196737 
658.000000	 56.152558 
657.000000	 56.109261 
656.000000	 56.066799 
655.000000	 56.024956 
654.000000	 55.984306 
653.000000	 55.946230 
652.000000	 55.913066 
651.000000	 55.886602 
650.000000	 55.867409 
649.000000	 55.853796 
648.000000	 55.841541 
647.000000	 55.824971 
646.000000	 55.797648 
645.000000	 55.755686 
644.000000	 55.698418 
643.000000	 55.631089 
642.000000	 55.563044 
641.000000	 55.507612 
640.000000	 55.478572 
639.000000	 55.487108 
638.000000	 55.538415 
637.000000	 55.630159 
636.000000	 55.752182 
635.000000	 55.888175 
634.000000	 56.018900 
633.000000	 56.125664 
632.000000	 56.194162 
631.000000	 56.217265 
630.000000	 56.195902 
629.000000	 56.138134 
628.000000	 56.056666 
627.000000	 55.966114 
626.000000	 55.879187 
625.000000	 55.804800 
624.000000	 55.746078 
623.000000	 55.702114 
622.000000	 55.668377 
621.000000	 55.639505 
620.000000	 55.610895 
619.000000	 55.580496 
618.000000	 55.549025 
617.000000	 55.519008 
616.000000	 55.494022 
615.000000	 55.476307 
614.000000	 55.466961 
613.000000	 55.464649 
612.000000	 55.467319 
611.000000	 55.472183 
610.000000	 55.478405 
609.000000	 55.487322 
608.000000	 55.502653 
607.000000	 55.529260 
606.000000	 55.570483 
605.000000	 55.626249 
604.000000	 55.691671 
603.000000	 55.757498 
602.000000	 55.812501 
601.000000	 55.845713 
600.000000	 55.849623 
599.000000	 55.821752 
598.000000	 55.765748 
597.000000	 55.690360 
596.000000	 55.607366 
595.000000	 55.529093 
594.000000	 55.466079 
593.000000	 55.424547 
592.000000	 55.406665 
591.000000	 55.409240 
590.000000	 55.425739 
589.000000	 55.446958 
588.000000	 55.463290 
587.000000	 55.467152 
586.000000	 55.454301 
585.000000	 55.425190 
584.000000	 55.384039 
583.000000	 55.339026 
582.000000	 55.299997 
581.000000	 55.276989 
580.000000	 55.277514 
579.000000	 55.305004 
578.000000	 55.357527 
577.000000	 55.428218 
576.000000	 55.506324 
575.000000	 55.579757 
574.000000	 55.637288 
573.000000	 55.670976 
572.000000	 55.677127 
571.000000	 55.656695 
570.000000	 55.613660 
569.000000	 55.554151 
568.000000	 55.483961 
567.000000	 55.408382 
566.000000	 55.330157 
565.000000	 55.250978 
564.000000	 55.170226 
563.000000	 55.086660 
562.000000	 54.999184 
561.000000	 54.907965 
560.000000	 54.815483 
559.000000	 54.726052 
558.000000	 54.645943 
557.000000	 54.581761 
556.000000	 54.539608 
555.000000	 54.523348 
554.000000	 54.533743 
553.000000	 54.567837 
552.000000	 54.619789 
551.000000	 54.681992 
550.000000	 54.746270 
549.000000	 54.805374 
548.000000	 54.854416 
547.000000	 54.891085 
546.000000	 54.915332 
545.000000	 54.928040 
544.000000	 54.930496 
543.000000	 54.922795 
542.000000	 54.904079 
541.000000	 54.872608 
540.000000	 54.827284 
539.000000	 54.768395 
538.000000	 54.699087 
537.000000	 54.624891 
536.000000	 54.553246 
535.000000	 54.492187 
534.000000	 54.448843 
533.000000	 54.427742 
532.000000	 54.429721 
531.000000	 54.452109 
530.000000	 54.489421 
529.000000	 54.534292 
528.000000	 54.578542 
527.000000	 54.614448 
526.000000	 54.635691 
525.000000	 54.637789 
524.000000	 54.618692 
523.000000	 54.578185 
522.000000	 54.518270 
521.000000	 54.443264 
520.000000	 54.359698 
519.000000	 54.275488 
518.000000	 54.199147 
517.000000	 54.139065 
516.000000	 54.101276 
515.000000	 54.088497 
514.000000	 54.098987 
513.000000	 54.126739 
512.000000	 54.162883 
511.000000	 54.196691 
510.000000	 54.219460 
509.000000	 54.225945 
508.000000	 54.216456 
507.000000	 54.196166 
506.000000	 54.173326 
505.000000	 54.156517 
504.000000	 54.151582 
503.000000	 54.159545 
502.000000	 54.175806 
501.000000	 54.191446 
500.000000	 54.195356 
499.000000	 54.177498 
498.000000	 54.131388 
497.000000	 54.056334 
496.000000	 53.957319 
495.000000	 53.844404 
494.000000	 53.731131 
493.000000	 53.631496 
492.000000	 53.557062 
491.000000	 53.514194 
490.000000	 53.503108 
489.000000	 53.517794 
488.000000	 53.547263 
487.000000	 53.578519 
486.000000	 53.599619 
485.000000	 53.602385 
484.000000	 53.583335 
483.000000	 53.544354 
482.000000	 53.490781 
481.000000	 53.430032 
480.000000	 53.368854 
479.000000	 53.312206 
478.000000	 53.262805 
477.000000	 53.220558 
476.000000	 53.183865 
475.000000	 53.149914 
474.000000	 53.116011 
473.000000	 53.080177 
472.000000	 53.041863 
471.000000	 53.001141 
470.000000	 52.958345 
469.000000	 52.913594 
468.000000	 52.866435 
467.000000	 52.815985 
466.000000	 52.760720 
465.000000	 52.698898 
464.000000	 52.628636 
463.000000	 52.548408 
462.000000	 52.458262 
461.000000	 52.359461 
460.000000	 52.255654 
459.000000	 52.152967 
458.000000	 52.059078 
457.000000	 51.981139 
456.000000	 51.924490 
455.000000	 51.891803 
454.000000	 51.881361 
453.000000	 51.885771 
452.000000	 51.896119 
451.000000	 51.903939 
450.000000	 51.904106 
449.000000	 51.895093 
448.000000	 51.881456 
447.000000	 51.871562 
446.000000	 51.875734 
445.000000	 51.902341 
444.000000	 51.952600 
443.000000	 52.019190 
442.000000	 52.086949 
441.000000	 52.136278 
440.000000	 52.149915 
439.000000	 52.116370 
438.000000	 52.034640 
437.000000	 51.912379 
436.000000	 51.763033 
435.000000	 51.601290 
434.000000	 51.440572 
433.000000	 51.287937 
432.000000	 51.144266 
431.000000	 51.002669 
430.000000	 50.858640 
429.000000	 50.703454 
428.000000	 50.524640 
427.000000	 50.312352 
426.000000	 50.067687 
425.000000	 49.794769 
424.000000	 49.490737 
423.000000	 49.167752 
422.000000	 48.856067 
421.000000	 48.590159 
420.000000	 48.397207 
419.000000	 48.308444 
418.000000	 48.350930 
417.000000	 48.522233 
416.000000	 48.789453 
415.000000	 49.092030 
414.000000	 49.357509 
413.000000	 49.524641 
412.000000	 49.560236 
411.000000	 49.463868 
410.000000	 49.270319 
409.000000	 49.040937 
408.000000	 48.850202 
407.000000	 48.744249 
406.000000	 48.757004 
405.000000	 48.903965 
404.000000	 49.201059 
403.000000	 49.638676 
402.000000	 50.237965 
401.000000	 51.036214 
400.000000	 52.113056 
399.000000	 53.535580 
398.000000	 55.396771 
397.000000	 57.763600 
396.000000	 60.689377 
395.000000	 64.182424 
394.000000	 68.179917 
393.000000	 72.525811 
392.000000	 77.003240 
391.000000	 81.352877 
390.000000	 85.263562 
389.000000	 88.410091 
388.000000	 90.517568 
387.000000	 91.394996 
386.000000	 90.994763 
385.000000	 89.395856 
384.000000	 86.826395 
383.000000	 83.581852 
382.000000	 79.991102 
381.000000	 76.317286 
380.000000	 72.848868 
379.000000	 69.729399 
378.000000	 66.924715 
377.000000	 64.276051 
376.000000	 61.569380 
375.000000	 58.649396 
374.000000	 55.461835 
373.000000	 52.159070 
372.000000	 49.058079 
371.000000	 46.607017 
370.000000	 45.204186 

