PE IR       SPECTRUM    SPECTRUM    ASCII       PEDS        1.60        
  -1
C-99E0~1.ASC
17/03/27
15:12:29.00
17/03/27
15:12:29.00
tln
$C-4040-8_t0009$<tbV0>[-7.8,-13.0,8.0,0.0,27,1,0]
370.000000
64









2002,4.07    
MIRTGS : RIGHTBACK : INTERNAL 2
MIR : ON : INTERNAL 2
OPTKBR

0.200000
8
8.000000
FILLER
RATIO
SPECTRUM
UNLOCKED 256

DOUBLE
64
COMBINED
1
0
0


1.000000
RATIO


1
0
TRUE
51149
0
LEFT NOT FITTED RIGHT NOT FITTED 0
NONE
NONE
15600
12.000000
4.427000
51148
TRUE
1 0 8 72 0 0 0 0 

15798.010000






#HDR
-1
-1
#GR
CM-1
%T
0.00002384185791015625
0.0
5000.000000
-1.000000
4631
8
80.561900
22.225761
#DATA
5000.000000	63.954734 
4999.000000	63.940834 
4998.000000	63.932633 
4997.000000	63.934278 
4996.000000	63.949751 
4995.000000	63.982391 
4994.000000	64.032793 
4993.000000	64.097166 
4992.000000	64.168643 
4991.000000	64.239168 
4990.000000	64.300036 
4989.000000	64.344048 
4988.000000	64.366459 
4987.000000	64.365863 
4986.000000	64.344167 
4985.000000	64.306235 
4984.000000	64.257574 
4983.000000	64.202952 
4982.000000	64.145922 
4981.000000	64.088463 
4980.000000	64.030051 
4979.000000	63.969349 
4978.000000	63.905167 
4977.000000	63.838982 
4976.000000	63.776922 
4975.000000	63.728642 
4974.000000	63.705539 
4973.000000	63.716769 
4972.000000	63.766527 
4971.000000	63.850164 
4970.000000	63.954067 
4969.000000	64.056801 
4968.000000	64.132761 
4967.000000	64.158868 
4966.000000	64.120244 
4965.000000	64.014959 
4964.000000	63.854670 
4963.000000	63.663315 
4962.000000	63.471770 
4961.000000	63.310861 
4960.000000	63.204050 
4959.000000	63.163518 
4958.000000	63.187694 
4957.000000	63.264608 
4956.000000	63.375186 
4955.000000	63.498830 
4954.000000	63.617014 
4953.000000	63.713622 
4952.000000	63.776254 
4951.000000	63.794612 
4950.000000	63.761830 
4949.000000	63.673019 
4948.000000	63.528704 
4947.000000	63.336563 
4946.000000	63.112807 
4945.000000	62.880349 
4944.000000	62.667107 
4943.000000	62.502169 
4942.000000	62.409996 
4941.000000	62.404942 
4940.000000	62.488818 
4939.000000	62.649750 
4938.000000	62.864971 
4937.000000	63.104891 
4936.000000	63.339066 
4935.000000	63.540959 
4934.000000	63.692808 
4933.000000	63.786625 
4932.000000	63.824677 
4931.000000	63.816452 
4930.000000	63.776731 
4929.000000	63.721752 
4928.000000	63.667392 
4927.000000	63.626527 
4926.000000	63.608312 
4925.000000	63.617348 
4924.000000	63.653898 
4923.000000	63.715147 
4922.000000	63.796234 
4921.000000	63.892531 
4920.000000	63.998937 
4919.000000	64.112830 
4918.000000	64.233183 
4917.000000	64.361023 
4916.000000	64.498090 
4915.000000	64.644718 
4914.000000	64.797854 
4913.000000	64.950561 
4912.000000	65.093755 
4911.000000	65.216422 
4910.000000	65.308928 
4909.000000	65.363979 
4908.000000	65.380263 
4907.000000	65.359878 
4906.000000	65.308785 
4905.000000	65.233135 
4904.000000	65.138363 
4903.000000	65.028882 
4902.000000	64.908838 
4901.000000	64.782190 
4900.000000	64.653658 
4899.000000	64.530110 
4898.000000	64.419841 
4897.000000	64.330935 
4896.000000	64.269900 
4895.000000	64.239215 
4894.000000	64.237189 
4893.000000	64.256405 
4892.000000	64.287328 
4891.000000	64.319992 
4890.000000	64.347696 
4889.000000	64.367127 
4888.000000	64.380502 
4887.000000	64.393782 
4886.000000	64.414906 
4885.000000	64.449477 
4884.000000	64.500045 
4883.000000	64.564752 
4882.000000	64.637255 
4881.000000	64.708304 
4880.000000	64.767408 
4879.000000	64.806127 
4878.000000	64.818549 
4877.000000	64.803194 
4876.000000	64.761924 
4875.000000	64.699506 
4874.000000	64.622759 
4873.000000	64.539098 
4872.000000	64.455318 
4871.000000	64.376711 
4870.000000	64.308190 
4869.000000	64.253354 
4868.000000	64.213895 
4867.000000	64.189720 
4866.000000	64.179539 
4865.000000	64.180898 
4864.000000	64.190220 
4863.000000	64.203739 
4862.000000	64.217543 
4861.000000	64.228630 
4860.000000	64.234805 
4859.000000	64.235019 
4858.000000	64.228320 
4857.000000	64.214801 
4856.000000	64.195561 
4855.000000	64.172577 
4854.000000	64.148283 
4853.000000	64.125704 
4852.000000	64.108204 
4851.000000	64.098834 
4850.000000	64.099931 
4849.000000	64.112877 
4848.000000	64.137935 
4847.000000	64.174032 
4846.000000	64.219307 
4845.000000	64.271640 
4844.000000	64.329242 
4843.000000	64.391231 
4842.000000	64.457201 
4841.000000	64.526724 
4840.000000	64.598178 
4839.000000	64.669346 
4838.000000	64.735674 
4837.000000	64.791202 
4836.000000	64.828348 
4835.000000	64.840602 
4834.000000	64.822649 
4833.000000	64.772725 
4832.000000	64.692783 
4831.000000	64.589142 
4830.000000	64.471578 
4829.000000	64.352297 
4828.000000	64.243531 
4827.000000	64.155626 
4826.000000	64.095330 
4825.000000	64.065074 
4824.000000	64.062619 
4823.000000	64.082002 
4822.000000	64.114809 
4821.000000	64.152073 
4820.000000	64.186072 
4819.000000	64.211964 
4818.000000	64.227914 
4817.000000	64.235186 
4816.000000	64.237380 
4815.000000	64.239096 
4814.000000	64.244556 
4813.000000	64.256191 
4812.000000	64.274573 
4811.000000	64.297652 
4810.000000	64.322042 
4809.000000	64.343142 
4808.000000	64.356827 
4807.000000	64.359474 
4806.000000	64.349460 
4805.000000	64.326333 
4804.000000	64.290714 
4803.000000	64.244127 
4802.000000	64.188599 
4801.000000	64.126801 
4800.000000	64.061689 
4799.000000	63.997101 
4798.000000	63.937592 
4797.000000	63.888788 
4796.000000	63.856744 
4795.000000	63.847327 
4794.000000	63.864779 
4793.000000	63.911008 
4792.000000	63.984608 
4791.000000	64.080548 
4790.000000	64.191055 
4789.000000	64.306473 
4788.000000	64.417266 
4787.000000	64.515781 
4786.000000	64.597177 
4785.000000	64.660215 
4784.000000	64.705944 
4783.000000	64.736962 
4782.000000	64.755129 
4781.000000	64.761590 
4780.000000	64.754986 
4779.000000	64.733052 
4778.000000	64.692831 
4777.000000	64.633464 
4776.000000	64.556336 
4775.000000	64.466500 
4774.000000	64.371418 
4773.000000	64.280366 
4772.000000	64.201760 
4771.000000	64.141678 
4770.000000	64.102578 
4769.000000	64.083075 
4768.000000	64.079284 
4767.000000	64.086222 
4766.000000	64.099669 
4765.000000	64.117288 
4764.000000	64.139199 
4763.000000	64.167165 
4762.000000	64.203047 
4761.000000	64.247322 
4760.000000	64.298415 
4759.000000	64.352440 
4758.000000	64.403605 
4757.000000	64.445662 
4756.000000	64.474296 
4755.000000	64.487719 
4754.000000	64.487791 
4753.000000	64.479064 
4752.000000	64.467859 
4751.000000	64.460015 
4750.000000	64.460039 
4749.000000	64.468860 
4748.000000	64.483952 
4747.000000	64.499831 
4746.000000	64.510512 
4745.000000	64.510321 
4744.000000	64.495801 
4743.000000	64.466452 
4742.000000	64.425086 
4741.000000	64.376497 
4740.000000	64.326524 
4739.000000	64.280509 
4738.000000	64.242219 
4737.000000	64.213228 
4736.000000	64.193081 
4735.000000	64.180016 
4734.000000	64.172005 
4733.000000	64.167714 
4732.000000	64.167237 
4731.000000	64.171314 
4730.000000	64.181971 
4729.000000	64.201068 
4728.000000	64.230775 
4727.000000	64.271044 
4726.000000	64.321351 
4725.000000	64.380335 
4724.000000	64.445924 
4723.000000	64.515852 
4722.000000	64.587235 
4721.000000	64.657115 
4720.000000	64.721632 
4719.000000	64.776659 
4718.000000	64.817357 
4717.000000	64.838814 
4716.000000	64.837050 
4715.000000	64.810490 
4714.000000	64.760375 
4713.000000	64.691162 
4712.000000	64.610767 
4711.000000	64.529418 
4710.000000	64.458012 
4709.000000	64.405846 
4708.000000	64.379525 
4707.000000	64.380884 
4706.000000	64.406919 
4705.000000	64.449763 
4704.000000	64.498353 
4703.000000	64.540362 
4702.000000	64.565181 
4701.000000	64.565634 
4700.000000	64.538574 
4699.000000	64.486169 
4698.000000	64.414548 
4697.000000	64.333224 
4696.000000	64.252185 
4695.000000	64.181280 
4694.000000	64.128327 
4693.000000	64.098525 
4692.000000	64.093732 
4691.000000	64.113211 
4690.000000	64.154338 
4689.000000	64.213109 
4688.000000	64.284753 
4687.000000	64.364624 
4686.000000	64.448332 
4685.000000	64.532065 
4684.000000	64.612054 
4683.000000	64.684844 
4682.000000	64.746308 
4681.000000	64.792799 
4680.000000	64.820361 
4679.000000	64.825153 
4678.000000	64.803910 
4677.000000	64.755654 
4676.000000	64.681839 
4675.000000	64.587140 
4674.000000	64.478993 
4673.000000	64.367532 
4672.000000	64.263558 
4671.000000	64.177107 
4670.000000	64.115452 
4669.000000	64.081668 
4668.000000	64.074659 
4667.000000	64.089226 
4666.000000	64.118218 
4665.000000	64.153575 
4664.000000	64.188742 
4663.000000	64.219307 
4662.000000	64.244174 
4661.000000	64.264559 
4660.000000	64.283442 
4659.000000	64.303684 
4658.000000	64.327335 
4657.000000	64.354348 
4656.000000	64.383339 
4655.000000	64.411783 
4654.000000	64.436793 
4653.000000	64.455842 
4652.000000	64.467763 
4651.000000	64.472603 
4650.000000	64.471554 
4649.000000	64.466381 
4648.000000	64.459109 
4647.000000	64.451336 
4646.000000	64.444470 
4645.000000	64.438867 
4644.000000	64.434695 
4643.000000	64.431428 
4642.000000	64.428639 
4641.000000	64.425730 
4640.000000	64.421963 
4639.000000	64.417147 
4638.000000	64.411425 
4637.000000	64.405918 
4636.000000	64.402341 
4635.000000	64.402794 
4634.000000	64.409136 
4633.000000	64.422369 
4632.000000	64.441895 
4631.000000	64.465093 
4630.000000	64.487862 
4629.000000	64.505362 
4628.000000	64.513349 
4627.000000	64.509630 
4626.000000	64.494562 
4625.000000	64.471530 
4624.000000	64.445781 
4623.000000	64.423131 
4622.000000	64.407968 
4621.000000	64.402222 
4620.000000	64.404010 
4619.000000	64.408326 
4618.000000	64.407968 
4617.000000	64.396071 
4616.000000	64.367723 
4615.000000	64.321756 
4614.000000	64.261102 
4613.000000	64.192128 
4612.000000	64.123272 
4611.000000	64.062666 
4610.000000	64.016723 
4609.000000	63.988304 
4608.000000	63.977289 
4607.000000	63.980889 
4606.000000	63.995170 
4605.000000	64.016532 
4604.000000	64.042472 
4603.000000	64.071941 
4602.000000	64.105153 
4601.000000	64.142727 
4600.000000	64.183998 
4599.000000	64.226484 
4598.000000	64.265894 
4597.000000	64.296531 
4596.000000	64.312911 
4595.000000	64.310526 
4594.000000	64.287376 
4593.000000	64.244103 
4592.000000	64.184832 
4591.000000	64.115715 
4590.000000	64.043474 
4589.000000	63.975000 
4588.000000	63.915872 
4587.000000	63.871002 
4586.000000	63.843941 
4585.000000	63.837409 
4584.000000	63.853096 
4583.000000	63.891243 
4582.000000	63.950324 
4581.000000	64.025974 
4580.000000	64.110779 
4579.000000	64.194464 
4578.000000	64.265108 
4577.000000	64.311122 
4576.000000	64.323568 
4575.000000	64.297890 
4574.000000	64.235258 
4573.000000	64.142727 
4572.000000	64.032530 
4571.000000	63.920187 
4570.000000	63.821864 
4569.000000	63.751363 
4568.000000	63.717770 
4567.000000	63.724589 
4566.000000	63.769173 
4565.000000	63.843727 
4564.000000	63.936948 
4563.000000	64.036607 
4562.000000	64.130854 
4561.000000	64.210033 
4560.000000	64.267134 
4559.000000	64.297771 
4558.000000	64.300537 
4557.000000	64.276170 
4556.000000	64.227914 
4555.000000	64.160823 
4554.000000	64.081954 
4553.000000	63.999962 
4552.000000	63.924336 
4551.000000	63.864088 
4550.000000	63.826084 
4549.000000	63.813757 
4548.000000	63.825726 
4547.000000	63.855910 
4546.000000	63.894152 
4545.000000	63.928699 
4544.000000	63.948535 
4543.000000	63.946247 
4542.000000	63.919711 
4541.000000	63.872289 
4540.000000	63.810920 
4539.000000	63.744759 
4538.000000	63.682842 
4537.000000	63.632130 
4536.000000	63.596153 
4535.000000	63.574671 
4534.000000	63.565063 
4533.000000	63.562941 
4532.000000	63.563847 
4531.000000	63.564038 
4530.000000	63.560700 
4529.000000	63.553714 
4528.000000	63.545036 
4527.000000	63.538074 
4526.000000	63.536095 
4525.000000	63.541626 
4524.000000	63.555598 
4523.000000	63.576602 
4522.000000	63.601517 
4521.000000	63.626551 
4520.000000	63.648629 
4519.000000	63.666439 
4518.000000	63.681125 
4517.000000	63.695287 
4516.000000	63.713145 
4515.000000	63.738369 
4514.000000	63.773941 
4513.000000	63.821482 
4512.000000	63.880205 
4511.000000	63.948202 
4510.000000	64.021015 
4509.000000	64.092397 
4508.000000	64.154958 
4507.000000	64.201974 
4506.000000	64.227604 
4505.000000	64.228820 
4504.000000	64.204716 
4503.000000	64.157700 
4502.000000	64.091277 
4501.000000	64.009666 
4500.000000	63.916611 
4499.000000	63.815641 
4498.000000	63.709783 
4497.000000	63.602161 
4496.000000	63.496875 
4495.000000	63.399314 
4494.000000	63.316035 
4493.000000	63.253521 
4492.000000	63.216853 
4491.000000	63.208341 
4490.000000	63.224387 
4489.000000	63.257956 
4488.000000	63.298249 
4487.000000	63.336300 
4486.000000	63.367080 
4485.000000	63.391518 
4484.000000	63.418650 
4483.000000	63.459134 
4482.000000	63.518571 
4481.000000	63.596463 
4480.000000	63.685250 
4479.000000	63.771581 
4478.000000	63.838696 
4477.000000	63.873624 
4476.000000	63.872814 
4475.000000	63.841080 
4474.000000	63.791227 
4473.000000	63.738775 
4472.000000	63.697361 
4471.000000	63.676261 
4470.000000	63.678860 
4469.000000	63.701510 
4468.000000	63.735866 
4467.000000	63.777184 
4466.000000	63.825488 
4465.000000	63.883280 
4464.000000	63.955473 
4463.000000	64.044189 
4462.000000	64.151763 
4461.000000	64.271759 
4460.000000	64.401984 
4459.000000	64.544057 
4458.000000	64.712262 
4457.000000	64.929366 
4456.000000	65.225291 
4455.000000	65.628743 
4454.000000	66.155910 
4453.000000	66.800999 
4452.000000	67.532014 
4451.000000	68.295383 
4450.000000	69.021177 
4449.000000	69.640111 
4448.000000	70.090818 
4447.000000	70.335578 
4446.000000	70.358443 
4445.000000	70.169830 
4444.000000	69.789862 
4443.000000	69.244265 
4442.000000	68.556642 
4441.000000	67.748999 
4440.000000	66.847157 
4439.000000	65.884733 
4438.000000	64.911699 
4437.000000	63.989496 
4436.000000	63.183259 
4435.000000	62.550330 
4434.000000	62.122535 
4433.000000	61.904382 
4432.000000	61.868691 
4431.000000	61.967086 
4430.000000	62.135076 
4429.000000	62.311530 
4428.000000	62.443423 
4427.000000	62.501502 
4426.000000	62.473940 
4425.000000	62.374210 
4424.000000	62.226629 
4423.000000	62.066316 
4422.000000	61.928558 
4421.000000	61.839747 
4420.000000	61.808681 
4419.000000	61.834430 
4418.000000	61.911177 
4417.000000	62.023234 
4416.000000	62.149930 
4415.000000	62.271976 
4414.000000	62.375164 
4413.000000	62.452960 
4412.000000	62.505984 
4411.000000	62.539505 
4410.000000	62.559890 
4409.000000	62.568569 
4408.000000	62.563800 
4407.000000	62.539458 
4406.000000	62.492537 
4405.000000	62.429189 
4404.000000	62.365674 
4403.000000	62.325978 
4402.000000	62.338733 
4401.000000	62.422490 
4400.000000	62.595176 
4399.000000	62.849617 
4398.000000	63.192749 
4397.000000	63.635230 
4396.000000	64.219117 
4395.000000	64.999651 
4394.000000	66.050958 
4393.000000	67.440199 
4392.000000	69.196557 
4391.000000	71.287202 
4390.000000	73.592686 
4389.000000	75.914359 
4388.000000	78.000187 
4387.000000	79.591584 
4386.000000	80.482697 
4385.000000	80.561900 
4384.000000	79.851293 
4383.000000	78.489875 
4382.000000	76.707530 
4381.000000	74.760699 
4380.000000	72.888207 
4379.000000	71.253299 
4378.000000	69.937348 
4377.000000	68.927907 
4376.000000	68.163728 
4375.000000	67.552185 
4374.000000	67.014956 
4373.000000	66.504096 
4372.000000	66.003513 
4371.000000	65.534973 
4370.000000	65.126609 
4369.000000	64.811205 
4368.000000	64.589953 
4367.000000	64.453768 
4366.000000	64.378118 
4365.000000	64.337992 
4364.000000	64.313244 
4363.000000	64.297533 
4362.000000	64.298868 
4361.000000	64.324617 
4360.000000	64.375805 
4359.000000	64.447975 
4358.000000	64.529752 
4357.000000	64.602041 
4356.000000	64.644002 
4355.000000	64.643907 
4354.000000	64.600038 
4353.000000	64.520001 
4352.000000	64.419412 
4351.000000	64.314222 
4350.000000	64.219498 
4349.000000	64.151144 
4348.000000	64.118242 
4347.000000	64.117217 
4346.000000	64.138078 
4345.000000	64.173579 
4344.000000	64.214158 
4343.000000	64.249873 
4342.000000	64.271855 
4341.000000	64.273548 
4340.000000	64.250087 
4339.000000	64.197444 
4338.000000	64.116239 
4337.000000	64.012026 
4336.000000	63.894653 
4335.000000	63.776779 
4334.000000	63.673114 
4333.000000	63.597488 
4332.000000	63.560700 
4331.000000	63.568019 
4330.000000	63.618159 
4329.000000	63.702845 
4328.000000	63.808155 
4327.000000	63.916707 
4326.000000	64.010834 
4325.000000	64.075589 
4324.000000	64.100909 
4323.000000	64.083337 
4322.000000	64.025497 
4321.000000	63.935565 
4320.000000	63.824605 
4319.000000	63.704800 
4318.000000	63.588356 
4317.000000	63.484668 
4316.000000	63.400006 
4315.000000	63.336658 
4314.000000	63.294482 
4313.000000	63.270568 
4312.000000	63.260746 
4311.000000	63.260054 
4310.000000	63.263916 
4309.000000	63.268709 
4308.000000	63.271880 
4307.000000	63.272476 
4306.000000	63.270711 
4305.000000	63.267469 
4304.000000	63.264083 
4303.000000	63.262009 
4302.000000	63.262867 
4301.000000	63.267803 
4300.000000	63.277935 
4299.000000	63.294148 
4298.000000	63.317227 
4297.000000	63.347578 
4296.000000	63.385057 
4295.000000	63.428163 
4294.000000	63.474535 
4293.000000	63.521289 
4292.000000	63.565278 
4291.000000	63.603401 
4290.000000	63.633561 
4289.000000	63.655114 
4288.000000	63.669180 
4287.000000	63.678765 
4286.000000	63.687753 
4285.000000	63.699746 
4284.000000	63.717484 
4283.000000	63.742256 
4282.000000	63.773202 
4281.000000	63.807725 
4280.000000	63.842082 
4279.000000	63.872504 
4278.000000	63.896036 
4277.000000	63.911342 
4276.000000	63.918757 
4275.000000	63.920187 
4274.000000	63.918471 
4273.000000	63.916325 
4272.000000	63.915824 
4271.000000	63.917040 
4270.000000	63.918423 
4269.000000	63.916611 
4268.000000	63.907885 
4267.000000	63.888859 
4266.000000	63.857984 
4265.000000	63.816070 
4264.000000	63.766288 
4263.000000	63.713598 
4262.000000	63.663744 
4261.000000	63.622045 
4260.000000	63.592076 
4259.000000	63.575625 
4258.000000	63.572621 
4257.000000	63.581562 
4256.000000	63.599753 
4255.000000	63.624358 
4254.000000	63.652849 
4253.000000	63.682866 
4252.000000	63.712263 
4251.000000	63.739085 
4250.000000	63.761782 
4249.000000	63.778924 
4248.000000	63.789582 
4247.000000	63.794136 
4246.000000	63.793921 
4245.000000	63.791441 
4244.000000	63.789486 
4243.000000	63.790416 
4242.000000	63.795852 
4241.000000	63.806247 
4240.000000	63.821005 
4239.000000	63.838982 
4238.000000	63.858890 
4237.000000	63.880276 
4236.000000	63.902974 
4235.000000	63.927006 
4234.000000	63.951778 
4233.000000	63.975834 
4232.000000	63.996410 
4231.000000	64.009737 
4230.000000	64.011979 
4229.000000	64.000630 
4228.000000	63.975119 
4227.000000	63.937473 
4226.000000	63.892340 
4225.000000	63.845944 
4224.000000	63.804674 
4223.000000	63.773655 
4222.000000	63.755083 
4221.000000	63.748025 
4220.000000	63.749289 
4219.000000	63.754749 
4218.000000	63.760352 
4217.000000	63.763856 
4216.000000	63.765478 
4215.000000	63.768124 
4214.000000	63.775372 
4213.000000	63.791036 
4212.000000	63.817501 
4211.000000	63.854885 
4210.000000	63.900566 
4209.000000	63.949346 
4208.000000	63.994669 
4207.000000	64.030075 
4206.000000	64.050865 
4205.000000	64.055442 
4204.000000	64.045929 
4203.000000	64.027285 
4202.000000	64.005923 
4201.000000	63.987851 
4200.000000	63.977169 
4199.000000	63.974690 
4198.000000	63.977789 
4197.000000	63.981628 
4196.000000	63.980412 
4195.000000	63.969588 
4194.000000	63.946747 
4193.000000	63.911843 
4192.000000	63.867068 
4191.000000	63.816308 
4190.000000	63.763833 
4189.000000	63.712215 
4188.000000	63.663053 
4187.000000	63.616728 
4186.000000	63.573932 
4185.000000	63.536286 
4184.000000	63.506507 
4183.000000	63.488960 
4182.000000	63.487315 
4181.000000	63.503217 
4180.000000	63.534879 
4179.000000	63.576269 
4178.000000	63.618469 
4177.000000	63.651371 
4176.000000	63.665890 
4175.000000	63.656377 
4174.000000	63.621282 
4173.000000	63.563871 
4172.000000	63.490676 
4171.000000	63.410615 
4170.000000	63.333225 
4169.000000	63.267755 
4168.000000	63.221907 
4167.000000	63.201594 
4166.000000	63.210844 
4165.000000	63.251590 
4164.000000	63.323402 
4163.000000	63.423705 
4162.000000	63.546895 
4161.000000	63.685417 
4160.000000	63.829517 
4159.000000	63.968992 
4158.000000	64.093899 
4157.000000	64.196491 
4156.000000	64.272522 
4155.000000	64.320850 
4154.000000	64.343667 
4153.000000	64.344859 
4152.000000	64.329981 
4151.000000	64.303898 
4150.000000	64.270734 
4149.000000	64.233088 
4148.000000	64.192771 
4147.000000	64.150547 
4146.000000	64.106965 
4145.000000	64.062380 
4144.000000	64.017748 
4143.000000	63.974189 
4142.000000	63.933515 
4141.000000	63.897395 
4140.000000	63.867783 
4139.000000	63.846492 
4138.000000	63.835358 
4137.000000	63.835525 
4136.000000	63.847756 
4135.000000	63.871550 
4134.000000	63.905501 
4133.000000	63.946342 
4132.000000	63.990259 
4131.000000	64.033484 
4130.000000	64.072942 
4129.000000	64.106106 
4128.000000	64.131855 
4127.000000	64.150524 
4126.000000	64.163303 
4125.000000	64.171528 
4124.000000	64.176583 
4123.000000	64.179515 
4122.000000	64.180898 
4121.000000	64.181041 
4120.000000	64.179801 
4119.000000	64.176797 
4118.000000	64.171648 
4117.000000	64.164113 
4116.000000	64.154005 
4115.000000	64.141225 
4114.000000	64.126038 
4113.000000	64.108967 
4112.000000	64.090633 
4111.000000	64.071726 
4110.000000	64.053106 
4109.000000	64.035487 
4108.000000	64.019155 
4107.000000	64.003968 
4106.000000	63.989281 
4105.000000	63.974308 
4104.000000	63.958239 
4103.000000	63.941144 
4102.000000	63.923406 
4101.000000	63.906884 
4100.000000	63.894438 
4099.000000	63.889455 
4098.000000	63.894820 
4097.000000	63.912057 
4096.000000	63.940882 
4095.000000	63.978457 
4094.000000	64.019918 
4093.000000	64.059138 
4092.000000	64.090061 
4091.000000	64.108252 
4090.000000	64.112067 
4089.000000	64.102697 
4088.000000	64.084029 
4087.000000	64.061903 
4086.000000	64.042758 
4085.000000	64.032316 
4084.000000	64.034199 
4083.000000	64.049434 
4082.000000	64.076137 
4081.000000	64.110398 
4080.000000	64.146852 
4079.000000	64.180183 
4078.000000	64.205622 
4077.000000	64.219999 
4076.000000	64.222049 
4075.000000	64.212393 
4074.000000	64.193367 
4073.000000	64.168024 
4072.000000	64.139914 
4071.000000	64.112377 
4070.000000	64.088225 
4069.000000	64.069509 
4068.000000	64.057755 
4067.000000	64.054250 
4066.000000	64.060568 
4065.000000	64.078354 
4064.000000	64.109182 
4063.000000	64.153695 
4062.000000	64.211106 
4061.000000	64.278101 
4060.000000	64.348697 
4059.000000	64.414334 
4058.000000	64.465403 
4057.000000	64.492821 
4056.000000	64.490151 
4055.000000	64.455461 
4054.000000	64.392042 
4053.000000	64.308261 
4052.000000	64.216446 
4051.000000	64.130377 
4050.000000	64.062404 
4049.000000	64.021134 
4048.000000	64.009833 
4047.000000	64.026427 
4046.000000	64.064526 
4045.000000	64.115381 
4044.000000	64.169859 
4043.000000	64.220595 
4042.000000	64.262962 
4041.000000	64.295244 
4040.000000	64.317870 
4039.000000	64.332365 
4038.000000	64.339971 
4037.000000	64.341235 
4036.000000	64.335751 
4035.000000	64.322710 
4034.000000	64.301586 
4033.000000	64.273118 
4032.000000	64.239716 
4031.000000	64.205336 
4030.000000	64.175105 
4029.000000	64.153861 
4028.000000	64.145421 
4027.000000	64.151930 
4026.000000	64.173150 
4025.000000	64.206671 
4024.000000	64.248204 
4023.000000	64.292526 
4022.000000	64.334058 
4021.000000	64.367961 
4020.000000	64.390635 
4019.000000	64.399862 
4018.000000	64.395284 
4017.000000	64.378380 
4016.000000	64.352250 
4015.000000	64.321231 
4014.000000	64.290118 
4013.000000	64.263367 
4012.000000	64.244794 
4011.000000	64.236974 
4010.000000	64.240407 
4009.000000	64.253449 
4008.000000	64.272928 
4007.000000	64.294505 
4006.000000	64.313745 
4005.000000	64.326810 
4004.000000	64.331221 
4003.000000	64.326143 
4002.000000	64.312648 
4001.000000	64.292931 
4000.000000	64.269828 
3999.000000	64.246010 
3998.000000	64.223861 
3997.000000	64.204645 
3996.000000	64.188790 
3995.000000	64.175629 
3994.000000	64.164543 
3993.000000	64.154291 
3992.000000	64.143776 
3991.000000	64.131712 
3990.000000	64.116764 
3989.000000	64.097738 
3988.000000	64.073634 
3987.000000	64.043784 
3986.000000	64.008140 
3985.000000	63.967299 
3984.000000	63.922762 
3983.000000	63.876700 
3982.000000	63.831853 
3981.000000	63.790965 
3980.000000	63.756513 
3979.000000	63.730144 
3978.000000	63.712811 
3977.000000	63.704252 
3976.000000	63.703799 
3975.000000	63.710069 
3974.000000	63.722372 
3973.000000	63.740444 
3972.000000	63.765144 
3971.000000	63.797497 
3970.000000	63.838791 
3969.000000	63.889789 
3968.000000	63.949966 
3967.000000	64.017033 
3966.000000	64.086699 
3965.000000	64.153194 
3964.000000	64.210009 
3963.000000	64.251399 
3962.000000	64.273118 
3961.000000	64.273738 
3960.000000	64.254665 
3959.000000	64.220309 
3958.000000	64.176678 
3957.000000	64.130401 
3956.000000	64.087557 
3955.000000	64.052796 
3954.000000	64.029026 
3953.000000	64.017343 
3952.000000	64.017701 
3951.000000	64.028787 
3950.000000	64.048600 
3949.000000	64.074230 
3948.000000	64.102077 
3947.000000	64.127898 
3946.000000	64.146757 
3945.000000	64.154076 
3944.000000	64.145779 
3943.000000	64.120006 
3942.000000	64.077210 
3941.000000	64.020991 
3940.000000	63.957262 
3939.000000	63.893508 
3938.000000	63.837409 
3937.000000	63.795328 
3936.000000	63.771080 
3935.000000	63.765501 
3934.000000	63.776659 
3933.000000	63.800430 
3932.000000	63.831639 
3931.000000	63.865041 
3930.000000	63.896179 
3929.000000	63.921904 
3928.000000	63.940310 
3927.000000	63.950586 
3926.000000	63.952779 
3925.000000	63.947701 
3924.000000	63.936471 
3923.000000	63.920426 
3922.000000	63.900923 
3921.000000	63.879776 
3920.000000	63.858842 
3919.000000	63.840103 
3918.000000	63.825416 
3917.000000	63.816046 
3916.000000	63.812828 
3915.000000	63.815736 
3914.000000	63.824677 
3913.000000	63.838911 
3912.000000	63.858079 
3911.000000	63.882112 
3910.000000	63.911437 
3909.000000	63.946413 
3908.000000	63.987064 
3907.000000	64.032506 
3906.000000	64.080500 
3905.000000	64.127850 
3904.000000	64.170265 
3903.000000	64.203357 
3902.000000	64.223599 
3901.000000	64.229178 
3900.000000	64.220905 
3899.000000	64.201998 
3898.000000	64.177703 
3897.000000	64.153695 
3896.000000	64.135146 
3895.000000	64.125132 
3894.000000	64.124345 
3893.000000	64.130949 
3892.000000	64.141535 
3891.000000	64.152145 
3890.000000	64.159727 
3889.000000	64.162468 
3888.000000	64.160013 
3887.000000	64.152979 
3886.000000	64.142704 
3885.000000	64.130473 
3884.000000	64.116811 
3883.000000	64.101743 
3882.000000	64.084744 
3881.000000	64.065814 
3880.000000	64.045763 
3879.000000	64.026284 
3878.000000	64.009618 
3877.000000	63.998031 
3876.000000	63.993167 
3875.000000	63.995242 
3874.000000	64.002776 
3873.000000	64.013171 
3872.000000	64.023542 
3871.000000	64.030957 
3870.000000	64.033484 
3869.000000	64.030218 
3868.000000	64.021897 
3867.000000	64.009833 
3866.000000	63.996744 
3865.000000	63.985896 
3864.000000	63.981604 
3863.000000	63.987827 
3862.000000	64.007902 
3861.000000	64.044642 
3860.000000	64.098286 
3859.000000	64.166641 
3858.000000	64.244270 
3857.000000	64.323472 
3856.000000	64.395165 
3855.000000	64.450383 
3854.000000	64.482474 
3853.000000	64.488434 
3852.000000	64.469790 
3851.000000	64.432454 
3850.000000	64.384746 
3849.000000	64.335370 
3848.000000	64.291644 
3847.000000	64.257788 
3846.000000	64.234709 
3845.000000	64.220237 
3844.000000	64.210796 
3843.000000	64.202165 
3842.000000	64.190697 
3841.000000	64.173507 
3840.000000	64.148950 
3839.000000	64.116120 
3838.000000	64.074373 
3837.000000	64.023232 
3836.000000	63.962388 
3835.000000	63.892149 
3834.000000	63.813424 
3833.000000	63.728475 
3832.000000	63.640999 
3831.000000	63.556218 
3830.000000	63.479971 
3829.000000	63.418292 
3828.000000	63.375520 
3827.000000	63.354873 
3826.000000	63.357400 
3825.000000	63.381671 
3824.000000	63.423609 
3823.000000	63.477468 
3822.000000	63.536500 
3821.000000	63.593673 
3820.000000	63.642764 
3819.000000	63.679480 
3818.000000	63.702178 
3817.000000	63.712215 
3816.000000	63.713717 
3815.000000	63.712263 
3814.000000	63.713908 
3813.000000	63.724327 
3812.000000	63.747286 
3811.000000	63.784360 
3810.000000	63.834404 
3809.000000	63.894748 
3808.000000	63.960790 
3807.000000	64.027523 
3806.000000	64.089322 
3805.000000	64.141798 
3804.000000	64.180922 
3803.000000	64.203095 
3802.000000	64.205527 
3801.000000	64.187145 
3800.000000	64.147973 
3799.000000	64.089655 
3798.000000	64.015650 
3797.000000	63.931655 
3796.000000	63.844156 
3795.000000	63.760137 
3794.000000	63.685750 
3793.000000	63.625574 
3792.000000	63.582086 
3791.000000	63.555622 
3790.000000	63.544178 
3789.000000	63.544487 
3788.000000	63.552713 
3787.000000	63.565707 
3786.000000	63.580536 
3785.000000	63.595628 
3784.000000	63.609981 
3783.000000	63.623809 
3782.000000	63.637065 
3781.000000	63.650655 
3780.000000	63.665556 
3779.000000	63.683366 
3778.000000	63.705635 
3777.000000	63.733410 
3776.000000	63.767266 
3775.000000	63.806319 
3774.000000	63.848423 
3773.000000	63.890099 
3772.000000	63.927340 
3771.000000	63.956260 
3770.000000	63.974118 
3769.000000	63.979625 
3768.000000	63.973188 
3767.000000	63.957285 
3766.000000	63.935685 
3765.000000	63.912725 
3764.000000	63.892364 
3763.000000	63.878035 
3762.000000	63.871955 
3761.000000	63.875246 
3760.000000	63.887476 
3759.000000	63.907384 
3758.000000	63.932538 
3757.000000	63.959670 
3756.000000	63.984990 
3755.000000	64.004278 
3754.000000	64.014315 
3753.000000	64.013290 
3752.000000	64.001584 
3751.000000	63.981437 
3750.000000	63.956832 
3749.000000	63.932347 
3748.000000	63.912320 
3747.000000	63.899564 
3746.000000	63.895368 
3745.000000	63.899374 
3744.000000	63.910079 
3743.000000	63.925409 
3742.000000	63.943648 
3741.000000	63.963675 
3740.000000	63.984727 
3739.000000	64.006018 
3738.000000	64.026689 
3737.000000	64.045476 
3736.000000	64.060282 
3735.000000	64.068722 
3734.000000	64.068889 
3733.000000	64.059901 
3732.000000	64.042496 
3731.000000	64.019083 
3730.000000	63.993453 
3729.000000	63.969540 
3728.000000	63.950777 
3727.000000	63.939404 
3726.000000	63.935828 
3725.000000	63.939142 
3724.000000	63.947319 
3723.000000	63.958120 
3722.000000	63.969898 
3721.000000	63.981795 
3720.000000	63.994050 
3719.000000	64.006948 
3718.000000	64.020609 
3717.000000	64.033985 
3716.000000	64.044737 
3715.000000	64.049172 
3714.000000	64.043283 
3713.000000	64.023566 
3712.000000	63.988256 
3711.000000	63.938021 
3710.000000	63.876223 
3709.000000	63.808488 
3708.000000	63.741612 
3707.000000	63.681817 
3706.000000	63.633847 
3705.000000	63.599896 
3704.000000	63.579821 
3703.000000	63.571238 
3702.000000	63.571143 
3701.000000	63.576221 
3700.000000	63.584637 
3699.000000	63.595890 
3698.000000	63.611221 
3697.000000	63.631987 
3696.000000	63.659691 
3695.000000	63.694524 
3694.000000	63.735008 
3693.000000	63.777828 
3692.000000	63.818287 
3691.000000	63.851308 
3690.000000	63.872337 
3689.000000	63.878417 
3688.000000	63.868880 
3687.000000	63.845705 
3686.000000	63.813233 
3685.000000	63.777637 
3684.000000	63.745927 
3683.000000	63.724803 
3682.000000	63.720250 
3681.000000	63.735914 
3680.000000	63.772964 
3679.000000	63.829159 
3678.000000	63.899731 
3677.000000	63.977289 
3676.000000	64.053058 
3675.000000	64.117932 
3674.000000	64.163923 
3673.000000	64.185333 
3672.000000	64.179706 
3671.000000	64.148116 
3670.000000	64.095258 
3669.000000	64.028263 
3668.000000	63.955688 
3667.000000	63.885474 
3666.000000	63.824248 
3665.000000	63.775467 
3664.000000	63.739848 
3663.000000	63.715386 
3662.000000	63.698768 
3661.000000	63.686919 
3660.000000	63.678264 
3659.000000	63.673305 
3658.000000	63.674664 
3657.000000	63.686323 
3656.000000	63.712048 
3655.000000	63.753676 
3654.000000	63.809370 
3653.000000	63.873410 
3652.000000	63.936495 
3651.000000	63.987636 
3650.000000	64.016509 
3649.000000	64.016056 
3648.000000	63.984298 
3647.000000	63.924956 
3646.000000	63.846826 
3645.000000	63.761854 
3644.000000	63.682794 
3643.000000	63.620042 
3642.000000	63.580393 
3641.000000	63.566255 
3640.000000	63.575792 
3639.000000	63.604474 
3638.000000	63.646388 
3637.000000	63.695764 
3636.000000	63.747787 
3635.000000	63.799047 
3634.000000	63.846945 
3633.000000	63.888883 
3632.000000	63.922190 
3631.000000	63.943910 
3630.000000	63.951516 
3629.000000	63.943362 
3628.000000	63.919925 
3627.000000	63.883566 
3626.000000	63.838744 
3625.000000	63.790631 
3624.000000	63.744425 
3623.000000	63.704299 
3622.000000	63.672518 
3621.000000	63.649511 
3620.000000	63.634371 
3619.000000	63.625216 
3618.000000	63.620519 
3617.000000	63.619327 
3616.000000	63.621449 
3615.000000	63.627099 
3614.000000	63.636183 
3613.000000	63.647937 
3612.000000	63.660597 
3611.000000	63.671660 
3610.000000	63.678050 
3609.000000	63.677310 
3608.000000	63.668370 
3607.000000	63.651823 
3606.000000	63.630056 
3605.000000	63.606262 
3604.000000	63.583874 
3603.000000	63.565826 
3602.000000	63.553857 
3601.000000	63.548207 
3600.000000	63.547635 
3599.000000	63.550114 
3598.000000	63.553643 
3597.000000	63.556766 
3596.000000	63.559293 
3595.000000	63.562130 
3594.000000	63.567185 
3593.000000	63.576579 
3592.000000	63.591980 
3591.000000	63.613200 
3590.000000	63.638472 
3589.000000	63.664484 
3588.000000	63.687276 
3587.000000	63.703227 
3586.000000	63.709688 
3585.000000	63.705992 
3584.000000	63.693332 
3583.000000	63.674473 
3582.000000	63.652729 
3581.000000	63.631200 
3580.000000	63.611817 
3579.000000	63.595199 
3578.000000	63.580513 
3577.000000	63.566207 
3576.000000	63.550853 
3575.000000	63.533949 
3574.000000	63.516044 
3573.000000	63.498926 
3572.000000	63.484835 
3571.000000	63.476300 
3570.000000	63.474822 
3569.000000	63.481092 
3568.000000	63.494849 
3567.000000	63.514876 
3566.000000	63.539576 
3565.000000	63.566970 
3564.000000	63.594913 
3563.000000	63.620924 
3562.000000	63.642501 
3561.000000	63.657069 
3560.000000	63.662219 
3559.000000	63.656282 
3558.000000	63.638687 
3557.000000	63.610267 
3556.000000	63.573265 
3555.000000	63.531017 
3554.000000	63.487529 
3553.000000	63.446283 
3552.000000	63.409924 
3551.000000	63.379502 
3550.000000	63.354516 
3549.000000	63.333320 
3548.000000	63.313674 
3547.000000	63.293600 
3546.000000	63.271760 
3545.000000	63.247752 
3544.000000	63.222241 
3543.000000	63.196134 
3542.000000	63.170981 
3541.000000	63.148307 
3540.000000	63.130068 
3539.000000	63.117885 
3538.000000	63.113546 
3537.000000	63.118124 
3536.000000	63.132405 
3535.000000	63.156247 
3534.000000	63.188672 
3533.000000	63.227629 
3532.000000	63.270378 
3531.000000	63.313579 
3530.000000	63.353395 
3529.000000	63.386106 
3528.000000	63.408327 
3527.000000	63.417768 
3526.000000	63.413572 
3525.000000	63.396573 
3524.000000	63.369274 
3523.000000	63.335394 
3522.000000	63.298869 
3521.000000	63.262891 
3520.000000	63.229823 
3519.000000	63.200974 
3518.000000	63.176512 
3517.000000	63.156080 
3516.000000	63.139128 
3515.000000	63.125610 
3514.000000	63.115692 
3513.000000	63.110399 
3512.000000	63.110470 
3511.000000	63.117361 
3510.000000	63.132095 
3509.000000	63.155770 
3508.000000	63.188719 
3507.000000	63.230466 
3506.000000	63.279652 
3505.000000	63.333487 
3504.000000	63.387966 
3503.000000	63.438057 
3502.000000	63.478493 
3501.000000	63.504767 
3500.000000	63.514065 
3499.000000	63.506364 
3498.000000	63.484573 
3497.000000	63.454222 
3496.000000	63.422536 
3495.000000	63.396382 
3494.000000	63.380551 
3493.000000	63.376784 
3492.000000	63.383316 
3491.000000	63.395500 
3490.000000	63.406991 
3489.000000	63.412165 
3488.000000	63.407182 
3487.000000	63.391041 
3486.000000	63.365530 
3485.000000	63.334393 
3484.000000	63.301730 
3483.000000	63.270688 
3482.000000	63.242483 
3481.000000	63.215827 
3480.000000	63.188242 
3479.000000	63.157010 
3478.000000	63.120985 
3477.000000	63.081264 
3476.000000	63.042235 
3475.000000	63.010406 
3474.000000	62.993359 
3473.000000	62.997174 
3472.000000	63.025403 
3471.000000	63.077664 
3470.000000	63.149309 
3469.000000	63.232278 
3468.000000	63.316631 
3467.000000	63.392686 
3466.000000	63.452744 
3465.000000	63.492465 
3464.000000	63.511204 
3463.000000	63.511657 
3462.000000	63.499212 
3461.000000	63.479733 
3460.000000	63.458752 
3459.000000	63.439702 
3458.000000	63.424229 
3457.000000	63.411307 
3456.000000	63.399004 
3455.000000	63.384318 
3454.000000	63.365077 
3453.000000	63.340020 
3452.000000	63.309431 
3451.000000	63.275122 
3450.000000	63.239908 
3449.000000	63.206982 
3448.000000	63.179087 
3447.000000	63.158130 
3446.000000	63.144874 
3445.000000	63.138985 
3444.000000	63.139176 
3443.000000	63.143849 
3442.000000	63.151454 
3441.000000	63.160920 
3440.000000	63.171696 
3439.000000	63.183474 
3438.000000	63.195848 
3437.000000	63.208389 
3436.000000	63.220262 
3435.000000	63.229703 
3434.000000	63.234686 
3433.000000	63.233566 
3432.000000	63.225221 
3431.000000	63.209772 
3430.000000	63.188242 
3429.000000	63.162732 
3428.000000	63.135766 
3427.000000	63.109874 
3426.000000	63.087224 
3425.000000	63.068938 
3424.000000	63.055443 
3423.000000	63.046431 
3422.000000	63.041520 
3421.000000	63.040399 
3420.000000	63.043236 
3419.000000	63.050413 
3418.000000	63.061976 
3417.000000	63.077163 
3416.000000	63.094234 
3415.000000	63.110542 
3414.000000	63.122487 
3413.000000	63.126492 
3412.000000	63.119840 
3411.000000	63.101792 
3410.000000	63.073635 
3409.000000	63.038682 
3408.000000	63.001894 
3407.000000	62.968516 
3406.000000	62.943148 
3405.000000	62.928581 
3404.000000	62.925314 
3403.000000	62.931346 
3402.000000	62.943053 
3401.000000	62.955760 
3400.000000	62.965226 
3399.000000	62.968397 
3398.000000	62.963795 
3397.000000	62.951970 
3396.000000	62.935042 
3395.000000	62.916159 
3394.000000	62.898492 
3393.000000	62.884950 
3392.000000	62.877416 
3391.000000	62.877058 
3390.000000	62.884116 
3389.000000	62.898397 
3388.000000	62.919187 
3387.000000	62.945771 
3386.000000	62.977361 
3385.000000	63.012981 
3384.000000	63.051247 
3383.000000	63.090205 
3382.000000	63.127374 
3381.000000	63.160014 
3380.000000	63.185191 
3379.000000	63.200640 
3378.000000	63.204717 
3377.000000	63.197588 
3376.000000	63.180804 
3375.000000	63.157153 
3374.000000	63.130331 
3373.000000	63.104605 
3372.000000	63.083958 
3371.000000	63.071608 
3370.000000	63.068914 
3369.000000	63.075804 
3368.000000	63.089799 
3367.000000	63.106799 
3366.000000	63.121557 
3365.000000	63.128709 
3364.000000	63.123989 
3363.000000	63.105201 
3362.000000	63.072896 
3361.000000	63.030314 
3360.000000	62.982630 
3359.000000	62.935924 
3358.000000	62.895727 
3357.000000	62.865877 
3356.000000	62.848138 
3355.000000	62.842106 
3354.000000	62.845611 
3353.000000	62.855505 
3352.000000	62.868738 
3351.000000	62.883234 
3350.000000	62.897753 
3349.000000	62.912130 
3348.000000	62.926459 
3347.000000	62.941145 
3346.000000	62.955832 
3345.000000	62.969875 
3344.000000	62.982177 
3343.000000	62.991762 
3342.000000	62.998294 
3341.000000	63.002014 
3340.000000	63.003826 
3339.000000	63.004851 
3338.000000	63.006138 
3337.000000	63.007879 
3336.000000	63.009381 
3335.000000	63.009142 
3334.000000	63.005089 
3333.000000	62.995505 
3332.000000	62.979531 
3331.000000	62.957668 
3330.000000	62.931752 
3329.000000	62.904715 
3328.000000	62.880158 
3327.000000	62.861394 
3326.000000	62.851071 
3325.000000	62.850403 
3324.000000	62.859392 
3323.000000	62.876772 
3322.000000	62.900471 
3321.000000	62.927889 
3320.000000	62.956547 
3319.000000	62.983918 
3318.000000	63.007974 
3317.000000	63.027238 
3316.000000	63.040852 
3315.000000	63.048291 
3314.000000	63.049435 
3313.000000	63.044762 
3312.000000	63.034892 
3311.000000	63.020730 
3310.000000	63.003277 
3309.000000	62.983393 
3308.000000	62.961745 
3307.000000	62.938976 
3306.000000	62.915468 
3305.000000	62.891554 
3304.000000	62.867736 
3303.000000	62.844705 
3302.000000	62.823319 
3301.000000	62.804555 
3300.000000	62.789320 
3299.000000	62.778306 
3298.000000	62.771725 
3297.000000	62.769126 
3296.000000	62.769675 
3295.000000	62.771868 
3294.000000	62.773895 
3293.000000	62.773895 
3292.000000	62.770271 
3291.000000	62.762069 
3290.000000	62.749195 
3289.000000	62.732481 
3288.000000	62.713527 
3287.000000	62.694454 
3286.000000	62.677621 
3285.000000	62.665367 
3284.000000	62.659454 
3283.000000	62.660908 
3282.000000	62.669944 
3281.000000	62.685847 
3280.000000	62.707042 
3279.000000	62.731313 
3278.000000	62.755799 
3277.000000	62.777566 
3276.000000	62.793898 
3275.000000	62.802553 
3274.000000	62.802290 
3273.000000	62.793087 
3272.000000	62.776279 
3271.000000	62.754297 
3270.000000	62.730193 
3269.000000	62.707376 
3268.000000	62.688732 
3267.000000	62.675952 
3266.000000	62.669301 
3265.000000	62.667846 
3264.000000	62.669897 
3263.000000	62.673568 
3262.000000	62.677502 
3261.000000	62.680983 
3260.000000	62.684464 
3259.000000	62.688994 
3258.000000	62.695932 
3257.000000	62.706112 
3256.000000	62.719774 
3255.000000	62.736129 
3254.000000	62.753891 
3253.000000	62.771368 
3252.000000	62.786984 
3251.000000	62.799429 
3250.000000	62.808108 
3249.000000	62.813091 
3248.000000	62.814664 
3247.000000	62.813329 
3246.000000	62.809491 
3245.000000	62.803816 
3244.000000	62.797164 
3243.000000	62.790679 
3242.000000	62.786078 
3241.000000	62.784934 
3240.000000	62.788653 
3239.000000	62.797427 
3238.000000	62.810301 
3237.000000	62.824869 
3236.000000	62.837624 
3235.000000	62.844657 
3234.000000	62.842488 
3233.000000	62.828850 
3232.000000	62.803626 
3231.000000	62.768745 
3230.000000	62.727928 
3229.000000	62.686109 
3228.000000	62.648391 
3227.000000	62.619137 
3226.000000	62.601113 
3225.000000	62.595343 
3224.000000	62.601113 
3223.000000	62.616252 
3222.000000	62.637710 
3221.000000	62.662363 
3220.000000	62.687563 
3219.000000	62.711000 
3218.000000	62.731623 
3217.000000	62.748908 
3216.000000	62.763094 
3215.000000	62.774777 
3214.000000	62.784266 
3213.000000	62.791681 
3212.000000	62.796235 
3211.000000	62.796854 
3210.000000	62.791895 
3209.000000	62.779402 
3208.000000	62.757849 
3207.000000	62.726688 
3206.000000	62.686681 
3205.000000	62.640023 
3204.000000	62.590169 
3203.000000	62.541246 
3202.000000	62.497138 
3201.000000	62.460827 
3200.000000	62.433695 
3199.000000	62.415361 
3198.000000	62.403941 
3197.000000	62.396621 
3196.000000	62.390685 
3195.000000	62.384176 
3194.000000	62.376141 
3193.000000	62.366986 
3192.000000	62.357664 
3191.000000	62.349748 
3190.000000	62.344264 
3189.000000	62.342190 
3188.000000	62.343573 
3187.000000	62.348198 
3186.000000	62.356042 
3185.000000	62.367224 
3184.000000	62.382483 
3183.000000	62.402367 
3182.000000	62.427043 
3181.000000	62.455582 
3180.000000	62.485718 
3179.000000	62.513947 
3178.000000	62.536239 
3177.000000	62.548875 
3176.000000	62.549448 
3175.000000	62.537789 
3174.000000	62.515974 
3173.000000	62.488198 
3172.000000	62.459778 
3171.000000	62.435936 
3170.000000	62.420320 
3169.000000	62.414765 
3168.000000	62.418627 
3167.000000	62.429285 
3166.000000	62.443041 
3165.000000	62.456178 
3164.000000	62.466144 
3163.000000	62.471818 
3162.000000	62.474155 
3161.000000	62.474727 
3160.000000	62.475848 
3159.000000	62.479496 
3158.000000	62.486648 
3157.000000	62.497282 
3156.000000	62.509775 
3155.000000	62.521886 
3154.000000	62.530851 
3153.000000	62.534356 
3152.000000	62.530565 
3151.000000	62.518739 
3150.000000	62.498950 
3149.000000	62.472128 
3148.000000	62.440061 
3147.000000	62.405085 
3146.000000	62.369942 
3145.000000	62.337541 
3144.000000	62.311053 
3143.000000	62.293434 
3142.000000	62.286853 
3141.000000	62.292313 
3140.000000	62.309241 
3139.000000	62.335324 
3138.000000	62.366533 
3137.000000	62.397837 
3136.000000	62.423968 
3135.000000	62.440729 
3134.000000	62.445306 
3133.000000	62.437796 
3132.000000	62.420701 
3131.000000	62.398886 
3130.000000	62.378263 
3129.000000	62.364554 
3128.000000	62.361955 
3127.000000	62.372231 
3126.000000	62.394642 
3125.000000	62.425994 
3124.000000	62.461733 
3123.000000	62.496781 
3122.000000	62.526893 
3121.000000	62.548851 
3120.000000	62.560892 
3119.000000	62.562441 
3118.000000	62.553811 
3117.000000	62.535810 
3116.000000	62.509417 
3115.000000	62.476038 
3114.000000	62.437582 
3113.000000	62.396454 
3112.000000	62.355566 
3111.000000	62.318372 
3110.000000	62.287974 
3109.000000	62.266850 
3108.000000	62.256312 
3107.000000	62.255787 
3106.000000	62.263607 
3105.000000	62.277030 
3104.000000	62.293314 
3103.000000	62.309813 
3102.000000	62.324929 
3101.000000	62.338209 
3100.000000	62.350082 
3099.000000	62.361383 
3098.000000	62.372899 
3097.000000	62.384843 
3096.000000	62.396764 
3095.000000	62.407541 
3094.000000	62.415719 
3093.000000	62.420058 
3092.000000	62.419700 
3091.000000	62.414741 
3090.000000	62.405776 
3089.000000	62.394070 
3088.000000	62.380957 
3087.000000	62.367677 
3086.000000	62.354826 
3085.000000	62.342596 
3084.000000	62.330889 
3083.000000	62.319540 
3082.000000	62.308406 
3081.000000	62.297487 
3080.000000	62.287139 
3079.000000	62.278056 
3078.000000	62.270832 
3077.000000	62.266087 
3076.000000	62.264013 
3075.000000	62.264394 
3074.000000	62.266755 
3073.000000	62.270379 
3072.000000	62.274527 
3071.000000	62.278556 
3070.000000	62.282276 
3069.000000	62.285733 
3068.000000	62.289118 
3067.000000	62.292766 
3066.000000	62.296819 
3065.000000	62.301373 
3064.000000	62.306213 
3063.000000	62.311267 
3062.000000	62.316560 
3061.000000	62.322497 
3060.000000	62.329530 
3059.000000	62.338280 
3058.000000	62.349009 
3057.000000	62.361550 
3056.000000	62.374758 
3055.000000	62.386393 
3054.000000	62.393593 
3053.000000	62.393307 
3052.000000	62.383198 
3051.000000	62.362313 
3050.000000	62.331676 
3049.000000	62.294411 
3048.000000	62.254905 
3047.000000	62.218236 
3046.000000	62.188673 
3045.000000	62.169051 
3044.000000	62.160015 
3043.000000	62.160015 
3042.000000	62.165951 
3041.000000	62.173962 
3040.000000	62.180471 
3039.000000	62.183070 
3038.000000	62.180709 
3037.000000	62.173938 
3036.000000	62.164402 
3035.000000	62.154245 
3034.000000	62.145352 
3033.000000	62.138843 
3032.000000	62.134957 
3031.000000	62.132930 
3030.000000	62.131762 
3029.000000	62.130022 
3028.000000	62.126708 
3027.000000	62.121081 
3026.000000	62.112808 
3025.000000	62.102007 
3024.000000	62.089109 
3023.000000	62.074804 
3022.000000	62.059807 
3021.000000	62.045025 
3020.000000	62.031459 
3019.000000	62.020206 
3018.000000	62.012219 
3017.000000	62.008094 
3016.000000	62.007880 
3015.000000	62.011122 
3014.000000	62.016654 
3013.000000	62.022733 
3012.000000	62.027454 
3011.000000	62.029099 
3010.000000	62.026834 
3009.000000	62.020874 
3008.000000	62.012720 
3007.000000	62.004780 
3006.000000	61.999893 
3005.000000	62.000513 
3004.000000	62.008142 
3003.000000	62.022852 
3002.000000	62.043094 
3001.000000	62.066221 
3000.000000	62.088823 
2999.000000	62.107753 
2998.000000	62.120389 
2997.000000	62.125325 
2996.000000	62.122249 
2995.000000	62.111926 
2994.000000	62.095642 
2993.000000	62.074971 
2992.000000	62.051367 
2991.000000	62.026047 
2990.000000	61.999988 
2989.000000	61.974072 
2988.000000	61.949181 
2987.000000	61.926174 
2986.000000	61.906075 
2985.000000	61.889624 
2984.000000	61.877179 
2983.000000	61.868524 
2982.000000	61.862945 
2981.000000	61.859393 
2980.000000	61.856579 
2979.000000	61.853361 
2978.000000	61.848807 
2977.000000	61.842465 
2976.000000	61.834430 
2975.000000	61.825275 
2974.000000	61.815834 
2973.000000	61.807322 
2972.000000	61.800837 
2971.000000	61.797285 
2970.000000	61.797261 
2969.000000	61.800551 
2968.000000	61.806464 
2967.000000	61.813664 
2966.000000	61.820483 
2965.000000	61.825037 
2964.000000	61.825752 
2963.000000	61.821341 
2962.000000	61.811113 
2961.000000	61.794972 
2960.000000	61.773538 
2959.000000	61.747884 
2958.000000	61.719536 
2957.000000	61.690092 
2956.000000	61.661148 
2955.000000	61.634325 
2954.000000	61.611127 
2953.000000	61.592793 
2952.000000	61.580371 
2951.000000	61.574673 
2950.000000	61.576271 
2949.000000	61.584949 
2948.000000	61.599898 
2947.000000	61.619400 
2946.000000	61.641359 
2945.000000	61.662936 
2944.000000	61.681675 
2943.000000	61.695361 
2942.000000	61.703038 
2941.000000	61.704778 
2940.000000	61.701989 
2939.000000	61.696815 
2938.000000	61.691594 
2937.000000	61.688518 
2936.000000	61.688423 
2935.000000	61.691021 
2934.000000	61.694407 
2933.000000	61.696100 
2932.000000	61.693096 
2931.000000	61.682963 
2930.000000	61.664342 
2929.000000	61.637473 
2928.000000	61.603903 
2927.000000	61.566162 
2926.000000	61.527276 
2925.000000	61.490249 
2924.000000	61.457490 
2923.000000	61.430668 
2922.000000	61.410665 
2921.000000	61.397576 
2920.000000	61.390900 
2919.000000	61.389851 
2918.000000	61.393165 
2917.000000	61.399507 
2916.000000	61.407375 
2915.000000	61.415624 
2914.000000	61.422920 
2913.000000	61.428618 
2912.000000	61.432409 
2911.000000	61.434793 
2910.000000	61.436605 
2909.000000	61.439394 
2908.000000	61.444664 
2907.000000	61.453890 
2906.000000	61.468005 
2905.000000	61.487030 
2904.000000	61.509990 
2903.000000	61.535072 
2902.000000	61.559844 
2901.000000	61.581635 
2900.000000	61.597824 
2899.000000	61.606454 
2898.000000	61.606383 
2897.000000	61.597537 
2896.000000	61.580705 
2895.000000	61.557722 
2894.000000	61.531138 
2893.000000	61.503577 
2892.000000	61.477732 
2891.000000	61.456108 
2890.000000	61.440706 
2889.000000	61.432957 
2888.000000	61.433434 
2887.000000	61.441779 
2886.000000	61.456513 
2885.000000	61.475348 
2884.000000	61.495089 
2883.000000	61.512136 
2882.000000	61.523389 
2881.000000	61.526560 
2880.000000	61.520910 
2879.000000	61.507153 
2878.000000	61.487555 
2877.000000	61.465406 
2876.000000	61.444473 
2875.000000	61.428141 
2874.000000	61.418747 
2873.000000	61.417365 
2872.000000	61.423540 
2871.000000	61.435770 
2870.000000	61.452174 
2869.000000	61.470627 
2868.000000	61.489295 
2867.000000	61.506700 
2866.000000	61.521577 
2865.000000	61.533164 
2864.000000	61.540579 
2863.000000	61.543369 
2862.000000	61.541438 
2861.000000	61.535072 
2860.000000	61.525535 
2859.000000	61.514091 
2858.000000	61.502075 
2857.000000	61.490058 
2856.000000	61.478090 
2855.000000	61.465239 
2854.000000	61.450195 
2853.000000	61.431884 
2852.000000	61.409854 
2851.000000	61.385369 
2850.000000	61.361217 
2849.000000	61.341333 
2848.000000	61.329889 
2847.000000	61.330103 
2846.000000	61.343288 
2845.000000	61.368131 
2844.000000	61.400747 
2843.000000	61.435389 
2842.000000	61.465811 
2841.000000	61.486625 
2840.000000	61.494636 
2839.000000	61.489272 
2838.000000	61.472678 
2837.000000	61.448860 
2836.000000	61.422753 
2835.000000	61.399030 
2834.000000	61.381196 
2833.000000	61.371135 
2832.000000	61.368966 
2831.000000	61.373734 
2830.000000	61.383438 
2829.000000	61.396312 
2828.000000	61.410355 
2827.000000	61.423921 
2826.000000	61.435580 
2825.000000	61.443901 
2824.000000	61.447572 
2823.000000	61.445498 
2822.000000	61.437225 
2821.000000	61.422920 
2820.000000	61.403656 
2819.000000	61.381125 
2818.000000	61.357593 
2817.000000	61.335492 
2816.000000	61.316990 
2815.000000	61.303710 
2814.000000	61.296486 
2813.000000	61.295294 
2812.000000	61.299037 
2811.000000	61.306142 
2810.000000	61.314582 
2809.000000	61.322379 
2808.000000	61.328315 
2807.000000	61.331820 
2806.000000	61.332988 
2805.000000	61.332178 
2804.000000	61.329770 
2803.000000	61.325740 
2802.000000	61.319780 
2801.000000	61.311292 
2800.000000	61.299705 
2799.000000	61.284971 
2798.000000	61.267614 
2797.000000	61.248683 
2796.000000	61.229634 
2795.000000	61.211800 
2794.000000	61.196088 
2793.000000	61.182904 
2792.000000	61.172199 
2791.000000	61.163473 
2790.000000	61.156439 
2789.000000	61.151051 
2788.000000	61.147856 
2787.000000	61.147785 
2786.000000	61.152005 
2785.000000	61.161112 
2784.000000	61.174869 
2783.000000	61.192011 
2782.000000	61.210155 
2781.000000	61.226105 
2780.000000	61.236524 
2779.000000	61.238765 
2778.000000	61.231374 
2777.000000	61.214303 
2776.000000	61.189103 
2775.000000	61.158657 
2774.000000	61.126661 
2773.000000	61.096692 
2772.000000	61.071944 
2771.000000	61.054563 
2770.000000	61.045289 
2769.000000	61.043596 
2768.000000	61.047840 
2767.000000	61.055755 
2766.000000	61.065053 
2765.000000	61.073827 
2764.000000	61.080884 
2763.000000	61.085844 
2762.000000	61.088991 
2761.000000	61.091065 
2760.000000	61.092829 
2759.000000	61.094903 
2758.000000	61.097478 
2757.000000	61.100363 
2756.000000	61.103034 
2755.000000	61.104869 
2754.000000	61.105442 
2753.000000	61.104774 
2752.000000	61.103367 
2751.000000	61.102128 
2750.000000	61.102199 
2749.000000	61.104822 
2748.000000	61.110639 
2747.000000	61.119937 
2746.000000	61.132359 
2745.000000	61.146831 
2744.000000	61.161923 
2743.000000	61.175608 
2742.000000	61.185979 
2741.000000	61.191296 
2740.000000	61.190438 
2739.000000	61.182951 
2738.000000	61.169266 
2737.000000	61.150598 
2736.000000	61.128592 
2735.000000	61.105179 
2734.000000	61.082053 
2733.000000	61.060428 
2732.000000	61.040949 
2731.000000	61.023926 
2730.000000	61.009430 
2729.000000	60.997343 
2728.000000	60.988116 
2727.000000	60.982227 
2726.000000	60.980343 
2725.000000	60.983157 
2724.000000	60.990762 
2723.000000	61.002588 
2722.000000	61.017227 
2721.000000	61.032462 
2720.000000	61.045622 
2719.000000	61.053991 
2718.000000	61.055374 
2717.000000	61.048674 
2716.000000	61.033868 
2715.000000	61.012101 
2714.000000	60.985445 
2713.000000	60.956478 
2712.000000	60.927820 
2711.000000	60.901761 
2710.000000	60.879802 
2709.000000	60.862636 
2708.000000	60.850095 
2707.000000	60.841488 
2706.000000	60.835695 
2705.000000	60.831904 
2704.000000	60.829424 
2703.000000	60.828351 
2702.000000	60.829091 
2701.000000	60.832428 
2700.000000	60.839056 
2699.000000	60.849404 
2698.000000	60.863280 
2697.000000	60.879778 
2696.000000	60.897207 
2695.000000	60.913634 
2694.000000	60.927200 
2693.000000	60.936450 
2692.000000	60.940933 
2691.000000	60.941076 
2690.000000	60.937976 
2689.000000	60.933065 
2688.000000	60.927724 
2687.000000	60.922765 
2686.000000	60.918307 
2685.000000	60.913848 
2684.000000	60.908651 
2683.000000	60.902070 
2682.000000	60.893869 
2681.000000	60.884308 
2680.000000	60.874032 
2679.000000	60.864043 
2678.000000	60.855102 
2677.000000	60.847330 
2676.000000	60.840439 
2675.000000	60.833549 
2674.000000	60.825848 
2673.000000	60.816955 
2672.000000	60.807037 
2671.000000	60.797166 
2670.000000	60.788559 
2669.000000	60.782289 
2668.000000	60.778594 
2667.000000	60.776638 
2666.000000	60.774564 
2665.000000	60.770010 
2664.000000	60.760760 
2663.000000	60.745477 
2662.000000	60.724163 
2661.000000	60.698413 
2660.000000	60.670971 
2659.000000	60.645246 
2658.000000	60.624170 
2657.000000	60.609674 
2656.000000	60.602259 
2655.000000	60.600924 
2654.000000	60.603833 
2653.000000	60.608816 
2652.000000	60.613965 
2651.000000	60.618042 
2650.000000	60.620522 
2649.000000	60.621523 
2648.000000	60.621261 
2647.000000	60.620069 
2646.000000	60.618162 
2645.000000	60.615706 
2644.000000	60.612893 
2643.000000	60.609698 
2642.000000	60.606217 
2641.000000	60.602331 
2640.000000	60.597848 
2639.000000	60.592627 
2638.000000	60.586738 
2637.000000	60.580563 
2636.000000	60.574913 
2635.000000	60.571193 
2634.000000	60.571122 
2633.000000	60.576319 
2632.000000	60.587692 
2631.000000	60.605096 
2630.000000	60.626959 
2629.000000	60.650181 
2628.000000	60.670900 
2627.000000	60.685181 
2626.000000	60.689878 
2625.000000	60.683536 
2624.000000	60.666704 
2623.000000	60.641717 
2622.000000	60.612154 
2621.000000	60.581898 
2620.000000	60.554552 
2619.000000	60.532569 
2618.000000	60.517072 
2617.000000	60.507941 
2616.000000	60.503888 
2615.000000	60.503053 
2614.000000	60.503411 
2613.000000	60.503315 
2612.000000	60.501837 
2611.000000	60.498785 
2610.000000	60.494589 
2609.000000	60.489964 
2608.000000	60.485625 
2607.000000	60.481858 
2606.000000	60.478401 
2605.000000	60.474467 
2604.000000	60.468769 
2603.000000	60.459828 
2602.000000	60.446596 
2601.000000	60.428714 
2600.000000	60.406994 
2599.000000	60.383343 
2598.000000	60.360527 
2597.000000	60.341477 
2596.000000	60.328674 
2595.000000	60.323643 
2594.000000	60.326242 
2593.000000	60.335159 
2592.000000	60.348033 
2591.000000	60.362505 
2590.000000	60.376477 
2589.000000	60.389018 
2588.000000	60.400080 
2587.000000	60.410571 
2586.000000	60.421705 
2585.000000	60.434317 
2584.000000	60.448098 
2583.000000	60.461664 
2582.000000	60.472702 
2581.000000	60.478615 
2580.000000	60.477161 
2579.000000	60.467338 
2578.000000	60.449576 
2577.000000	60.425806 
2576.000000	60.398864 
2575.000000	60.371780 
2574.000000	60.347080 
2573.000000	60.326242 
2572.000000	60.309600 
2571.000000	60.296559 
2570.000000	60.285806 
2569.000000	60.275959 
2568.000000	60.266089 
2567.000000	60.255694 
2566.000000	60.245227 
2565.000000	60.235261 
2564.000000	60.226821 
2563.000000	60.220670 
2562.000000	60.217332 
2561.000000	60.216879 
2560.000000	60.219168 
2559.000000	60.223889 
2558.000000	60.230469 
2557.000000	60.238385 
2556.000000	60.246944 
2555.000000	60.255384 
2554.000000	60.262775 
2553.000000	60.268235 
2552.000000	60.270833 
2551.000000	60.269808 
2550.000000	60.264778 
2549.000000	60.255622 
2548.000000	60.242748 
2547.000000	60.227012 
2546.000000	60.209488 
2545.000000	60.191631 
2544.000000	60.174965 
2543.000000	60.160803 
2542.000000	60.150194 
2541.000000	60.143613 
2540.000000	60.141134 
2539.000000	60.142421 
2538.000000	60.146832 
2537.000000	60.153627 
2536.000000	60.162019 
2535.000000	60.171580 
2534.000000	60.181736 
2533.000000	60.192346 
2532.000000	60.203242 
2531.000000	60.214400 
2530.000000	60.225844 
2529.000000	60.237431 
2528.000000	60.248661 
2527.000000	60.258865 
2526.000000	60.267233 
2525.000000	60.272884 
2524.000000	60.274958 
2523.000000	60.272884 
2522.000000	60.266590 
2521.000000	60.256505 
2520.000000	60.243439 
2519.000000	60.228657 
2518.000000	60.213518 
2517.000000	60.199069 
2516.000000	60.185933 
2515.000000	60.173988 
2514.000000	60.162854 
2513.000000	60.151863 
2512.000000	60.140919 
2511.000000	60.130596 
2510.000000	60.122275 
2509.000000	60.118126 
2508.000000	60.119676 
2507.000000	60.127639 
2506.000000	60.140657 
2505.000000	60.155487 
2504.000000	60.167241 
2503.000000	60.170483 
2502.000000	60.160636 
2501.000000	60.135197 
2500.000000	60.094928 
2499.000000	60.043573 
2498.000000	59.987497 
2497.000000	59.933900 
2496.000000	59.889268 
2495.000000	59.857797 
2494.000000	59.840440 
2493.000000	59.835052 
2492.000000	59.837222 
2491.000000	59.841704 
2490.000000	59.843945 
2489.000000	59.841299 
2488.000000	59.833216 
2487.000000	59.821581 
2486.000000	59.808850 
2485.000000	59.798097 
2484.000000	59.791564 
2483.000000	59.790396 
2482.000000	59.794425 
2481.000000	59.802341 
2480.000000	59.812498 
2479.000000	59.823346 
2478.000000	59.834027 
2477.000000	59.844136 
2476.000000	59.853935 
2475.000000	59.863829 
2474.000000	59.874081 
2473.000000	59.884643 
2472.000000	59.894847 
2471.000000	59.903979 
2470.000000	59.911322 
2469.000000	59.916448 
2468.000000	59.919357 
2467.000000	59.920501 
2466.000000	59.920668 
2465.000000	59.920549 
2464.000000	59.920144 
2463.000000	59.919095 
2462.000000	59.916138 
2461.000000	59.909701 
2460.000000	59.898233 
2459.000000	59.880352 
2458.000000	59.855985 
2457.000000	59.826159 
2456.000000	59.793639 
2455.000000	59.761834 
2454.000000	59.734916 
2453.000000	59.716749 
2452.000000	59.710240 
2451.000000	59.716677 
2450.000000	59.735631 
2449.000000	59.765005 
2448.000000	59.801554 
2447.000000	59.841370 
2446.000000	59.880661 
2445.000000	59.916520 
2444.000000	59.946727 
2443.000000	59.969854 
2442.000000	59.985256 
2441.000000	59.992194 
2440.000000	59.990048 
2439.000000	59.977841 
2438.000000	59.954905 
2437.000000	59.920811 
2436.000000	59.876370 
2435.000000	59.823393 
2434.000000	59.765124 
2433.000000	59.705400 
2432.000000	59.648633 
2431.000000	59.598588 
2430.000000	59.557771 
2429.000000	59.527015 
2428.000000	59.505534 
2427.000000	59.491515 
2426.000000	59.482479 
2425.000000	59.476518 
2424.000000	59.472274 
2423.000000	59.469652 
2422.000000	59.469175 
2421.000000	59.471774 
2420.000000	59.477806 
2419.000000	59.487104 
2418.000000	59.498453 
2417.000000	59.509944 
2416.000000	59.519028 
2415.000000	59.523558 
2414.000000	59.522104 
2413.000000	59.514284 
2412.000000	59.500885 
2411.000000	59.483695 
2410.000000	59.465265 
2409.000000	59.448122 
2408.000000	59.434652 
2407.000000	59.426474 
2406.000000	59.424543 
2405.000000	59.429097 
2404.000000	59.439706 
2403.000000	59.455323 
2402.000000	59.474420 
2401.000000	59.495496 
2400.000000	59.517002 
2399.000000	59.537220 
2398.000000	59.554839 
2397.000000	59.568953 
2396.000000	59.579086 
2395.000000	59.585094 
2394.000000	59.587049 
2393.000000	59.585380 
2392.000000	59.580516 
2391.000000	59.572911 
2390.000000	59.562921 
2389.000000	59.550762 
2388.000000	59.536647 
2387.000000	59.520864 
2386.000000	59.503793 
2385.000000	59.485816 
2384.000000	59.467554 
2383.000000	59.449863 
2382.000000	59.433364 
2381.000000	59.418892 
2380.000000	59.407091 
2379.000000	59.398698 
2378.000000	59.394168 
2377.000000	59.393906 
2376.000000	59.398126 
2375.000000	59.406757 
2374.000000	59.419155 
2373.000000	59.434556 
2372.000000	59.451889 
2371.000000	59.469962 
2370.000000	59.487509 
2369.000000	59.503388 
2368.000000	59.516739 
2367.000000	59.526824 
2366.000000	59.533071 
2365.000000	59.534883 
2364.000000	59.531712 
2363.000000	59.522867 
2362.000000	59.507751 
2361.000000	59.486126 
2360.000000	59.458303 
2359.000000	59.425473 
2358.000000	59.389805 
2357.000000	59.354090 
2356.000000	59.321498 
2355.000000	59.294986 
2354.000000	59.276747 
2353.000000	59.267497 
2352.000000	59.266448 
2351.000000	59.271311 
2350.000000	59.278869 
2349.000000	59.285640 
2348.000000	59.288835 
2347.000000	59.286403 
2346.000000	59.278130 
2345.000000	59.265065 
2344.000000	59.249615 
2343.000000	59.234404 
2342.000000	59.221935 
2341.000000	59.213924 
2340.000000	59.210991 
2339.000000	59.212470 
2338.000000	59.216856 
2337.000000	59.222126 
2336.000000	59.226322 
2335.000000	59.228181 
2334.000000	59.227108 
2333.000000	59.223437 
2332.000000	59.218239 
2331.000000	59.212923 
2330.000000	59.208869 
2329.000000	59.207034 
2328.000000	59.207749 
2327.000000	59.210371 
2326.000000	59.213447 
2325.000000	59.214806 
2324.000000	59.212327 
2323.000000	59.204053 
2322.000000	59.188723 
2321.000000	59.166169 
2320.000000	59.137248 
2319.000000	59.104132 
2318.000000	59.069609 
2317.000000	59.036874 
2316.000000	59.008765 
2315.000000	58.987855 
2314.000000	58.975887 
2313.000000	58.973789 
2312.000000	58.981561 
2311.000000	58.998346 
2310.000000	59.022641 
2309.000000	59.052276 
2308.000000	59.084534 
2307.000000	59.116291 
2306.000000	59.144163 
2305.000000	59.164881 
2304.000000	59.175634 
2303.000000	59.174728 
2302.000000	59.161806 
2301.000000	59.138250 
2300.000000	59.106945 
2299.000000	59.071826 
2298.000000	59.037232 
2297.000000	59.007239 
2296.000000	58.984875 
2295.000000	58.971667 
2294.000000	58.967423 
2293.000000	58.970451 
2292.000000	58.978033 
2291.000000	58.987188 
2290.000000	58.995270 
2289.000000	59.000372 
2288.000000	59.001851 
2287.000000	58.999943 
2286.000000	58.995771 
2285.000000	58.990740 
2284.000000	58.986091 
2283.000000	58.982467 
2282.000000	58.979916 
2281.000000	58.977866 
2280.000000	58.975672 
2279.000000	58.972835 
2278.000000	58.969378 
2277.000000	58.965873 
2276.000000	58.963632 
2275.000000	58.964109 
2274.000000	58.968520 
2273.000000	58.977174 
2272.000000	58.989405 
2271.000000	59.003210 
2270.000000	59.015727 
2269.000000	59.023761 
2268.000000	59.024381 
2267.000000	59.015703 
2266.000000	58.997488 
2265.000000	58.971309 
2264.000000	58.940029 
2263.000000	58.907604 
2262.000000	58.878111 
2261.000000	58.854746 
2260.000000	58.839654 
2259.000000	58.833098 
2258.000000	58.833670 
2257.000000	58.838891 
2256.000000	58.845782 
2255.000000	58.851313 
2254.000000	58.853292 
2253.000000	58.850574 
2252.000000	58.843278 
2251.000000	58.832573 
2250.000000	58.820009 
2249.000000	58.807396 
2248.000000	58.796048 
2247.000000	58.786702 
2246.000000	58.779239 
2245.000000	58.772754 
2244.000000	58.766031 
2243.000000	58.757686 
2242.000000	58.746719 
2241.000000	58.732748 
2240.000000	58.716130 
2239.000000	58.697986 
2238.000000	58.679986 
2237.000000	58.663940 
2236.000000	58.651494 
2235.000000	58.643603 
2234.000000	58.640336 
2233.000000	58.640646 
2232.000000	58.642625 
2231.000000	58.643937 
2230.000000	58.642053 
2229.000000	58.634972 
2228.000000	58.621644 
2227.000000	58.602190 
2226.000000	58.577847 
2225.000000	58.550810 
2224.000000	58.523726 
2223.000000	58.499073 
2222.000000	58.478975 
2221.000000	58.464503 
2220.000000	58.456087 
2219.000000	58.453249 
2218.000000	58.455014 
2217.000000	58.460354 
2216.000000	58.468294 
2215.000000	58.478069 
2214.000000	58.489036 
2213.000000	58.500599 
2212.000000	58.511924 
2211.000000	58.522129 
2210.000000	58.529973 
2209.000000	58.534312 
2208.000000	58.534312 
2207.000000	58.529496 
2206.000000	58.520030 
2205.000000	58.506774 
2204.000000	58.491063 
2203.000000	58.474516 
2202.000000	58.458709 
2201.000000	58.444929 
2200.000000	58.433985 
2199.000000	58.426284 
2198.000000	58.421730 
2197.000000	58.419942 
2196.000000	58.420276 
2195.000000	58.421802 
2194.000000	58.423495 
2193.000000	58.424210 
2192.000000	58.422946 
2191.000000	58.419013 
2190.000000	58.412361 
2189.000000	58.403491 
2188.000000	58.393359 
2187.000000	58.383417 
2186.000000	58.374929 
2185.000000	58.368921 
2184.000000	58.365750 
2183.000000	58.365106 
2182.000000	58.365964 
2181.000000	58.367085 
2180.000000	58.367085 
2179.000000	58.364892 
2178.000000	58.360123 
2177.000000	58.353161 
2176.000000	58.345055 
2175.000000	58.337306 
2174.000000	58.331418 
2173.000000	58.328628 
2172.000000	58.329582 
2171.000000	58.333945 
2170.000000	58.340549 
2169.000000	58.347392 
2168.000000	58.351683 
2167.000000	58.350610 
2166.000000	58.341670 
2165.000000	58.323431 
2164.000000	58.296155 
2163.000000	58.261966 
2162.000000	58.224415 
2161.000000	58.187961 
2160.000000	58.156895 
2159.000000	58.134722 
2158.000000	58.123040 
2157.000000	58.121800 
2156.000000	58.129239 
2155.000000	58.142995 
2154.000000	58.160400 
2153.000000	58.179521 
2152.000000	58.199262 
2151.000000	58.219504 
2150.000000	58.240604 
2149.000000	58.262705 
2148.000000	58.285236 
2147.000000	58.307003 
2146.000000	58.326053 
2145.000000	58.340573 
2144.000000	58.349204 
2143.000000	58.351826 
2142.000000	58.349204 
2141.000000	58.342790 
2140.000000	58.333849 
2139.000000	58.323168 
2138.000000	58.310627 
2137.000000	58.295297 
2136.000000	58.275961 
2135.000000	58.252000 
2134.000000	58.223676 
2133.000000	58.192443 
2132.000000	58.160662 
2131.000000	58.131313 
2130.000000	58.107089 
2129.000000	58.089756 
2128.000000	58.079791 
2127.000000	58.076310 
2126.000000	58.077597 
2125.000000	58.081555 
2124.000000	58.086442 
2123.000000	58.091068 
2122.000000	58.094978 
2121.000000	58.098149 
2120.000000	58.100461 
2119.000000	58.101511 
2118.000000	58.100390 
2117.000000	58.095979 
2116.000000	58.087468 
2115.000000	58.074593 
2114.000000	58.057880 
2113.000000	58.038783 
2112.000000	58.019399 
2111.000000	58.002209 
2110.000000	57.989430 
2109.000000	57.982325 
2108.000000	57.981348 
2107.000000	57.985615 
2106.000000	57.993102 
2105.000000	58.001184 
2104.000000	58.007049 
2103.000000	58.008337 
2102.000000	58.003544 
2101.000000	57.992410 
2100.000000	57.975554 
2099.000000	57.954740 
2098.000000	57.932186 
2097.000000	57.910346 
2096.000000	57.891607 
2095.000000	57.877874 
2094.000000	57.870578 
2093.000000	57.870650 
2092.000000	57.878327 
2091.000000	57.893490 
2090.000000	57.915878 
2089.000000	57.944440 
2088.000000	57.977700 
2087.000000	58.013796 
2086.000000	58.050465 
2085.000000	58.085060 
2084.000000	58.114957 
2083.000000	58.138060 
2082.000000	58.152890 
2081.000000	58.159089 
2080.000000	58.156776 
2079.000000	58.146929 
2078.000000	58.130407 
2077.000000	58.108305 
2076.000000	58.081316 
2075.000000	58.049917 
2074.000000	58.014416 
2073.000000	57.975482 
2072.000000	57.934331 
2071.000000	57.893013 
2070.000000	57.854056 
2069.000000	57.820200 
2068.000000	57.793593 
2067.000000	57.775282 
2066.000000	57.764577 
2065.000000	57.759189 
2064.000000	57.755565 
2063.000000	57.749843 
2062.000000	57.738542 
2061.000000	57.719492 
2060.000000	57.692527 
2059.000000	57.659435 
2058.000000	57.623171 
2057.000000	57.587552 
2056.000000	57.556319 
2055.000000	57.532501 
2054.000000	57.517433 
2053.000000	57.511472 
2052.000000	57.513666 
2051.000000	57.522821 
2050.000000	57.537293 
2049.000000	57.555794 
2048.000000	57.577085 
2047.000000	57.600259 
2046.000000	57.624244 
2045.000000	57.647752 
2044.000000	57.668876 
2043.000000	57.685708 
2042.000000	57.696437 
2041.000000	57.699751 
2040.000000	57.694935 
2039.000000	57.682490 
2038.000000	57.664108 
2037.000000	57.642221 
2036.000000	57.619595 
2035.000000	57.599091 
2034.000000	57.582855 
2033.000000	57.572054 
2032.000000	57.566428 
2031.000000	57.564759 
2030.000000	57.564783 
2029.000000	57.563900 
2028.000000	57.559418 
2027.000000	57.549452 
2026.000000	57.533216 
2025.000000	57.511019 
2024.000000	57.484388 
2023.000000	57.455778 
2022.000000	57.428097 
2021.000000	57.404351 
2020.000000	57.386922 
2019.000000	57.377219 
2018.000000	57.375645 
2017.000000	57.381844 
2016.000000	57.394576 
2015.000000	57.411980 
2014.000000	57.432103 
2013.000000	57.453036 
2012.000000	57.473111 
2011.000000	57.490777 
2010.000000	57.504868 
2009.000000	57.514619 
2008.000000	57.519674 
2007.000000	57.519960 
2006.000000	57.516026 
2005.000000	57.508635 
2004.000000	57.499146 
2003.000000	57.488918 
2002.000000	57.479310 
2001.000000	57.471203 
2000.000000	57.465100 
1999.000000	57.460713 
1998.000000	57.457327 
1997.000000	57.453656 
1996.000000	57.448339 
1995.000000	57.440114 
1994.000000	57.428216 
1993.000000	57.412457 
1992.000000	57.393240 
1991.000000	57.371544 
1990.000000	57.348465 
1989.000000	57.325100 
1988.000000	57.302451 
1987.000000	57.281136 
1986.000000	57.261514 
1985.000000	57.243752 
1984.000000	57.227778 
1983.000000	57.213783 
1982.000000	57.202029 
1981.000000	57.192945 
1980.000000	57.186746 
1979.000000	57.183766 
1978.000000	57.183909 
1977.000000	57.186746 
1976.000000	57.191252 
1975.000000	57.196140 
1974.000000	57.199931 
1973.000000	57.201123 
1972.000000	57.198667 
1971.000000	57.192277 
1970.000000	57.182312 
1969.000000	57.169866 
1968.000000	57.156562 
1967.000000	57.144165 
1966.000000	57.134199 
1965.000000	57.127761 
1964.000000	57.125234 
1963.000000	57.126283 
1962.000000	57.129979 
1961.000000	57.135152 
1960.000000	57.140445 
1959.000000	57.144641 
1958.000000	57.146692 
1957.000000	57.146000 
1956.000000	57.142305 
1955.000000	57.135677 
1954.000000	57.126522 
1953.000000	57.115507 
1952.000000	57.103586 
1951.000000	57.091784 
1950.000000	57.081127 
1949.000000	57.072353 
1948.000000	57.065820 
1947.000000	57.061147 
1946.000000	57.057428 
1945.000000	57.053422 
1944.000000	57.047724 
1943.000000	57.039356 
1942.000000	57.027840 
1941.000000	57.013463 
1940.000000	56.997323 
1939.000000	56.980800 
1938.000000	56.965517 
1937.000000	56.952667 
1936.000000	56.942844 
1935.000000	56.935954 
1934.000000	56.931233 
1933.000000	56.927442 
1932.000000	56.923341 
1931.000000	56.918144 
1930.000000	56.911563 
1929.000000	56.904125 
1928.000000	56.896948 
1927.000000	56.891441 
1926.000000	56.888842 
1925.000000	56.889915 
1924.000000	56.894683 
1923.000000	56.902265 
1922.000000	56.911015 
1921.000000	56.918978 
1920.000000	56.924057 
1919.000000	56.924653 
1918.000000	56.919836 
1917.000000	56.909584 
1916.000000	56.894612 
1915.000000	56.876397 
1914.000000	56.856703 
1913.000000	56.837201 
1912.000000	56.819272 
1911.000000	56.803989 
1910.000000	56.791925 
1909.000000	56.783223 
1908.000000	56.777882 
1907.000000	56.775808 
1906.000000	56.776714 
1905.000000	56.780052 
1904.000000	56.785082 
1903.000000	56.790781 
1902.000000	56.796121 
1901.000000	56.800246 
1900.000000	56.802320 
1899.000000	56.801819 
1898.000000	56.798863 
1897.000000	56.793594 
1896.000000	56.786537 
1895.000000	56.778073 
1894.000000	56.768488 
1893.000000	56.757760 
1892.000000	56.745648 
1891.000000	56.732058 
1890.000000	56.717014 
1889.000000	56.700778 
1888.000000	56.684064 
1887.000000	56.667876 
1886.000000	56.653308 
1885.000000	56.641435 
1884.000000	56.632900 
1883.000000	56.627964 
1882.000000	56.626462 
1881.000000	56.627917 
1880.000000	56.631636 
1879.000000	56.636738 
1878.000000	56.642103 
1877.000000	56.646537 
1876.000000	56.648635 
1875.000000	56.646871 
1874.000000	56.639838 
1873.000000	56.626391 
1872.000000	56.605911 
1871.000000	56.578731 
1870.000000	56.546258 
1869.000000	56.510877 
1868.000000	56.475615 
1867.000000	56.443810 
1866.000000	56.418514 
1865.000000	56.401729 
1864.000000	56.394338 
1863.000000	56.395697 
1862.000000	56.403994 
1861.000000	56.416583 
1860.000000	56.430673 
1859.000000	56.443786 
1858.000000	56.454277 
1857.000000	56.461429 
1856.000000	56.465554 
1855.000000	56.467556 
1854.000000	56.468725 
1853.000000	56.470227 
1852.000000	56.472778 
1851.000000	56.476473 
1850.000000	56.480956 
1849.000000	56.485414 
1848.000000	56.488776 
1847.000000	56.489896 
1846.000000	56.487870 
1845.000000	56.481981 
1844.000000	56.471800 
1843.000000	56.457185 
1842.000000	56.438302 
1841.000000	56.415891 
1840.000000	56.391263 
1839.000000	56.366157 
1838.000000	56.342768 
1837.000000	56.323218 
1836.000000	56.309270 
1835.000000	56.301903 
1834.000000	56.300950 
1833.000000	56.305289 
1832.000000	56.312870 
1831.000000	56.321430 
1830.000000	56.328630 
1829.000000	56.332802 
1828.000000	56.333041 
1827.000000	56.329345 
1826.000000	56.322336 
1825.000000	56.313133 
1824.000000	56.303048 
1823.000000	56.293225 
1822.000000	56.284642 
1821.000000	56.278085 
1820.000000	56.274223 
1819.000000	56.273531 
1818.000000	56.276106 
1817.000000	56.281614 
1816.000000	56.288933 
1815.000000	56.296396 
1814.000000	56.301975 
1813.000000	56.303358 
1812.000000	56.298828 
1811.000000	56.287598 
1810.000000	56.270003 
1809.000000	56.247401 
1808.000000	56.222176 
1807.000000	56.196951 
1806.000000	56.174445 
1805.000000	56.156587 
1804.000000	56.144452 
1803.000000	56.138348 
1802.000000	56.137871 
1801.000000	56.142401 
1800.000000	56.150984 
1799.000000	56.162619 
1798.000000	56.176066 
1797.000000	56.189942 
1796.000000	56.202411 
1795.000000	56.211566 
1794.000000	56.215739 
1793.000000	56.213855 
1792.000000	56.206059 
1791.000000	56.193661 
1790.000000	56.178832 
1789.000000	56.164169 
1788.000000	56.152033 
1787.000000	56.143784 
1786.000000	56.139588 
1785.000000	56.138467 
1784.000000	56.138539 
1783.000000	56.137919 
1782.000000	56.135702 
1781.000000	56.131911 
1780.000000	56.127834 
1779.000000	56.125068 
1778.000000	56.125211 
1777.000000	56.128621 
1776.000000	56.134033 
1775.000000	56.138682 
1774.000000	56.139063 
1773.000000	56.131792 
1772.000000	56.114768 
1771.000000	56.087851 
1770.000000	56.053400 
1769.000000	56.015467 
1768.000000	55.979108 
1767.000000	55.949211 
1766.000000	55.929422 
1765.000000	55.921244 
1764.000000	55.924081 
1763.000000	55.935621 
1762.000000	55.952429 
1761.000000	55.970954 
1760.000000	55.987906 
1759.000000	56.000924 
1758.000000	56.008553 
1757.000000	56.009864 
1756.000000	56.004476 
1755.000000	55.992102 
1754.000000	55.972623 
1753.000000	55.946421 
1752.000000	55.914139 
1751.000000	55.876946 
1750.000000	55.836415 
1749.000000	55.794811 
1748.000000	55.754446 
1747.000000	55.717444 
1746.000000	55.685544 
1745.000000	55.659937 
1744.000000	55.641388 
1743.000000	55.630207 
1742.000000	55.626440 
1741.000000	55.629754 
1740.000000	55.639457 
1739.000000	55.654406 
1738.000000	55.672812 
1737.000000	55.692291 
1736.000000	55.709958 
1735.000000	55.722808 
1734.000000	55.728459 
1733.000000	55.725359 
1732.000000	55.713033 
1731.000000	55.692577 
1730.000000	55.666255 
1729.000000	55.637574 
1728.000000	55.610609 
1727.000000	55.589699 
1726.000000	55.578446 
1725.000000	55.579519 
1724.000000	55.594158 
1723.000000	55.621862 
1722.000000	55.660486 
1721.000000	55.706071 
1720.000000	55.753564 
1719.000000	55.797195 
1718.000000	55.831742 
1717.000000	55.852937 
1716.000000	55.858206 
1715.000000	55.847382 
1714.000000	55.822515 
1713.000000	55.787658 
1712.000000	55.747842 
1711.000000	55.708599 
1710.000000	55.674743 
1709.000000	55.650210 
1708.000000	55.637454 
1707.000000	55.637502 
1706.000000	55.649590 
1705.000000	55.671787 
1704.000000	55.701041 
1703.000000	55.733513 
1702.000000	55.764913 
1701.000000	55.791020 
1700.000000	55.808401 
1699.000000	55.814385 
1698.000000	55.808019 
1697.000000	55.789923 
1696.000000	55.762696 
1695.000000	55.730342 
1694.000000	55.697965 
1693.000000	55.670905 
1692.000000	55.653643 
1691.000000	55.649065 
1690.000000	55.657529 
1689.000000	55.676603 
1688.000000	55.701518 
1687.000000	55.726099 
1686.000000	55.743765 
1685.000000	55.748915 
1684.000000	55.738282 
1683.000000	55.711555 
1682.000000	55.671358 
1681.000000	55.622744 
1680.000000	55.572032 
1679.000000	55.525302 
1678.000000	55.487442 
1677.000000	55.460834 
1676.000000	55.445480 
1675.000000	55.438876 
1674.000000	55.437493 
1673.000000	55.436897 
1672.000000	55.433034 
1671.000000	55.422830 
1670.000000	55.404663 
1669.000000	55.378556 
1668.000000	55.345320 
1667.000000	55.307626 
1666.000000	55.268836 
1665.000000	55.233550 
1664.000000	55.206561 
1663.000000	55.192899 
1662.000000	55.196833 
1661.000000	55.221223 
1660.000000	55.266547 
1659.000000	55.330371 
1658.000000	55.407142 
1657.000000	55.488896 
1656.000000	55.566358 
1655.000000	55.630683 
1654.000000	55.674695 
1653.000000	55.694532 
1652.000000	55.689406 
1651.000000	55.661582 
1650.000000	55.615210 
1649.000000	55.555891 
1648.000000	55.489087 
1647.000000	55.419754 
1646.000000	55.351638 
1645.000000	55.288338 
1644.000000	55.232453 
1643.000000	55.186367 
1642.000000	55.151486 
1641.000000	55.128526 
1640.000000	55.116963 
1639.000000	55.114889 
1638.000000	55.119323 
1637.000000	55.126261 
1636.000000	55.131912 
1635.000000	55.133271 
1634.000000	55.128908 
1633.000000	55.118989 
1632.000000	55.105090 
1631.000000	55.089592 
1630.000000	55.074763 
1629.000000	55.062246 
1628.000000	55.053091 
1627.000000	55.047774 
1626.000000	55.046272 
1625.000000	55.048513 
1624.000000	55.054664 
1623.000000	55.064964 
1622.000000	55.079293 
1621.000000	55.096673 
1620.000000	55.115151 
1619.000000	55.131936 
1618.000000	55.143761 
1617.000000	55.147576 
1616.000000	55.141282 
1615.000000	55.124378 
1614.000000	55.098772 
1613.000000	55.067706 
1612.000000	55.035209 
1611.000000	55.004978 
1610.000000	54.979848 
1609.000000	54.960751 
1608.000000	54.946780 
1607.000000	54.935646 
1606.000000	54.924416 
1605.000000	54.910278 
1604.000000	54.891276 
1603.000000	54.866623 
1602.000000	54.836940 
1601.000000	54.803824 
1600.000000	54.769539 
1599.000000	54.736328 
1598.000000	54.706215 
1597.000000	54.680418 
1596.000000	54.659485 
1595.000000	54.643464 
1594.000000	54.631853 
1593.000000	54.623579 
1592.000000	54.617595 
1591.000000	54.612708 
1590.000000	54.608154 
1589.000000	54.603362 
1588.000000	54.598522 
1587.000000	54.594111 
1586.000000	54.591131 
1585.000000	54.590845 
1584.000000	54.594349 
1583.000000	54.602122 
1582.000000	54.614067 
1581.000000	54.629254 
1580.000000	54.646182 
1579.000000	54.663109 
1578.000000	54.678416 
1577.000000	54.690861 
1576.000000	54.700040 
1575.000000	54.706192 
1574.000000	54.709935 
1573.000000	54.711890 
1572.000000	54.712557 
1571.000000	54.712677 
1570.000000	54.712843 
1569.000000	54.714179 
1568.000000	54.718184 
1567.000000	54.726433 
1566.000000	54.740571 
1565.000000	54.761147 
1564.000000	54.787755 
1563.000000	54.817891 
1562.000000	54.847669 
1561.000000	54.871869 
1560.000000	54.885196 
1559.000000	54.883360 
1558.000000	54.864239 
1557.000000	54.828381 
1556.000000	54.779195 
1555.000000	54.722023 
1554.000000	54.663228 
1553.000000	54.609107 
1552.000000	54.564714 
1551.000000	54.533720 
1550.000000	54.518079 
1549.000000	54.518151 
1548.000000	54.532718 
1547.000000	54.559302 
1546.000000	54.594349 
1545.000000	54.633021 
1544.000000	54.669976 
1543.000000	54.700016 
1542.000000	54.718637 
1541.000000	54.723191 
1540.000000	54.712843 
1539.000000	54.688835 
1538.000000	54.654264 
1537.000000	54.613518 
1536.000000	54.571270 
1535.000000	54.531884 
1534.000000	54.498529 
1533.000000	54.472970 
1532.000000	54.455709 
1531.000000	54.446482 
1530.000000	54.444503 
1529.000000	54.448938 
1528.000000	54.459023 
1527.000000	54.474091 
1526.000000	54.493117 
1525.000000	54.514455 
1524.000000	54.535555 
1523.000000	54.553270 
1522.000000	54.564261 
1521.000000	54.565906 
1520.000000	54.556703 
1519.000000	54.537105 
1518.000000	54.509615 
1517.000000	54.478788 
1516.000000	54.450654 
1515.000000	54.431366 
1514.000000	54.426002 
1513.000000	54.437041 
1512.000000	54.464197 
1511.000000	54.503536 
1510.000000	54.548692 
1509.000000	54.591846 
1508.000000	54.625463 
1507.000000	54.643917 
1506.000000	54.644536 
1505.000000	54.627895 
1504.000000	54.597163 
1503.000000	54.557347 
1502.000000	54.513955 
1501.000000	54.471802 
1500.000000	54.434013 
1499.000000	54.401969 
1498.000000	54.375410 
1497.000000	54.353094 
1496.000000	54.333567 
1495.000000	54.315638 
1494.000000	54.298543 
1493.000000	54.281711 
1492.000000	54.264664 
1491.000000	54.246687 
1490.000000	54.226899 
1489.000000	54.204249 
1488.000000	54.178285 
1487.000000	54.149270 
1486.000000	54.118561 
1485.000000	54.088401 
1484.000000	54.061651 
1483.000000	54.040932 
1482.000000	54.028487 
1481.000000	54.025292 
1480.000000	54.031205 
1479.000000	54.044628 
1478.000000	54.062771 
1477.000000	54.082226 
1476.000000	54.099154 
1475.000000	54.109954 
1474.000000	54.111790 
1473.000000	54.103136 
1472.000000	54.083871 
1471.000000	54.055356 
1470.000000	54.020190 
1469.000000	53.982090 
1468.000000	53.945374 
1467.000000	53.914594 
1466.000000	53.893876 
1465.000000	53.886318 
1464.000000	53.893423 
1463.000000	53.914499 
1462.000000	53.946638 
1461.000000	53.985118 
1460.000000	54.023647 
1459.000000	54.055976 
1458.000000	54.076743 
1457.000000	54.083085 
1456.000000	54.074811 
1455.000000	54.054713 
1454.000000	54.027891 
1453.000000	54.000329 
1452.000000	53.977966 
1451.000000	53.964710 
1450.000000	53.961801 
1449.000000	53.967475 
1448.000000	53.977656 
1447.000000	53.987336 
1446.000000	53.991913 
1445.000000	53.988313 
1444.000000	53.975749 
1443.000000	53.955721 
1442.000000	53.931188 
1441.000000	53.905534 
1440.000000	53.881478 
1439.000000	53.860664 
1438.000000	53.843140 
1437.000000	53.827953 
1436.000000	53.812980 
1435.000000	53.795909 
1434.000000	53.774833 
1433.000000	53.748512 
1432.000000	53.717207 
1431.000000	53.682351 
1430.000000	53.646779 
1429.000000	53.613877 
1428.000000	53.587174 
1427.000000	53.569626 
1426.000000	53.562951 
1425.000000	53.567171 
1424.000000	53.580546 
1423.000000	53.599691 
1422.000000	53.620409 
1421.000000	53.638505 
1420.000000	53.650617 
1419.000000	53.654813 
1418.000000	53.650927 
1417.000000	53.640198 
1416.000000	53.624820 
1415.000000	53.606939 
1414.000000	53.588008 
1413.000000	53.568482 
1412.000000	53.547859 
1411.000000	53.525257 
1410.000000	53.499937 
1409.000000	53.471922 
1408.000000	53.442311 
1407.000000	53.413152 
1406.000000	53.386878 
1405.000000	53.366184 
1404.000000	53.352856 
1403.000000	53.347897 
1402.000000	53.350877 
1401.000000	53.360629 
1400.000000	53.375387 
1399.000000	53.393292 
1398.000000	53.412842 
1397.000000	53.432822 
1396.000000	53.452277 
1395.000000	53.470277 
1394.000000	53.485631 
1393.000000	53.496813 
1392.000000	53.502106 
1391.000000	53.499937 
1390.000000	53.489351 
1389.000000	53.470134 
1388.000000	53.443098 
1387.000000	53.410124 
1386.000000	53.373837 
1385.000000	53.337216 
1384.000000	53.302884 
1383.000000	53.273200 
1382.000000	53.249502 
1381.000000	53.232169 
1380.000000	53.220629 
1379.000000	53.213620 
1378.000000	53.209495 
1377.000000	53.206396 
1376.000000	53.202676 
1375.000000	53.197002 
1374.000000	53.188467 
1373.000000	53.176593 
1372.000000	53.161382 
1371.000000	53.143215 
1370.000000	53.122758 
1369.000000	53.101110 
1368.000000	53.079509 
1367.000000	53.059005 
1366.000000	53.040742 
1365.000000	53.025650 
1364.000000	53.014373 
1363.000000	53.007102 
1362.000000	53.003835 
1361.000000	53.004503 
1360.000000	53.008866 
1359.000000	53.016543 
1358.000000	53.027033 
1357.000000	53.039646 
1356.000000	53.053569 
1355.000000	53.067588 
1354.000000	53.080296 
1353.000000	53.090119 
1352.000000	53.095793 
1351.000000	53.096604 
1350.000000	53.092432 
1349.000000	53.083777 
1348.000000	53.072023 
1347.000000	53.058624 
1346.000000	53.045177 
1345.000000	53.032732 
1344.000000	53.021693 
1343.000000	53.011560 
1342.000000	53.001475 
1341.000000	52.990198 
1340.000000	52.976560 
1339.000000	52.959847 
1338.000000	52.940034 
1337.000000	52.917742 
1336.000000	52.894139 
1335.000000	52.870821 
1334.000000	52.849435 
1333.000000	52.831411 
1332.000000	52.817821 
1331.000000	52.809190 
1330.000000	52.805852 
1329.000000	52.807593 
1328.000000	52.813959 
1327.000000	52.824401 
1326.000000	52.838349 
1325.000000	52.854800 
1324.000000	52.872824 
1323.000000	52.891063 
1322.000000	52.907872 
1321.000000	52.921676 
1320.000000	52.930760 
1319.000000	52.933740 
1318.000000	52.929663 
1317.000000	52.918314 
1316.000000	52.900052 
1315.000000	52.875947 
1314.000000	52.847552 
1313.000000	52.816605 
1312.000000	52.784872 
1311.000000	52.753877 
1310.000000	52.724909 
1309.000000	52.698779 
1308.000000	52.675914 
1307.000000	52.656602 
1306.000000	52.640628 
1305.000000	52.627801 
1304.000000	52.617549 
1303.000000	52.609300 
1302.000000	52.602291 
1301.000000	52.596068 
1300.000000	52.590227 
1299.000000	52.584815 
1298.000000	52.580332 
1297.000000	52.577543 
1296.000000	52.577352 
1295.000000	52.580499 
1294.000000	52.587246 
1293.000000	52.597141 
1292.000000	52.609062 
1291.000000	52.621078 
1290.000000	52.630972 
1289.000000	52.636337 
1288.000000	52.635192 
1287.000000	52.626180 
1286.000000	52.609038 
1285.000000	52.584338 
1284.000000	52.553510 
1283.000000	52.518463 
1282.000000	52.481532 
1281.000000	52.444791 
1280.000000	52.410149 
1279.000000	52.379107 
1278.000000	52.352929 
1277.000000	52.332520 
1276.000000	52.318739 
1275.000000	52.311992 
1274.000000	52.312541 
1273.000000	52.320170 
1272.000000	52.334213 
1271.000000	52.353143 
1270.000000	52.374935 
1269.000000	52.397060 
1268.000000	52.417230 
1267.000000	52.433395 
1266.000000	52.444386 
1265.000000	52.450084 
1264.000000	52.451419 
1263.000000	52.450060 
1262.000000	52.447891 
1261.000000	52.446413 
1260.000000	52.446293 
1259.000000	52.447342 
1258.000000	52.448534 
1257.000000	52.448606 
1256.000000	52.446413 
1255.000000	52.441239 
1254.000000	52.433204 
1253.000000	52.422833 
1252.000000	52.410960 
1251.000000	52.398371 
1250.000000	52.385354 
1249.000000	52.371549 
1248.000000	52.356195 
1247.000000	52.338385 
1246.000000	52.317404 
1245.000000	52.293372 
1244.000000	52.267026 
1243.000000	52.240109 
1242.000000	52.215099 
1241.000000	52.194571 
1240.000000	52.180600 
1239.000000	52.174568 
1238.000000	52.176666 
1237.000000	52.185916 
1236.000000	52.200222 
1235.000000	52.216911 
1234.000000	52.233242 
1233.000000	52.246880 
1232.000000	52.256202 
1231.000000	52.260494 
1230.000000	52.260041 
1229.000000	52.255725 
1228.000000	52.248811 
1227.000000	52.240490 
1226.000000	52.231335 
1225.000000	52.221417 
1224.000000	52.210116 
1223.000000	52.196335 
1222.000000	52.178740 
1221.000000	52.156352 
1220.000000	52.128648 
1219.000000	52.095961 
1218.000000	52.059626 
1217.000000	52.021479 
1216.000000	51.984119 
1215.000000	51.950192 
1214.000000	51.922106 
1213.000000	51.901531 
1212.000000	51.889348 
1211.000000	51.885294 
1210.000000	51.888179 
1209.000000	51.896119 
1208.000000	51.906728 
1207.000000	51.917576 
1206.000000	51.926541 
1205.000000	51.932048 
1204.000000	51.933407 
1203.000000	51.930737 
1202.000000	51.924943 
1201.000000	51.917338 
1200.000000	51.909565 
1199.000000	51.903104 
1198.000000	51.899051 
1197.000000	51.897978 
1196.000000	51.899576 
1195.000000	51.902866 
1194.000000	51.906442 
1193.000000	51.908636 
1192.000000	51.907825 
1191.000000	51.902794 
1190.000000	51.892876 
1189.000000	51.878356 
1188.000000	51.860046 
1187.000000	51.839494 
1186.000000	51.818633 
1185.000000	51.799607 
1184.000000	51.784253 
1183.000000	51.774024 
1182.000000	51.769876 
1181.000000	51.771855 
1180.000000	51.779365 
1179.000000	51.791048 
1178.000000	51.804924 
1177.000000	51.819062 
1176.000000	51.831650 
1175.000000	51.841139 
1174.000000	51.846528 
1173.000000	51.847338 
1172.000000	51.843857 
1171.000000	51.836609 
1170.000000	51.826262 
1169.000000	51.813721 
1168.000000	51.799654 
1167.000000	51.784706 
1166.000000	51.769328 
1165.000000	51.754021 
1164.000000	51.739454 
1163.000000	51.726198 
1162.000000	51.714849 
1161.000000	51.705884 
1160.000000	51.699399 
1159.000000	51.695299 
1158.000000	51.692962 
1157.000000	51.691603 
1156.000000	51.690292 
1155.000000	51.688289 
1154.000000	51.684999 
1153.000000	51.680064 
1152.000000	51.673412 
1151.000000	51.665258 
1150.000000	51.655960 
1149.000000	51.646065 
1148.000000	51.636099 
1147.000000	51.626586 
1146.000000	51.617860 
1145.000000	51.610112 
1144.000000	51.603007 
1143.000000	51.595759 
1142.000000	51.587080 
1141.000000	51.575326 
1140.000000	51.558756 
1139.000000	51.536154 
1138.000000	51.507186 
1137.000000	51.472711 
1136.000000	51.434922 
1135.000000	51.397037 
1134.000000	51.362586 
1133.000000	51.335024 
1132.000000	51.316738 
1131.000000	51.309013 
1130.000000	51.311492 
1129.000000	51.322746 
1128.000000	51.340365 
1127.000000	51.361727 
1126.000000	51.384329 
1125.000000	51.406168 
1124.000000	51.425743 
1123.000000	51.442170 
1122.000000	51.454806 
1121.000000	51.463222 
1120.000000	51.467013 
1119.000000	51.465988 
1118.000000	51.460194 
1117.000000	51.450252 
1116.000000	51.436996 
1115.000000	51.421642 
1114.000000	51.405501 
1113.000000	51.389622 
1112.000000	51.374626 
1111.000000	51.360869 
1110.000000	51.348161 
1109.000000	51.336002 
1108.000000	51.323843 
1107.000000	51.311039 
1106.000000	51.297378 
1105.000000	51.282906 
1104.000000	51.268219 
1103.000000	51.254081 
1102.000000	51.241779 
1101.000000	51.232528 
1100.000000	51.227521 
1099.000000	51.227378 
1098.000000	51.231861 
1097.000000	51.240015 
1096.000000	51.249790 
1095.000000	51.258611 
1094.000000	51.263475 
1093.000000	51.261568 
1092.000000	51.250672 
1091.000000	51.229596 
1090.000000	51.198601 
1089.000000	51.159024 
1088.000000	51.113152 
1087.000000	51.063680 
1086.000000	51.013422 
1085.000000	50.964951 
1084.000000	50.920176 
1083.000000	50.880813 
1082.000000	50.848078 
1081.000000	50.822997 
1080.000000	50.806236 
1079.000000	50.798249 
1078.000000	50.798892 
1077.000000	50.807428 
1076.000000	50.822329 
1075.000000	50.841426 
1074.000000	50.861597 
1073.000000	50.879597 
1072.000000	50.892329 
1071.000000	50.897574 
1070.000000	50.894355 
1069.000000	50.883555 
1068.000000	50.867676 
1067.000000	50.850701 
1066.000000	50.837182 
1065.000000	50.831365 
1064.000000	50.836420 
1063.000000	50.853610 
1062.000000	50.882029 
1061.000000	50.918722 
1060.000000	50.959348 
1059.000000	50.999307 
1058.000000	51.034498 
1057.000000	51.062250 
1056.000000	51.081466 
1055.000000	51.092910 
1054.000000	51.098036 
1053.000000	51.098275 
1052.000000	51.093935 
1051.000000	51.084756 
1050.000000	51.069450 
1049.000000	51.046824 
1048.000000	51.016354 
1047.000000	50.979065 
1046.000000	50.937366 
1045.000000	50.895047 
1044.000000	50.855970 
1043.000000	50.823259 
1042.000000	50.798702 
1041.000000	50.782275 
1040.000000	50.772333 
1039.000000	50.766062 
1038.000000	50.760698 
1037.000000	50.754356 
1036.000000	50.746369 
1035.000000	50.737500 
1034.000000	50.729417 
1033.000000	50.724458 
1032.000000	50.724267 
1031.000000	50.729727 
1030.000000	50.740647 
1029.000000	50.755739 
1028.000000	50.773048 
1027.000000	50.790405 
1026.000000	50.805950 
1025.000000	50.818133 
1024.000000	50.825786 
1023.000000	50.828003 
1022.000000	50.824189 
1021.000000	50.813984 
1020.000000	50.797438 
1019.000000	50.775218 
1018.000000	50.748729 
1017.000000	50.720047 
1016.000000	50.691699 
1015.000000	50.666284 
1014.000000	50.645613 
1013.000000	50.630521 
1012.000000	50.620603 
1011.000000	50.614309 
1010.000000	50.609469 
1009.000000	50.603866 
1008.000000	50.596117 
1007.000000	50.585842 
1006.000000	50.573921 
1005.000000	50.562024 
1004.000000	50.552105 
1003.000000	50.545573 
1002.000000	50.542998 
1001.000000	50.543618 
1000.000000	50.545859 
999.000000	 50.547599 
998.000000	 50.546860 
997.000000	 50.542402 
996.000000	 50.533866 
995.000000	 50.521755 
994.000000	 50.507044 
993.000000	 50.490665 
992.000000	 50.473332 
991.000000	 50.455117 
990.000000	 50.435566 
989.000000	 50.414109 
988.000000	 50.390291 
987.000000	 50.364375 
986.000000	 50.337219 
985.000000	 50.310492 
984.000000	 50.285816 
983.000000	 50.264406 
982.000000	 50.246953 
981.000000	 50.233364 
980.000000	 50.222969 
979.000000	 50.214648 
978.000000	 50.207209 
977.000000	 50.199747 
976.000000	 50.191712 
975.000000	 50.183153 
974.000000	 50.174021 
973.000000	 50.164937 
972.000000	 50.156593 
971.000000	 50.150227 
970.000000	 50.147080 
969.000000	 50.148344 
968.000000	 50.155186 
967.000000	 50.167560 
966.000000	 50.184392 
965.000000	 50.203108 
964.000000	 50.219964 
963.000000	 50.230860 
962.000000	 50.232148 
961.000000	 50.221872 
960.000000	 50.200486 
959.000000	 50.171256 
958.000000	 50.139379 
957.000000	 50.110816 
956.000000	 50.090742 
955.000000	 50.081682 
954.000000	 50.082945 
953.000000	 50.090765 
952.000000	 50.099229 
951.000000	 50.102257 
950.000000	 50.095009 
949.000000	 50.075554 
948.000000	 50.045180 
947.000000	 50.008201 
946.000000	 49.970293 
945.000000	 49.936723 
944.000000	 49.910640 
943.000000	 49.892735 
942.000000	 49.880576 
941.000000	 49.869155 
940.000000	 49.853110 
939.000000	 49.828529 
938.000000	 49.794173 
937.000000	 49.752330 
936.000000	 49.707722 
935.000000	 49.666166 
934.000000	 49.632978 
933.000000	 49.611401 
932.000000	 49.601149 
931.000000	 49.598479 
930.000000	 49.597477 
929.000000	 49.591898 
928.000000	 49.576854 
927.000000	 49.550390 
926.000000	 49.513459 
925.000000	 49.470186 
924.000000	 49.426412 
923.000000	 49.388790 
922.000000	 49.361848 
921.000000	 49.349045 
920.000000	 49.351501 
919.000000	 49.370121 
918.000000	 49.405789 
917.000000	 49.459648 
916.000000	 49.533414 
915.000000	 49.627137 
914.000000	 49.738454 
913.000000	 49.860405 
912.000000	 49.981856 
911.000000	 50.088191 
910.000000	 50.163984 
909.000000	 50.196075 
908.000000	 50.176906 
907.000000	 50.105881 
906.000000	 49.990391 
905.000000	 49.843788 
904.000000	 49.683380 
903.000000	 49.527335 
902.000000	 49.392104 
901.000000	 49.289655 
900.000000	 49.227166 
899.000000	 49.207568 
898.000000	 49.230241 
897.000000	 49.292016 
896.000000	 49.387717 
895.000000	 49.510145 
894.000000	 49.650526 
893.000000	 49.797224 
892.000000	 49.937295 
891.000000	 50.056934 
890.000000	 50.143933 
889.000000	 50.189471 
888.000000	 50.189805 
887.000000	 50.147223 
886.000000	 50.069499 
885.000000	 49.969077 
884.000000	 49.859881 
883.000000	 49.755883 
882.000000	 49.667000 
881.000000	 49.598646 
880.000000	 49.549865 
879.000000	 49.514913 
878.000000	 49.484252 
877.000000	 49.447655 
876.000000	 49.396562 
875.000000	 49.326705 
874.000000	 49.238705 
873.000000	 49.138569 
872.000000	 49.035072 
871.000000	 48.938441 
870.000000	 48.857903 
869.000000	 48.800110 
868.000000	 48.767518 
867.000000	 48.758840 
866.000000	 48.769354 
865.000000	 48.792886 
864.000000	 48.823475 
863.000000	 48.856377 
862.000000	 48.887825 
861.000000	 48.916077 
860.000000	 48.940992 
859.000000	 48.962950 
858.000000	 48.981595 
857.000000	 48.995971 
856.000000	 49.004554 
855.000000	 49.005675 
854.000000	 48.998188 
853.000000	 48.981785 
852.000000	 48.957824 
851.000000	 48.929142 
850.000000	 48.900008 
849.000000	 48.874998 
848.000000	 48.858046 
847.000000	 48.852181 
846.000000	 48.858809 
845.000000	 48.877739 
844.000000	 48.907208 
843.000000	 48.944544 
842.000000	 48.986482 
841.000000	 49.029588 
840.000000	 49.070167 
839.000000	 49.105048 
838.000000	 49.130845 
837.000000	 49.144196 
836.000000	 49.141907 
835.000000	 49.121999 
834.000000	 49.083733 
833.000000	 49.028754 
832.000000	 48.960375 
831.000000	 48.884105 
830.000000	 48.805880 
829.000000	 48.731660 
828.000000	 48.665857 
827.000000	 48.610639 
826.000000	 48.566055 
825.000000	 48.530411 
824.000000	 48.501229 
823.000000	 48.476099 
822.000000	 48.453831 
821.000000	 48.434400 
820.000000	 48.418521 
819.000000	 48.407316 
818.000000	 48.400998 
817.000000	 48.398923 
816.000000	 48.398923 
815.000000	 48.398399 
814.000000	 48.395323 
813.000000	 48.389101 
812.000000	 48.381090 
811.000000	 48.374247 
810.000000	 48.372840 
809.000000	 48.380637 
808.000000	 48.399400 
807.000000	 48.428320 
806.000000	 48.463439 
805.000000	 48.498988 
804.000000	 48.528337 
803.000000	 48.546004 
802.000000	 48.548913 
801.000000	 48.537373 
800.000000	 48.514914 
799.000000	 48.487138 
798.000000	 48.459863 
797.000000	 48.437952 
796.000000	 48.424148 
795.000000	 48.418569 
794.000000	 48.419046 
793.000000	 48.422384 
792.000000	 48.425078 
791.000000	 48.424506 
790.000000	 48.419117 
789.000000	 48.408246 
788.000000	 48.391819 
787.000000	 48.369932 
786.000000	 48.342776 
785.000000	 48.309922 
784.000000	 48.271703 
783.000000	 48.229026 
782.000000	 48.184323 
781.000000	 48.141098 
780.000000	 48.103547 
779.000000	 48.075866 
778.000000	 48.061156 
777.000000	 48.060512 
776.000000	 48.072838 
775.000000	 48.094606 
774.000000	 48.120999 
773.000000	 48.146796 
772.000000	 48.167276 
771.000000	 48.179268 
770.000000	 48.181271 
769.000000	 48.173308 
768.000000	 48.156762 
767.000000	 48.133492 
766.000000	 48.105525 
765.000000	 48.074197 
764.000000	 48.040318 
763.000000	 48.003911 
762.000000	 47.964644 
761.000000	 47.922086 
760.000000	 47.876119 
759.000000	 47.827076 
758.000000	 47.775745 
757.000000	 47.723841 
756.000000	 47.673296 
755.000000	 47.627210 
754.000000	 47.588753 
753.000000	 47.561860 
752.000000	 47.550010 
751.000000	 47.556328 
750.000000	 47.582411 
749.000000	 47.627758 
748.000000	 47.689104 
747.000000	 47.760558 
746.000000	 47.834110 
745.000000	 47.900676 
744.000000	 47.951579 
743.000000	 47.979855 
742.000000	 47.981452 
741.000000	 47.956156 
740.000000	 47.907233 
739.000000	 47.840785 
738.000000	 47.764110 
737.000000	 47.684907 
736.000000	 47.609543 
735.000000	 47.542572 
734.000000	 47.486472 
733.000000	 47.442269 
732.000000	 47.410082 
731.000000	 47.389459 
730.000000	 47.380185 
729.000000	 47.381758 
728.000000	 47.394013 
727.000000	 47.415566 
726.000000	 47.444701 
725.000000	 47.478818 
724.000000	 47.514915 
723.000000	 47.549724 
722.000000	 47.580170 
721.000000	 47.603702 
720.000000	 47.618365 
719.000000	 47.623062 
718.000000	 47.617077 
717.000000	 47.600221 
716.000000	 47.572469 
715.000000	 47.534155 
714.000000	 47.486114 
713.000000	 47.429633 
712.000000	 47.366333 
711.000000	 47.298216 
710.000000	 47.227501 
709.000000	 47.156238 
708.000000	 47.086238 
707.000000	 47.018980 
706.000000	 46.955204 
705.000000	 46.895122 
704.000000	 46.839022 
703.000000	 46.786999 
702.000000	 46.738862 
701.000000	 46.694493 
700.000000	 46.653461 
699.000000	 46.615481 
698.000000	 46.579790 
697.000000	 46.546220 
696.000000	 46.514463 
695.000000	 46.485471 
694.000000	 46.461033 
693.000000	 46.443772 
692.000000	 46.436071 
691.000000	 46.439647 
690.000000	 46.454668 
689.000000	 46.478891 
688.000000	 46.507787 
687.000000	 46.535587 
686.000000	 46.556568 
685.000000	 46.566319 
684.000000	 46.562767 
683.000000	 46.546673 
682.000000	 46.521520 
681.000000	 46.492719 
680.000000	 46.466255 
679.000000	 46.447253 
678.000000	 46.438813 
677.000000	 46.442174 
676.000000	 46.456241 
675.000000	 46.478199 
674.000000	 46.503949 
673.000000	 46.529865 
672.000000	 46.552681 
671.000000	 46.570014 
670.000000	 46.580290 
669.000000	 46.582579 
668.000000	 46.576404 
667.000000	 46.561789 
666.000000	 46.538901 
665.000000	 46.508336 
664.000000	 46.470594 
663.000000	 46.426153 
662.000000	 46.375679 
661.000000	 46.320247 
660.000000	 46.261453 
659.000000	 46.201610 
658.000000	 46.143555 
657.000000	 46.090483 
656.000000	 46.045708 
655.000000	 46.012425 
654.000000	 45.992445 
653.000000	 45.986723 
652.000000	 45.995092 
651.000000	 46.016550 
650.000000	 46.049141 
649.000000	 46.089911 
648.000000	 46.135306 
647.000000	 46.180891 
646.000000	 46.221661 
645.000000	 46.252346 
644.000000	 46.267676 
643.000000	 46.263575 
642.000000	 46.237754 
641.000000	 46.191310 
640.000000	 46.128940 
639.000000	 46.058702 
638.000000	 45.990705 
637.000000	 45.934772 
636.000000	 45.898437 
635.000000	 45.884704 
634.000000	 45.891499 
633.000000	 45.912265 
632.000000	 45.937395 
631.000000	 45.956659 
630.000000	 45.961475 
629.000000	 45.946502 
628.000000	 45.910573 
627.000000	 45.856499 
626.000000	 45.790505 
625.000000	 45.720386 
624.000000	 45.654201 
623.000000	 45.598769 
622.000000	 45.558571 
621.000000	 45.535516 
620.000000	 45.528531 
619.000000	 45.534372 
618.000000	 45.547986 
617.000000	 45.563888 
616.000000	 45.576786 
615.000000	 45.581960 
614.000000	 45.576834 
613.000000	 45.560979 
612.000000	 45.535802 
611.000000	 45.503926 
610.000000	 45.468091 
609.000000	 45.430541 
608.000000	 45.392084 
607.000000	 45.352292 
606.000000	 45.310139 
605.000000	 45.264887 
604.000000	 45.217037 
603.000000	 45.168781 
602.000000	 45.123744 
601.000000	 45.086097 
600.000000	 45.059418 
599.000000	 45.045661 
598.000000	 45.044159 
597.000000	 45.051956 
596.000000	 45.064163 
595.000000	 45.075273 
594.000000	 45.080113 
593.000000	 45.074892 
592.000000	 45.058846 
591.000000	 45.032763 
590.000000	 44.998621 
589.000000	 44.958329 
588.000000	 44.913291 
587.000000	 44.863677 
586.000000	 44.808769 
585.000000	 44.747304 
584.000000	 44.678497 
583.000000	 44.602751 
582.000000	 44.522356 
581.000000	 44.440746 
580.000000	 44.362092 
579.000000	 44.290661 
578.000000	 44.230270 
577.000000	 44.183158 
576.000000	 44.150090 
575.000000	 44.130229 
574.000000	 44.122099 
573.000000	 44.123435 
572.000000	 44.132971 
571.000000	 44.150304 
570.000000	 44.176745 
569.000000	 44.213438 
568.000000	 44.261741 
567.000000	 44.321775 
566.000000	 44.391989 
565.000000	 44.468402 
564.000000	 44.544792 
563.000000	 44.614624 
562.000000	 44.670438 
561.000000	 44.706583 
560.000000	 44.718194 
559.000000	 44.702577 
558.000000	 44.658827 
557.000000	 44.588375 
556.000000	 44.494318 
555.000000	 44.381809 
554.000000	 44.257497 
553.000000	 44.129395 
552.000000	 44.006228 
551.000000	 43.896341 
550.000000	 43.806815 
549.000000	 43.741941 
548.000000	 43.702292 
547.000000	 43.684196 
546.000000	 43.680691 
545.000000	 43.682408 
544.000000	 43.678355 
543.000000	 43.658375 
542.000000	 43.614983 
541.000000	 43.545079 
540.000000	 43.449449 
539.000000	 43.333673 
538.000000	 43.206262 
537.000000	 43.077826 
536.000000	 42.959117 
535.000000	 42.859005 
534.000000	 42.783188 
533.000000	 42.733025 
532.000000	 42.706322 
531.000000	 42.696595 
530.000000	 42.694854 
529.000000	 42.690110 
528.000000	 42.671585 
527.000000	 42.630505 
526.000000	 42.562222 
525.000000	 42.468333 
524.000000	 42.357230 
523.000000	 42.242908 
522.000000	 42.142891 
521.000000	 42.074871 
520.000000	 42.053723 
519.000000	 42.087626 
518.000000	 42.177367 
517.000000	 42.316269 
516.000000	 42.491650 
515.000000	 42.687463 
514.000000	 42.886328 
513.000000	 43.071436 
512.000000	 43.228483 
511.000000	 43.346881 
510.000000	 43.420147 
509.000000	 43.444800 
508.000000	 43.422365 
507.000000	 43.359208 
506.000000	 43.266439 
505.000000	 43.159580 
504.000000	 43.055415 
503.000000	 42.970800 
502.000000	 42.916893 
501.000000	 42.898201 
500.000000	 42.908930 
499.000000	 42.934846 
498.000000	 42.956852 
497.000000	 42.955660 
496.000000	 42.916250 
495.000000	 42.831516 
494.000000	 42.703652 
493.000000	 42.544126 
492.000000	 42.368888 
491.000000	 42.197108 
490.000000	 42.045760 
489.000000	 41.929316 
488.000000	 41.856694 
487.000000	 41.832995 
486.000000	 41.859745 
485.000000	 41.935467 
484.000000	 42.055749 
483.000000	 42.212200 
482.000000	 42.393183 
481.000000	 42.581462 
480.000000	 42.755198 
479.000000	 42.889738 
478.000000	 42.961597 
477.000000	 42.952299 
476.000000	 42.853403 
475.000000	 42.666602 
474.000000	 42.404365 
473.000000	 42.088246 
472.000000	 41.745638 
471.000000	 41.405296 
470.000000	 41.093063 
469.000000	 40.827941 
468.000000	 40.620422 
467.000000	 40.472698 
466.000000	 40.380930 
465.000000	 40.334987 
464.000000	 40.323805 
463.000000	 40.338182 
462.000000	 40.372657 
461.000000	 40.421986 
460.000000	 40.482831 
459.000000	 40.549850 
458.000000	 40.617084 
457.000000	 40.674471 
456.000000	 40.713500 
455.000000	 40.726447 
454.000000	 40.713047 
453.000000	 40.680932 
452.000000	 40.645670 
451.000000	 40.627217 
450.000000	 40.645313 
449.000000	 40.715599 
448.000000	 40.839743 
447.000000	 41.003513 
446.000000	 41.178202 
445.000000	 41.326618 
444.000000	 41.410446 
443.000000	 41.399097 
442.000000	 41.276979 
441.000000	 41.045880 
440.000000	 40.724730 
439.000000	 40.342664 
438.000000	 39.932465 
437.000000	 39.522457 
436.000000	 39.130401 
435.000000	 38.763761 
434.000000	 38.424324 
433.000000	 38.112044 
432.000000	 37.825775 
431.000000	 37.572717 
430.000000	 37.364339 
429.000000	 37.222647 
428.000000	 37.168717 
427.000000	 37.225723 
426.000000	 37.402939 
425.000000	 37.703442 
424.000000	 38.117384 
423.000000	 38.626027 
422.000000	 39.200806 
421.000000	 39.806723 
420.000000	 40.404772 
419.000000	 40.949845 
418.000000	 41.394639 
417.000000	 41.689395 
416.000000	 41.789245 
415.000000	 41.665077 
414.000000	 41.312313 
413.000000	 40.751171 
412.000000	 40.035462 
411.000000	 39.238739 
410.000000	 38.457584 
409.000000	 37.818670 
408.000000	 37.442803 
407.000000	 37.423658 
406.000000	 37.795138 
405.000000	 38.515901 
404.000000	 39.475750 
403.000000	 40.509414 
402.000000	 41.442656 
401.000000	 42.128157 
400.000000	 42.481040 
399.000000	 42.511820 
398.000000	 42.281770 
397.000000	 41.861295 
396.000000	 41.331028 
395.000000	 40.764927 
394.000000	 40.205907 
393.000000	 39.664912 
392.000000	 39.158344 
391.000000	 38.718819 
390.000000	 38.434290 
389.000000	 38.411355 
388.000000	 38.772082 
387.000000	 39.568376 
386.000000	 40.652799 
385.000000	 41.706538 
384.000000	 42.270517 
383.000000	 41.906213 
382.000000	 40.352582 
381.000000	 37.612628 
380.000000	 34.069514 
379.000000	 30.313754 
378.000000	 26.913881 
377.000000	 24.368190 
376.000000	 22.795391 
375.000000	 22.225761 
374.000000	 22.654128 
373.000000	 24.154901 
372.000000	 26.977109 
371.000000	 31.348752 
370.000000	 37.357807 

