PE IR       SPECTRUM    SPECTRUM    ASCII       PEDS        1.60        
  -1
C-4E09~1.ASC
17/03/28
00:31:10.00
17/03/28
00:31:10.00
tln
$C-4040-8_t0119$<tbV0>[-7.8,13.0,8.0,0.0,27,1,0]
370.000000
64









2002,4.07    
MIRTGS : RIGHTBACK : INTERNAL 2
MIR : ON : INTERNAL 2
OPTKBR

0.200000
8
8.000000
FILLER
RATIO
SPECTRUM
UNLOCKED 256

DOUBLE
64
COMBINED
1
0
0


1.000000
RATIO


1
0
TRUE
51149
0
LEFT NOT FITTED RIGHT NOT FITTED 0
NONE
NONE
15600
12.000000
4.427000
51148
TRUE
1 0 8 72 0 0 0 0 

15798.010000






#HDR
-1
-1
#GR
CM-1
%T
0.00002384185791015625
0.0
5000.000000
-1.000000
4631
8
72.975492
26.078534
#DATA
5000.000000	64.632058 
4999.000000	64.626193 
4998.000000	64.617919 
4997.000000	64.601850 
4996.000000	64.576506 
4995.000000	64.543199 
4994.000000	64.508080 
4993.000000	64.479136 
4992.000000	64.466738 
4991.000000	64.480185 
4990.000000	64.526867 
4989.000000	64.609885 
4988.000000	64.727544 
4987.000000	64.872980 
4986.000000	65.035033 
4985.000000	65.199708 
4984.000000	65.353202 
4983.000000	65.483975 
4982.000000	65.583848 
4981.000000	65.648341 
4980.000000	65.676665 
4979.000000	65.670204 
4978.000000	65.632176 
4977.000000	65.566301 
4976.000000	65.476942 
4975.000000	65.368771 
4974.000000	65.248990 
4973.000000	65.125918 
4972.000000	65.009140 
4971.000000	64.907932 
4970.000000	64.830493 
4969.000000	64.782619 
4968.000000	64.765977 
4967.000000	64.779090 
4966.000000	64.816498 
4965.000000	64.871501 
4964.000000	64.937210 
4963.000000	65.007400 
4962.000000	65.077352 
4961.000000	65.142393 
4960.000000	65.197491 
4959.000000	65.236067 
4958.000000	65.250253 
4957.000000	65.231871 
4956.000000	65.174818 
4955.000000	65.076875 
4954.000000	64.941835 
4953.000000	64.780688 
4952.000000	64.610743 
4951.000000	64.452409 
4950.000000	64.325594 
4949.000000	64.245843 
4948.000000	64.221310 
4947.000000	64.250969 
4946.000000	64.325141 
4945.000000	64.427423 
4944.000000	64.539098 
4943.000000	64.642238 
4942.000000	64.724230 
4941.000000	64.777731 
4940.000000	64.803099 
4939.000000	64.805626 
4938.000000	64.794659 
4937.000000	64.779496 
4936.000000	64.768409 
4935.000000	64.767146 
4934.000000	64.777755 
4933.000000	64.799165 
4932.000000	64.827609 
4931.000000	64.858675 
4930.000000	64.886569 
4929.000000	64.905619 
4928.000000	64.911270 
4927.000000	64.901185 
4926.000000	64.875102 
4925.000000	64.835405 
4924.000000	64.787435 
4923.000000	64.738392 
4922.000000	64.695954 
4921.000000	64.666533 
4920.000000	64.654231 
4919.000000	64.659810 
4918.000000	64.680600 
4917.000000	64.711785 
4916.000000	64.746618 
4915.000000	64.779806 
4914.000000	64.808988 
4913.000000	64.835429 
4912.000000	64.861726 
4911.000000	64.892506 
4910.000000	64.932012 
4909.000000	64.983391 
4908.000000	65.046167 
4907.000000	65.119147 
4906.000000	65.200424 
4905.000000	65.289378 
4904.000000	65.386748 
4903.000000	65.494465 
4902.000000	65.614175 
4901.000000	65.745854 
4900.000000	65.886116 
4899.000000	66.028594 
4898.000000	66.163372 
4897.000000	66.280126 
4896.000000	66.367983 
4895.000000	66.418957 
4894.000000	66.426801 
4893.000000	66.390657 
4892.000000	66.311383 
4891.000000	66.192078 
4890.000000	66.036224 
4889.000000	65.848803 
4888.000000	65.635633 
4887.000000	65.405225 
4886.000000	65.168190 
4885.000000	64.937925 
4884.000000	64.728665 
4883.000000	64.553833 
4882.000000	64.423370 
4881.000000	64.341020 
4880.000000	64.305281 
4879.000000	64.309239 
4878.000000	64.342546 
4877.000000	64.392852 
4876.000000	64.448833 
4875.000000	64.501595 
4874.000000	64.544844 
4873.000000	64.575386 
4872.000000	64.593625 
4871.000000	64.603137 
4870.000000	64.608883 
4869.000000	64.616680 
4868.000000	64.632582 
4867.000000	64.661478 
4866.000000	64.706444 
4865.000000	64.767289 
4864.000000	64.841389 
4863.000000	64.922833 
4862.000000	65.003633 
4861.000000	65.074944 
4860.000000	65.128612 
4859.000000	65.159058 
4858.000000	65.165257 
4857.000000	65.149927 
4856.000000	65.118384 
4855.000000	65.077972 
4854.000000	65.037202 
4853.000000	65.002799 
4852.000000	64.978599 
4851.000000	64.965105 
4850.000000	64.960527 
4849.000000	64.959979 
4848.000000	64.957213 
4847.000000	64.945960 
4846.000000	64.922022 
4845.000000	64.884495 
4844.000000	64.836311 
4843.000000	64.783501 
4842.000000	64.733362 
4841.000000	64.692425 
4840.000000	64.664220 
4839.000000	64.648103 
4838.000000	64.639353 
4837.000000	64.630031 
4836.000000	64.612126 
4835.000000	64.579415 
4834.000000	64.530491 
4833.000000	64.469122 
4832.000000	64.404439 
4831.000000	64.347863 
4830.000000	64.311170 
4829.000000	64.302968 
4828.000000	64.326381 
4827.000000	64.377617 
4826.000000	64.447188 
4825.000000	64.522409 
4824.000000	64.590096 
4823.000000	64.639687 
4822.000000	64.664959 
4821.000000	64.665246 
4820.000000	64.644837 
4819.000000	64.611554 
4818.000000	64.574790 
4817.000000	64.543390 
4816.000000	64.524245 
4815.000000	64.521145 
4814.000000	64.534735 
4813.000000	64.562582 
4812.000000	64.600729 
4811.000000	64.644598 
4810.000000	64.690041 
4809.000000	64.734148 
4808.000000	64.775848 
4807.000000	64.814996 
4806.000000	64.851784 
4805.000000	64.885926 
4804.000000	64.916443 
4803.000000	64.940834 
4802.000000	64.955806 
4801.000000	64.957380 
4800.000000	64.942717 
4799.000000	64.910244 
4798.000000	64.860582 
4797.000000	64.797091 
4796.000000	64.725732 
4795.000000	64.654350 
4794.000000	64.591360 
4793.000000	64.544224 
4792.000000	64.517784 
4791.000000	64.513397 
4790.000000	64.528727 
4789.000000	64.557385 
4788.000000	64.590859 
4787.000000	64.619851 
4786.000000	64.637160 
4785.000000	64.638209 
4784.000000	64.623141 
4783.000000	64.596199 
4782.000000	64.565134 
4781.000000	64.538884 
4780.000000	64.525651 
4779.000000	64.530777 
4778.000000	64.555621 
4777.000000	64.597487 
4776.000000	64.650440 
4775.000000	64.706921 
4774.000000	64.759826 
4773.000000	64.804148 
4772.000000	64.837646 
4771.000000	64.860582 
4770.000000	64.875197 
4769.000000	64.884448 
4768.000000	64.890956 
4767.000000	64.895939 
4766.000000	64.899349 
4765.000000	64.899516 
4764.000000	64.894247 
4763.000000	64.881110 
4762.000000	64.858436 
4761.000000	64.825892 
4760.000000	64.784359 
4759.000000	64.736390 
4758.000000	64.685297 
4757.000000	64.635586 
4756.000000	64.591932 
4755.000000	64.559221 
4754.000000	64.541435 
4753.000000	64.541697 
4752.000000	64.561247 
4751.000000	64.599967 
4750.000000	64.655685 
4749.000000	64.725041 
4748.000000	64.803194 
4747.000000	64.884805 
4746.000000	64.964723 
4745.000000	65.037965 
4744.000000	65.100049 
4743.000000	65.146946 
4742.000000	65.175318 
4741.000000	65.182352 
4740.000000	65.166306 
4739.000000	65.126872 
4738.000000	65.065860 
4737.000000	64.987444 
4736.000000	64.897871 
4735.000000	64.805126 
4734.000000	64.717578 
4733.000000	64.643073 
4732.000000	64.587497 
4731.000000	64.553594 
4730.000000	64.541459 
4729.000000	64.548325 
4728.000000	64.570546 
4727.000000	64.603877 
4726.000000	64.645504 
4725.000000	64.693832 
4724.000000	64.748811 
4723.000000	64.810156 
4722.000000	64.877343 
4721.000000	64.948225 
4720.000000	65.019440 
4719.000000	65.086007 
4718.000000	65.143179 
4717.000000	65.187406 
4716.000000	65.217399 
4715.000000	65.234780 
4714.000000	65.243268 
4713.000000	65.247678 
4712.000000	65.251708 
4711.000000	65.256452 
4710.000000	65.259528 
4709.000000	65.255689 
4708.000000	65.238356 
4707.000000	65.202116 
4706.000000	65.145254 
4705.000000	65.070748 
4704.000000	64.987373 
4703.000000	64.906358 
4702.000000	64.838862 
4701.000000	64.792227 
4700.000000	64.768075 
4699.000000	64.761447 
4698.000000	64.761424 
4697.000000	64.755439 
4696.000000	64.732384 
4695.000000	64.687132 
4694.000000	64.622116 
4693.000000	64.547395 
4692.000000	64.477515 
4691.000000	64.427661 
4690.000000	64.408755 
4689.000000	64.424157 
4688.000000	64.468145 
4687.000000	64.528083 
4686.000000	64.587640 
4685.000000	64.631342 
4684.000000	64.648294 
4683.000000	64.634466 
4682.000000	64.593482 
4681.000000	64.533901 
4680.000000	64.467597 
4679.000000	64.405941 
4678.000000	64.358210 
4677.000000	64.329791 
4676.000000	64.322018 
4675.000000	64.333295 
4674.000000	64.360165 
4673.000000	64.398837 
4672.000000	64.446187 
4671.000000	64.499306 
4670.000000	64.556550 
4669.000000	64.615893 
4668.000000	64.676022 
4667.000000	64.735221 
4666.000000	64.792060 
4665.000000	64.845466 
4664.000000	64.894056 
4663.000000	64.936423 
4662.000000	64.970803 
4661.000000	64.995622 
4660.000000	65.009379 
4659.000000	65.010809 
4658.000000	64.999914 
4657.000000	64.977741 
4656.000000	64.946198 
4655.000000	64.907455 
4654.000000	64.863753 
4653.000000	64.817094 
4652.000000	64.769816 
4651.000000	64.724278 
4650.000000	64.682865 
4649.000000	64.647412 
4648.000000	64.619421 
4647.000000	64.599347 
4646.000000	64.586114 
4645.000000	64.577698 
4644.000000	64.570569 
4643.000000	64.561581 
4642.000000	64.547896 
4641.000000	64.529037 
4640.000000	64.506793 
4639.000000	64.485597 
4638.000000	64.471292 
4637.000000	64.469814 
4636.000000	64.485216 
4635.000000	64.518547 
4634.000000	64.567112 
4633.000000	64.625263 
4632.000000	64.685463 
4631.000000	64.740347 
4630.000000	64.783859 
4629.000000	64.812111 
4628.000000	64.823246 
4627.000000	64.817237 
4626.000000	64.794921 
4625.000000	64.756894 
4624.000000	64.703702 
4623.000000	64.635848 
4622.000000	64.554929 
4621.000000	64.464092 
4620.000000	64.368867 
4619.000000	64.277243 
4618.000000	64.199018 
4617.000000	64.143657 
4616.000000	64.119410 
4615.000000	64.130616 
4614.000000	64.177680 
4613.000000	64.255642 
4612.000000	64.356207 
4611.000000	64.468646 
4610.000000	64.582228 
4609.000000	64.687323 
4608.000000	64.777469 
4607.000000	64.849305 
4606.000000	64.902877 
4605.000000	64.940452 
4604.000000	64.965581 
4603.000000	64.981746 
4602.000000	64.991927 
4601.000000	64.997768 
4600.000000	64.999914 
4599.000000	64.997959 
4598.000000	64.991617 
4597.000000	64.980602 
4596.000000	64.965391 
4595.000000	64.946866 
4594.000000	64.925885 
4593.000000	64.903759 
4592.000000	64.881730 
4591.000000	64.862036 
4590.000000	64.847207 
4589.000000	64.841032 
4588.000000	64.847731 
4587.000000	64.871597 
4586.000000	64.915323 
4585.000000	64.979505 
4584.000000	65.061688 
4583.000000	65.156579 
4582.000000	65.256834 
4581.000000	65.353417 
4580.000000	65.437054 
4579.000000	65.499567 
4578.000000	65.535116 
4577.000000	65.540313 
4576.000000	65.514826 
4575.000000	65.461325 
4574.000000	65.385437 
4573.000000	65.295028 
4572.000000	65.199398 
4571.000000	65.108561 
4570.000000	65.031814 
4569.000000	64.977216 
4568.000000	64.949703 
4567.000000	64.950323 
4566.000000	64.976382 
4565.000000	65.021324 
4564.000000	65.077471 
4563.000000	65.137672 
4562.000000	65.196537 
4561.000000	65.250873 
4560.000000	65.299272 
4559.000000	65.341305 
4558.000000	65.376067 
4557.000000	65.401077 
4556.000000	65.413475 
4555.000000	65.410709 
4554.000000	65.391731 
4553.000000	65.357995 
4552.000000	65.313601 
4551.000000	65.265154 
4550.000000	65.219855 
4549.000000	65.184307 
4548.000000	65.163087 
4547.000000	65.158319 
4546.000000	65.169811 
4545.000000	65.195631 
4544.000000	65.233659 
4543.000000	65.281319 
4542.000000	65.336990 
4541.000000	65.397763 
4540.000000	65.458321 
4539.000000	65.510678 
4538.000000	65.544795 
4537.000000	65.550661 
4536.000000	65.520620 
4535.000000	65.451931 
4534.000000	65.349292 
4533.000000	65.222954 
4532.000000	65.087962 
4531.000000	64.959692 
4530.000000	64.850831 
4529.000000	64.768838 
4528.000000	64.715075 
4527.000000	64.685773 
4526.000000	64.674067 
4525.000000	64.672660 
4524.000000	64.676356 
4523.000000	64.682936 
4522.000000	64.693284 
4521.000000	64.709377 
4520.000000	64.733195 
4519.000000	64.763927 
4518.000000	64.798545 
4517.000000	64.832329 
4516.000000	64.860510 
4515.000000	64.880394 
4514.000000	64.891934 
4513.000000	64.898705 
4512.000000	64.906120 
4511.000000	64.919710 
4510.000000	64.943170 
4509.000000	64.976811 
4508.000000	65.017247 
4507.000000	65.058326 
4506.000000	65.092945 
4505.000000	65.115189 
4504.000000	65.122532 
4503.000000	65.116834 
4502.000000	65.103888 
4501.000000	65.091967 
4500.000000	65.090155 
4499.000000	65.105986 
4498.000000	65.142822 
4497.000000	65.198540 
4496.000000	65.266585 
4495.000000	65.337276 
4494.000000	65.399479 
4493.000000	65.442824 
4492.000000	65.460109 
4491.000000	65.448236 
4490.000000	65.407991 
4489.000000	65.344190 
4488.000000	65.264463 
4487.000000	65.178656 
4486.000000	65.097451 
4485.000000	65.030717 
4484.000000	64.986920 
4483.000000	64.970469 
4482.000000	64.981269 
4481.000000	65.014338 
4480.000000	65.060162 
4479.000000	65.108084 
4478.000000	65.148305 
4477.000000	65.175342 
4476.000000	65.188002 
4475.000000	65.190792 
4474.000000	65.192008 
4473.000000	65.200972 
4472.000000	65.224695 
4471.000000	65.267181 
4470.000000	65.328240 
4469.000000	65.403866 
4468.000000	65.487623 
4467.000000	65.572810 
4466.000000	65.654230 
4465.000000	65.729045 
4464.000000	65.796995 
4463.000000	65.860319 
4462.000000	65.922069 
4461.000000	65.983867 
4460.000000	66.045045 
4459.000000	66.103363 
4458.000000	66.154122 
4457.000000	66.193866 
4456.000000	66.218566 
4455.000000	66.225147 
4454.000000	66.211390 
4453.000000	66.178393 
4452.000000	66.128230 
4451.000000	66.063857 
4450.000000	65.988469 
4449.000000	65.906667 
4448.000000	65.821075 
4447.000000	65.732240 
4446.000000	65.639352 
4445.000000	65.541219 
4444.000000	65.439558 
4443.000000	65.339374 
4442.000000	65.249466 
4441.000000	65.179562 
4440.000000	65.135097 
4439.000000	65.115189 
4438.000000	65.107917 
4437.000000	65.095233 
4436.000000	65.060710 
4435.000000	64.995121 
4434.000000	64.896869 
4433.000000	64.776015 
4432.000000	64.654016 
4431.000000	64.559388 
4430.000000	64.507555 
4429.000000	64.511823 
4428.000000	64.588141 
4427.000000	64.745855 
4426.000000	64.980936 
4425.000000	65.280508 
4424.000000	65.624499 
4423.000000	65.986800 
4422.000000	66.339254 
4421.000000	66.653656 
4420.000000	66.902756 
4419.000000	67.072510 
4418.000000	67.164993 
4417.000000	67.194485 
4416.000000	67.181539 
4415.000000	67.151546 
4414.000000	67.125034 
4413.000000	67.101240 
4412.000000	67.056703 
4411.000000	66.958975 
4410.000000	66.768169 
4409.000000	66.464662 
4408.000000	66.030168 
4407.000000	65.482187 
4406.000000	64.819693 
4405.000000	64.015603 
4404.000000	63.003230 
4403.000000	61.679172 
4402.000000	59.955406 
4401.000000	57.787132 
4400.000000	55.233764 
4399.000000	52.466726 
4398.000000	49.765992 
4397.000000	47.457885 
4396.000000	45.863366 
4395.000000	45.202970 
4394.000000	45.576429 
4393.000000	46.927118 
4392.000000	49.063515 
4391.000000	51.693153 
4390.000000	54.481482 
4389.000000	57.114338 
4388.000000	59.345531 
4387.000000	61.034321 
4386.000000	62.166738 
4385.000000	62.836241 
4384.000000	63.213229 
4383.000000	63.483381 
4382.000000	63.796472 
4381.000000	64.223957 
4380.000000	64.763927 
4379.000000	65.343284 
4378.000000	65.876698 
4377.000000	66.280198 
4376.000000	66.535663 
4375.000000	66.663146 
4374.000000	66.713619 
4373.000000	66.745352 
4372.000000	66.794109 
4371.000000	66.870713 
4370.000000	66.955041 
4369.000000	67.014765 
4368.000000	67.033076 
4367.000000	66.998815 
4366.000000	66.916108 
4365.000000	66.798806 
4364.000000	66.666865 
4363.000000	66.539239 
4362.000000	66.428637 
4361.000000	66.341090 
4360.000000	66.274714 
4359.000000	66.228652 
4358.000000	66.203236 
4357.000000	66.190004 
4356.000000	66.177010 
4355.000000	66.160392 
4354.000000	66.141200 
4353.000000	66.119217 
4352.000000	66.094493 
4351.000000	66.067123 
4350.000000	66.036438 
4349.000000	66.000056 
4348.000000	65.955448 
4347.000000	65.902471 
4346.000000	65.842270 
4345.000000	65.775799 
4344.000000	65.705919 
4343.000000	65.637493 
4342.000000	65.576076 
4341.000000	65.526890 
4340.000000	65.493083 
4339.000000	65.475010 
4338.000000	65.469789 
4337.000000	65.472030 
4336.000000	65.475511 
4335.000000	65.474820 
4334.000000	65.467119 
4333.000000	65.452885 
4332.000000	65.435171 
4331.000000	65.418648 
4330.000000	65.408110 
4329.000000	65.406727 
4328.000000	65.415000 
4327.000000	65.430355 
4326.000000	65.448260 
4325.000000	65.463185 
4324.000000	65.470719 
4323.000000	65.468692 
4322.000000	65.457844 
4321.000000	65.441703 
4320.000000	65.425252 
4319.000000	65.413594 
4318.000000	65.410470 
4317.000000	65.416789 
4316.000000	65.429997 
4315.000000	65.445327 
4314.000000	65.457391 
4313.000000	65.462160 
4312.000000	65.458345 
4311.000000	65.448164 
4310.000000	65.436959 
4309.000000	65.430831 
4308.000000	65.434360 
4307.000000	65.448760 
4306.000000	65.471076 
4305.000000	65.494894 
4304.000000	65.511679 
4303.000000	65.513324 
4302.000000	65.494036 
4301.000000	65.452027 
4300.000000	65.390014 
4299.000000	65.313839 
4298.000000	65.231919 
4297.000000	65.152859 
4296.000000	65.084719 
4295.000000	65.033102 
4294.000000	65.001678 
4293.000000	64.992094 
4292.000000	65.004348 
4291.000000	65.036892 
4290.000000	65.086936 
4289.000000	65.150380 
4288.000000	65.222215 
4287.000000	65.296173 
4286.000000	65.366268 
4285.000000	65.426921 
4284.000000	65.474677 
4283.000000	65.508151 
4282.000000	65.527915 
4281.000000	65.535807 
4280.000000	65.534162 
4279.000000	65.524816 
4278.000000	65.508651 
4277.000000	65.485286 
4276.000000	65.454030 
4275.000000	65.414309 
4274.000000	65.366649 
4273.000000	65.312862 
4272.000000	65.256333 
4271.000000	65.201210 
4270.000000	65.151357 
4269.000000	65.109634 
4268.000000	65.076994 
4267.000000	65.052509 
4266.000000	65.033531 
4265.000000	65.016937 
4264.000000	65.000033 
4263.000000	64.981842 
4262.000000	64.962530 
4261.000000	64.944624 
4260.000000	64.931225 
4259.000000	64.926552 
4258.000000	64.934349 
4257.000000	64.957284 
4256.000000	64.995718 
4255.000000	65.047717 
4254.000000	65.109014 
4253.000000	65.173196 
4252.000000	65.232682 
4251.000000	65.280127 
4250.000000	65.309715 
4249.000000	65.318322 
4248.000000	65.306234 
4247.000000	65.276813 
4246.000000	65.235877 
4245.000000	65.191078 
4244.000000	65.150046 
4243.000000	65.118813 
4242.000000	65.101003 
4241.000000	65.097665 
4240.000000	65.107226 
4239.000000	65.126395 
4238.000000	65.151119 
4237.000000	65.177655 
4236.000000	65.203428 
4235.000000	65.227055 
4234.000000	65.248346 
4233.000000	65.267300 
4232.000000	65.283942 
4231.000000	65.297913 
4230.000000	65.308094 
4229.000000	65.312933 
4228.000000	65.311074 
4227.000000	65.302062 
4226.000000	65.286827 
4225.000000	65.268087 
4224.000000	65.249872 
4223.000000	65.237331 
4222.000000	65.235090 
4221.000000	65.246415 
4220.000000	65.272998 
4219.000000	65.313911 
4218.000000	65.365314 
4217.000000	65.421032 
4216.000000	65.474486 
4215.000000	65.518784 
4214.000000	65.548419 
4213.000000	65.559434 
4212.000000	65.550112 
4211.000000	65.520715 
4210.000000	65.474081 
4209.000000	65.413880 
4208.000000	65.344119 
4207.000000	65.268707 
4206.000000	65.191507 
4205.000000	65.115809 
4204.000000	65.044569 
4203.000000	64.980363 
4202.000000	64.925694 
4201.000000	64.883446 
4200.000000	64.856433 
4199.000000	64.846754 
4198.000000	64.854788 
4197.000000	64.878654 
4196.000000	64.913582 
4195.000000	64.951801 
4194.000000	64.983105 
4193.000000	64.995980 
4192.000000	64.980053 
4191.000000	64.927864 
4190.000000	64.837932 
4189.000000	64.714264 
4188.000000	64.568376 
4187.000000	64.416241 
4186.000000	64.277744 
4185.000000	64.172482 
4184.000000	64.117121 
4183.000000	64.121890 
4182.000000	64.188408 
4181.000000	64.309263 
4180.000000	64.468955 
4179.000000	64.646601 
4178.000000	64.819049 
4177.000000	64.964771 
4176.000000	65.066981 
4175.000000	65.116024 
4174.000000	65.109848 
4173.000000	65.053153 
4172.000000	64.956545 
4171.000000	64.834308 
4170.000000	64.702725 
4169.000000	64.577651 
4168.000000	64.473938 
4167.000000	64.403176 
4166.000000	64.373064 
4165.000000	64.385819 
4164.000000	64.438509 
4163.000000	64.522981 
4162.000000	64.626669 
4161.000000	64.735245 
4160.000000	64.833736 
4159.000000	64.910531 
4158.000000	64.957904 
4157.000000	64.974594 
4156.000000	64.965319 
4155.000000	64.938950 
4154.000000	64.905810 
4153.000000	64.875316 
4152.000000	64.854240 
4151.000000	64.844846 
4150.000000	64.845490 
4149.000000	64.851045 
4148.000000	64.855408 
4147.000000	64.853143 
4146.000000	64.841699 
4145.000000	64.821052 
4144.000000	64.794039 
4143.000000	64.765739 
4142.000000	64.742374 
4141.000000	64.729404 
4140.000000	64.730405 
4139.000000	64.746117 
4138.000000	64.774417 
4137.000000	64.811205 
4136.000000	64.851379 
4135.000000	64.889550 
4134.000000	64.921617 
4133.000000	64.945125 
4132.000000	64.960145 
4131.000000	64.968967 
4130.000000	64.975261 
4129.000000	64.982986 
4128.000000	64.995026 
4127.000000	65.012955 
4126.000000	65.035796 
4125.000000	65.060734 
4124.000000	65.083122 
4123.000000	65.098166 
4122.000000	65.101671 
4121.000000	65.091514 
4120.000000	65.067529 
4119.000000	65.031599 
4118.000000	64.987301 
4117.000000	64.939212 
4116.000000	64.892172 
4115.000000	64.850521 
4114.000000	64.817738 
4113.000000	64.796137 
4112.000000	64.786887 
4111.000000	64.789891 
4110.000000	64.803934 
4109.000000	64.826750 
4108.000000	64.854836 
4107.000000	64.884400 
4106.000000	64.911174 
4105.000000	64.931750 
4104.000000	64.943623 
4103.000000	64.946413 
4102.000000	64.941549 
4101.000000	64.932370 
4100.000000	64.923262 
4099.000000	64.918613 
4098.000000	64.921927 
4097.000000	64.934849 
4096.000000	64.957046 
4095.000000	64.986205 
4094.000000	65.018558 
4093.000000	65.050125 
4092.000000	65.077376 
4091.000000	65.097928 
4090.000000	65.110683 
4089.000000	65.115952 
4088.000000	65.114998 
4087.000000	65.109276 
4086.000000	65.100169 
4085.000000	65.088868 
4084.000000	65.076637 
4083.000000	65.064668 
4082.000000	65.054774 
4081.000000	65.049314 
4080.000000	65.051412 
4079.000000	65.063762 
4078.000000	65.088438 
4077.000000	65.126156 
4076.000000	65.175557 
4075.000000	65.233111 
4074.000000	65.293502 
4073.000000	65.350508 
4072.000000	65.397977 
4071.000000	65.430974 
4070.000000	65.446281 
4069.000000	65.442943 
4068.000000	65.422129 
4067.000000	65.386819 
4066.000000	65.340876 
4065.000000	65.288114 
4064.000000	65.231752 
4063.000000	65.174317 
4062.000000	65.117454 
4061.000000	65.062117 
4060.000000	65.008687 
4059.000000	64.957380 
4058.000000	64.908504 
4057.000000	64.862728 
4056.000000	64.820599 
4055.000000	64.782977 
4054.000000	64.750552 
4053.000000	64.724326 
4052.000000	64.704632 
4051.000000	64.691996 
4050.000000	64.686203 
4049.000000	64.686942 
4048.000000	64.693093 
4047.000000	64.703583 
4046.000000	64.717078 
4045.000000	64.732742 
4044.000000	64.749693 
4043.000000	64.768028 
4042.000000	64.788365 
4041.000000	64.811754 
4040.000000	64.838910 
4039.000000	64.869642 
4038.000000	64.902496 
4037.000000	64.934706 
4036.000000	64.962530 
4035.000000	64.981627 
4034.000000	64.988088 
4033.000000	64.979767 
4032.000000	64.956808 
4031.000000	64.921736 
4030.000000	64.879107 
4029.000000	64.834952 
4028.000000	64.795470 
4027.000000	64.766001 
4026.000000	64.749908 
4025.000000	64.748454 
4024.000000	64.760637 
4023.000000	64.783334 
4022.000000	64.812254 
4021.000000	64.842820 
4020.000000	64.871001 
4019.000000	64.893293 
4018.000000	64.907860 
4017.000000	64.913892 
4016.000000	64.912438 
4015.000000	64.905548 
4014.000000	64.896607 
4013.000000	64.889240 
4012.000000	64.887452 
4011.000000	64.894509 
4010.000000	64.912581 
4009.000000	64.942002 
4008.000000	64.981174 
4007.000000	65.026330 
4006.000000	65.072321 
4005.000000	65.113329 
4004.000000	65.143918 
4003.000000	65.160155 
4002.000000	65.160107 
4001.000000	65.144300 
4000.000000	65.115594 
3999.000000	65.078711 
3998.000000	65.039467 
3997.000000	65.003728 
3996.000000	64.976739 
3995.000000	64.962124 
3994.000000	64.962124 
3993.000000	64.976549 
3992.000000	65.003395 
3991.000000	65.038585 
3990.000000	65.076875 
3989.000000	65.112543 
3988.000000	65.140080 
3987.000000	65.155529 
3986.000000	65.156912 
3985.000000	65.144920 
3984.000000	65.122842 
3983.000000	65.095877 
3982.000000	65.069913 
3981.000000	65.050005 
3980.000000	65.039014 
3979.000000	65.037107 
3978.000000	65.041470 
3977.000000	65.047240 
3976.000000	65.048933 
3975.000000	65.041923 
3974.000000	65.023899 
3973.000000	64.995551 
3972.000000	64.960432 
3971.000000	64.923810 
3970.000000	64.891481 
3969.000000	64.868044 
3968.000000	64.856243 
3967.000000	64.856123 
3966.000000	64.866065 
3965.000000	64.883351 
3964.000000	64.905452 
3963.000000	64.930796 
3962.000000	64.958977 
3961.000000	64.990639 
3960.000000	65.026354 
3959.000000	65.065836 
3958.000000	65.107536 
3957.000000	65.148782 
3956.000000	65.186166 
3955.000000	65.216469 
3954.000000	65.237712 
3953.000000	65.249514 
3952.000000	65.253639 
3951.000000	65.253281 
3950.000000	65.252304 
3949.000000	65.253996 
3948.000000	65.260434 
3947.000000	65.271806 
3946.000000	65.286993 
3945.000000	65.303421 
3944.000000	65.318632 
3943.000000	65.330123 
3942.000000	65.336585 
3941.000000	65.337204 
3940.000000	65.332055 
3939.000000	65.321254 
3938.000000	65.304613 
3937.000000	65.281772 
3936.000000	65.252661 
3935.000000	65.217733 
3934.000000	65.178298 
3933.000000	65.136837 
3932.000000	65.096998 
3931.000000	65.063166 
3930.000000	65.039777 
3929.000000	65.030145 
3928.000000	65.035414 
3927.000000	65.054488 
3926.000000	65.083837 
3925.000000	65.118169 
3924.000000	65.151429 
3923.000000	65.177965 
3922.000000	65.193390 
3921.000000	65.195274 
3920.000000	65.183091 
3919.000000	65.157890 
3918.000000	65.122032 
3917.000000	65.078425 
3916.000000	65.030860 
3915.000000	64.983558 
3914.000000	64.941453 
3913.000000	64.909839 
3912.000000	64.893746 
3911.000000	64.897727 
3910.000000	64.924025 
3909.000000	64.971923 
3908.000000	65.036797 
3907.000000	65.110707 
3906.000000	65.183424 
3905.000000	65.244054 
3904.000000	65.283584 
3903.000000	65.296792 
3902.000000	65.283727 
3901.000000	65.249776 
3900.000000	65.204381 
3899.000000	65.158605 
3898.000000	65.123033 
3897.000000	65.105032 
3896.000000	65.107750 
3895.000000	65.129399 
3894.000000	65.164661 
3893.000000	65.205502 
3892.000000	65.244007 
3891.000000	65.273356 
3890.000000	65.289402 
3889.000000	65.290880 
3888.000000	65.278887 
3887.000000	65.256214 
3886.000000	65.226125 
3885.000000	65.191388 
3884.000000	65.153598 
3883.000000	65.113329 
3882.000000	65.071034 
3881.000000	65.027403 
3880.000000	64.984130 
3879.000000	64.944100 
3878.000000	64.911150 
3877.000000	64.889097 
3876.000000	64.880919 
3875.000000	64.887499 
3874.000000	64.907050 
3873.000000	64.935302 
3872.000000	64.966344 
3871.000000	64.993405 
3870.000000	65.010476 
3869.000000	65.013504 
3868.000000	65.001416 
3867.000000	64.976000 
3866.000000	64.941811 
3865.000000	64.904260 
3864.000000	64.869260 
3863.000000	64.841866 
3862.000000	64.825487 
3861.000000	64.821863 
3860.000000	64.830851 
3859.000000	64.851069 
3858.000000	64.879965 
3857.000000	64.914631 
3856.000000	64.951968 
3855.000000	64.988827 
3854.000000	65.022683 
3853.000000	65.051531 
3852.000000	65.074443 
3851.000000	65.091586 
3850.000000	65.104055 
3849.000000	65.113401 
3848.000000	65.121150 
3847.000000	65.128350 
3846.000000	65.134763 
3845.000000	65.138673 
3844.000000	65.137529 
3843.000000	65.128707 
3842.000000	65.110158 
3841.000000	65.081834 
3840.000000	65.045785 
3839.000000	65.006446 
3838.000000	64.969635 
3837.000000	64.941358 
3836.000000	64.926338 
3835.000000	64.926671 
3834.000000	64.941000 
3833.000000	64.965033 
3832.000000	64.992523 
3831.000000	65.016794 
3830.000000	65.032529 
3829.000000	65.036892 
3828.000000	65.030097 
3827.000000	65.015006 
3826.000000	64.995932 
3825.000000	64.977383 
3824.000000	64.962553 
3823.000000	64.953160 
3822.000000	64.949011 
3821.000000	64.948821 
3820.000000	64.950942 
3819.000000	64.953994 
3818.000000	64.957308 
3817.000000	64.960861 
3816.000000	64.965319 
3815.000000	64.971160 
3814.000000	64.978814 
3813.000000	64.987993 
3812.000000	64.998078 
3811.000000	65.008687 
3810.000000	65.019774 
3809.000000	65.031957 
3808.000000	65.045905 
3807.000000	65.062332 
3806.000000	65.081381 
3805.000000	65.102171 
3804.000000	65.123009 
3803.000000	65.141701 
3802.000000	65.156221 
3801.000000	65.165305 
3800.000000	65.168976 
3799.000000	65.168857 
3798.000000	65.167808 
3797.000000	65.169239 
3796.000000	65.176773 
3795.000000	65.193438 
3794.000000	65.221142 
3793.000000	65.260195 
3792.000000	65.309000 
3791.000000	65.363860 
3790.000000	65.419769 
3789.000000	65.470671 
3788.000000	65.510320 
3787.000000	65.532994 
3786.000000	65.534543 
3785.000000	65.513157 
3784.000000	65.469956 
3783.000000	65.408778 
3782.000000	65.336060 
3781.000000	65.259504 
3780.000000	65.187144 
3779.000000	65.125703 
3778.000000	65.079784 
3777.000000	65.050888 
3776.000000	65.037775 
3775.000000	65.036916 
3774.000000	65.043401 
3773.000000	65.052890 
3772.000000	65.062093 
3771.000000	65.069770 
3770.000000	65.076208 
3769.000000	65.083289 
3768.000000	65.093302 
3767.000000	65.107941 
3766.000000	65.127491 
3765.000000	65.150737 
3764.000000	65.174961 
3763.000000	65.196800 
3762.000000	65.212869 
3761.000000	65.220642 
3760.000000	65.218782 
3759.000000	65.207386 
3758.000000	65.187740 
3757.000000	65.162038 
3756.000000	65.133166 
3755.000000	65.103816 
3754.000000	65.076756 
3753.000000	65.054702 
3752.000000	65.040111 
3751.000000	65.035343 
3750.000000	65.041589 
3749.000000	65.058684 
3748.000000	65.084695 
3747.000000	65.116095 
3746.000000	65.148091 
3745.000000	65.175366 
3744.000000	65.193414 
3743.000000	65.199422 
3742.000000	65.192961 
3741.000000	65.176272 
3740.000000	65.153765 
3739.000000	65.130996 
3738.000000	65.113806 
3737.000000	65.106749 
3736.000000	65.112495 
3735.000000	65.130877 
3734.000000	65.159153 
3733.000000	65.192317 
3732.000000	65.224456 
3731.000000	65.249729 
3730.000000	65.263652 
3729.000000	65.263962 
3728.000000	65.250992 
3727.000000	65.227389 
3726.000000	65.197372 
3725.000000	65.165710 
3724.000000	65.137004 
3723.000000	65.114140 
3722.000000	65.098142 
3721.000000	65.088129 
3720.000000	65.082025 
3719.000000	65.077304 
3718.000000	65.072154 
3717.000000	65.065884 
3716.000000	65.059137 
3715.000000	65.053653 
3714.000000	65.051698 
3713.000000	65.054988 
3712.000000	65.063929 
3711.000000	65.077567 
3710.000000	65.093731 
3709.000000	65.109586 
3708.000000	65.122699 
3707.000000	65.131521 
3706.000000	65.136170 
3705.000000	65.138173 
3704.000000	65.140080 
3703.000000	65.144515 
3702.000000	65.153336 
3701.000000	65.166926 
3700.000000	65.184187 
3699.000000	65.202975 
3698.000000	65.220546 
3697.000000	65.234589 
3696.000000	65.243387 
3695.000000	65.246176 
3694.000000	65.243124 
3693.000000	65.235090 
3692.000000	65.223002 
3691.000000	65.207648 
3690.000000	65.189576 
3689.000000	65.169405 
3688.000000	65.147733 
3687.000000	65.125298 
3686.000000	65.103220 
3685.000000	65.082907 
3684.000000	65.065717 
3683.000000	65.052819 
3682.000000	65.044641 
3681.000000	65.040850 
3680.000000	65.040397 
3679.000000	65.041780 
3678.000000	65.043139 
3677.000000	65.042948 
3676.000000	65.040373 
3675.000000	65.035462 
3674.000000	65.028548 
3673.000000	65.020680 
3672.000000	65.012598 
3671.000000	65.005064 
3670.000000	64.998555 
3669.000000	64.993166 
3668.000000	64.988899 
3667.000000	64.985775 
3666.000000	64.984154 
3665.000000	64.984965 
3664.000000	64.989209 
3663.000000	64.997959 
3662.000000	65.011739 
3661.000000	65.030241 
3660.000000	65.051889 
3659.000000	65.074157 
3658.000000	65.093970 
3657.000000	65.108013 
3656.000000	65.113449 
3655.000000	65.108561 
3654.000000	65.092968 
3653.000000	65.067577 
3652.000000	65.034484 
3651.000000	64.996314 
3650.000000	64.956426 
3649.000000	64.918065 
3648.000000	64.884614 
3647.000000	64.859175 
3646.000000	64.844822 
3645.000000	64.844036 
3644.000000	64.858746 
3643.000000	64.889550 
3642.000000	64.935183 
3641.000000	64.992308 
3640.000000	65.055871 
3639.000000	65.119290 
3638.000000	65.176010 
3637.000000	65.220260 
3636.000000	65.248656 
3635.000000	65.260410 
3634.000000	65.257716 
3633.000000	65.245032 
3632.000000	65.227890 
3631.000000	65.211319 
3630.000000	65.198826 
3629.000000	65.191435 
3628.000000	65.188026 
3627.000000	65.185618 
3626.000000	65.180945 
3625.000000	65.171170 
3624.000000	65.154957 
3623.000000	65.132784 
3622.000000	65.106296 
3621.000000	65.078043 
3620.000000	65.050268 
3619.000000	65.024828 
3618.000000	65.002584 
3617.000000	64.983701 
3616.000000	64.968228 
3615.000000	64.956164 
3614.000000	64.948201 
3613.000000	64.945149 
3612.000000	64.947628 
3611.000000	64.955353 
3610.000000	64.966535 
3609.000000	64.978051 
3608.000000	64.985775 
3607.000000	64.986038 
3606.000000	64.976572 
3605.000000	64.957332 
3604.000000	64.930725 
3603.000000	64.901065 
3602.000000	64.873766 
3601.000000	64.853501 
3600.000000	64.843320 
3599.000000	64.843916 
3598.000000	64.853739 
3597.000000	64.869618 
3596.000000	64.887714 
3595.000000	64.904594 
3594.000000	64.917588 
3593.000000	64.925527 
3592.000000	64.928007 
3591.000000	64.924693 
3590.000000	64.915871 
3589.000000	64.901399 
3588.000000	64.882278 
3587.000000	64.860105 
3586.000000	64.838123 
3585.000000	64.820909 
3584.000000	64.813280 
3583.000000	64.819192 
3582.000000	64.840221 
3581.000000	64.874982 
3580.000000	64.918708 
3579.000000	64.964175 
3578.000000	65.003228 
3577.000000	65.028595 
3576.000000	65.035629 
3575.000000	65.023279 
3574.000000	64.994049 
3573.000000	64.953422 
3572.000000	64.908146 
3571.000000	64.864945 
3570.000000	64.829087 
3569.000000	64.803934 
3568.000000	64.790892 
3567.000000	64.789891 
3566.000000	64.800167 
3565.000000	64.820456 
3564.000000	64.849257 
3563.000000	64.884686 
3562.000000	64.923810 
3561.000000	64.963722 
3560.000000	65.001058 
3559.000000	65.033268 
3558.000000	65.058422 
3557.000000	65.076160 
3556.000000	65.087318 
3555.000000	65.093731 
3554.000000	65.097784 
3553.000000	65.101194 
3552.000000	65.104508 
3551.000000	65.107035 
3550.000000	65.107202 
3549.000000	65.103173 
3548.000000	65.093588 
3547.000000	65.078401 
3546.000000	65.058922 
3545.000000	65.037751 
3544.000000	65.018343 
3543.000000	65.003609 
3542.000000	64.995646 
3541.000000	64.995217 
3540.000000	65.001511 
3539.000000	65.012884 
3538.000000	65.026450 
3537.000000	65.038895 
3536.000000	65.046906 
3535.000000	65.047526 
3534.000000	65.039157 
3533.000000	65.021371 
3532.000000	64.995908 
3531.000000	64.965820 
3530.000000	64.935684 
3529.000000	64.910745 
3528.000000	64.895892 
3527.000000	64.894771 
3526.000000	64.909005 
3525.000000	64.937734 
3524.000000	64.977455 
3523.000000	65.022635 
3522.000000	65.066599 
3521.000000	65.102767 
3520.000000	65.125894 
3519.000000	65.132880 
3518.000000	65.123248 
3517.000000	65.099143 
3516.000000	65.064501 
3515.000000	65.024495 
3514.000000	64.984607 
3513.000000	64.949536 
3512.000000	64.922785 
3511.000000	64.906096 
3510.000000	64.899659 
3509.000000	64.902544 
3508.000000	64.912676 
3507.000000	64.928174 
3506.000000	64.947509 
3505.000000	64.969849 
3504.000000	64.994955 
3503.000000	65.022516 
3502.000000	65.051746 
3501.000000	65.081167 
3500.000000	65.108323 
3499.000000	65.130352 
3498.000000	65.144181 
3497.000000	65.147733 
3496.000000	65.140461 
3495.000000	65.123748 
3494.000000	65.100526 
3493.000000	65.074968 
3492.000000	65.051293 
3491.000000	65.033316 
3490.000000	65.022969 
3489.000000	65.020275 
3488.000000	65.022778 
3487.000000	65.026760 
3486.000000	65.027594 
3485.000000	65.021061 
3484.000000	65.004491 
3483.000000	64.977002 
3482.000000	64.940452 
3481.000000	64.898657 
3480.000000	64.857459 
3479.000000	64.822912 
3478.000000	64.801049 
3477.000000	64.796328 
3476.000000	64.811062 
3475.000000	64.844965 
3474.000000	64.895033 
3473.000000	64.956116 
3472.000000	65.021562 
3471.000000	65.084338 
3470.000000	65.137767 
3469.000000	65.176510 
3468.000000	65.197134 
3467.000000	65.198326 
3466.000000	65.181016 
3465.000000	65.147924 
3464.000000	65.103578 
3463.000000	65.053009 
3462.000000	65.001893 
3461.000000	64.955139 
3460.000000	64.916539 
3459.000000	64.888238 
3458.000000	64.870882 
3457.000000	64.863801 
3456.000000	64.865255 
3455.000000	64.873552 
3454.000000	64.886713 
3453.000000	64.903616 
3452.000000	64.923930 
3451.000000	64.948010 
3450.000000	64.976024 
3449.000000	65.008115 
3448.000000	65.043568 
3447.000000	65.080857 
3446.000000	65.117740 
3445.000000	65.151667 
3444.000000	65.180349 
3443.000000	65.202116 
3442.000000	65.216088 
3441.000000	65.222477 
3440.000000	65.222144 
3439.000000	65.216350 
3438.000000	65.206432 
3437.000000	65.193796 
3436.000000	65.179753 
3435.000000	65.165901 
3434.000000	65.153574 
3433.000000	65.144133 
3432.000000	65.138220 
3431.000000	65.136337 
3430.000000	65.137863 
3429.000000	65.141296 
3428.000000	65.144324 
3427.000000	65.144300 
3426.000000	65.138745 
3425.000000	65.126085 
3424.000000	65.106034 
3423.000000	65.079569 
3422.000000	65.049052 
3421.000000	65.017628 
3420.000000	64.988732 
3419.000000	64.965248 
3418.000000	64.949393 
3417.000000	64.942359 
3416.000000	64.944362 
3415.000000	64.954853 
3414.000000	64.972877 
3413.000000	64.997339 
3412.000000	65.026831 
3411.000000	65.059804 
3410.000000	65.094447 
3409.000000	65.128850 
3408.000000	65.160703 
3407.000000	65.188050 
3406.000000	65.209078 
3405.000000	65.222597 
3404.000000	65.228462 
3403.000000	65.227007 
3402.000000	65.218925 
3401.000000	65.204906 
3400.000000	65.185713 
3399.000000	65.161824 
3398.000000	65.133786 
3397.000000	65.102434 
3396.000000	65.069103 
3395.000000	65.035843 
3394.000000	65.005397 
3393.000000	64.980554 
3392.000000	64.963698 
3391.000000	64.956331 
3390.000000	64.958548 
3389.000000	64.969134 
3388.000000	64.985609 
3387.000000	65.005135 
3386.000000	65.025210 
3385.000000	65.043878 
3384.000000	65.060305 
3383.000000	65.074610 
3382.000000	65.087628 
3381.000000	65.100026 
3380.000000	65.112137 
3379.000000	65.123867 
3378.000000	65.134811 
3377.000000	65.144586 
3376.000000	65.152812 
3375.000000	65.160012 
3374.000000	65.166854 
3373.000000	65.174603 
3372.000000	65.183901 
3371.000000	65.194606 
3370.000000	65.205216 
3369.000000	65.213322 
3368.000000	65.215945 
3367.000000	65.210366 
3366.000000	65.194869 
3365.000000	65.169525 
3364.000000	65.136075 
3363.000000	65.097594 
3362.000000	65.057682 
3361.000000	65.019774 
3360.000000	64.986109 
3359.000000	64.957642 
3358.000000	64.933943 
3357.000000	64.913892 
3356.000000	64.896297 
3355.000000	64.880704 
3354.000000	64.867138 
3353.000000	64.856934 
3352.000000	64.851856 
3351.000000	64.853930 
3350.000000	64.864158 
3349.000000	64.882874 
3348.000000	64.909029 
3347.000000	64.940810 
3346.000000	64.975738 
3345.000000	65.011024 
3344.000000	65.043830 
3343.000000	65.071368 
3342.000000	65.091419 
3341.000000	65.102052 
3340.000000	65.101981 
3339.000000	65.090680 
3338.000000	65.068650 
3337.000000	65.037441 
3336.000000	64.999675 
3335.000000	64.959025 
3334.000000	64.919710 
3333.000000	64.885711 
3332.000000	64.860081 
3331.000000	64.844608 
3330.000000	64.839363 
3329.000000	64.842391 
3328.000000	64.850497 
3327.000000	64.859604 
3326.000000	64.866423 
3325.000000	64.868378 
3324.000000	64.865207 
3323.000000	64.858222 
3322.000000	64.850854 
3321.000000	64.847135 
3320.000000	64.851212 
3319.000000	64.866018 
3318.000000	64.892292 
3317.000000	64.928197 
3316.000000	64.969301 
3315.000000	65.009617 
3314.000000	65.042734 
3313.000000	65.063309 
3312.000000	65.068078 
3311.000000	65.056610 
3310.000000	65.031337 
3309.000000	64.996910 
3308.000000	64.959263 
3307.000000	64.924168 
3306.000000	64.896464 
3305.000000	64.879107 
3304.000000	64.873147 
3303.000000	64.877724 
3302.000000	64.890646 
3301.000000	64.909076 
3300.000000	64.930033 
3299.000000	64.951515 
3298.000000	64.972114 
3297.000000	64.991855 
3296.000000	65.011000 
3295.000000	65.030288 
3294.000000	65.050125 
3293.000000	65.070343 
3292.000000	65.090298 
3291.000000	65.108704 
3290.000000	65.124154 
3289.000000	65.135145 
3288.000000	65.140986 
3287.000000	65.141487 
3286.000000	65.136837 
3285.000000	65.127563 
3284.000000	65.114426 
3283.000000	65.098142 
3282.000000	65.079498 
3281.000000	65.059256 
3280.000000	65.038084 
3279.000000	65.017080 
3278.000000	64.997482 
3277.000000	64.980506 
3276.000000	64.967155 
3275.000000	64.957952 
3274.000000	64.952683 
3273.000000	64.950227 
3272.000000	64.949297 
3271.000000	64.948439 
3270.000000	64.947056 
3269.000000	64.945292 
3268.000000	64.944624 
3267.000000	64.947271 
3266.000000	64.955997 
3265.000000	64.972877 
3264.000000	64.999175 
3263.000000	65.034508 
3262.000000	65.077018 
3261.000000	65.123486 
3260.000000	65.169811 
3259.000000	65.211582 
3258.000000	65.245079 
3257.000000	65.267896 
3256.000000	65.279030 
3255.000000	65.278720 
3254.000000	65.268325 
3253.000000	65.249633 
3252.000000	65.224027 
3251.000000	65.192294 
3250.000000	65.154647 
3249.000000	65.111207 
3248.000000	65.062522 
3247.000000	65.010142 
3246.000000	64.957213 
3245.000000	64.907956 
3244.000000	64.867138 
3243.000000	64.839386 
3242.000000	64.827418 
3241.000000	64.832139 
3240.000000	64.851522 
3239.000000	64.881753 
3238.000000	64.917111 
3237.000000	64.952445 
3236.000000	64.983916 
3235.000000	65.010309 
3234.000000	65.032243 
3233.000000	65.052485 
3232.000000	65.074133 
3231.000000	65.099811 
3230.000000	65.130114 
3229.000000	65.163898 
3228.000000	65.198326 
3227.000000	65.229773 
3226.000000	65.254640 
3225.000000	65.270328 
3224.000000	65.275645 
3223.000000	65.270924 
3222.000000	65.257692 
3221.000000	65.238332 
3220.000000	65.215468 
3219.000000	65.191817 
3218.000000	65.169477 
3217.000000	65.150260 
3216.000000	65.134763 
3215.000000	65.123271 
3214.000000	65.114998 
3213.000000	65.108346 
3212.000000	65.101075 
3211.000000	65.090489 
3210.000000	65.074467 
3209.000000	65.051603 
3208.000000	65.022206 
3207.000000	64.988207 
3206.000000	64.953112 
3205.000000	64.921450 
3204.000000	64.897704 
3203.000000	64.885044 
3202.000000	64.884972 
3201.000000	64.896893 
3200.000000	64.917993 
3199.000000	64.943981 
3198.000000	64.969968 
3197.000000	64.991617 
3196.000000	65.005779 
3195.000000	65.011096 
3194.000000	65.008163 
3193.000000	64.999103 
3192.000000	64.986777 
3191.000000	64.974117 
3190.000000	64.963316 
3189.000000	64.955282 
3188.000000	64.950060 
3187.000000	64.947032 
3186.000000	64.945363 
3185.000000	64.944577 
3184.000000	64.945125 
3183.000000	64.948081 
3182.000000	64.954853 
3181.000000	64.966440 
3180.000000	64.983057 
3179.000000	65.003585 
3178.000000	65.025424 
3177.000000	65.045070 
3176.000000	65.058779 
3175.000000	65.063142 
3174.000000	65.055990 
3173.000000	65.037131 
3172.000000	65.008258 
3171.000000	64.972925 
3170.000000	64.935803 
3169.000000	64.901661 
3168.000000	64.874553 
3167.000000	64.857244 
3166.000000	64.850592 
3165.000000	64.853429 
3164.000000	64.862966 
3163.000000	64.875793 
3162.000000	64.888501 
3161.000000	64.898371 
3160.000000	64.904117 
3159.000000	64.905238 
3158.000000	64.902496 
3157.000000	64.897418 
3156.000000	64.892029 
3155.000000	64.888024 
3154.000000	64.886498 
3153.000000	64.888167 
3152.000000	64.892864 
3151.000000	64.899778 
3150.000000	64.907550 
3149.000000	64.914822 
3148.000000	64.920449 
3147.000000	64.923596 
3146.000000	64.923834 
3145.000000	64.921069 
3144.000000	64.915060 
3143.000000	64.905238 
3142.000000	64.890575 
3141.000000	64.869904 
3140.000000	64.841961 
3139.000000	64.806556 
3138.000000	64.764618 
3137.000000	64.719462 
3136.000000	64.676141 
3135.000000	64.641785 
3134.000000	64.623594 
3133.000000	64.628148 
3132.000000	64.659309 
3131.000000	64.717769 
3130.000000	64.799690 
3129.000000	64.898133 
3128.000000	65.003895 
3127.000000	65.107393 
3126.000000	65.200376 
3125.000000	65.277004 
3124.000000	65.334677 
3123.000000	65.373659 
3122.000000	65.396451 
3121.000000	65.406560 
3120.000000	65.407490 
3119.000000	65.402054 
3118.000000	65.392065 
3117.000000	65.378332 
3116.000000	65.361046 
3115.000000	65.340614 
3114.000000	65.317583 
3113.000000	65.292954 
3112.000000	65.268063 
3111.000000	65.244126 
3110.000000	65.222549 
3109.000000	65.204238 
3108.000000	65.189886 
3107.000000	65.179920 
3106.000000	65.174484 
3105.000000	65.173244 
3104.000000	65.175628 
3103.000000	65.180587 
3102.000000	65.187096 
3101.000000	65.194129 
3100.000000	65.201044 
3099.000000	65.207529 
3098.000000	65.213775 
3097.000000	65.220570 
3096.000000	65.228652 
3095.000000	65.238094 
3094.000000	65.248417 
3093.000000	65.258502 
3092.000000	65.266275 
3091.000000	65.269327 
3090.000000	65.265607 
3089.000000	65.253901 
3088.000000	65.234518 
3087.000000	65.209150 
3086.000000	65.180635 
3085.000000	65.152359 
3084.000000	65.127444 
3083.000000	65.108108 
3082.000000	65.095162 
3081.000000	65.087771 
3080.000000	65.084266 
3079.000000	65.082478 
3078.000000	65.080285 
3077.000000	65.076470 
3076.000000	65.070819 
3075.000000	65.064001 
3074.000000	65.057206 
3073.000000	65.051698 
3072.000000	65.048265 
3071.000000	65.047001 
3070.000000	65.047240 
3069.000000	65.047883 
3068.000000	65.047717 
3067.000000	65.045642 
3066.000000	65.041232 
3065.000000	65.034532 
3064.000000	65.026164 
3063.000000	65.017032 
3062.000000	65.008282 
3061.000000	65.000963 
3060.000000	64.996027 
3059.000000	64.994120 
3058.000000	64.995741 
3057.000000	65.001225 
3056.000000	65.010571 
3055.000000	65.023255 
3054.000000	65.038228 
3053.000000	65.054130 
3052.000000	65.069365 
3051.000000	65.082359 
3050.000000	65.091896 
3049.000000	65.097475 
3048.000000	65.099191 
3047.000000	65.097689 
3046.000000	65.093946 
3045.000000	65.089035 
3044.000000	65.083765 
3043.000000	65.078663 
3042.000000	65.073966 
3041.000000	65.069794 
3040.000000	65.066051 
3039.000000	65.062642 
3038.000000	65.059638 
3037.000000	65.057253 
3036.000000	65.055727 
3035.000000	65.055274 
3034.000000	65.056014 
3033.000000	65.058302 
3032.000000	65.062594 
3031.000000	65.069556 
3030.000000	65.079903 
3029.000000	65.094161 
3028.000000	65.112233 
3027.000000	65.133285 
3026.000000	65.155625 
3025.000000	65.176892 
3024.000000	65.194559 
3023.000000	65.206146 
3022.000000	65.210127 
3021.000000	65.205764 
3020.000000	65.193581 
3019.000000	65.174937 
3018.000000	65.151715 
3017.000000	65.126299 
3016.000000	65.101051 
3015.000000	65.078425 
3014.000000	65.060567 
3013.000000	65.049600 
3012.000000	65.047430 
3011.000000	65.055418 
3010.000000	65.074062 
3009.000000	65.102481 
3008.000000	65.138435 
3007.000000	65.178394 
3006.000000	65.218067 
3005.000000	65.253162 
3004.000000	65.280580 
3003.000000	65.298771 
3002.000000	65.308380 
3001.000000	65.311670 
3000.000000	65.311694 
2999.000000	65.311646 
2998.000000	65.313482 
2997.000000	65.317869 
2996.000000	65.323543 
2995.000000	65.328097 
2994.000000	65.328311 
2993.000000	65.321922 
2992.000000	65.307402 
2991.000000	65.285015 
2990.000000	65.256047 
2989.000000	65.222716 
2988.000000	65.187335 
2987.000000	65.151739 
2986.000000	65.117263 
2985.000000	65.084600 
2984.000000	65.054464 
2983.000000	65.027904 
2982.000000	65.006542 
2981.000000	64.992451 
2980.000000	64.987730 
2979.000000	64.993786 
2978.000000	65.010738 
2977.000000	65.037035 
2976.000000	65.069246 
2975.000000	65.102386 
2974.000000	65.131235 
2973.000000	65.151000 
2972.000000	65.158033 
2971.000000	65.150499 
2970.000000	65.128850 
2969.000000	65.095186 
2968.000000	65.052819 
2967.000000	65.005588 
2966.000000	64.957308 
2965.000000	64.911484 
2964.000000	64.870953 
2963.000000	64.837956 
2962.000000	64.813971 
2961.000000	64.799690 
2960.000000	64.795327 
2959.000000	64.800333 
2958.000000	64.813518 
2957.000000	64.832925 
2956.000000	64.856290 
2955.000000	64.880871 
2954.000000	64.903974 
2953.000000	64.923381 
2952.000000	64.937281 
2951.000000	64.944720 
2950.000000	64.945149 
2949.000000	64.938640 
2948.000000	64.925336 
2947.000000	64.905428 
2946.000000	64.879107 
2945.000000	64.846658 
2944.000000	64.808988 
2943.000000	64.767789 
2942.000000	64.726042 
2941.000000	64.687657 
2940.000000	64.657187 
2939.000000	64.638781 
2938.000000	64.635634 
2937.000000	64.649128 
2936.000000	64.678430 
2935.000000	64.720058 
2934.000000	64.768958 
2933.000000	64.819097 
2932.000000	64.864301 
2931.000000	64.899253 
2930.000000	64.920473 
2929.000000	64.926576 
2928.000000	64.918446 
2927.000000	64.898729 
2926.000000	64.871358 
2925.000000	64.840507 
2924.000000	64.810132 
2923.000000	64.783096 
2922.000000	64.761042 
2921.000000	64.744329 
2920.000000	64.732432 
2919.000000	64.724493 
2918.000000	64.719653 
2917.000000	64.717745 
2916.000000	64.719271 
2915.000000	64.725589 
2914.000000	64.738178 
2913.000000	64.758396 
2912.000000	64.786529 
2911.000000	64.821624 
2910.000000	64.861464 
2909.000000	64.902782 
2908.000000	64.941692 
2907.000000	64.974522 
2906.000000	64.998769 
2905.000000	65.013217 
2904.000000	65.017938 
2903.000000	65.014362 
2902.000000	65.004539 
2901.000000	64.990973 
2900.000000	64.975762 
2899.000000	64.960646 
2898.000000	64.946413 
2897.000000	64.933466 
2896.000000	64.921808 
2895.000000	64.911293 
2894.000000	64.901876 
2893.000000	64.893627 
2892.000000	64.886760 
2891.000000	64.881420 
2890.000000	64.877963 
2889.000000	64.876699 
2888.000000	64.878034 
2887.000000	64.882135 
2886.000000	64.889073 
2885.000000	64.898872 
2884.000000	64.911603 
2883.000000	64.926791 
2882.000000	64.944076 
2881.000000	64.962983 
2880.000000	64.983081 
2879.000000	65.003752 
2878.000000	65.024471 
2877.000000	65.044784 
2876.000000	65.064001 
2875.000000	65.081334 
2874.000000	65.095901 
2873.000000	65.106773 
2872.000000	65.113282 
2871.000000	65.115141 
2870.000000	65.112709 
2869.000000	65.106558 
2868.000000	65.098118 
2867.000000	65.088510 
2866.000000	65.078639 
2865.000000	65.068292 
2864.000000	65.056777 
2863.000000	65.042567 
2862.000000	65.023970 
2861.000000	64.999675 
2860.000000	64.969515 
2859.000000	64.934635 
2858.000000	64.897418 
2857.000000	64.861202 
2856.000000	64.829468 
2855.000000	64.805126 
2854.000000	64.789891 
2853.000000	64.784073 
2852.000000	64.786338 
2851.000000	64.794659 
2850.000000	64.806962 
2849.000000	64.821529 
2848.000000	64.837431 
2847.000000	64.854550 
2846.000000	64.873480 
2845.000000	64.894747 
2844.000000	64.918470 
2843.000000	64.944195 
2842.000000	64.970779 
2841.000000	64.996790 
2840.000000	65.020751 
2839.000000	65.041542 
2838.000000	65.058541 
2837.000000	65.071940 
2836.000000	65.082311 
2835.000000	65.090584 
2834.000000	65.097332 
2833.000000	65.103077 
2832.000000	65.107631 
2831.000000	65.110158 
2830.000000	65.109467 
2829.000000	65.104508 
2828.000000	65.094351 
2827.000000	65.078711 
2826.000000	65.057945 
2825.000000	65.033268 
2824.000000	65.006303 
2823.000000	64.979147 
2822.000000	64.953899 
2821.000000	64.932489 
2820.000000	64.916324 
2819.000000	64.906311 
2818.000000	64.902734 
2817.000000	64.905357 
2816.000000	64.913463 
2815.000000	64.926290 
2814.000000	64.942550 
2813.000000	64.961075 
2812.000000	64.980649 
2811.000000	65.000247 
2810.000000	65.018820 
2809.000000	65.035533 
2808.000000	65.049743 
2807.000000	65.061092 
2806.000000	65.069413 
2805.000000	65.074658 
2804.000000	65.077042 
2803.000000	65.076804 
2802.000000	65.074205 
2801.000000	65.069413 
2800.000000	65.062499 
2799.000000	65.053701 
2798.000000	65.043401 
2797.000000	65.032315 
2796.000000	65.021562 
2795.000000	65.012836 
2794.000000	65.007901 
2793.000000	65.008544 
2792.000000	65.015864 
2791.000000	65.030241 
2790.000000	65.050935 
2789.000000	65.076112 
2788.000000	65.103125 
2787.000000	65.129041 
2786.000000	65.151071 
2785.000000	65.167284 
2784.000000	65.176534 
2783.000000	65.178894 
2782.000000	65.175080 
2781.000000	65.166473 
2780.000000	65.154266 
2779.000000	65.139389 
2778.000000	65.122151 
2777.000000	65.102887 
2776.000000	65.081739 
2775.000000	65.059185 
2774.000000	65.036201 
2773.000000	65.014362 
2772.000000	64.995551 
2771.000000	64.981627 
2770.000000	64.974045 
2769.000000	64.973616 
2768.000000	64.980244 
2767.000000	64.992856 
2766.000000	65.009880 
2765.000000	65.029287 
2764.000000	65.049242 
2763.000000	65.068006 
2762.000000	65.084385 
2761.000000	65.097570 
2760.000000	65.106940 
2759.000000	65.111899 
2758.000000	65.111756 
2757.000000	65.105795 
2756.000000	65.093374 
2755.000000	65.074372 
2754.000000	65.049743 
2753.000000	65.021252 
2752.000000	64.991784 
2751.000000	64.964532 
2750.000000	64.942693 
2749.000000	64.928674 
2748.000000	64.923477 
2747.000000	64.926624 
2746.000000	64.936065 
2745.000000	64.948821 
2744.000000	64.961814 
2743.000000	64.972472 
2742.000000	64.979267 
2741.000000	64.982008 
2740.000000	64.981627 
2739.000000	64.979672 
2738.000000	64.977884 
2737.000000	64.977478 
2736.000000	64.979076 
2735.000000	64.982628 
2734.000000	64.987444 
2733.000000	64.992904 
2732.000000	64.998269 
2731.000000	65.003204 
2730.000000	65.007567 
2729.000000	65.011215 
2728.000000	65.014219 
2727.000000	65.016341 
2726.000000	65.017461 
2725.000000	65.017390 
2724.000000	65.016174 
2723.000000	65.014123 
2722.000000	65.012049 
2721.000000	65.010976 
2720.000000	65.011811 
2719.000000	65.015125 
2718.000000	65.020966 
2717.000000	65.028643 
2716.000000	65.036869 
2715.000000	65.043878 
2714.000000	65.048027 
2713.000000	65.048265 
2712.000000	65.044260 
2711.000000	65.036678 
2710.000000	65.027070 
2709.000000	65.017604 
2708.000000	65.010523 
2707.000000	65.007662 
2706.000000	65.010094 
2705.000000	65.017819 
2704.000000	65.029859 
2703.000000	65.044236 
2702.000000	65.058422 
2701.000000	65.069651 
2700.000000	65.075516 
2699.000000	65.074181 
2698.000000	65.064787 
2697.000000	65.047693 
2696.000000	65.024304 
2695.000000	64.997076 
2694.000000	64.968943 
2693.000000	64.943265 
2692.000000	64.923095 
2691.000000	64.910936 
2690.000000	64.908218 
2689.000000	64.915275 
2688.000000	64.931559 
2687.000000	64.955639 
2686.000000	64.985489 
2685.000000	65.018987 
2684.000000	65.053868 
2683.000000	65.088105 
2682.000000	65.119767 
2681.000000	65.146923 
2680.000000	65.167760 
2679.000000	65.180706 
2678.000000	65.184688 
2677.000000	65.179538 
2676.000000	65.166044 
2675.000000	65.146446 
2674.000000	65.123820 
2673.000000	65.101933 
2672.000000	65.084075 
2671.000000	65.072917 
2670.000000	65.069437 
2669.000000	65.072917 
2668.000000	65.080952 
2667.000000	65.090131 
2666.000000	65.096902 
2665.000000	65.098381 
2664.000000	65.093255 
2663.000000	65.081810 
2662.000000	65.066146 
2661.000000	65.049409 
2660.000000	65.034961 
2659.000000	65.025520 
2658.000000	65.022540 
2657.000000	65.025734 
2656.000000	65.033411 
2655.000000	65.042805 
2654.000000	65.051150 
2653.000000	65.056324 
2652.000000	65.057158 
2651.000000	65.053987 
2650.000000	65.048193 
2649.000000	65.041995 
2648.000000	65.037441 
2647.000000	65.036225 
2646.000000	65.039181 
2645.000000	65.046095 
2644.000000	65.056133 
2643.000000	65.067720 
2642.000000	65.079307 
2641.000000	65.089249 
2640.000000	65.096378 
2639.000000	65.099668 
2638.000000	65.098214 
2637.000000	65.091371 
2636.000000	65.078854 
2635.000000	65.060758 
2634.000000	65.037846 
2633.000000	65.011692 
2632.000000	64.984607 
2631.000000	64.959263 
2630.000000	64.938426 
2629.000000	64.924383 
2628.000000	64.918661 
2627.000000	64.921545 
2626.000000	64.932465 
2625.000000	64.949846 
2624.000000	64.971685 
2623.000000	64.995789 
2622.000000	65.020370 
2621.000000	65.043663 
2620.000000	65.064644 
2619.000000	65.082406 
2618.000000	65.096569 
2617.000000	65.106868 
2616.000000	65.113234 
2615.000000	65.115785 
2614.000000	65.114831 
2613.000000	65.111351 
2612.000000	65.106487 
2611.000000	65.101623 
2610.000000	65.098047 
2609.000000	65.096759 
2608.000000	65.098142 
2607.000000	65.102005 
2606.000000	65.107631 
2605.000000	65.113830 
2604.000000	65.119242 
2603.000000	65.122747 
2602.000000	65.123820 
2601.000000	65.122509 
2600.000000	65.119528 
2599.000000	65.115904 
2598.000000	65.112781 
2597.000000	65.111017 
2596.000000	65.110635 
2595.000000	65.111064 
2594.000000	65.110969 
2593.000000	65.109109 
2592.000000	65.104699 
2591.000000	65.097880 
2590.000000	65.089702 
2589.000000	65.082073 
2588.000000	65.077137 
2587.000000	65.076541 
2586.000000	65.080809 
2585.000000	65.089249 
2584.000000	65.099692 
2583.000000	65.109324 
2582.000000	65.115380 
2581.000000	65.115857 
2580.000000	65.110158 
2579.000000	65.099215 
2578.000000	65.085363 
2577.000000	65.071749 
2576.000000	65.061378 
2575.000000	65.056467 
2574.000000	65.057754 
2573.000000	65.064430 
2572.000000	65.074491 
2571.000000	65.085363 
2570.000000	65.094542 
2569.000000	65.100455 
2568.000000	65.102767 
2567.000000	65.102076 
2566.000000	65.099859 
2565.000000	65.097808 
2564.000000	65.097427 
2563.000000	65.099334 
2562.000000	65.103626 
2561.000000	65.110015 
2560.000000	65.118265 
2559.000000	65.128469 
2558.000000	65.141248 
2557.000000	65.157341 
2556.000000	65.177559 
2555.000000	65.202116 
2554.000000	65.230059 
2553.000000	65.259218 
2552.000000	65.286326 
2551.000000	65.307760 
2550.000000	65.320420 
2549.000000	65.322542 
2548.000000	65.314364 
2547.000000	65.297913 
2546.000000	65.276598 
2545.000000	65.254139 
2544.000000	65.234041 
2543.000000	65.218257 
2542.000000	65.207433 
2541.000000	65.200185 
2540.000000	65.194296 
2539.000000	65.186738 
2538.000000	65.174579 
2537.000000	65.156006 
2536.000000	65.130329 
2535.000000	65.099120 
2534.000000	65.065598 
2533.000000	65.034747 
2532.000000	65.012073 
2531.000000	65.002512 
2530.000000	65.009093 
2529.000000	65.032148 
2528.000000	65.068888 
2527.000000	65.113830 
2526.000000	65.159630 
2525.000000	65.198779 
2524.000000	65.224957 
2523.000000	65.234613 
2522.000000	65.227699 
2521.000000	65.207314 
2520.000000	65.178847 
2519.000000	65.148591 
2518.000000	65.122079 
2517.000000	65.102887 
2516.000000	65.092110 
2515.000000	65.088438 
2514.000000	65.088796 
2513.000000	65.090036 
2512.000000	65.089750 
2511.000000	65.086698 
2510.000000	65.081667 
2509.000000	65.076613 
2508.000000	65.074539 
2507.000000	65.078186 
2506.000000	65.089750 
2505.000000	65.110063 
2504.000000	65.138673 
2503.000000	65.173983 
2502.000000	65.213537 
2501.000000	65.254545 
2500.000000	65.293645 
2499.000000	65.327477 
2498.000000	65.352630 
2497.000000	65.366244 
2496.000000	65.366482 
2495.000000	65.353131 
2494.000000	65.327644 
2493.000000	65.293312 
2492.000000	65.254855 
2491.000000	65.217757 
2490.000000	65.187287 
2489.000000	65.167379 
2488.000000	65.160202 
2487.000000	65.165615 
2486.000000	65.181565 
2485.000000	65.204477 
2484.000000	65.230250 
2483.000000	65.254783 
2482.000000	65.274763 
2481.000000	65.288186 
2480.000000	65.294313 
2479.000000	65.293622 
2478.000000	65.287184 
2477.000000	65.276622 
2476.000000	65.263795 
2475.000000	65.250229 
2474.000000	65.237236 
2473.000000	65.225315 
2472.000000	65.214371 
2471.000000	65.203619 
2470.000000	65.191864 
2469.000000	65.177917 
2468.000000	65.161204 
2467.000000	65.142154 
2466.000000	65.122246 
2465.000000	65.103745 
2464.000000	65.089225 
2463.000000	65.081071 
2462.000000	65.080642 
2461.000000	65.087699 
2460.000000	65.100359 
2459.000000	65.115499 
2458.000000	65.129661 
2457.000000	65.139579 
2456.000000	65.143179 
2455.000000	65.140080 
2454.000000	65.131616 
2453.000000	65.120410 
2452.000000	65.109443 
2451.000000	65.101265 
2450.000000	65.096998 
2449.000000	65.096139 
2448.000000	65.096759 
2447.000000	65.096497 
2446.000000	65.093231 
2445.000000	65.085983 
2444.000000	65.075564 
2443.000000	65.064525 
2442.000000	65.056657 
2441.000000	65.055823 
2440.000000	65.065121 
2439.000000	65.085697 
2438.000000	65.116620 
2437.000000	65.154933 
2436.000000	65.196275 
2435.000000	65.235638 
2434.000000	65.268993 
2433.000000	65.293526 
2432.000000	65.307998 
2431.000000	65.312266 
2430.000000	65.306830 
2429.000000	65.292835 
2428.000000	65.271258 
2427.000000	65.243983 
2426.000000	65.213799 
2425.000000	65.184831 
2424.000000	65.162515 
2423.000000	65.152716 
2422.000000	65.160679 
2421.000000	65.189695 
2420.000000	65.239715 
2419.000000	65.307068 
2418.000000	65.384650 
2417.000000	65.463209 
2416.000000	65.533018 
2415.000000	65.585780 
2414.000000	65.615892 
2413.000000	65.621185 
2412.000000	65.602779 
2411.000000	65.563869 
2410.000000	65.508508 
2409.000000	65.440917 
2408.000000	65.364837 
2407.000000	65.283846 
2406.000000	65.201449 
2405.000000	65.122270 
2404.000000	65.051221 
2403.000000	64.993619 
2402.000000	64.953923 
2401.000000	64.934611 
2400.000000	64.935803 
2399.000000	64.954757 
2398.000000	64.986586 
2397.000000	65.024638 
2396.000000	65.062475 
2395.000000	65.094399 
2394.000000	65.116834 
2393.000000	65.128374 
2392.000000	65.130162 
2391.000000	65.124869 
2390.000000	65.115904 
2389.000000	65.106654 
2388.000000	65.099763 
2387.000000	65.096879 
2386.000000	65.098524 
2385.000000	65.104222 
2384.000000	65.112996 
2383.000000	65.123605 
2382.000000	65.134787 
2381.000000	65.145707 
2380.000000	65.155839 
2379.000000	65.165305 
2378.000000	65.174674 
2377.000000	65.184617 
2376.000000	65.195679 
2375.000000	65.207934 
2374.000000	65.221214 
2373.000000	65.234923 
2372.000000	65.248274 
2371.000000	65.260338 
2370.000000	65.270733 
2369.000000	65.279150 
2368.000000	65.285491 
2367.000000	65.289568 
2366.000000	65.291094 
2365.000000	65.289187 
2364.000000	65.282917 
2363.000000	65.271162 
2362.000000	65.253329 
2361.000000	65.229773 
2360.000000	65.202140 
2359.000000	65.173387 
2358.000000	65.147399 
2357.000000	65.128254 
2356.000000	65.119147 
2355.000000	65.121626 
2354.000000	65.135145 
2353.000000	65.156888 
2352.000000	65.182518 
2351.000000	65.206813 
2350.000000	65.225195 
2349.000000	65.234470 
2348.000000	65.233635 
2347.000000	65.223622 
2346.000000	65.206956 
2345.000000	65.186929 
2344.000000	65.166664 
2343.000000	65.148234 
2342.000000	65.132713 
2341.000000	65.120196 
2340.000000	65.110325 
2339.000000	65.102791 
2338.000000	65.097737 
2337.000000	65.095782 
2336.000000	65.097951 
2335.000000	65.105319 
2334.000000	65.118265 
2333.000000	65.136289 
2332.000000	65.157866 
2331.000000	65.180730 
2330.000000	65.202069 
2329.000000	65.219211 
2328.000000	65.230250 
2327.000000	65.234136 
2326.000000	65.230822 
2325.000000	65.221118 
2324.000000	65.206480 
2323.000000	65.188717 
2322.000000	65.169739 
2321.000000	65.151119 
2320.000000	65.134382 
2319.000000	65.120339 
2318.000000	65.109539 
2317.000000	65.101790 
2316.000000	65.096473 
2315.000000	65.093016 
2314.000000	65.090775 
2313.000000	65.089750 
2312.000000	65.090346 
2311.000000	65.093684 
2310.000000	65.101099 
2309.000000	65.113973 
2308.000000	65.132713 
2307.000000	65.156793 
2306.000000	65.184307 
2305.000000	65.212225 
2304.000000	65.236568 
2303.000000	65.253329 
2302.000000	65.259408 
2301.000000	65.253233 
2300.000000	65.235376 
2299.000000	65.208506 
2298.000000	65.176796 
2297.000000	65.145277 
2296.000000	65.118670 
2295.000000	65.100646 
2294.000000	65.092945 
2293.000000	65.095448 
2292.000000	65.105986 
2291.000000	65.121364 
2290.000000	65.137648 
2289.000000	65.151453 
2288.000000	65.160036 
2287.000000	65.161919 
2286.000000	65.156722 
2285.000000	65.144944 
2284.000000	65.127587 
2283.000000	65.105819 
2282.000000	65.080976 
2281.000000	65.054249 
2280.000000	65.027141 
2279.000000	65.001559 
2278.000000	64.979529 
2277.000000	64.963316 
2276.000000	64.954948 
2275.000000	64.955949 
2274.000000	64.966583 
2273.000000	64.986300 
2272.000000	65.013480 
2271.000000	65.045833 
2270.000000	65.080738 
2269.000000	65.115404 
2268.000000	65.147542 
2267.000000	65.175127 
2266.000000	65.196704 
2265.000000	65.211153 
2264.000000	65.217733 
2263.000000	65.216231 
2262.000000	65.206980 
2261.000000	65.191149 
2260.000000	65.170669 
2259.000000	65.147995 
2258.000000	65.126061 
2257.000000	65.107369 
2256.000000	65.094017 
2255.000000	65.086841 
2254.000000	65.085554 
2253.000000	65.088891 
2252.000000	65.094947 
2251.000000	65.102005 
2250.000000	65.108823 
2249.000000	65.114665 
2248.000000	65.119409 
2247.000000	65.123271 
2246.000000	65.126538 
2245.000000	65.128970 
2244.000000	65.129661 
2243.000000	65.127491 
2242.000000	65.121126 
2241.000000	65.109539 
2240.000000	65.092444 
2239.000000	65.070724 
2238.000000	65.046143 
2237.000000	65.021157 
2236.000000	64.998292 
2235.000000	64.979529 
2234.000000	64.965748 
2233.000000	64.956760 
2232.000000	64.951252 
2231.000000	64.947295 
2230.000000	64.943051 
2229.000000	64.937376 
2228.000000	64.930367 
2227.000000	64.923334 
2226.000000	64.918518 
2225.000000	64.918589 
2224.000000	64.925813 
2223.000000	64.941453 
2222.000000	64.965248 
2221.000000	64.995336 
2220.000000	65.028643 
2219.000000	65.061545 
2218.000000	65.090537 
2217.000000	65.113258 
2216.000000	65.128588 
2215.000000	65.137124 
2214.000000	65.140867 
2213.000000	65.142583 
2212.000000	65.145206 
2211.000000	65.151047 
2210.000000	65.161275 
2209.000000	65.175724 
2208.000000	65.193128 
2207.000000	65.211200 
2206.000000	65.227317 
2205.000000	65.239000 
2204.000000	65.244674 
2203.000000	65.243792 
2202.000000	65.236902 
2201.000000	65.225648 
2200.000000	65.212345 
2199.000000	65.199446 
2198.000000	65.188860 
2197.000000	65.182089 
2196.000000	65.179657 
2195.000000	65.181255 
2194.000000	65.185880 
2193.000000	65.192008 
2192.000000	65.198087 
2191.000000	65.202617 
2190.000000	65.204548 
2189.000000	65.203022 
2188.000000	65.197849 
2187.000000	65.189671 
2186.000000	65.179634 
2185.000000	65.169048 
2184.000000	65.159082 
2183.000000	65.150785 
2182.000000	65.144324 
2181.000000	65.139222 
2180.000000	65.134429 
2179.000000	65.128445 
2178.000000	65.120148 
2177.000000	65.108823 
2176.000000	65.095233 
2175.000000	65.081286 
2174.000000	65.069985 
2173.000000	65.064668 
2172.000000	65.068554 
2171.000000	65.083837 
2170.000000	65.110850 
2169.000000	65.147972 
2168.000000	65.191912 
2167.000000	65.238094 
2166.000000	65.281534 
2165.000000	65.317392 
2164.000000	65.341758 
2163.000000	65.352153 
2162.000000	65.347552 
2161.000000	65.329027 
2160.000000	65.299391 
2159.000000	65.262889 
2158.000000	65.224885 
2157.000000	65.190839 
2156.000000	65.165686 
2155.000000	65.153026 
2154.000000	65.154600 
2153.000000	65.169906 
2152.000000	65.196466 
2151.000000	65.230178 
2150.000000	65.266227 
2149.000000	65.299749 
2148.000000	65.326595 
2147.000000	65.343737 
2146.000000	65.349578 
2145.000000	65.343737 
2144.000000	65.326738 
2143.000000	65.299797 
2142.000000	65.264701 
2141.000000	65.223479 
2140.000000	65.178561 
2139.000000	65.132713 
2138.000000	65.089011 
2137.000000	65.050482 
2136.000000	65.019845 
2135.000000	64.998888 
2134.000000	64.988207 
2133.000000	64.987063 
2132.000000	64.993786 
2131.000000	65.005517 
2130.000000	65.019321 
2129.000000	65.032410 
2128.000000	65.042996 
2127.000000	65.050029 
2126.000000	65.053820 
2125.000000	65.055227 
2124.000000	65.055656 
2123.000000	65.056324 
2122.000000	65.058207 
2121.000000	65.061688 
2120.000000	65.066885 
2119.000000	65.073680 
2118.000000	65.082287 
2117.000000	65.093135 
2116.000000	65.106749 
2115.000000	65.123629 
2114.000000	65.143871 
2113.000000	65.166997 
2112.000000	65.191388 
2111.000000	65.214705 
2110.000000	65.234446 
2109.000000	65.248513 
2108.000000	65.255975 
2107.000000	65.256834 
2106.000000	65.252351 
2105.000000	65.244340 
2104.000000	65.235400 
2103.000000	65.227174 
2102.000000	65.219879 
2101.000000	65.212321 
2100.000000	65.203022 
2099.000000	65.190196 
2098.000000	65.172433 
2097.000000	65.149927 
2096.000000	65.124630 
2095.000000	65.099906 
2094.000000	65.079474 
2093.000000	65.066456 
2092.000000	65.062046 
2091.000000	65.065073 
2090.000000	65.071654 
2089.000000	65.075922 
2088.000000	65.070962 
2087.000000	65.050482 
2086.000000	65.010643 
2085.000000	64.950251 
2084.000000	64.872169 
2083.000000	64.782524 
2082.000000	64.690899 
2081.000000	64.607238 
2080.000000	64.542436 
2079.000000	64.505815 
2078.000000	64.505195 
2077.000000	64.544391 
2076.000000	64.624118 
2075.000000	64.741110 
2074.000000	64.888858 
2073.000000	65.057563 
2072.000000	65.235614 
2071.000000	65.410351 
2070.000000	65.569519 
2069.000000	65.702438 
2068.000000	65.800762 
2067.000000	65.859150 
2066.000000	65.875935 
2065.000000	65.853214 
2064.000000	65.796375 
2063.000000	65.713095 
2062.000000	65.613245 
2061.000000	65.507006 
2060.000000	65.403842 
2059.000000	65.310645 
2058.000000	65.232157 
2057.000000	65.169692 
2056.000000	65.121889 
2055.000000	65.085506 
2054.000000	65.056180 
2053.000000	65.030336 
2052.000000	65.005326 
2051.000000	64.981055 
2050.000000	64.958786 
2049.000000	64.941620 
2048.000000	64.932370 
2047.000000	64.933443 
2046.000000	64.945244 
2045.000000	64.966607 
2044.000000	64.994931 
2043.000000	65.026593 
2042.000000	65.057277 
2041.000000	65.083861 
2040.000000	65.104866 
2039.000000	65.119934 
2038.000000	65.129756 
2037.000000	65.136122 
2036.000000	65.141248 
2035.000000	65.146970 
2034.000000	65.154409 
2033.000000	65.163683 
2032.000000	65.174126 
2031.000000	65.184664 
2030.000000	65.194082 
2029.000000	65.201044 
2028.000000	65.204620 
2027.000000	65.204572 
2026.000000	65.201616 
2025.000000	65.196895 
2024.000000	65.191960 
2023.000000	65.188741 
2022.000000	65.188741 
2021.000000	65.192818 
2020.000000	65.200662 
2019.000000	65.211153 
2018.000000	65.222263 
2017.000000	65.231490 
2016.000000	65.236616 
2015.000000	65.236043 
2014.000000	65.229344 
2013.000000	65.217256 
2012.000000	65.201544 
2011.000000	65.184378 
2010.000000	65.168070 
2009.000000	65.154170 
2008.000000	65.143299 
2007.000000	65.134906 
2006.000000	65.127515 
2005.000000	65.119290 
2004.000000	65.108203 
2003.000000	65.092802 
2002.000000	65.072393 
2001.000000	65.047574 
2000.000000	65.019464 
1999.000000	64.990401 
1998.000000	64.963245 
1997.000000	64.941358 
1996.000000	64.927554 
1995.000000	64.924192 
1994.000000	64.932346 
1993.000000	64.951729 
1992.000000	64.980411 
1991.000000	65.015625 
1990.000000	65.053749 
1989.000000	65.091419 
1988.000000	65.125918 
1987.000000	65.155649 
1986.000000	65.180087 
1985.000000	65.199899 
1984.000000	65.216255 
1983.000000	65.230512 
1982.000000	65.243482 
1981.000000	65.255331 
1980.000000	65.265345 
1979.000000	65.271949 
1978.000000	65.272903 
1977.000000	65.266442 
1976.000000	65.251302 
1975.000000	65.227651 
1974.000000	65.197014 
1973.000000	65.162229 
1972.000000	65.126967 
1971.000000	65.094852 
1970.000000	65.068984 
1969.000000	65.051198 
1968.000000	65.041995 
1967.000000	65.040516 
1966.000000	65.045070 
1965.000000	65.053606 
1964.000000	65.064334 
1963.000000	65.075874 
1962.000000	65.087461 
1961.000000	65.098667 
1960.000000	65.109300 
1959.000000	65.119314 
1958.000000	65.128254 
1957.000000	65.135169 
1956.000000	65.138936 
1955.000000	65.138483 
1954.000000	65.133023 
1953.000000	65.122413 
1952.000000	65.107417 
1951.000000	65.089559 
1950.000000	65.070962 
1949.000000	65.053939 
1948.000000	65.040326 
1947.000000	65.031313 
1946.000000	65.027117 
1945.000000	65.027165 
1944.000000	65.030169 
1943.000000	65.034627 
1942.000000	65.039157 
1941.000000	65.042757 
1940.000000	65.044999 
1939.000000	65.045809 
1938.000000	65.045428 
1937.000000	65.044069 
1936.000000	65.041780 
1935.000000	65.038442 
1934.000000	65.033793 
1933.000000	65.027880 
1932.000000	65.020942 
1931.000000	65.013790 
1930.000000	65.007734 
1929.000000	65.004158 
1928.000000	65.004229 
1927.000000	65.008592 
1926.000000	65.017104 
1925.000000	65.028858 
1924.000000	65.042281 
1923.000000	65.055727 
1922.000000	65.067887 
1921.000000	65.078020 
1920.000000	65.086269 
1919.000000	65.093398 
1918.000000	65.100574 
1917.000000	65.108799 
1916.000000	65.118479 
1915.000000	65.129327 
1914.000000	65.140080 
1913.000000	65.148973 
1912.000000	65.154004 
1911.000000	65.153741 
1910.000000	65.147471 
1909.000000	65.135598 
1908.000000	65.119528 
1907.000000	65.101456 
1906.000000	65.083956 
1905.000000	65.069365 
1904.000000	65.059399 
1903.000000	65.054845 
1902.000000	65.055561 
1901.000000	65.060615 
1900.000000	65.068435 
1899.000000	65.077233 
1898.000000	65.085554 
1897.000000	65.092444 
1896.000000	65.097212 
1895.000000	65.099596 
1894.000000	65.099620 
1893.000000	65.097475 
1892.000000	65.093231 
1891.000000	65.087199 
1890.000000	65.079689 
1889.000000	65.071654 
1888.000000	65.064358 
1887.000000	65.059471 
1886.000000	65.058827 
1885.000000	65.063834 
1884.000000	65.075373 
1883.000000	65.093088 
1882.000000	65.115356 
1881.000000	65.139508 
1880.000000	65.162086 
1879.000000	65.179705 
1878.000000	65.189480 
1877.000000	65.189790 
1876.000000	65.180158 
1875.000000	65.161180 
1874.000000	65.134286 
1873.000000	65.101242 
1872.000000	65.063738 
1871.000000	65.023374 
1870.000000	64.981698 
1869.000000	64.940285 
1868.000000	64.900994 
1867.000000	64.865899 
1866.000000	64.837336 
1865.000000	64.817404 
1864.000000	64.807796 
1863.000000	64.809107 
1862.000000	64.821147 
1861.000000	64.842152 
1860.000000	64.869832 
1859.000000	64.901161 
1858.000000	64.933300 
1857.000000	64.963865 
1856.000000	64.991092 
1855.000000	65.013909 
1854.000000	65.031814 
1853.000000	65.044903 
1852.000000	65.053367 
1851.000000	65.057468 
1850.000000	65.057444 
1849.000000	65.053415 
1848.000000	65.045404 
1847.000000	65.033602 
1846.000000	65.018057 
1845.000000	64.999079 
1844.000000	64.977455 
1843.000000	64.954614 
1842.000000	64.932537 
1841.000000	64.913582 
1840.000000	64.900112 
1839.000000	64.894080 
1838.000000	64.896869 
1837.000000	64.908456 
1836.000000	64.927554 
1835.000000	64.951682 
1834.000000	64.977574 
1833.000000	65.002131 
1832.000000	65.022659 
1831.000000	65.037822 
1830.000000	65.047788 
1829.000000	65.054035 
1828.000000	65.059018 
1827.000000	65.065193 
1826.000000	65.074205 
1825.000000	65.086460 
1824.000000	65.100860 
1823.000000	65.114879 
1822.000000	65.125107 
1821.000000	65.127849 
1820.000000	65.119791 
1819.000000	65.099048 
1818.000000	65.065455 
1817.000000	65.020704 
1816.000000	64.968252 
1815.000000	64.912819 
1814.000000	64.859724 
1813.000000	64.813899 
1812.000000	64.779329 
1811.000000	64.758706 
1810.000000	64.753222 
1809.000000	64.762520 
1808.000000	64.785051 
1807.000000	64.818310 
1806.000000	64.859223 
1805.000000	64.904165 
1804.000000	64.949417 
1803.000000	64.991068 
1802.000000	65.025496 
1801.000000	65.049719 
1800.000000	65.061593 
1799.000000	65.060281 
1798.000000	65.046334 
1797.000000	65.021681 
1796.000000	64.989519 
1795.000000	64.953780 
1794.000000	64.918589 
1793.000000	64.887332 
1792.000000	64.862489 
1791.000000	64.845395 
1790.000000	64.836335 
1789.000000	64.834666 
1788.000000	64.839220 
1787.000000	64.848756 
1786.000000	64.861917 
1785.000000	64.877986 
1784.000000	64.896202 
1783.000000	64.916253 
1782.000000	64.937472 
1781.000000	64.959287 
1780.000000	64.980888 
1779.000000	65.001463 
1778.000000	65.019917 
1777.000000	65.035295 
1776.000000	65.046739 
1775.000000	65.053653 
1774.000000	65.056061 
1773.000000	65.054345 
1772.000000	65.049409 
1771.000000	65.042543 
1770.000000	65.035390 
1769.000000	65.029573 
1768.000000	65.026164 
1767.000000	65.025496 
1766.000000	65.027141 
1765.000000	65.029597 
1764.000000	65.030741 
1763.000000	65.028500 
1762.000000	65.021419 
1761.000000	65.009021 
1760.000000	64.992284 
1759.000000	64.973258 
1758.000000	64.954996 
1757.000000	64.940547 
1756.000000	64.932560 
1755.000000	64.932203 
1754.000000	64.939141 
1753.000000	64.951682 
1752.000000	64.967036 
1751.000000	64.982104 
1750.000000	64.994096 
1749.000000	65.001296 
1748.000000	65.003108 
1747.000000	65.000081 
1746.000000	64.993357 
1745.000000	64.984416 
1744.000000	64.974188 
1743.000000	64.963102 
1742.000000	64.950680 
1741.000000	64.935874 
1740.000000	64.917039 
1739.000000	64.892435 
1738.000000	64.860796 
1737.000000	64.821839 
1736.000000	64.776325 
1735.000000	64.726710 
1734.000000	64.676499 
1733.000000	64.630317 
1732.000000	64.593052 
1731.000000	64.569473 
1730.000000	64.562916 
1729.000000	64.575386 
1728.000000	64.606642 
1727.000000	64.654588 
1726.000000	64.715242 
1725.000000	64.783453 
1724.000000	64.853310 
1723.000000	64.919447 
1722.000000	64.977264 
1721.000000	65.023565 
1720.000000	65.056824 
1719.000000	65.077042 
1718.000000	65.085458 
1717.000000	65.084052 
1716.000000	65.075182 
1715.000000	65.061259 
1714.000000	65.044403 
1713.000000	65.026259 
1712.000000	65.007901 
1711.000000	64.990353 
1710.000000	64.974594 
1709.000000	64.961481 
1708.000000	64.951658 
1707.000000	64.945793 
1706.000000	64.944171 
1705.000000	64.946508 
1704.000000	64.952206 
1703.000000	64.960074 
1702.000000	64.968919 
1701.000000	64.977765 
1700.000000	64.986133 
1699.000000	64.994072 
1698.000000	65.001869 
1697.000000	65.010166 
1696.000000	65.018987 
1695.000000	65.027642 
1694.000000	65.034747 
1693.000000	65.038394 
1692.000000	65.036559 
1691.000000	65.027594 
1690.000000	65.010929 
1689.000000	64.987707 
1688.000000	64.960384 
1687.000000	64.932584 
1686.000000	64.908409 
1685.000000	64.891672 
1684.000000	64.884996 
1683.000000	64.889335 
1682.000000	64.903593 
1681.000000	64.924931 
1680.000000	64.949321 
1679.000000	64.972352 
1678.000000	64.989948 
1677.000000	64.999008 
1676.000000	64.997887 
1675.000000	64.986443 
1674.000000	64.966106 
1673.000000	64.939379 
1672.000000	64.909434 
1671.000000	64.879655 
1670.000000	64.853096 
1669.000000	64.832210 
1668.000000	64.818692 
1667.000000	64.813184 
1666.000000	64.815354 
1665.000000	64.824151 
1664.000000	64.837765 
1663.000000	64.853954 
1662.000000	64.870524 
1661.000000	64.885520 
1660.000000	64.897441 
1659.000000	64.905858 
1658.000000	64.910984 
1657.000000	64.913892 
1656.000000	64.915823 
1655.000000	64.917826 
1654.000000	64.920377 
1653.000000	64.923119 
1652.000000	64.924955 
1651.000000	64.924383 
1650.000000	64.919924 
1649.000000	64.910817 
1648.000000	64.897394 
1647.000000	64.881372 
1646.000000	64.865660 
1645.000000	64.853549 
1644.000000	64.848208 
1643.000000	64.851832 
1642.000000	64.864945 
1641.000000	64.886331 
1640.000000	64.913058 
1639.000000	64.941072 
1638.000000	64.965987 
1637.000000	64.984011 
1636.000000	64.992594 
1635.000000	64.990925 
1634.000000	64.979863 
1633.000000	64.961600 
1632.000000	64.939260 
1631.000000	64.916086 
1630.000000	64.894890 
1629.000000	64.877510 
1628.000000	64.864778 
1627.000000	64.856457 
1626.000000	64.851474 
1625.000000	64.848279 
1624.000000	64.845323 
1623.000000	64.841461 
1622.000000	64.835977 
1621.000000	64.829254 
1620.000000	64.822125 
1619.000000	64.816284 
1618.000000	64.813494 
1617.000000	64.815187 
1616.000000	64.822149 
1615.000000	64.834070 
1614.000000	64.849686 
1613.000000	64.866852 
1612.000000	64.882898 
1611.000000	64.895319 
1610.000000	64.902281 
1609.000000	64.903140 
1608.000000	64.898252 
1607.000000	64.889121 
1606.000000	64.877915 
1605.000000	64.866805 
1604.000000	64.857721 
1603.000000	64.851760 
1602.000000	64.849233 
1601.000000	64.849591 
1600.000000	64.851689 
1599.000000	64.854502 
1598.000000	64.857077 
1597.000000	64.858794 
1596.000000	64.859580 
1595.000000	64.859604 
1594.000000	64.859294 
1593.000000	64.858984 
1592.000000	64.858865 
1591.000000	64.859008 
1590.000000	64.859080 
1589.000000	64.858794 
1588.000000	64.857721 
1587.000000	64.855718 
1586.000000	64.852809 
1585.000000	64.849448 
1584.000000	64.846372 
1583.000000	64.844322 
1582.000000	64.843988 
1581.000000	64.845705 
1580.000000	64.849424 
1579.000000	64.854598 
1578.000000	64.860367 
1577.000000	64.865803 
1576.000000	64.870119 
1575.000000	64.872789 
1574.000000	64.873361 
1573.000000	64.871621 
1572.000000	64.867520 
1571.000000	64.861297 
1570.000000	64.853453 
1569.000000	64.844799 
1568.000000	64.836382 
1567.000000	64.829492 
1566.000000	64.825582 
1565.000000	64.825582 
1564.000000	64.830017 
1563.000000	64.838480 
1562.000000	64.849662 
1561.000000	64.861488 
1560.000000	64.871430 
1559.000000	64.877319 
1558.000000	64.877700 
1557.000000	64.872217 
1556.000000	64.861679 
1555.000000	64.847874 
1554.000000	64.833021 
1553.000000	64.819383 
1552.000000	64.808654 
1551.000000	64.802122 
1550.000000	64.800524 
1549.000000	64.804077 
1548.000000	64.812541 
1547.000000	64.825224 
1546.000000	64.841032 
1545.000000	64.858365 
1544.000000	64.875459 
1543.000000	64.890027 
1542.000000	64.900326 
1541.000000	64.904952 
1540.000000	64.903783 
1539.000000	64.897584 
1538.000000	64.888262 
1537.000000	64.878416 
1536.000000	64.870595 
1535.000000	64.866638 
1534.000000	64.867377 
1533.000000	64.872336 
1532.000000	64.880132 
1531.000000	64.888978 
1530.000000	64.897155 
1529.000000	64.903569 
1528.000000	64.907670 
1527.000000	64.909553 
1526.000000	64.909434 
1525.000000	64.907407 
1524.000000	64.903306 
1523.000000	64.896941 
1522.000000	64.888191 
1521.000000	64.877414 
1520.000000	64.865756 
1519.000000	64.854764 
1518.000000	64.846467 
1517.000000	64.842700 
1516.000000	64.844584 
1515.000000	64.852190 
1514.000000	64.864182 
1513.000000	64.878439 
1512.000000	64.892339 
1511.000000	64.903545 
1510.000000	64.910697 
1509.000000	64.913773 
1508.000000	64.913749 
1507.000000	64.912509 
1506.000000	64.912080 
1505.000000	64.914059 
1504.000000	64.919114 
1503.000000	64.926862 
1502.000000	64.936017 
1501.000000	64.945197 
1500.000000	64.953160 
1499.000000	64.959311 
1498.000000	64.963865 
1497.000000	64.967775 
1496.000000	64.972186 
1495.000000	64.978146 
1494.000000	64.985871 
1493.000000	64.994859 
1492.000000	65.003967 
1491.000000	65.011572 
1490.000000	65.016174 
1489.000000	65.016984 
1488.000000	65.014195 
1487.000000	65.008974 
1486.000000	65.003132 
1485.000000	64.998722 
1484.000000	64.997553 
1483.000000	65.000724 
1482.000000	65.008115 
1481.000000	65.018606 
1480.000000	65.030145 
1479.000000	65.040397 
1478.000000	65.047121 
1477.000000	65.048813 
1476.000000	65.045022 
1475.000000	65.036487 
1474.000000	65.024995 
1473.000000	65.012907 
1472.000000	65.002655 
1471.000000	64.996051 
1470.000000	64.993739 
1469.000000	64.994883 
1468.000000	64.997148 
1467.000000	64.997148 
1466.000000	64.991259 
1465.000000	64.976406 
1464.000000	64.950847 
1463.000000	64.914989 
1462.000000	64.871144 
1461.000000	64.823770 
1460.000000	64.778208 
1459.000000	64.740228 
1458.000000	64.714884 
1457.000000	64.705729 
1456.000000	64.714026 
1455.000000	64.738702 
1454.000000	64.776730 
1453.000000	64.823412 
1452.000000	64.873361 
1451.000000	64.921307 
1450.000000	64.962863 
1449.000000	64.994931 
1448.000000	65.015721 
1447.000000	65.024542 
1446.000000	65.021586 
1445.000000	65.007567 
1444.000000	64.983654 
1443.000000	64.951562 
1442.000000	64.913725 
1441.000000	64.873552 
1440.000000	64.834976 
1439.000000	64.802432 
1438.000000	64.779734 
1437.000000	64.769649 
1436.000000	64.773178 
1435.000000	64.789319 
1434.000000	64.815068 
1433.000000	64.845752 
1432.000000	64.876341 
1431.000000	64.902019 
1430.000000	64.919304 
1429.000000	64.926600 
1428.000000	64.924263 
1427.000000	64.914298 
1426.000000	64.899682 
1425.000000	64.883852 
1424.000000	64.869499 
1423.000000	64.858078 
1422.000000	64.849805 
1421.000000	64.843750 
1420.000000	64.838218 
1419.000000	64.831423 
1418.000000	64.822030 
1417.000000	64.809560 
1416.000000	64.794540 
1415.000000	64.778327 
1414.000000	64.762783 
1413.000000	64.749741 
1412.000000	64.740562 
1411.000000	64.735746 
1410.000000	64.734792 
1409.000000	64.736223 
1408.000000	64.737868 
1407.000000	64.737319 
1406.000000	64.732432 
1405.000000	64.721918 
1404.000000	64.705514 
1403.000000	64.684581 
1402.000000	64.661359 
1401.000000	64.639210 
1400.000000	64.621520 
1399.000000	64.611387 
1398.000000	64.610981 
1397.000000	64.621138 
1396.000000	64.641261 
1395.000000	64.669609 
1394.000000	64.703607 
1393.000000	64.740228 
1392.000000	64.776349 
1391.000000	64.809226 
1390.000000	64.836835 
1389.000000	64.857864 
1388.000000	64.871382 
1387.000000	64.877009 
1386.000000	64.874601 
1385.000000	64.864230 
1384.000000	64.846014 
1383.000000	64.820575 
1382.000000	64.788722 
1381.000000	64.751839 
1380.000000	64.711904 
1379.000000	64.671468 
1378.000000	64.633655 
1377.000000	64.601945 
1376.000000	64.579725 
1375.000000	64.569520 
1374.000000	64.572858 
1373.000000	64.589571 
1372.000000	64.618062 
1371.000000	64.655137 
1370.000000	64.696860 
1369.000000	64.739036 
1368.000000	64.778280 
1367.000000	64.812159 
1366.000000	64.839601 
1365.000000	64.860582 
1364.000000	64.875745 
1363.000000	64.885950 
1362.000000	64.891600 
1361.000000	64.892625 
1360.000000	64.888501 
1359.000000	64.878726 
1358.000000	64.863610 
1357.000000	64.844417 
1356.000000	64.823484 
1355.000000	64.803576 
1354.000000	64.787292 
1353.000000	64.776301 
1352.000000	64.770579 
1351.000000	64.768791 
1350.000000	64.768218 
1349.000000	64.766120 
1348.000000	64.760422 
1347.000000	64.750409 
1346.000000	64.737081 
1345.000000	64.722919 
1344.000000	64.710879 
1343.000000	64.703989 
1342.000000	64.704203 
1341.000000	64.712238 
1340.000000	64.727163 
1339.000000	64.747452 
1338.000000	64.771485 
1337.000000	64.797854 
1336.000000	64.825534 
1335.000000	64.853978 
1334.000000	64.882588 
1333.000000	64.910054 
1332.000000	64.934277 
1331.000000	64.952588 
1330.000000	64.962410 
1329.000000	64.961957 
1328.000000	64.951062 
1327.000000	64.931416 
1326.000000	64.906358 
1325.000000	64.880394 
1324.000000	64.858007 
1323.000000	64.842414 
1322.000000	64.834928 
1321.000000	64.834547 
1320.000000	64.838361 
1319.000000	64.842700 
1318.000000	64.843893 
1317.000000	64.839649 
1316.000000	64.829254 
1315.000000	64.813756 
1314.000000	64.795422 
1313.000000	64.776849 
1312.000000	64.760136 
1311.000000	64.746284 
1310.000000	64.735078 
1309.000000	64.725422 
1308.000000	64.715957 
1307.000000	64.705610 
1306.000000	64.694094 
1305.000000	64.682149 
1304.000000	64.671516 
1303.000000	64.664506 
1302.000000	64.662981 
1301.000000	64.667868 
1300.000000	64.678978 
1299.000000	64.694619 
1298.000000	64.712119 
1297.000000	64.728093 
1296.000000	64.739298 
1295.000000	64.743089 
1294.000000	64.738202 
1293.000000	64.724802 
1292.000000	64.704370 
1291.000000	64.679694 
1290.000000	64.654254 
1289.000000	64.631795 
1288.000000	64.615559 
1287.000000	64.607906 
1286.000000	64.609932 
1285.000000	64.621305 
1284.000000	64.640498 
1283.000000	64.664649 
1282.000000	64.690184 
1281.000000	64.713025 
1280.000000	64.729261 
1279.000000	64.735698 
1278.000000	64.730453 
1277.000000	64.713311 
1276.000000	64.686107 
1275.000000	64.652252 
1274.000000	64.616370 
1273.000000	64.583611 
1272.000000	64.558720 
1271.000000	64.545273 
1270.000000	64.545202 
1269.000000	64.558601 
1268.000000	64.583921 
1267.000000	64.618301 
1266.000000	64.658260 
1265.000000	64.700388 
1264.000000	64.741635 
1263.000000	64.779496 
1262.000000	64.812207 
1261.000000	64.838266 
1260.000000	64.856719 
1259.000000	64.866948 
1258.000000	64.868712 
1257.000000	64.862322 
1256.000000	64.848828 
1255.000000	64.829993 
1254.000000	64.807891 
1253.000000	64.784479 
1252.000000	64.761328 
1251.000000	64.739394 
1250.000000	64.719128 
1249.000000	64.700388 
1248.000000	64.683079 
1247.000000	64.667081 
1246.000000	64.652681 
1245.000000	64.640450 
1244.000000	64.631009 
1243.000000	64.624881 
1242.000000	64.622044 
1241.000000	64.621782 
1240.000000	64.622759 
1239.000000	64.623546 
1238.000000	64.622783 
1237.000000	64.619803 
1236.000000	64.614701 
1235.000000	64.608407 
1234.000000	64.602518 
1233.000000	64.598631 
1232.000000	64.597868 
1231.000000	64.600777 
1230.000000	64.607071 
1229.000000	64.615607 
1228.000000	64.624738 
1227.000000	64.632558 
1226.000000	64.637470 
1225.000000	64.638233 
1224.000000	64.634346 
1223.000000	64.626097 
1222.000000	64.614748 
1221.000000	64.602208 
1220.000000	64.590692 
1219.000000	64.582467 
1218.000000	64.579129 
1217.000000	64.581894 
1216.000000	64.590930 
1215.000000	64.605236 
1214.000000	64.623117 
1213.000000	64.642214 
1212.000000	64.660263 
1211.000000	64.675498 
1210.000000	64.687085 
1209.000000	64.695000 
1208.000000	64.700269 
1207.000000	64.704561 
1206.000000	64.709496 
1205.000000	64.716172 
1204.000000	64.724731 
1203.000000	64.734435 
1202.000000	64.743328 
1201.000000	64.748978 
1200.000000	64.748597 
1199.000000	64.739799 
1198.000000	64.721155 
1197.000000	64.692807 
1196.000000	64.656615 
1195.000000	64.616394 
1194.000000	64.577031 
1193.000000	64.544248 
1192.000000	64.523267 
1191.000000	64.518046 
1190.000000	64.530348 
1189.000000	64.559221 
1188.000000	64.601087 
1187.000000	64.650321 
1186.000000	64.699959 
1185.000000	64.742922 
1184.000000	64.773297 
1183.000000	64.787268 
1182.000000	64.783573 
1181.000000	64.763665 
1180.000000	64.731240 
1179.000000	64.691591 
1178.000000	64.650416 
1177.000000	64.612793 
1176.000000	64.582419 
1175.000000	64.561223 
1174.000000	64.549589 
1173.000000	64.546418 
1172.000000	64.549660 
1171.000000	64.557003 
1170.000000	64.566349 
1169.000000	64.575815 
1168.000000	64.584136 
1167.000000	64.590167 
1166.000000	64.593124 
1165.000000	64.592170 
1164.000000	64.586663 
1163.000000	64.576220 
1162.000000	64.560890 
1161.000000	64.541339 
1160.000000	64.518880 
1159.000000	64.495396 
1158.000000	64.473032 
1157.000000	64.454007 
1156.000000	64.440298 
1155.000000	64.433026 
1154.000000	64.432859 
1153.000000	64.439868 
1152.000000	64.453721 
1151.000000	64.473605 
1150.000000	64.498519 
1149.000000	64.527106 
1148.000000	64.557957 
1147.000000	64.589428 
1146.000000	64.619612 
1145.000000	64.646387 
1144.000000	64.668083 
1143.000000	64.683508 
1142.000000	64.692163 
1141.000000	64.694333 
1140.000000	64.691162 
1139.000000	64.684247 
1138.000000	64.675235 
1137.000000	64.665150 
1136.000000	64.654707 
1135.000000	64.643883 
1134.000000	64.631986 
1133.000000	64.617991 
1132.000000	64.601373 
1131.000000	64.581918 
1130.000000	64.560413 
1129.000000	64.538264 
1128.000000	64.517045 
1127.000000	64.498615 
1126.000000	64.484524 
1125.000000	64.475893 
1124.000000	64.472985 
1123.000000	64.475607 
1122.000000	64.482879 
1121.000000	64.493680 
1120.000000	64.506769 
1119.000000	64.521074 
1118.000000	64.535737 
1117.000000	64.549708 
1116.000000	64.562296 
1115.000000	64.572882 
1114.000000	64.581680 
1113.000000	64.589071 
1112.000000	64.596414 
1111.000000	64.606022 
1110.000000	64.620471 
1109.000000	64.642548 
1108.000000	64.673066 
1107.000000	64.710998 
1106.000000	64.751887 
1105.000000	64.789247 
1104.000000	64.814686 
1103.000000	64.820003 
1102.000000	64.799141 
1101.000000	64.750170 
1100.000000	64.676475 
1099.000000	64.586424 
1098.000000	64.492177 
1097.000000	64.407467 
1096.000000	64.344549 
1095.000000	64.311814 
1094.000000	64.311981 
1093.000000	64.341449 
1092.000000	64.391613 
1091.000000	64.450669 
1090.000000	64.505982 
1089.000000	64.546823 
1088.000000	64.565706 
1087.000000	64.559936 
1086.000000	64.530587 
1085.000000	64.482831 
1084.000000	64.424085 
1083.000000	64.363217 
1082.000000	64.308857 
1081.000000	64.267921 
1080.000000	64.245390 
1079.000000	64.243125 
1078.000000	64.260601 
1077.000000	64.294481 
1076.000000	64.339375 
1075.000000	64.388847 
1074.000000	64.436316 
1073.000000	64.476037 
1072.000000	64.503717 
1071.000000	64.517068 
1070.000000	64.515757 
1069.000000	64.501166 
1068.000000	64.475631 
1067.000000	64.442348 
1066.000000	64.404749 
1065.000000	64.366412 
1064.000000	64.330387 
1063.000000	64.299583 
1062.000000	64.276194 
1061.000000	64.261341 
1060.000000	64.254856 
1059.000000	64.254641 
1058.000000	64.257955 
1057.000000	64.261674 
1056.000000	64.264059 
1055.000000	64.264225 
1054.000000	64.263534 
1053.000000	64.264798 
1052.000000	64.271855 
1051.000000	64.288234 
1050.000000	64.315962 
1049.000000	64.354515 
1048.000000	64.400529 
1047.000000	64.448523 
1046.000000	64.492201 
1045.000000	64.526009 
1044.000000	64.546585 
1043.000000	64.553618 
1042.000000	64.549565 
1041.000000	64.538788 
1040.000000	64.526176 
1039.000000	64.515757 
1038.000000	64.509773 
1037.000000	64.508295 
1036.000000	64.509439 
1035.000000	64.510035 
1034.000000	64.506220 
1033.000000	64.494585 
1032.000000	64.472985 
1031.000000	64.441299 
1030.000000	64.401531 
1029.000000	64.357662 
1028.000000	64.314818 
1027.000000	64.278006 
1026.000000	64.251017 
1025.000000	64.235401 
1024.000000	64.230132 
1023.000000	64.232182 
1022.000000	64.237022 
1021.000000	64.240431 
1020.000000	64.239311 
1019.000000	64.232945 
1018.000000	64.223098 
1017.000000	64.213538 
1016.000000	64.208698 
1015.000000	64.212346 
1014.000000	64.226150 
1013.000000	64.249038 
1012.000000	64.277076 
1011.000000	64.304971 
1010.000000	64.327168 
1009.000000	64.339494 
1008.000000	64.339947 
1007.000000	64.328789 
1006.000000	64.308571 
1005.000000	64.282751 
1004.000000	64.255428 
1003.000000	64.230155 
1002.000000	64.210033 
1001.000000	64.197516 
1000.000000	64.194369 
999.000000	 64.201664 
998.000000	 64.219808 
997.000000	 64.248538 
996.000000	 64.286637 
995.000000	 64.331793 
994.000000	 64.380669 
993.000000	 64.429402 
992.000000	 64.474081 
991.000000	 64.511275 
990.000000	 64.538502 
989.000000	 64.554882 
988.000000	 64.560365 
987.000000	 64.555644 
986.000000	 64.541649 
985.000000	 64.519166 
984.000000	 64.488744 
983.000000	 64.450931 
982.000000	 64.406657 
981.000000	 64.357662 
980.000000	 64.306569 
979.000000	 64.256930 
978.000000	 64.212608 
977.000000	 64.177393 
976.000000	 64.154624 
975.000000	 64.146232 
974.000000	 64.152407 
973.000000	 64.171218 
972.000000	 64.199018 
971.000000	 64.230918 
970.000000	 64.261054 
969.000000	 64.284515 
968.000000	 64.297652 
967.000000	 64.299345 
966.000000	 64.290618 
965.000000	 64.274835 
964.000000	 64.256429 
963.000000	 64.240264 
962.000000	 64.230322 
961.000000	 64.228963 
960.000000	 64.236593 
959.000000	 64.251637 
958.000000	 64.271330 
957.000000	 64.292120 
956.000000	 64.311003 
955.000000	 64.325881 
954.000000	 64.335942 
953.000000	 64.341521 
952.000000	 64.343619 
951.000000	 64.343595 
950.000000	 64.342045 
949.000000	 64.338660 
948.000000	 64.331507 
947.000000	 64.318537 
946.000000	 64.297318 
945.000000	 64.265942 
944.000000	 64.223980 
943.000000	 64.173054 
942.000000	 64.117050 
941.000000	 64.061331 
940.000000	 64.012455 
939.000000	 63.976621 
938.000000	 63.958835 
937.000000	 63.961839 
936.000000	 63.985633 
935.000000	 64.027190 
934.000000	 64.081144 
933.000000	 64.140534 
932.000000	 64.197826 
931.000000	 64.246106 
930.000000	 64.280319 
929.000000	 64.297962 
928.000000	 64.299011 
927.000000	 64.285874 
926.000000	 64.262461 
925.000000	 64.233732 
924.000000	 64.204597 
923.000000	 64.179182 
922.000000	 64.161133 
921.000000	 64.152836 
920.000000	 64.155340 
919.000000	 64.168477 
918.000000	 64.190983 
917.000000	 64.220666 
916.000000	 64.254474 
915.000000	 64.289665 
914.000000	 64.323759 
913.000000	 64.355373 
912.000000	 64.384198 
911.000000	 64.410281 
910.000000	 64.433908 
909.000000	 64.454483 
908.000000	 64.470648 
907.000000	 64.479327 
906.000000	 64.476370 
905.000000	 64.457702 
904.000000	 64.420580 
903.000000	 64.365506 
902.000000	 64.296722 
901.000000	 64.221692 
900.000000	 64.149546 
899.000000	 64.089083 
898.000000	 64.046692 
897.000000	 64.024162 
896.000000	 64.018559 
895.000000	 64.022970 
894.000000	 64.028668 
893.000000	 64.027523 
892.000000	 64.014148 
891.000000	 63.986921 
890.000000	 63.948154 
889.000000	 63.902759 
888.000000	 63.857293 
887.000000	 63.817524 
886.000000	 63.787984 
885.000000	 63.770556 
884.000000	 63.765335 
883.000000	 63.771343 
882.000000	 63.786625 
881.000000	 63.809418 
880.000000	 63.836598 
879.000000	 63.864040 
878.000000	 63.885593 
877.000000	 63.894128 
876.000000	 63.882493 
875.000000	 63.845658 
874.000000	 63.782453 
873.000000	 63.696885 
872.000000	 63.597869 
871.000000	 63.498163 
870.000000	 63.412094 
869.000000	 63.352417 
868.000000	 63.327288 
867.000000	 63.338327 
866.000000	 63.380551 
865.000000	 63.443470 
864.000000	 63.513207 
863.000000	 63.576126 
862.000000	 63.620543 
861.000000	 63.640403 
860.000000	 63.635540 
859.000000	 63.611984 
858.000000	 63.579034 
857.000000	 63.547587 
856.000000	 63.526725 
855.000000	 63.522458 
854.000000	 63.536882 
853.000000	 63.566827 
852.000000	 63.605046 
851.000000	 63.642454 
850.000000	 63.670730 
849.000000	 63.683867 
848.000000	 63.679790 
847.000000	 63.661026 
846.000000	 63.634228 
845.000000	 63.608646 
844.000000	 63.593506 
843.000000	 63.596200 
842.000000	 63.619542 
841.000000	 63.662195 
840.000000	 63.716793 
839.000000	 63.772511 
838.000000	 63.815522 
837.000000	 63.832187 
836.000000	 63.812255 
835.000000	 63.749885 
834.000000	 63.647723 
833.000000	 63.515520 
832.000000	 63.371133 
831.000000	 63.235807 
830.000000	 63.132834 
829.000000	 63.082671 
828.000000	 63.099575 
827.000000	 63.188457 
826.000000	 63.343882 
825.000000	 63.551092 
824.000000	 63.788533 
823.000000	 64.031600 
822.000000	 64.257335 
821.000000	 64.447355 
820.000000	 64.590167 
819.000000	 64.680647 
818.000000	 64.718508 
817.000000	 64.705967 
816.000000	 64.646840 
815.000000	 64.544939 
814.000000	 64.405751 
813.000000	 64.235734 
812.000000	 64.046192 
811.000000	 63.850092 
810.000000	 63.662576 
809.000000	 63.497304 
808.000000	 63.364839 
807.000000	 63.270950 
806.000000	 63.215661 
805.000000	 63.194632 
804.000000	 63.199543 
803.000000	 63.221335 
802.000000	 63.251280 
801.000000	 63.283395 
800.000000	 63.313984 
799.000000	 63.342022 
798.000000	 63.367438 
797.000000	 63.390445 
796.000000	 63.410282 
795.000000	 63.425993 
794.000000	 63.436341 
793.000000	 63.440227 
792.000000	 63.437390 
791.000000	 63.429689 
790.000000	 63.420486 
789.000000	 63.413476 
788.000000	 63.411760 
787.000000	 63.417577 
786.000000	 63.431119 
785.000000	 63.450980 
784.000000	 63.473677 
783.000000	 63.494443 
782.000000	 63.508605 
781.000000	 63.513088 
780.000000	 63.507151 
779.000000	 63.492012 
778.000000	 63.471627 
777.000000	 63.452363 
776.000000	 63.440775 
775.000000	 63.441658 
774.000000	 63.456916 
773.000000	 63.485360 
772.000000	 63.521599 
771.000000	 63.557386 
770.000000	 63.582873 
769.000000	 63.588881 
768.000000	 63.569211 
767.000000	 63.522338 
766.000000	 63.451552 
765.000000	 63.364648 
764.000000	 63.272500 
763.000000	 63.186669 
762.000000	 63.116717 
761.000000	 63.068914 
760.000000	 63.045454 
759.000000	 63.044977 
758.000000	 63.062858 
757.000000	 63.093638 
756.000000	 63.131999 
755.000000	 63.175129 
754.000000	 63.221311 
753.000000	 63.271832 
752.000000	 63.328981 
751.000000	 63.395309 
750.000000	 63.471794 
749.000000	 63.556766 
748.000000	 63.645935 
747.000000	 63.732361 
746.000000	 63.807988 
745.000000	 63.865303 
744.000000	 63.899397 
743.000000	 63.908720 
742.000000	 63.895344 
741.000000	 63.864231 
740.000000	 63.821482 
739.000000	 63.772869 
738.000000	 63.722014 
737.000000	 63.669824 
736.000000	 63.614583 
735.000000	 63.553237 
734.000000	 63.482999 
733.000000	 63.402700 
732.000000	 63.314080 
731.000000	 63.222193 
730.000000	 63.134574 
729.000000	 63.059091 
728.000000	 63.002681 
727.000000	 62.969279 
726.000000	 62.959241 
725.000000	 62.969279 
724.000000	 62.992787 
723.000000	 63.021469 
722.000000	 63.046264 
721.000000	 63.058781 
720.000000	 63.052558 
719.000000	 63.023757 
718.000000	 62.972187 
717.000000	 62.901115 
716.000000	 62.816905 
715.000000	 62.727665 
714.000000	 62.642478 
713.000000	 62.569761 
712.000000	 62.515473 
711.000000	 62.482428 
710.000000	 62.470030 
709.000000	 62.474870 
708.000000	 62.491655 
707.000000	 62.514758 
706.000000	 62.538933 
705.000000	 62.560749 
704.000000	 62.578535 
703.000000	 62.592768 
702.000000	 62.604069 
701.000000	 62.613868 
700.000000	 62.623262 
699.000000	 62.633442 
698.000000	 62.645030 
697.000000	 62.658762 
696.000000	 62.676525 
695.000000	 62.699723 
694.000000	 62.729501 
693.000000	 62.764883 
692.000000	 62.802910 
691.000000	 62.837886 
690.000000	 62.862467 
689.000000	 62.868261 
688.000000	 62.848114 
687.000000	 62.798166 
686.000000	 62.719392 
685.000000	 62.617945 
684.000000	 62.504506 
683.000000	 62.392163 
682.000000	 62.294006 
681.000000	 62.220430 
680.000000	 62.177705 
679.000000	 62.166595 
678.000000	 62.183642 
677.000000	 62.221765 
676.000000	 62.273287 
675.000000	 62.331175 
674.000000	 62.391281 
673.000000	 62.451219 
672.000000	 62.511062 
671.000000	 62.571668 
670.000000	 62.633061 
669.000000	 62.693595 
668.000000	 62.748551 
667.000000	 62.791347 
666.000000	 62.813830 
665.000000	 62.808895 
664.000000	 62.771224 
663.000000	 62.699627 
662.000000	 62.597084 
661.000000	 62.470984 
660.000000	 62.331795 
659.000000	 62.191677 
658.000000	 62.062525 
657.000000	 61.954164 
656.000000	 61.873078 
655.000000	 61.821579 
654.000000	 61.798262 
653.000000	 61.798715 
652.000000	 61.815929 
651.000000	 61.842393 
650.000000	 61.870646 
649.000000	 61.895442 
648.000000	 61.913108 
647.000000	 61.922931 
646.000000	 61.925625 
645.000000	 61.923241 
644.000000	 61.918330 
643.000000	 61.912727 
642.000000	 61.906909 
641.000000	 61.899805 
640.000000	 61.889696 
639.000000	 61.873984 
638.000000	 61.850690 
637.000000	 61.818289 
636.000000	 61.776447 
635.000000	 61.726450 
634.000000	 61.671304 
633.000000	 61.615729 
632.000000	 61.565518 
631.000000	 61.526989 
630.000000	 61.505699 
629.000000	 61.505270 
628.000000	 61.526489 
627.000000	 61.567282 
626.000000	 61.622643 
625.000000	 61.685109 
624.000000	 61.746406 
623.000000	 61.798834 
622.000000	 61.836457 
621.000000	 61.856293 
620.000000	 61.857914 
619.000000	 61.843276 
618.000000	 61.815667 
617.000000	 61.778616 
616.000000	 61.735606 
615.000000	 61.689352 
614.000000	 61.642885 
613.000000	 61.599898 
612.000000	 61.564779 
611.000000	 61.542534 
610.000000	 61.537265 
609.000000	 61.551117 
608.000000	 61.582517 
607.000000	 61.626005 
606.000000	 61.672782 
605.000000	 61.712503 
604.000000	 61.735439 
603.000000	 61.734962 
602.000000	 61.709022 
601.000000	 61.660623 
600.000000	 61.596989 
599.000000	 61.527562 
598.000000	 61.461234 
597.000000	 61.404371 
596.000000	 61.359477 
595.000000	 61.325407 
594.000000	 61.299061 
593.000000	 61.276435 
592.000000	 61.254906 
591.000000	 61.233234 
590.000000	 61.211824 
589.000000	 61.192059 
588.000000	 61.174488 
587.000000	 61.158919 
586.000000	 61.143612 
585.000000	 61.126184 
584.000000	 61.104321 
583.000000	 61.076426 
582.000000	 61.042261 
581.000000	 61.002945 
580.000000	 60.960769 
579.000000	 60.918855 
578.000000	 60.880374 
577.000000	 60.847568 
576.000000	 60.821580 
575.000000	 60.802149 
574.000000	 60.787963 
573.000000	 60.777449 
572.000000	 60.769224 
571.000000	 60.761880 
570.000000	 60.754823 
569.000000	 60.747718 
568.000000	 60.740947 
567.000000	 60.735011 
566.000000	 60.730838 
565.000000	 60.729312 
564.000000	 60.731101 
563.000000	 60.736179 
562.000000	 60.744094 
561.000000	 60.753870 
560.000000	 60.764503 
559.000000	 60.775279 
558.000000	 60.785293 
557.000000	 60.793876 
556.000000	 60.798668 
555.000000	 60.796332 
554.000000	 60.782361 
553.000000	 60.752606 
552.000000	 60.705375 
551.000000	 60.642957 
550.000000	 60.572314 
549.000000	 60.504341 
548.000000	 60.452890 
547.000000	 60.431218 
546.000000	 60.448145 
545.000000	 60.505342 
544.000000	 60.596561 
543.000000	 60.707926 
542.000000	 60.820841 
541.000000	 60.915684 
540.000000	 60.976719 
539.000000	 60.994601 
538.000000	 60.968232 
537.000000	 60.904240 
536.000000	 60.814690 
535.000000	 60.714149 
534.000000	 60.616111 
533.000000	 60.530900 
532.000000	 60.464382 
531.000000	 60.418248 
530.000000	 60.391974 
529.000000	 60.383009 
528.000000	 60.388493 
527.000000	 60.404133 
526.000000	 60.424351 
525.000000	 60.440754 
524.000000	 60.442852 
523.000000	 60.418677 
522.000000	 60.357618 
521.000000	 60.252952 
520.000000	 60.104656 
519.000000	 59.921789 
518.000000	 59.720897 
517.000000	 59.522294 
516.000000	 59.345936 
515.000000	 59.207034 
514.000000	 59.113264 
513.000000	 59.062433 
512.000000	 59.045624 
511.000000	 59.048867 
510.000000	 59.059500 
509.000000	 59.069514 
508.000000	 59.077978 
507.000000	 59.089016 
506.000000	 59.110522 
505.000000	 59.149742 
504.000000	 59.209489 
503.000000	 59.284901 
502.000000	 59.364128 
501.000000	 59.430551 
500.000000	 59.467816 
499.000000	 59.464955 
498.000000	 59.420275 
497.000000	 59.342980 
496.000000	 59.252047 
495.000000	 59.172439 
494.000000	 59.128236 
493.000000	 59.137940 
492.000000	 59.210729 
491.000000	 59.344387 
490.000000	 59.526348 
489.000000	 59.735870 
488.000000	 59.950304 
487.000000	 60.146856 
486.000000	 60.307502 
485.000000	 60.419011 
484.000000	 60.474181 
483.000000	 60.470438 
482.000000	 60.409665 
481.000000	 60.296893 
480.000000	 60.139775 
479.000000	 59.948921 
478.000000	 59.739303 
477.000000	 59.526824 
476.000000	 59.328222 
475.000000	 59.156870 
474.000000	 59.021949 
473.000000	 58.926796 
472.000000	 58.869910 
471.000000	 58.848023 
470.000000	 58.858680 
469.000000	 58.902072 
468.000000	 58.981013 
467.000000	 59.099507 
466.000000	 59.259080 
465.000000	 59.454917 
464.000000	 59.673523 
463.000000	 59.893679 
462.000000	 60.087561 
461.000000	 60.227084 
460.000000	 60.286784 
459.000000	 60.253047 
458.000000	 60.121941 
457.000000	 59.903264 
456.000000	 59.613847 
455.000000	 59.275603 
454.000000	 58.910799 
453.000000	 58.539724 
452.000000	 58.180665 
451.000000	 57.849788 
450.000000	 57.563686 
449.000000	 57.340145 
448.000000	 57.194733 
447.000000	 57.137703 
446.000000	 57.171559 
445.000000	 57.289195 
444.000000	 57.471942 
443.000000	 57.691764 
442.000000	 57.920074 
441.000000	 58.131027 
440.000000	 58.302521 
439.000000	 58.418297 
438.000000	 58.470034 
437.000000	 58.455324 
436.000000	 58.375573 
435.000000	 58.235049 
434.000000	 58.042573 
433.000000	 57.810902 
432.000000	 57.549476 
431.000000	 57.275199 
430.000000	 57.017850 
429.000000	 56.812644 
428.000000	 56.696319 
427.000000	 56.696176 
426.000000	 56.814002 
425.000000	 57.038235 
424.000000	 57.353544 
423.000000	 57.726812 
422.000000	 58.104658 
421.000000	 58.444213 
420.000000	 58.723926 
419.000000	 58.943986 
418.000000	 59.123396 
417.000000	 59.319686 
416.000000	 59.607505 
415.000000	 60.052514 
414.000000	 60.685038 
413.000000	 61.467528 
412.000000	 62.307977 
411.000000	 63.072705 
410.000000	 63.644933 
409.000000	 63.948345 
408.000000	 64.004206 
407.000000	 63.941502 
406.000000	 63.964486 
405.000000	 64.338421 
404.000000	 65.243458 
403.000000	 66.765856 
402.000000	 68.747806 
401.000000	 70.820951 
400.000000	 72.429823 
399.000000	 72.975492 
398.000000	 71.959018 
397.000000	 69.148659 
396.000000	 64.630603 
395.000000	 58.841180 
394.000000	 52.395486 
393.000000	 45.953512 
392.000000	 40.071606 
391.000000	 35.110759 
390.000000	 31.235218 
389.000000	 28.453588 
388.000000	 26.737785 
387.000000	 26.078534 
386.000000	 26.509118 
385.000000	 28.082990 
384.000000	 30.739140 
383.000000	 34.298634 
382.000000	 38.406109 
381.000000	 42.596769 
380.000000	 46.326708 
379.000000	 49.116706 
378.000000	 50.629901 
377.000000	 50.765275 
376.000000	 49.714875 
375.000000	 47.865343 
374.000000	 45.684742 
373.000000	 43.621635 
372.000000	 42.034053 
371.000000	 41.090893 
370.000000	 40.734815 

