PE IR       SPECTRUM    SPECTRUM    ASCII       PEDS        1.60        
  -1
C-1AE1~1.ASC
17/03/27
15:31:33.00
17/03/27
15:31:33.00
tln
$C-4040-8_t0013$<tbV0>[10.4,-10.4,8.0,0.0,27,1,0]
370.000000
64









2002,4.07    
MIRTGS : RIGHTBACK : INTERNAL 2
MIR : ON : INTERNAL 2
OPTKBR

0.200000
8
8.000000
FILLER
RATIO
SPECTRUM
UNLOCKED 256

DOUBLE
64
COMBINED
1
0
0


1.000000
RATIO


1
0
TRUE
51149
0
LEFT NOT FITTED RIGHT NOT FITTED 0
NONE
NONE
15600
12.000000
4.427000
51148
TRUE
1 0 8 72 0 0 0 0 

15798.010000






#HDR
-1
-1
#GR
CM-1
%T
0.00002384185791015625
0.0
5000.000000
-1.000000
4631
8
77.671432
31.797957
#DATA
5000.000000	63.820266 
4999.000000	63.819122 
4998.000000	63.838553 
4997.000000	63.883924 
4996.000000	63.957118 
4995.000000	64.056038 
4994.000000	64.173507 
4993.000000	64.297604 
4992.000000	64.414477 
4991.000000	64.511680 
4990.000000	64.579558 
4989.000000	64.613366 
4988.000000	64.612817 
4987.000000	64.582061 
4986.000000	64.527320 
4985.000000	64.455580 
4984.000000	64.372301 
4983.000000	64.280748 
4982.000000	64.181900 
4981.000000	64.075708 
4980.000000	63.961386 
4979.000000	63.840198 
4978.000000	63.715624 
4977.000000	63.595509 
4976.000000	63.492298 
4975.000000	63.421034 
4974.000000	63.395929 
4973.000000	63.425803 
4972.000000	63.511753 
4971.000000	63.643026 
4970.000000	63.798332 
4969.000000	63.947820 
4968.000000	64.057993 
4967.000000	64.099812 
4966.000000	64.054870 
4965.000000	63.921189 
4964.000000	63.713502 
4963.000000	63.461899 
4962.000000	63.205099 
4961.000000	62.981939 
4960.000000	62.823200 
4959.000000	62.744855 
4958.000000	62.745857 
4957.000000	62.811136 
4956.000000	62.917017 
4955.000000	63.037705 
4954.000000	63.151097 
4953.000000	63.240790 
4952.000000	63.297891 
4951.000000	63.318657 
4950.000000	63.303852 
4949.000000	63.254642 
4948.000000	63.173770 
4947.000000	63.065457 
4946.000000	62.937307 
4945.000000	62.799835 
4944.000000	62.668371 
4943.000000	62.561726 
4942.000000	62.499952 
4941.000000	62.500143 
4940.000000	62.572979 
4939.000000	62.719511 
4938.000000	62.929129 
4937.000000	63.180756 
4936.000000	63.444805 
4935.000000	63.688755 
4934.000000	63.881087 
4933.000000	63.996958 
4932.000000	64.022874 
4931.000000	63.958978 
4930.000000	63.818836 
4929.000000	63.626313 
4928.000000	63.412880 
4927.000000	63.211321 
4926.000000	63.050198 
4925.000000	62.949085 
4924.000000	62.916040 
4923.000000	62.947750 
4922.000000	63.031935 
4921.000000	63.151597 
4920.000000	63.288187 
4919.000000	63.427162 
4918.000000	63.558483 
4917.000000	63.678812 
4916.000000	63.788104 
4915.000000	63.888931 
4914.000000	63.982129 
4913.000000	64.067101 
4912.000000	64.140391 
4911.000000	64.198493 
4910.000000	64.239883 
4909.000000	64.266324 
4908.000000	64.284896 
4907.000000	64.304375 
4906.000000	64.334130 
4905.000000	64.379048 
4904.000000	64.437937 
4903.000000	64.503288 
4902.000000	64.563441 
4901.000000	64.604902 
4900.000000	64.616823 
4899.000000	64.594626 
4898.000000	64.542102 
4897.000000	64.470887 
4896.000000	64.398097 
4895.000000	64.341616 
4894.000000	64.315724 
4893.000000	64.328026 
4892.000000	64.377069 
4891.000000	64.453530 
4890.000000	64.541649 
4889.000000	64.623427 
4888.000000	64.682698 
4887.000000	64.708900 
4886.000000	64.699268 
4885.000000	64.657354 
4884.000000	64.593625 
4883.000000	64.522337 
4882.000000	64.458250 
4881.000000	64.413261 
4880.000000	64.393663 
4879.000000	64.399528 
4878.000000	64.423990 
4877.000000	64.455914 
4876.000000	64.482021 
4875.000000	64.490413 
4874.000000	64.473366 
4873.000000	64.429187 
4872.000000	64.362454 
4871.000000	64.282870 
4870.000000	64.202666 
4869.000000	64.133572 
4868.000000	64.084029 
4867.000000	64.057087 
4866.000000	64.050459 
4865.000000	64.057230 
4864.000000	64.068293 
4863.000000	64.074945 
4862.000000	64.071345 
4861.000000	64.055824 
4860.000000	64.030480 
4859.000000	64.000558 
4858.000000	63.971447 
4857.000000	63.948154 
4856.000000	63.933587 
4855.000000	63.928341 
4854.000000	63.930678 
4853.000000	63.938188 
4852.000000	63.948941 
4851.000000	63.962364 
4850.000000	63.979792 
4849.000000	64.003372 
4848.000000	64.035391 
4847.000000	64.076995 
4846.000000	64.127445 
4845.000000	64.184379 
4844.000000	64.243841 
4843.000000	64.301633 
4842.000000	64.353632 
4841.000000	64.396786 
4840.000000	64.429044 
4839.000000	64.450120 
4838.000000	64.460444 
4837.000000	64.461112 
4836.000000	64.453053 
4835.000000	64.437770 
4834.000000	64.416170 
4833.000000	64.389204 
4832.000000	64.357233 
4831.000000	64.320969 
4830.000000	64.281010 
4829.000000	64.238500 
4828.000000	64.194869 
4827.000000	64.151763 
4826.000000	64.111304 
4825.000000	64.075589 
4824.000000	64.046621 
4823.000000	64.025950 
4822.000000	64.013981 
4821.000000	64.009952 
4820.000000	64.012074 
4819.000000	64.017820 
4818.000000	64.024853 
4817.000000	64.031386 
4816.000000	64.036655 
4815.000000	64.040684 
4814.000000	64.044070 
4813.000000	64.047336 
4812.000000	64.050269 
4811.000000	64.052057 
4810.000000	64.051747 
4809.000000	64.048433 
4808.000000	64.042067 
4807.000000	64.032864 
4806.000000	64.021873 
4805.000000	64.009547 
4804.000000	63.996100 
4803.000000	63.980698 
4802.000000	63.961386 
4801.000000	63.936161 
4800.000000	63.903498 
4799.000000	63.864088 
4798.000000	63.820910 
4797.000000	63.779902 
4796.000000	63.748669 
4795.000000	63.735008 
4794.000000	63.744521 
4793.000000	63.778877 
4792.000000	63.834905 
4791.000000	63.904953 
4790.000000	63.978457 
4789.000000	64.044332 
4788.000000	64.093518 
4787.000000	64.120507 
4786.000000	64.124751 
4785.000000	64.110517 
4784.000000	64.085483 
4783.000000	64.058661 
4782.000000	64.037895 
4781.000000	64.028692 
4780.000000	64.032483 
4779.000000	64.047074 
4778.000000	64.067149 
4777.000000	64.086794 
4776.000000	64.100646 
4775.000000	64.105677 
4774.000000	64.101624 
4773.000000	64.090776 
4772.000000	64.077019 
4771.000000	64.064407 
4770.000000	64.055275 
4769.000000	64.049625 
4768.000000	64.044857 
4767.000000	64.037013 
4766.000000	64.021682 
4765.000000	63.996338 
4764.000000	63.962030 
4763.000000	63.923883 
4762.000000	63.890409 
4761.000000	63.871598 
4760.000000	63.876199 
4759.000000	63.909411 
4758.000000	63.970708 
4757.000000	64.053916 
4756.000000	64.148736 
4755.000000	64.242792 
4754.000000	64.324641 
4753.000000	64.386010 
4752.000000	64.423608 
4751.000000	64.438891 
4750.000000	64.437246 
4749.000000	64.425396 
4748.000000	64.409470 
4747.000000	64.392662 
4746.000000	64.375543 
4745.000000	64.355325 
4744.000000	64.327907 
4743.000000	64.289093 
4742.000000	64.236712 
4741.000000	64.170575 
4740.000000	64.093136 
4739.000000	64.008903 
4738.000000	63.924145 
4737.000000	63.845634 
4736.000000	63.780021 
4735.000000	63.733053 
4734.000000	63.708877 
4733.000000	63.709402 
4732.000000	63.733911 
4731.000000	63.778400 
4730.000000	63.836598 
4729.000000	63.900017 
4728.000000	63.960146 
4727.000000	64.008665 
4726.000000	64.040017 
4725.000000	64.051866 
4724.000000	64.045667 
4723.000000	64.025926 
4722.000000	63.999152 
4721.000000	63.972306 
4720.000000	63.951396 
4719.000000	63.940310 
4718.000000	63.940644 
4717.000000	63.951945 
4716.000000	63.972711 
4715.000000	64.001321 
4714.000000	64.036226 
4713.000000	64.076328 
4712.000000	64.120674 
4711.000000	64.168024 
4710.000000	64.216613 
4709.000000	64.263820 
4708.000000	64.306735 
4707.000000	64.341974 
4706.000000	64.366412 
4705.000000	64.377069 
4704.000000	64.372587 
4703.000000	64.352822 
4702.000000	64.319014 
4701.000000	64.273977 
4700.000000	64.221453 
4699.000000	64.166355 
4698.000000	64.114069 
4697.000000	64.070034 
4696.000000	64.039063 
4695.000000	64.024615 
4694.000000	64.028549 
4693.000000	64.050245 
4692.000000	64.086771 
4691.000000	64.132714 
4690.000000	64.181017 
4689.000000	64.224195 
4688.000000	64.255738 
4687.000000	64.270758 
4686.000000	64.266943 
4685.000000	64.244914 
4684.000000	64.207935 
4683.000000	64.161491 
4682.000000	64.111852 
4681.000000	64.064812 
4680.000000	64.024567 
4679.000000	63.993406 
4678.000000	63.971614 
4677.000000	63.957810 
4676.000000	63.949704 
4675.000000	63.945484 
4674.000000	63.944363 
4673.000000	63.946270 
4672.000000	63.952040 
4671.000000	63.962388 
4670.000000	63.977766 
4669.000000	63.997244 
4668.000000	64.019274 
4667.000000	64.041543 
4666.000000	64.062666 
4665.000000	64.082479 
4664.000000	64.102888 
4663.000000	64.127373 
4662.000000	64.160108 
4661.000000	64.204621 
4660.000000	64.261817 
4659.000000	64.329051 
4658.000000	64.399743 
4657.000000	64.464306 
4656.000000	64.512515 
4655.000000	64.535570 
4654.000000	64.528632 
4653.000000	64.491891 
4652.000000	64.430570 
4651.000000	64.353489 
4650.000000	64.271640 
4649.000000	64.195489 
4648.000000	64.133119 
4647.000000	64.088797 
4646.000000	64.063310 
4645.000000	64.053916 
4644.000000	64.056134 
4643.000000	64.064836 
4642.000000	64.075422 
4641.000000	64.084959 
4640.000000	64.091706 
4639.000000	64.095664 
4638.000000	64.097285 
4637.000000	64.097785 
4636.000000	64.098286 
4635.000000	64.099526 
4634.000000	64.101529 
4633.000000	64.103841 
4632.000000	64.105749 
4631.000000	64.106154 
4630.000000	64.104056 
4629.000000	64.099192 
4628.000000	64.092254 
4627.000000	64.085054 
4626.000000	64.079713 
4625.000000	64.078235 
4624.000000	64.081311 
4623.000000	64.088082 
4622.000000	64.096021 
4621.000000	64.101409 
4620.000000	64.100551 
4619.000000	64.090728 
4618.000000	64.071869 
4617.000000	64.046382 
4616.000000	64.019417 
4615.000000	63.997769 
4614.000000	63.987922 
4613.000000	63.994407 
4612.000000	64.017701 
4611.000000	64.054203 
4610.000000	64.095807 
4609.000000	64.131879 
4608.000000	64.151453 
4607.000000	64.146041 
4606.000000	64.111709 
4605.000000	64.050316 
4604.000000	63.969397 
4603.000000	63.880705 
4602.000000	63.798165 
4601.000000	63.734912 
4600.000000	63.700675 
4599.000000	63.699603 
4598.000000	63.729953 
4597.000000	63.784217 
4596.000000	63.851547 
4595.000000	63.919615 
4594.000000	63.977336 
4593.000000	64.016723 
4592.000000	64.033770 
4591.000000	64.028739 
4590.000000	64.004421 
4589.000000	63.966131 
4588.000000	63.919401 
4587.000000	63.870406 
4586.000000	63.824987 
4585.000000	63.788509 
4584.000000	63.766050 
4583.000000	63.761544 
4582.000000	63.777446 
4581.000000	63.813233 
4580.000000	63.865232 
4579.000000	63.926219 
4578.000000	63.986539 
4577.000000	64.035439 
4576.000000	64.063239 
4575.000000	64.064049 
4574.000000	64.037322 
4573.000000	63.987922 
4572.000000	63.925528 
4571.000000	63.862323 
4570.000000	63.810467 
4569.000000	63.779377 
4568.000000	63.773965 
4567.000000	63.794279 
4566.000000	63.835644 
4565.000000	63.890886 
4564.000000	63.951611 
4563.000000	64.010620 
4562.000000	64.061808 
4561.000000	64.101099 
4560.000000	64.125370 
4559.000000	64.132189 
4558.000000	64.119386 
4557.000000	64.085316 
4556.000000	64.029765 
4555.000000	63.954949 
4554.000000	63.866114 
4553.000000	63.771605 
4552.000000	63.681125 
4551.000000	63.604187 
4550.000000	63.547563 
4549.000000	63.513875 
4548.000000	63.500761 
4547.000000	63.501858 
4546.000000	63.508009 
4545.000000	63.510370 
4544.000000	63.502645 
4543.000000	63.482975 
4542.000000	63.453841 
4541.000000	63.421511 
4540.000000	63.393497 
4539.000000	63.376998 
4538.000000	63.376283 
4537.000000	63.392281 
4536.000000	63.422369 
4535.000000	63.461279 
4534.000000	63.503146 
4533.000000	63.542246 
4532.000000	63.574266 
4531.000000	63.596677 
4530.000000	63.608002 
4529.000000	63.608813 
4528.000000	63.600897 
4527.000000	63.587117 
4526.000000	63.570570 
4525.000000	63.554525 
4524.000000	63.541841 
4523.000000	63.534474 
4522.000000	63.533234 
4521.000000	63.537907 
4520.000000	63.547182 
4519.000000	63.559317 
4518.000000	63.572096 
4517.000000	63.582444 
4516.000000	63.587641 
4515.000000	63.584876 
4514.000000	63.573312 
4513.000000	63.554501 
4512.000000	63.532543 
4511.000000	63.513875 
4510.000000	63.504910 
4509.000000	63.509798 
4508.000000	63.529157 
4507.000000	63.559985 
4506.000000	63.595604 
4505.000000	63.628196 
4504.000000	63.649272 
4503.000000	63.652801 
4502.000000	63.634467 
4501.000000	63.592576 
4500.000000	63.527774 
4499.000000	63.442802 
4498.000000	63.342118 
4497.000000	63.231706 
4496.000000	63.119196 
4495.000000	63.013195 
4494.000000	62.922406 
4493.000000	62.854027 
4492.000000	62.812423 
4491.000000	62.798070 
4490.000000	62.804698 
4489.000000	62.823152 
4488.000000	62.841463 
4487.000000	62.851881 
4486.000000	62.852716 
4485.000000	62.850403 
4484.000000	62.860274 
4483.000000	62.898516 
4482.000000	62.973737 
4481.000000	63.085365 
4480.000000	63.221311 
4479.000000	63.361811 
4478.000000	63.482880 
4477.000000	63.566160 
4476.000000	63.605499 
4475.000000	63.607096 
4474.000000	63.588094 
4473.000000	63.569712 
4472.000000	63.570046 
4471.000000	63.600373 
4470.000000	63.662433 
4469.000000	63.747334 
4468.000000	63.839030 
4467.000000	63.924455 
4466.000000	63.997125 
4465.000000	64.056444 
4464.000000	64.108514 
4463.000000	64.160847 
4462.000000	64.223384 
4461.000000	64.298629 
4460.000000	64.390897 
4459.000000	64.504933 
4458.000000	64.653182 
4457.000000	64.853906 
4456.000000	65.129518 
4455.000000	65.501213 
4454.000000	65.979099 
4453.000000	66.555356 
4452.000000	67.199897 
4451.000000	67.864084 
4450.000000	68.485450 
4449.000000	69.002532 
4448.000000	69.361400 
4447.000000	69.529795 
4446.000000	69.494605 
4445.000000	69.265794 
4444.000000	68.861961 
4443.000000	68.306922 
4442.000000	67.621493 
4441.000000	66.824603 
4440.000000	65.938782 
4439.000000	64.995241 
4438.000000	64.040803 
4437.000000	63.135004 
4436.000000	62.343263 
4435.000000	61.726093 
4434.000000	61.320304 
4433.000000	61.136484 
4432.000000	61.152625 
4431.000000	61.323785 
4430.000000	61.584186 
4429.000000	61.868572 
4428.000000	62.119007 
4427.000000	62.300300 
4426.000000	62.394762 
4425.000000	62.410068 
4424.000000	62.367033 
4423.000000	62.295627 
4422.000000	62.225151 
4421.000000	62.173247 
4420.000000	62.139201 
4419.000000	62.113451 
4418.000000	62.086153 
4417.000000	62.043213 
4416.000000	61.972618 
4415.000000	61.871314 
4414.000000	61.746716 
4413.000000	61.613130 
4412.000000	61.487698 
4411.000000	61.386251 
4410.000000	61.317896 
4409.000000	61.278939 
4408.000000	61.255812 
4407.000000	61.230087 
4406.000000	61.184072 
4405.000000	61.109852 
4404.000000	61.007952 
4403.000000	60.887908 
4402.000000	60.763812 
4401.000000	60.639834 
4400.000000	60.525774 
4399.000000	60.414004 
4398.000000	60.325598 
4397.000000	60.299277 
4396.000000	60.418224 
4395.000000	60.784888 
4394.000000	61.518335 
4393.000000	62.718653 
4392.000000	64.429593 
4391.000000	66.610407 
4390.000000	69.117259 
4389.000000	71.716904 
4388.000000	74.121809 
4387.000000	76.045322 
4386.000000	77.266216 
4385.000000	77.671432 
4384.000000	77.289462 
4383.000000	76.268553 
4382.000000	74.841809 
4381.000000	73.260569 
4380.000000	71.749663 
4379.000000	70.452404 
4378.000000	69.433188 
4377.000000	68.666458 
4376.000000	68.091821 
4375.000000	67.623567 
4374.000000	67.196536 
4373.000000	66.774392 
4372.000000	66.348361 
4371.000000	65.940856 
4370.000000	65.576028 
4369.000000	65.281271 
4368.000000	65.058588 
4367.000000	64.902687 
4366.000000	64.797902 
4365.000000	64.728903 
4364.000000	64.684796 
4363.000000	64.660978 
4362.000000	64.659023 
4361.000000	64.673519 
4360.000000	64.690184 
4359.000000	64.693474 
4358.000000	64.668488 
4357.000000	64.602708 
4356.000000	64.489245 
4355.000000	64.334988 
4354.000000	64.155006 
4353.000000	63.964104 
4352.000000	63.775563 
4351.000000	63.595771 
4350.000000	63.426828 
4349.000000	63.272929 
4348.000000	63.137507 
4347.000000	63.019490 
4346.000000	62.919878 
4345.000000	62.843918 
4344.000000	62.797975 
4343.000000	62.784910 
4342.000000	62.804961 
4341.000000	62.853527 
4340.000000	62.921476 
4339.000000	62.994694 
4338.000000	63.059711 
4337.000000	63.106346 
4336.000000	63.128805 
4335.000000	63.126420 
4334.000000	63.103818 
4333.000000	63.069534 
4332.000000	63.033580 
4331.000000	63.005089 
4330.000000	62.991285 
4329.000000	62.995839 
4328.000000	63.018417 
4327.000000	63.055086 
4326.000000	63.100099 
4325.000000	63.147091 
4324.000000	63.190364 
4323.000000	63.225936 
4322.000000	63.252401 
4321.000000	63.270282 
4320.000000	63.280129 
4319.000000	63.282775 
4318.000000	63.278841 
4317.000000	63.268780 
4316.000000	63.252949 
4315.000000	63.232374 
4314.000000	63.209724 
4313.000000	63.188266 
4312.000000	63.171505 
4311.000000	63.162565 
4310.000000	63.163566 
4309.000000	63.175058 
4308.000000	63.196206 
4307.000000	63.224649 
4306.000000	63.257002 
4305.000000	63.289046 
4304.000000	63.316583 
4303.000000	63.335800 
4302.000000	63.344168 
4301.000000	63.341379 
4300.000000	63.328981 
4299.000000	63.310766 
4298.000000	63.290858 
4297.000000	63.273119 
4296.000000	63.259458 
4295.000000	63.249278 
4294.000000	63.239789 
4293.000000	63.227128 
4292.000000	63.207626 
4291.000000	63.179254 
4290.000000	63.142776 
4289.000000	63.101983 
4288.000000	63.062882 
4287.000000	63.032221 
4286.000000	63.015747 
4285.000000	63.016557 
4284.000000	63.034558 
4283.000000	63.066363 
4282.000000	63.106799 
4281.000000	63.150167 
4280.000000	63.191843 
4279.000000	63.229227 
4278.000000	63.261699 
4277.000000	63.290262 
4276.000000	63.315916 
4275.000000	63.339018 
4274.000000	63.358664 
4273.000000	63.372778 
4272.000000	63.379168 
4271.000000	63.375854 
4270.000000	63.362526 
4269.000000	63.340282 
4268.000000	63.312625 
4267.000000	63.283729 
4266.000000	63.257741 
4265.000000	63.237714 
4264.000000	63.225221 
4263.000000	63.220143 
4262.000000	63.221144 
4261.000000	63.226389 
4260.000000	63.234353 
4259.000000	63.244009 
4258.000000	63.255190 
4257.000000	63.267755 
4256.000000	63.281226 
4255.000000	63.293957 
4254.000000	63.303256 
4253.000000	63.305711 
4252.000000	63.298201 
4251.000000	63.278794 
4250.000000	63.248038 
4249.000000	63.208889 
4248.000000	63.166975 
4247.000000	63.129639 
4246.000000	63.104820 
4245.000000	63.099026 
4244.000000	63.116288 
4243.000000	63.157153 
4242.000000	63.218498 
4241.000000	63.294386 
4240.000000	63.376712 
4239.000000	63.457107 
4238.000000	63.527441 
4237.000000	63.581418 
4236.000000	63.614821 
4235.000000	63.625574 
4234.000000	63.614058 
4233.000000	63.582420 
4232.000000	63.534760 
4231.000000	63.476681 
4230.000000	63.414835 
4229.000000	63.356351 
4228.000000	63.307929 
4227.000000	63.274955 
4226.000000	63.260507 
4225.000000	63.264966 
4224.000000	63.285827 
4223.000000	63.318467 
4222.000000	63.356685 
4221.000000	63.394474 
4220.000000	63.426947 
4219.000000	63.451623 
4218.000000	63.468337 
4217.000000	63.478875 
4216.000000	63.485860 
4215.000000	63.491630 
4214.000000	63.497328 
4213.000000	63.502311 
4212.000000	63.505005 
4211.000000	63.502478 
4210.000000	63.491797 
4209.000000	63.470435 
4208.000000	63.437652 
4207.000000	63.394188 
4206.000000	63.342332 
4205.000000	63.285779 
4204.000000	63.229274 
4203.000000	63.178181 
4202.000000	63.137388 
4201.000000	63.110423 
4200.000000	63.098454 
4199.000000	63.100433 
4198.000000	63.113331 
4197.000000	63.132071 
4196.000000	63.151144 
4195.000000	63.165664 
4194.000000	63.172984 
4193.000000	63.173270 
4192.000000	63.169074 
4191.000000	63.164925 
4190.000000	63.164806 
4189.000000	63.170647 
4188.000000	63.180470 
4187.000000	63.188695 
4186.000000	63.186740 
4185.000000	63.165736 
4184.000000	63.119077 
4183.000000	63.044738 
4182.000000	62.947201 
4181.000000	62.836623 
4180.000000	62.727928 
4179.000000	62.637019 
4178.000000	62.578606 
4177.000000	62.562537 
4176.000000	62.592506 
4175.000000	62.665009 
4174.000000	62.770771 
4173.000000	62.896752 
4172.000000	63.028335 
4171.000000	63.152194 
4170.000000	63.257956 
4169.000000	63.339805 
4168.000000	63.396143 
4167.000000	63.429474 
4166.000000	63.445115 
4165.000000	63.449621 
4164.000000	63.450479 
4163.000000	63.453221 
4162.000000	63.461661 
4161.000000	63.476037 
4160.000000	63.494801 
4159.000000	63.513994 
4158.000000	63.528728 
4157.000000	63.534235 
4156.000000	63.527846 
4155.000000	63.509202 
4154.000000	63.480544 
4153.000000	63.446044 
4152.000000	63.411045 
4151.000000	63.380002 
4150.000000	63.355517 
4149.000000	63.337445 
4148.000000	63.323235 
4147.000000	63.308358 
4146.000000	63.287925 
4145.000000	63.258409 
4144.000000	63.219404 
4143.000000	63.174080 
4142.000000	63.129377 
4141.000000	63.093519 
4140.000000	63.074779 
4139.000000	63.079690 
4138.000000	63.111758 
4137.000000	63.169312 
4136.000000	63.247108 
4135.000000	63.337349 
4134.000000	63.431620 
4133.000000	63.522315 
4132.000000	63.604068 
4131.000000	63.674473 
4130.000000	63.733339 
4129.000000	63.781738 
4128.000000	63.820767 
4127.000000	63.850784 
4126.000000	63.871169 
4125.000000	63.880705 
4124.000000	63.878369 
4123.000000	63.864636 
4122.000000	63.841962 
4121.000000	63.815546 
4120.000000	63.791322 
4119.000000	63.774824 
4118.000000	63.769769 
4117.000000	63.777017 
4116.000000	63.793921 
4115.000000	63.814783 
4114.000000	63.832712 
4113.000000	63.841056 
4112.000000	63.835167 
4111.000000	63.813281 
4110.000000	63.777160 
4109.000000	63.731145 
4108.000000	63.680982 
4107.000000	63.631916 
4106.000000	63.587617 
4105.000000	63.549518 
4104.000000	63.517093 
4103.000000	63.488459 
4102.000000	63.461089 
4101.000000	63.433623 
4100.000000	63.406515 
4099.000000	63.382601 
4098.000000	63.365650 
4097.000000	63.360643 
4096.000000	63.371920 
4095.000000	63.402295 
4094.000000	63.451743 
4093.000000	63.517379 
4092.000000	63.593769 
4091.000000	63.673734 
4090.000000	63.749718 
4089.000000	63.815355 
4088.000000	63.866615 
4087.000000	63.902711 
4086.000000	63.925623 
4085.000000	63.939452 
4084.000000	63.948750 
4083.000000	63.957738 
4082.000000	63.968706 
4081.000000	63.981842 
4080.000000	63.994574 
4079.000000	64.003467 
4078.000000	64.004349 
4077.000000	63.994431 
4076.000000	63.972735 
4075.000000	63.941097 
4074.000000	63.903522 
4073.000000	63.865423 
4072.000000	63.832259 
4071.000000	63.808345 
4070.000000	63.795733 
4069.000000	63.793897 
4068.000000	63.799834 
4067.000000	63.809132 
4066.000000	63.816833 
4065.000000	63.818979 
4064.000000	63.813567 
4063.000000	63.801050 
4062.000000	63.784527 
4061.000000	63.768982 
4060.000000	63.759851 
4059.000000	63.761377 
4058.000000	63.775920 
4057.000000	63.802552 
4056.000000	63.837170 
4055.000000	63.873028 
4054.000000	63.902187 
4053.000000	63.917088 
4052.000000	63.912343 
4051.000000	63.886141 
4050.000000	63.840246 
4049.000000	63.780117 
4048.000000	63.713550 
4047.000000	63.649201 
4046.000000	63.594985 
4045.000000	63.556718 
4044.000000	63.537168 
4043.000000	63.536167 
4042.000000	63.551187 
4041.000000	63.578295 
4040.000000	63.613224 
4039.000000	63.652300 
4038.000000	63.692808 
4037.000000	63.732862 
4036.000000	63.771414 
4035.000000	63.807630 
4034.000000	63.840746 
4033.000000	63.869810 
4032.000000	63.893890 
4031.000000	63.912534 
4030.000000	63.925909 
4029.000000	63.935256 
4028.000000	63.942337 
4027.000000	63.949513 
4026.000000	63.958621 
4025.000000	63.970685 
4024.000000	63.985300 
4023.000000	64.000892 
4022.000000	64.014768 
4021.000000	64.023900 
4020.000000	64.025950 
4019.000000	64.019989 
4018.000000	64.006805 
4017.000000	63.988971 
4016.000000	63.969969 
4015.000000	63.953280 
4014.000000	63.941788 
4013.000000	63.937020 
4012.000000	63.938999 
4011.000000	63.946461 
4010.000000	63.957333 
4009.000000	63.969159 
4008.000000	63.979983 
4007.000000	63.988518 
4006.000000	63.993692 
4005.000000	63.994741 
4004.000000	63.991284 
4003.000000	63.983201 
4002.000000	63.970255 
4001.000000	63.952398 
4000.000000	63.930583 
3999.000000	63.906097 
3998.000000	63.881039 
3997.000000	63.857603 
3996.000000	63.837528 
3995.000000	63.821816 
3994.000000	63.810491 
3993.000000	63.802790 
3992.000000	63.797402 
3991.000000	63.792991 
3990.000000	63.788700 
3989.000000	63.784122 
3988.000000	63.779163 
3987.000000	63.773822 
3986.000000	63.767933 
3985.000000	63.760495 
3984.000000	63.749670 
3983.000000	63.733386 
3982.000000	63.709640 
3981.000000	63.676810 
3980.000000	63.634204 
3979.000000	63.582277 
3978.000000	63.522815 
3977.000000	63.458395 
3976.000000	63.392519 
3975.000000	63.328576 
3974.000000	63.270592 
3973.000000	63.222599 
3972.000000	63.188600 
3971.000000	63.171982 
3970.000000	63.174891 
3969.000000	63.197541 
3968.000000	63.237857 
3967.000000	63.290882 
3966.000000	63.350009 
3965.000000	63.407492 
3964.000000	63.456702 
3963.000000	63.492822 
3962.000000	63.514542 
3961.000000	63.523983 
3960.000000	63.526248 
3959.000000	63.527750 
3958.000000	63.534617 
3957.000000	63.550758 
3956.000000	63.577151 
3955.000000	63.611507 
3954.000000	63.649177 
3953.000000	63.684272 
3952.000000	63.712024 
3951.000000	63.729453 
3950.000000	63.736104 
3949.000000	63.733458 
3948.000000	63.724398 
3947.000000	63.711667 
3946.000000	63.696718 
3945.000000	63.679218 
3944.000000	63.657879 
3943.000000	63.630700 
3942.000000	63.596606 
3941.000000	63.555788 
3940.000000	63.510894 
3939.000000	63.466048 
3938.000000	63.425970 
3937.000000	63.394808 
3936.000000	63.374853 
3935.000000	63.366127 
3934.000000	63.366389 
3933.000000	63.372254 
3932.000000	63.379955 
3931.000000	63.386869 
3930.000000	63.392210 
3929.000000	63.396906 
3928.000000	63.403034 
3927.000000	63.412952 
3926.000000	63.428497 
3925.000000	63.449978 
3924.000000	63.475894 
3923.000000	63.503766 
3922.000000	63.530421 
3921.000000	63.553118 
3920.000000	63.569712 
3919.000000	63.579249 
3918.000000	63.581585 
3917.000000	63.577198 
3916.000000	63.566946 
3915.000000	63.551497 
3914.000000	63.532161 
3913.000000	63.510584 
3912.000000	63.489389 
3911.000000	63.471937 
3910.000000	63.462042 
3909.000000	63.463521 
3908.000000	63.478922 
3907.000000	63.508701 
3906.000000	63.550829 
3905.000000	63.600826 
3904.000000	63.652110 
3903.000000	63.697123 
3902.000000	63.728713 
3901.000000	63.741588 
3900.000000	63.733100 
3899.000000	63.703536 
3898.000000	63.655996 
3897.000000	63.595604 
3896.000000	63.528609 
3895.000000	63.461375 
3894.000000	63.399720 
3893.000000	63.348221 
3892.000000	63.310050 
3891.000000	63.286805 
3890.000000	63.278770 
3889.000000	63.284945 
3888.000000	63.302993 
3887.000000	63.330030 
3886.000000	63.362216 
3885.000000	63.396072 
3884.000000	63.428092 
3883.000000	63.455891 
3882.000000	63.477969 
3881.000000	63.494253 
3880.000000	63.505721 
3879.000000	63.513994 
3878.000000	63.520765 
3877.000000	63.527178 
3876.000000	63.533639 
3875.000000	63.539600 
3874.000000	63.543748 
3873.000000	63.544726 
3872.000000	63.541460 
3871.000000	63.533496 
3870.000000	63.521218 
3869.000000	63.505411 
3868.000000	63.487553 
3867.000000	63.469195 
3866.000000	63.452434 
3865.000000	63.439273 
3864.000000	63.432264 
3863.000000	63.434147 
3862.000000	63.447499 
3861.000000	63.474130 
3860.000000	63.514113 
3859.000000	63.565540 
3858.000000	63.623619 
3857.000000	63.681650 
3856.000000	63.731551 
3855.000000	63.765311 
3854.000000	63.777089 
3853.000000	63.764429 
3852.000000	63.729143 
3851.000000	63.676834 
3850.000000	63.615369 
3849.000000	63.553118 
3848.000000	63.497233 
3847.000000	63.452482 
3846.000000	63.421130 
3845.000000	63.403391 
3844.000000	63.398432 
3843.000000	63.404989 
3842.000000	63.421797 
3841.000000	63.447809 
3840.000000	63.481569 
3839.000000	63.521122 
3838.000000	63.563156 
3837.000000	63.603472 
3836.000000	63.637518 
3835.000000	63.660717 
3834.000000	63.669443 
3833.000000	63.661384 
3832.000000	63.636636 
3831.000000	63.597345 
3830.000000	63.547468 
3829.000000	63.492345 
3828.000000	63.437676 
3827.000000	63.389301 
3826.000000	63.352513 
3825.000000	63.331079 
3824.000000	63.326883 
3823.000000	63.339018 
3822.000000	63.364005 
3821.000000	63.395738 
3820.000000	63.426566 
3819.000000	63.449001 
3818.000000	63.457584 
3817.000000	63.449788 
3816.000000	63.427305 
3815.000000	63.395047 
3814.000000	63.360905 
3813.000000	63.333129 
3812.000000	63.319158 
3811.000000	63.324069 
3810.000000	63.349699 
3809.000000	63.394117 
3808.000000	63.452315 
3807.000000	63.517546 
3806.000000	63.582181 
3805.000000	63.639307 
3804.000000	63.683414 
3803.000000	63.710832 
3802.000000	63.720154 
3801.000000	63.712167 
3800.000000	63.689160 
3799.000000	63.654518 
3798.000000	63.612484 
3797.000000	63.567733 
3796.000000	63.524317 
3795.000000	63.485240 
3794.000000	63.452267 
3793.000000	63.425946 
3792.000000	63.405609 
3791.000000	63.389754 
3790.000000	63.376569 
3789.000000	63.364148 
3788.000000	63.350749 
3787.000000	63.335108 
3786.000000	63.316392 
3785.000000	63.294315 
3784.000000	63.268494 
3783.000000	63.239574 
3782.000000	63.208317 
3781.000000	63.176727 
3780.000000	63.147330 
3779.000000	63.123607 
3778.000000	63.108921 
3777.000000	63.106846 
3776.000000	63.119888 
3775.000000	63.149237 
3774.000000	63.193726 
3773.000000	63.250517 
3772.000000	63.315176 
3771.000000	63.382172 
3770.000000	63.445758 
3769.000000	63.500380 
3768.000000	63.541650 
3767.000000	63.566827 
3766.000000	63.575196 
3765.000000	63.567996 
3764.000000	63.548469 
3763.000000	63.521432 
3762.000000	63.492846 
3761.000000	63.469123 
3760.000000	63.456034 
3759.000000	63.457989 
3758.000000	63.477015 
3757.000000	63.512539 
3756.000000	63.560986 
3755.000000	63.616871 
3754.000000	63.673281 
3753.000000	63.723492 
3752.000000	63.761830 
3751.000000	63.784813 
3750.000000	63.791346 
3749.000000	63.782525 
3748.000000	63.761281 
3747.000000	63.731455 
3746.000000	63.697338 
3745.000000	63.662958 
3744.000000	63.631868 
3743.000000	63.606929 
3742.000000	63.590073 
3741.000000	63.582444 
3740.000000	63.583683 
3739.000000	63.592052 
3738.000000	63.604378 
3737.000000	63.616633 
3736.000000	63.623929 
3735.000000	63.621926 
3734.000000	63.607764 
3733.000000	63.580870 
3732.000000	63.543462 
3731.000000	63.500046 
3730.000000	63.456630 
3729.000000	63.419342 
3728.000000	63.392972 
3727.000000	63.380026 
3726.000000	63.380289 
3725.000000	63.391160 
3724.000000	63.408303 
3723.000000	63.427186 
3722.000000	63.444089 
3721.000000	63.457107 
3720.000000	63.466000 
3719.000000	63.472509 
3718.000000	63.479089 
3717.000000	63.488268 
3716.000000	63.501286 
3715.000000	63.517713 
3714.000000	63.535428 
3713.000000	63.551282 
3712.000000	63.561964 
3711.000000	63.565087 
3710.000000	63.559722 
3709.000000	63.546895 
3708.000000	63.529086 
3707.000000	63.509058 
3706.000000	63.489055 
3705.000000	63.469886 
3704.000000	63.451004 
3703.000000	63.430523 
3702.000000	63.406467 
3701.000000	63.377642 
3700.000000	63.344764 
3699.000000	63.310742 
3698.000000	63.280367 
3697.000000	63.259243 
3696.000000	63.252377 
3695.000000	63.262629 
3694.000000	63.289594 
3693.000000	63.329410 
3692.000000	63.375353 
3691.000000	63.419461 
3690.000000	63.454008 
3689.000000	63.473200 
3688.000000	63.474583 
3687.000000	63.459515 
3686.000000	63.432598 
3685.000000	63.400626 
3684.000000	63.370990 
3683.000000	63.350248 
3682.000000	63.343119 
3681.000000	63.351345 
3680.000000	63.373851 
3679.000000	63.406991 
3678.000000	63.445544 
3677.000000	63.483405 
3676.000000	63.514852 
3675.000000	63.535284 
3674.000000	63.541364 
3673.000000	63.532018 
3672.000000	63.507890 
3671.000000	63.471436 
3670.000000	63.426423 
3669.000000	63.377332 
3668.000000	63.328886 
3667.000000	63.285064 
3666.000000	63.249182 
3665.000000	63.222813 
3664.000000	63.205933 
3663.000000	63.197255 
3662.000000	63.194799 
3661.000000	63.196706 
3660.000000	63.201665 
3659.000000	63.209366 
3658.000000	63.220119 
3657.000000	63.235044 
3656.000000	63.255023 
3655.000000	63.279962 
3654.000000	63.308143 
3653.000000	63.336253 
3652.000000	63.359737 
3651.000000	63.373756 
3650.000000	63.373970 
3649.000000	63.358211 
3648.000000	63.326263 
3647.000000	63.280653 
3646.000000	63.225865 
3645.000000	63.167309 
3644.000000	63.110852 
3643.000000	63.061237 
3642.000000	63.022518 
3641.000000	62.997007 
3640.000000	62.986373 
3639.000000	62.991380 
3638.000000	63.011884 
3637.000000	63.046789 
3636.000000	63.093638 
3635.000000	63.148498 
3634.000000	63.205814 
3633.000000	63.258624 
3632.000000	63.299703 
3631.000000	63.322877 
3630.000000	63.323998 
3629.000000	63.302063 
3628.000000	63.259673 
3627.000000	63.202428 
3626.000000	63.137865 
3625.000000	63.073992 
3624.000000	63.017702 
3623.000000	62.973785 
3622.000000	62.944602 
3621.000000	62.930321 
3620.000000	62.929463 
3619.000000	62.939834 
3618.000000	62.959194 
3617.000000	62.985610 
3616.000000	63.017249 
3615.000000	63.052439 
3614.000000	63.089013 
3613.000000	63.124585 
3612.000000	63.156199 
3611.000000	63.181209 
3610.000000	63.197565 
3609.000000	63.204622 
3608.000000	63.203501 
3607.000000	63.196969 
3606.000000	63.188982 
3605.000000	63.183450 
3604.000000	63.183355 
3603.000000	63.190102 
3602.000000	63.203191 
3601.000000	63.220119 
3600.000000	63.237237 
3599.000000	63.250732 
3598.000000	63.257980 
3597.000000	63.257861 
3596.000000	63.251233 
3595.000000	63.240337 
3594.000000	63.228106 
3593.000000	63.217568 
3592.000000	63.210487 
3591.000000	63.206744 
3590.000000	63.204479 
3589.000000	63.201141 
3588.000000	63.193917 
3587.000000	63.181066 
3586.000000	63.162231 
3585.000000	63.138961 
3584.000000	63.114070 
3583.000000	63.090848 
3582.000000	63.071846 
3581.000000	63.058185 
3580.000000	63.049244 
3579.000000	63.043189 
3578.000000	63.037300 
3577.000000	63.029146 
3576.000000	63.017392 
3575.000000	63.002228 
3574.000000	62.985086 
3573.000000	62.968301 
3572.000000	62.953996 
3571.000000	62.943983 
3570.000000	62.938594 
3569.000000	62.937450 
3568.000000	62.939691 
3567.000000	62.945151 
3566.000000	62.954163 
3565.000000	62.968206 
3564.000000	62.989330 
3563.000000	63.019490 
3562.000000	63.059377 
3561.000000	63.108086 
3560.000000	63.162279 
3559.000000	63.216924 
3558.000000	63.266015 
3557.000000	63.303828 
3556.000000	63.326168 
3555.000000	63.331103 
3554.000000	63.319468 
3553.000000	63.294458 
3552.000000	63.260698 
3551.000000	63.223409 
3550.000000	63.187170 
3549.000000	63.155150 
3548.000000	63.128638 
3547.000000	63.107681 
3546.000000	63.091039 
3545.000000	63.077068 
3544.000000	63.064002 
3543.000000	63.050436 
3542.000000	63.035655 
3541.000000	63.019347 
3540.000000	63.002085 
3539.000000	62.984585 
3538.000000	62.968254 
3537.000000	62.954688 
3536.000000	62.945580 
3535.000000	62.942457 
3534.000000	62.946057 
3533.000000	62.956357 
3532.000000	62.971591 
3531.000000	62.988853 
3530.000000	63.004231 
3529.000000	63.013482 
3528.000000	63.013148 
3527.000000	63.001298 
3526.000000	62.978553 
3525.000000	62.948274 
3524.000000	62.915825 
3523.000000	62.887477 
3522.000000	62.868928 
3521.000000	62.863969 
3520.000000	62.873315 
3519.000000	62.894463 
3518.000000	62.922453 
3517.000000	62.950825 
3516.000000	62.973690 
3515.000000	62.986755 
3514.000000	62.988114 
3513.000000	62.978482 
3512.000000	62.960886 
3511.000000	62.939810 
3510.000000	62.919545 
3509.000000	62.903571 
3508.000000	62.894010 
3507.000000	62.891244 
3506.000000	62.894415 
3505.000000	62.901687 
3504.000000	62.911105 
3503.000000	62.920928 
3502.000000	62.929773 
3501.000000	62.936639 
3500.000000	62.940621 
3499.000000	62.940621 
3498.000000	62.935423 
3497.000000	62.923479 
3496.000000	62.903213 
3495.000000	62.873363 
3494.000000	62.833571 
3493.000000	62.784624 
3492.000000	62.729263 
3491.000000	62.671995 
3490.000000	62.619161 
3489.000000	62.577700 
3488.000000	62.554359 
3487.000000	62.554168 
3486.000000	62.579250 
3485.000000	62.627935 
3484.000000	62.694883 
3483.000000	62.771964 
3482.000000	62.849378 
3481.000000	62.917566 
3480.000000	62.968683 
3479.000000	62.997841 
3478.000000	63.003754 
3477.000000	62.988781 
3476.000000	62.957906 
3475.000000	62.917566 
3474.000000	62.874317 
3473.000000	62.833905 
3472.000000	62.800312 
3471.000000	62.775588 
3470.000000	62.759923 
3469.000000	62.752199 
3468.000000	62.750220 
3467.000000	62.751388 
3466.000000	62.752938 
3465.000000	62.752580 
3464.000000	62.748503 
3463.000000	62.740039 
3462.000000	62.727403 
3461.000000	62.711954 
3460.000000	62.695574 
3459.000000	62.680578 
3458.000000	62.669205 
3457.000000	62.663078 
3456.000000	62.662982 
3455.000000	62.668490 
3454.000000	62.678003 
3453.000000	62.689352 
3452.000000	62.700247 
3451.000000	62.708687 
3450.000000	62.713146 
3449.000000	62.713217 
3448.000000	62.709617 
3447.000000	62.703824 
3446.000000	62.697577 
3445.000000	62.692141 
3444.000000	62.687921 
3443.000000	62.684679 
3442.000000	62.681627 
3441.000000	62.677693 
3440.000000	62.672042 
3439.000000	62.664675 
3438.000000	62.656521 
3437.000000	62.649273 
3436.000000	62.644886 
3435.000000	62.645101 
3434.000000	62.650895 
3433.000000	62.662005 
3432.000000	62.676739 
3431.000000	62.692570 
3430.000000	62.705993 
3429.000000	62.713670 
3428.000000	62.712311 
3427.000000	62.699794 
3426.000000	62.675142 
3425.000000	62.638854 
3424.000000	62.593126 
3423.000000	62.541317 
3422.000000	62.488198 
3421.000000	62.439250 
3420.000000	62.400078 
3419.000000	62.375664 
3418.000000	62.369275 
3417.000000	62.382125 
3416.000000	62.412619 
3415.000000	62.456655 
3414.000000	62.508320 
3413.000000	62.560892 
3412.000000	62.608146 
3411.000000	62.645292 
3410.000000	62.669634 
3409.000000	62.681031 
3408.000000	62.681412 
3407.000000	62.674212 
3406.000000	62.663245 
3405.000000	62.651705 
3404.000000	62.642073 
3403.000000	62.634968 
3402.000000	62.629914 
3401.000000	62.625050 
3400.000000	62.618732 
3399.000000	62.609052 
3398.000000	62.594866 
3397.000000	62.575936 
3396.000000	62.552928 
3395.000000	62.527132 
3394.000000	62.499928 
3393.000000	62.472867 
3392.000000	62.447094 
3391.000000	62.423253 
3390.000000	62.401437 
3389.000000	62.381577 
3388.000000	62.363719 
3387.000000	62.348628 
3386.000000	62.337851 
3385.000000	62.333369 
3384.000000	62.337303 
3383.000000	62.351059 
3382.000000	62.374901 
3381.000000	62.407088 
3380.000000	62.444067 
3379.000000	62.480831 
3378.000000	62.512135 
3377.000000	62.533354 
3376.000000	62.541747 
3375.000000	62.536835 
3374.000000	62.520933 
3373.000000	62.498450 
3372.000000	62.475109 
3371.000000	62.456464 
3370.000000	62.446904 
3369.000000	62.448906 
3368.000000	62.462401 
3367.000000	62.485146 
3366.000000	62.513136 
3365.000000	62.541866 
3364.000000	62.566757 
3363.000000	62.584066 
3362.000000	62.591290 
3361.000000	62.587380 
3360.000000	62.572479 
3359.000000	62.548112 
3358.000000	62.516617 
3357.000000	62.481403 
3356.000000	62.446641 
3355.000000	62.416887 
3354.000000	62.396526 
3353.000000	62.388992 
3352.000000	62.396264 
3351.000000	62.418174 
3350.000000	62.452006 
3349.000000	62.493157 
3348.000000	62.536025 
3347.000000	62.575149 
3346.000000	62.606048 
3345.000000	62.626409 
3344.000000	62.636184 
3343.000000	62.637495 
3342.000000	62.633705 
3341.000000	62.628650 
3340.000000	62.625432 
3339.000000	62.625765 
3338.000000	62.630105 
3337.000000	62.637281 
3336.000000	62.645220 
3335.000000	62.651634 
3334.000000	62.654423 
3333.000000	62.652063 
3332.000000	62.643694 
3331.000000	62.628817 
3330.000000	62.607216 
3329.000000	62.578558 
3328.000000	62.542819 
3327.000000	62.500166 
3326.000000	62.451529 
3325.000000	62.398529 
3324.000000	62.344002 
3323.000000	62.291455 
3322.000000	62.245178 
3321.000000	62.208890 
3320.000000	62.185835 
3319.000000	62.177348 
3318.000000	62.183094 
3317.000000	62.200999 
3316.000000	62.227487 
3315.000000	62.257957 
3314.000000	62.287974 
3313.000000	62.313866 
3312.000000	62.333345 
3311.000000	62.345361 
3310.000000	62.350320 
3309.000000	62.349271 
3308.000000	62.343835 
3307.000000	62.335467 
3306.000000	62.325096 
3305.000000	62.313342 
3304.000000	62.300539 
3303.000000	62.286972 
3302.000000	62.273144 
3301.000000	62.260293 
3300.000000	62.249875 
3299.000000	62.243747 
3298.000000	62.243509 
3297.000000	62.250089 
3296.000000	62.263584 
3295.000000	62.283062 
3294.000000	62.306380 
3293.000000	62.330579 
3292.000000	62.352585 
3291.000000	62.369751 
3290.000000	62.379956 
3289.000000	62.382555 
3288.000000	62.378120 
3287.000000	62.368440 
3286.000000	62.356162 
3285.000000	62.344169 
3284.000000	62.335038 
3283.000000	62.330436 
3282.000000	62.331151 
3281.000000	62.336587 
3280.000000	62.345290 
3279.000000	62.354969 
3278.000000	62.363123 
3277.000000	62.367415 
3276.000000	62.366271 
3275.000000	62.358784 
3274.000000	62.345075 
3273.000000	62.326264 
3272.000000	62.304139 
3271.000000	62.280917 
3270.000000	62.258791 
3269.000000	62.239980 
3268.000000	62.226033 
3267.000000	62.217831 
3266.000000	62.215280 
3265.000000	62.217569 
3264.000000	62.222933 
3263.000000	62.229013 
3262.000000	62.232995 
3261.000000	62.232160 
3260.000000	62.224340 
3259.000000	62.208437 
3258.000000	62.184762 
3257.000000	62.154889 
3256.000000	62.121963 
3255.000000	62.089824 
3254.000000	62.062668 
3253.000000	62.044119 
3252.000000	62.036609 
3251.000000	62.040853 
3250.000000	62.055730 
3249.000000	62.078619 
3248.000000	62.105917 
3247.000000	62.133860 
3246.000000	62.159156 
3245.000000	62.179780 
3244.000000	62.194895 
3243.000000	62.205243 
3242.000000	62.212300 
3241.000000	62.217998 
3240.000000	62.223911 
3239.000000	62.230658 
3238.000000	62.238121 
3237.000000	62.245178 
3236.000000	62.250375 
3235.000000	62.252068 
3234.000000	62.249279 
3233.000000	62.241911 
3232.000000	62.230920 
3231.000000	62.218141 
3230.000000	62.205862 
3229.000000	62.196421 
3228.000000	62.191724 
3227.000000	62.192702 
3226.000000	62.199091 
3225.000000	62.209701 
3224.000000	62.222433 
3223.000000	62.234783 
3222.000000	62.244343 
3221.000000	62.249016 
3220.000000	62.247419 
3219.000000	62.239027 
3218.000000	62.224388 
3217.000000	62.204718 
3216.000000	62.181806 
3215.000000	62.157702 
3214.000000	62.134313 
3213.000000	62.113451 
3212.000000	62.096381 
3211.000000	62.083864 
3210.000000	62.075996 
3209.000000	62.072610 
3208.000000	62.073159 
3207.000000	62.076783 
3206.000000	62.082648 
3205.000000	62.089920 
3204.000000	62.097764 
3203.000000	62.105178 
3202.000000	62.111210 
3201.000000	62.114882 
3200.000000	62.115359 
3199.000000	62.112283 
3198.000000	62.105894 
3197.000000	62.097120 
3196.000000	62.087726 
3195.000000	62.079811 
3194.000000	62.075233 
3193.000000	62.075114 
3192.000000	62.079596 
3191.000000	62.087607 
3190.000000	62.097167 
3189.000000	62.105727 
3188.000000	62.111020 
3187.000000	62.111496 
3186.000000	62.106776 
3185.000000	62.097454 
3184.000000	62.085127 
3183.000000	62.071514 
3182.000000	62.058162 
3181.000000	62.045764 
3180.000000	62.034082 
3179.000000	62.022328 
3178.000000	62.009453 
3177.000000	61.994624 
3176.000000	61.977720 
3175.000000	61.959433 
3174.000000	61.941289 
3173.000000	61.925101 
3172.000000	61.912560 
3171.000000	61.905002 
3170.000000	61.903119 
3169.000000	61.907052 
3168.000000	61.916375 
3167.000000	61.930441 
3166.000000	61.948466 
3165.000000	61.969518 
3164.000000	61.992645 
3163.000000	62.016558 
3162.000000	62.039589 
3161.000000	62.059760 
3160.000000	62.074923 
3159.000000	62.083101 
3158.000000	62.082839 
3157.000000	62.073850 
3156.000000	62.056684 
3155.000000	62.032985 
3154.000000	62.004899 
3153.000000	61.975073 
3152.000000	61.945605 
3151.000000	61.917996 
3150.000000	61.892938 
3149.000000	61.870646 
3148.000000	61.850666 
3147.000000	61.832499 
3146.000000	61.815881 
3145.000000	61.801242 
3144.000000	61.789464 
3143.000000	61.781764 
3142.000000	61.779189 
3141.000000	61.782312 
3140.000000	61.790823 
3139.000000	61.803340 
3138.000000	61.817526 
3137.000000	61.830425 
3136.000000	61.838984 
3135.000000	61.840987 
3134.000000	61.835122 
3133.000000	61.821985 
3132.000000	61.803889 
3131.000000	61.784577 
3130.000000	61.768317 
3129.000000	61.759161 
3128.000000	61.759924 
3127.000000	61.771655 
3126.000000	61.793541 
3125.000000	61.823129 
3124.000000	61.856985 
3123.000000	61.891555 
3122.000000	61.923933 
3121.000000	61.951923 
3120.000000	61.974215 
3119.000000	61.989998 
3118.000000	61.998820 
3117.000000	61.999988 
3116.000000	61.992716 
3115.000000	61.976552 
3114.000000	61.951732 
3113.000000	61.919927 
3112.000000	61.884045 
3111.000000	61.848378 
3110.000000	61.817574 
3109.000000	61.795568 
3108.000000	61.784791 
3107.000000	61.785173 
3106.000000	61.794686 
3105.000000	61.809706 
3104.000000	61.826348 
3103.000000	61.841106 
3102.000000	61.852073 
3101.000000	61.859011 
3100.000000	61.863112 
3099.000000	61.866188 
3098.000000	61.870145 
3097.000000	61.876058 
3096.000000	61.883878 
3095.000000	61.892724 
3094.000000	61.901259 
3093.000000	61.908197 
3092.000000	61.912965 
3091.000000	61.915707 
3090.000000	61.917042 
3089.000000	61.918044 
3088.000000	61.919260 
3087.000000	61.920499 
3086.000000	61.921048 
3085.000000	61.919522 
3084.000000	61.914801 
3083.000000	61.906027 
3082.000000	61.892867 
3081.000000	61.875772 
3080.000000	61.855769 
3079.000000	61.834383 
3078.000000	61.813187 
3077.000000	61.793899 
3076.000000	61.777973 
3075.000000	61.766982 
3074.000000	61.762142 
3073.000000	61.764621 
3072.000000	61.774992 
3071.000000	61.793351 
3070.000000	61.818933 
3069.000000	61.849999 
3068.000000	61.883831 
3067.000000	61.917018 
3066.000000	61.946058 
3065.000000	61.967730 
3064.000000	61.979651 
3063.000000	61.980628 
3062.000000	61.970901 
3061.000000	61.951828 
3060.000000	61.925721 
3059.000000	61.895513 
3058.000000	61.864137 
3057.000000	61.834383 
3056.000000	61.808347 
3055.000000	61.787295 
3054.000000	61.771583 
3053.000000	61.760950 
3052.000000	61.754584 
3051.000000	61.751294 
3050.000000	61.749839 
3049.000000	61.749172 
3048.000000	61.748409 
3047.000000	61.746716 
3046.000000	61.743736 
3045.000000	61.739063 
3044.000000	61.732625 
3043.000000	61.724662 
3042.000000	61.715722 
3041.000000	61.706423 
3040.000000	61.697530 
3039.000000	61.689734 
3038.000000	61.683344 
3037.000000	61.678266 
3036.000000	61.674094 
3035.000000	61.670446 
3034.000000	61.666750 
3033.000000	61.662960 
3032.000000	61.659240 
3031.000000	61.656522 
3030.000000	61.656188 
3029.000000	61.659860 
3028.000000	61.668848 
3027.000000	61.683702 
3026.000000	61.704087 
3025.000000	61.728596 
3024.000000	61.754655 
3023.000000	61.779022 
3022.000000	61.798381 
3021.000000	61.809682 
3020.000000	61.811113 
3019.000000	61.802005 
3018.000000	61.783266 
3017.000000	61.756825 
3016.000000	61.725497 
3015.000000	61.691927 
3014.000000	61.658406 
3013.000000	61.626124 
3012.000000	61.595344 
3011.000000	61.565399 
3010.000000	61.535406 
3009.000000	61.504673 
3008.000000	61.473488 
3007.000000	61.443138 
3006.000000	61.416220 
3005.000000	61.396098 
3004.000000	61.386346 
3003.000000	61.389565 
3002.000000	61.406803 
3001.000000	61.436891 
3000.000000	61.476540 
2999.000000	61.520481 
2998.000000	61.562633 
2997.000000	61.597132 
2996.000000	61.619567 
2995.000000	61.627507 
2994.000000	61.620831 
2993.000000	61.601519 
2992.000000	61.572980 
2991.000000	61.539363 
2990.000000	61.504507 
2989.000000	61.471700 
2988.000000	61.443138 
2987.000000	61.420083 
2986.000000	61.402940 
2985.000000	61.391448 
2984.000000	61.384963 
2983.000000	61.382651 
2982.000000	61.383199 
2981.000000	61.384892 
2980.000000	61.385941 
2979.000000	61.384654 
2978.000000	61.379647 
2977.000000	61.370182 
2976.000000	61.356639 
2975.000000	61.340236 
2974.000000	61.322665 
2973.000000	61.305689 
2972.000000	61.290764 
2971.000000	61.278820 
2970.000000	61.270093 
2969.000000	61.264109 
2968.000000	61.260151 
2967.000000	61.257481 
2966.000000	61.255812 
2965.000000	61.255121 
2964.000000	61.255550 
2963.000000	61.257052 
2962.000000	61.259341 
2961.000000	61.261725 
2960.000000	61.263036 
2959.000000	61.262106 
2958.000000	61.258101 
2957.000000	61.251091 
2956.000000	61.242127 
2955.000000	61.233067 
2954.000000	61.226201 
2953.000000	61.223673 
2952.000000	61.227107 
2951.000000	61.237144 
2950.000000	61.253595 
2949.000000	61.275434 
2948.000000	61.300849 
2947.000000	61.328053 
2946.000000	61.354899 
2945.000000	61.379623 
2944.000000	61.400628 
2943.000000	61.416840 
2942.000000	61.427378 
2941.000000	61.431717 
2940.000000	61.429429 
2939.000000	61.420297 
2938.000000	61.404228 
2937.000000	61.381721 
2936.000000	61.353683 
2935.000000	61.321663 
2934.000000	61.287569 
2933.000000	61.253952 
2932.000000	61.223173 
2931.000000	61.197304 
2930.000000	61.177587 
2929.000000	61.164355 
2928.000000	61.156868 
2927.000000	61.153578 
2926.000000	61.152219 
2925.000000	61.150455 
2924.000000	61.146426 
2923.000000	61.138939 
2922.000000	61.127567 
2921.000000	61.112546 
2920.000000	61.094379 
2919.000000	61.073613 
2918.000000	61.050391 
2917.000000	61.024880 
2916.000000	60.997176 
2915.000000	60.968065 
2914.000000	60.938763 
2913.000000	60.911321 
2912.000000	60.888171 
2911.000000	60.872244 
2910.000000	60.865831 
2909.000000	60.870647 
2908.000000	60.887289 
2907.000000	60.914897 
2906.000000	60.951352 
2905.000000	60.993075 
2904.000000	61.035299 
2903.000000	61.073017 
2902.000000	61.101675 
2901.000000	61.117601 
2900.000000	61.118960 
2899.000000	61.106252 
2898.000000	61.082291 
2897.000000	61.051583 
2896.000000	61.019539 
2895.000000	60.991716 
2894.000000	60.972309 
2893.000000	60.963749 
2892.000000	60.966110 
2891.000000	60.977387 
2890.000000	60.994195 
2889.000000	61.012554 
2888.000000	61.028957 
2887.000000	61.040973 
2886.000000	61.047554 
2885.000000	61.048722 
2884.000000	61.045479 
2883.000000	61.039066 
2882.000000	61.031103 
2881.000000	61.023068 
2880.000000	61.016464 
2879.000000	61.012768 
2878.000000	61.013364 
2877.000000	61.019396 
2876.000000	61.031484 
2875.000000	61.049413 
2874.000000	61.072063 
2873.000000	61.097502 
2872.000000	61.122965 
2871.000000	61.145734 
2870.000000	61.163663 
2869.000000	61.175584 
2868.000000	61.181592 
2867.000000	61.182618 
2866.000000	61.179947 
2865.000000	61.174583 
2864.000000	61.167192 
2863.000000	61.157703 
2862.000000	61.145973 
2861.000000	61.131954 
2860.000000	61.116266 
2859.000000	61.100053 
2858.000000	61.084938 
2857.000000	61.072397 
2856.000000	61.063408 
2855.000000	61.058020 
2854.000000	61.055421 
2853.000000	61.054372 
2852.000000	61.053395 
2851.000000	61.051654 
2850.000000	61.049056 
2849.000000	61.046481 
2848.000000	61.045432 
2847.000000	61.047363 
2846.000000	61.053156 
2845.000000	61.062645 
2844.000000	61.074590 
2843.000000	61.087155 
2842.000000	61.098361 
2841.000000	61.106729 
2840.000000	61.111474 
2839.000000	61.112689 
2838.000000	61.110973 
2837.000000	61.106801 
2836.000000	61.100506 
2835.000000	61.091780 
2834.000000	61.080098 
2833.000000	61.064934 
2832.000000	61.045980 
2831.000000	61.023807 
2830.000000	60.999822 
2829.000000	60.976290 
2828.000000	60.955977 
2827.000000	60.941505 
2826.000000	60.934901 
2825.000000	60.936903 
2824.000000	60.946989 
2823.000000	60.963296 
2822.000000	60.983109 
2821.000000	61.003327 
2820.000000	61.021018 
2819.000000	61.033987 
2818.000000	61.040973 
2817.000000	61.041688 
2816.000000	61.036801 
2815.000000	61.027455 
2814.000000	61.015105 
2813.000000	61.000943 
2812.000000	60.985946 
2811.000000	60.970497 
2810.000000	60.954570 
2809.000000	60.938167 
2808.000000	60.921454 
2807.000000	60.905051 
2806.000000	60.889887 
2805.000000	60.877156 
2804.000000	60.868144 
2803.000000	60.863661 
2802.000000	60.863566 
2801.000000	60.867047 
2800.000000	60.872364 
2799.000000	60.877513 
2798.000000	60.880422 
2797.000000	60.879874 
2796.000000	60.875630 
2795.000000	60.868859 
2794.000000	60.861659 
2793.000000	60.856723 
2792.000000	60.856556 
2791.000000	60.862779 
2790.000000	60.875749 
2789.000000	60.894370 
2788.000000	60.916376 
2787.000000	60.938811 
2786.000000	60.958528 
2785.000000	60.973048 
2784.000000	60.980749 
2783.000000	60.981154 
2782.000000	60.974884 
2781.000000	60.962986 
2780.000000	60.946822 
2779.000000	60.927820 
2778.000000	60.907030 
2777.000000	60.885238 
2776.000000	60.862946 
2775.000000	60.840868 
2774.000000	60.819792 
2773.000000	60.800671 
2772.000000	60.784482 
2771.000000	60.772085 
2770.000000	60.763978 
2769.000000	60.760188 
2768.000000	60.760116 
2767.000000	60.762596 
2766.000000	60.766220 
2765.000000	60.769724 
2764.000000	60.772037 
2763.000000	60.772705 
2762.000000	60.771703 
2761.000000	60.769510 
2760.000000	60.766768 
2759.000000	60.764312 
2758.000000	60.762739 
2757.000000	60.762739 
2756.000000	60.764551 
2755.000000	60.768294 
2754.000000	60.774135 
2753.000000	60.782074 
2752.000000	60.791969 
2751.000000	60.803341 
2750.000000	60.815358 
2749.000000	60.826826 
2748.000000	60.836315 
2747.000000	60.842442 
2746.000000	60.843944 
2745.000000	60.840153 
2744.000000	60.831260 
2743.000000	60.818147 
2742.000000	60.802340 
2741.000000	60.785794 
2740.000000	60.770416 
2739.000000	60.757851 
2738.000000	60.749077 
2737.000000	60.744404 
2736.000000	60.743379 
2735.000000	60.744905 
2734.000000	60.747456 
2733.000000	60.749340 
2732.000000	60.748934 
2731.000000	60.744905 
2730.000000	60.736632 
2729.000000	60.724210 
2728.000000	60.708522 
2727.000000	60.691046 
2726.000000	60.673737 
2725.000000	60.658597 
2724.000000	60.647296 
2723.000000	60.640716 
2722.000000	60.638952 
2721.000000	60.640931 
2720.000000	60.644960 
2719.000000	60.649013 
2718.000000	60.651206 
2717.000000	60.650086 
2716.000000	60.645222 
2715.000000	60.637140 
2714.000000	60.627031 
2713.000000	60.616517 
2712.000000	60.607194 
2711.000000	60.600376 
2710.000000	60.596442 
2709.000000	60.595202 
2708.000000	60.595917 
2707.000000	60.597515 
2706.000000	60.599160 
2705.000000	60.600256 
2704.000000	60.600996 
2703.000000	60.601925 
2702.000000	60.603880 
2701.000000	60.607552 
2700.000000	60.613226 
2699.000000	60.620450 
2698.000000	60.628104 
2697.000000	60.634469 
2696.000000	60.637784 
2695.000000	60.636496 
2694.000000	60.629796 
2693.000000	60.617876 
2692.000000	60.601878 
2691.000000	60.583710 
2690.000000	60.565590 
2689.000000	60.549592 
2688.000000	60.537290 
2687.000000	60.529398 
2686.000000	60.525512 
2685.000000	60.524559 
2684.000000	60.524964 
2683.000000	60.525131 
2682.000000	60.523629 
2681.000000	60.519623 
2680.000000	60.512924 
2679.000000	60.503792 
2678.000000	60.492897 
2677.000000	60.480856 
2676.000000	60.468244 
2675.000000	60.455226 
2674.000000	60.441851 
2673.000000	60.428047 
2672.000000	60.413980 
2671.000000	60.400056 
2670.000000	60.387110 
2669.000000	60.376167 
2668.000000	60.368323 
2667.000000	60.364437 
2666.000000	60.364580 
2665.000000	60.368108 
2664.000000	60.373544 
2663.000000	60.378837 
2662.000000	60.382056 
2661.000000	60.381627 
2660.000000	60.376906 
2659.000000	60.368204 
2658.000000	60.356831 
2657.000000	60.344552 
2656.000000	60.333156 
2655.000000	60.324168 
2654.000000	60.318255 
2653.000000	60.315251 
2652.000000	60.314178 
2651.000000	60.313558 
2650.000000	60.311913 
2649.000000	60.308122 
2648.000000	60.301375 
2647.000000	60.291790 
2646.000000	60.279941 
2645.000000	60.266923 
2644.000000	60.253906 
2643.000000	60.242223 
2642.000000	60.232901 
2641.000000	60.226678 
2640.000000	60.223937 
2639.000000	60.224723 
2638.000000	60.228657 
2637.000000	60.235190 
2636.000000	60.243535 
2635.000000	60.252881 
2634.000000	60.262584 
2633.000000	60.272073 
2632.000000	60.281038 
2631.000000	60.289311 
2630.000000	60.296726 
2629.000000	60.302996 
2628.000000	60.307550 
2627.000000	60.309314 
2626.000000	60.307025 
2625.000000	60.299396 
2624.000000	60.285496 
2623.000000	60.264897 
2622.000000	60.238218 
2621.000000	60.207152 
2620.000000	60.174417 
2619.000000	60.143208 
2618.000000	60.116648 
2617.000000	60.097360 
2616.000000	60.086536 
2615.000000	60.083961 
2614.000000	60.087943 
2613.000000	60.095739 
2612.000000	60.104298 
2611.000000	60.110807 
2610.000000	60.113406 
2609.000000	60.111427 
2608.000000	60.105323 
2607.000000	60.096478 
2606.000000	60.086441 
2605.000000	60.076642 
2604.000000	60.068082 
2603.000000	60.061097 
2602.000000	60.055804 
2601.000000	60.051965 
2600.000000	60.049629 
2599.000000	60.049200 
2598.000000	60.051250 
2597.000000	60.056447 
2596.000000	60.065078 
2595.000000	60.077023 
2594.000000	60.091233 
2593.000000	60.105991 
2592.000000	60.119414 
2591.000000	60.129809 
2590.000000	60.135960 
2589.000000	60.137677 
2588.000000	60.135579 
2587.000000	60.131001 
2586.000000	60.125684 
2585.000000	60.121130 
2584.000000	60.118389 
2583.000000	60.117745 
2582.000000	60.118794 
2581.000000	60.120630 
2580.000000	60.122275 
2579.000000	60.122752 
2578.000000	60.121560 
2577.000000	60.118556 
2576.000000	60.113787 
2575.000000	60.107445 
2574.000000	60.099720 
2573.000000	60.090732 
2572.000000	60.080409 
2571.000000	60.068750 
2570.000000	60.055685 
2569.000000	60.041236 
2568.000000	60.025405 
2567.000000	60.008358 
2566.000000	59.990477 
2565.000000	59.972214 
2564.000000	59.954261 
2563.000000	59.937548 
2562.000000	59.922838 
2561.000000	59.910750 
2560.000000	59.901547 
2559.000000	59.895038 
2558.000000	59.890913 
2557.000000	59.888648 
2556.000000	59.887981 
2555.000000	59.888815 
2554.000000	59.891390 
2553.000000	59.896111 
2552.000000	59.903264 
2551.000000	59.912824 
2550.000000	59.924173 
2549.000000	59.936070 
2548.000000	59.946870 
2547.000000	59.954500 
2546.000000	59.957098 
2545.000000	59.953331 
2544.000000	59.942770 
2543.000000	59.926056 
2542.000000	59.904813 
2541.000000	59.881496 
2540.000000	59.858918 
2539.000000	59.839892 
2538.000000	59.826898 
2537.000000	59.821438 
2536.000000	59.824395 
2535.000000	59.835171 
2534.000000	59.852099 
2533.000000	59.872412 
2532.000000	59.892916 
2531.000000	59.910273 
2530.000000	59.921813 
2529.000000	59.925818 
2528.000000	59.921860 
2527.000000	59.910893 
2526.000000	59.894847 
2525.000000	59.876394 
2524.000000	59.858179 
2523.000000	59.842658 
2522.000000	59.831547 
2521.000000	59.825587 
2520.000000	59.824681 
2519.000000	59.827947 
2518.000000	59.833884 
2517.000000	59.840726 
2516.000000	59.846758 
2515.000000	59.850573 
2514.000000	59.851503 
2513.000000	59.849286 
2512.000000	59.844470 
2511.000000	59.837865 
2510.000000	59.830594 
2509.000000	59.823846 
2508.000000	59.818267 
2507.000000	59.813880 
2506.000000	59.809756 
2505.000000	59.804630 
2504.000000	59.796786 
2503.000000	59.784674 
2502.000000	59.767293 
2501.000000	59.744644 
2500.000000	59.717822 
2499.000000	59.688949 
2498.000000	59.660768 
2497.000000	59.636044 
2496.000000	59.617161 
2495.000000	59.605455 
2494.000000	59.600949 
2493.000000	59.602284 
2492.000000	59.606981 
2491.000000	59.612011 
2490.000000	59.614324 
2489.000000	59.611701 
2488.000000	59.603309 
2487.000000	59.590101 
2486.000000	59.574270 
2485.000000	59.559035 
2484.000000	59.548068 
2483.000000	59.544515 
2482.000000	59.550356 
2481.000000	59.565925 
2480.000000	59.589886 
2479.000000	59.619617 
2478.000000	59.651756 
2477.000000	59.682989 
2476.000000	59.710526 
2475.000000	59.732627 
2474.000000	59.748816 
2473.000000	59.759521 
2472.000000	59.765577 
2471.000000	59.768080 
2470.000000	59.767770 
2469.000000	59.765219 
2468.000000	59.760475 
2467.000000	59.753608 
2466.000000	59.744524 
2465.000000	59.733295 
2464.000000	59.719753 
2463.000000	59.703993 
2462.000000	59.685921 
2461.000000	59.665465 
2460.000000	59.642624 
2459.000000	59.617829 
2458.000000	59.591794 
2457.000000	59.565997 
2456.000000	59.542465 
2455.000000	59.523034 
2454.000000	59.509515 
2453.000000	59.503102 
2452.000000	59.504127 
2451.000000	59.511542 
2450.000000	59.523630 
2449.000000	59.538269 
2448.000000	59.553265 
2447.000000	59.566664 
2446.000000	59.577417 
2445.000000	59.585189 
2444.000000	59.590029 
2443.000000	59.592270 
2442.000000	59.592056 
2441.000000	59.589624 
2440.000000	59.585165 
2439.000000	59.578943 
2438.000000	59.571599 
2437.000000	59.564042 
2436.000000	59.557890 
2435.000000	59.554409 
2434.000000	59.554553 
2433.000000	59.557747 
2432.000000	59.562420 
2431.000000	59.565496 
2430.000000	59.563183 
2429.000000	59.551358 
2428.000000	59.527087 
2427.000000	59.489035 
2426.000000	59.437990 
2425.000000	59.376716 
2424.000000	59.309792 
2423.000000	59.242248 
2422.000000	59.178853 
2421.000000	59.123015 
2420.000000	59.076571 
2419.000000	59.039640 
2418.000000	59.011220 
2417.000000	58.989691 
2416.000000	58.973717 
2415.000000	58.962678 
2414.000000	58.957123 
2413.000000	58.958053 
2412.000000	58.966946 
2411.000000	58.984732 
2410.000000	59.011507 
2409.000000	59.046006 
2408.000000	59.085726 
2407.000000	59.127163 
2406.000000	59.166502 
2405.000000	59.200167 
2404.000000	59.225726 
2403.000000	59.241938 
2402.000000	59.249043 
2401.000000	59.248614 
2400.000000	59.243059 
2399.000000	59.235119 
2398.000000	59.227204 
2397.000000	59.221434 
2396.000000	59.218716 
2395.000000	59.219145 
2394.000000	59.221863 
2393.000000	59.225845 
2392.000000	59.229564 
2391.000000	59.231543 
2390.000000	59.230589 
2389.000000	59.226226 
2388.000000	59.218430 
2387.000000	59.207749 
2386.000000	59.195184 
2385.000000	59.182071 
2384.000000	59.169960 
2383.000000	59.160280 
2382.000000	59.154057 
2381.000000	59.151792 
2380.000000	59.153676 
2379.000000	59.159088 
2378.000000	59.166908 
2377.000000	59.175753 
2376.000000	59.184288 
2375.000000	59.191584 
2374.000000	59.196901 
2373.000000	59.200215 
2372.000000	59.201979 
2371.000000	59.203147 
2370.000000	59.204721 
2369.000000	59.207582 
2368.000000	59.212088 
2367.000000	59.218144 
2366.000000	59.225225 
2365.000000	59.232258 
2364.000000	59.237980 
2363.000000	59.241271 
2362.000000	59.241294 
2361.000000	59.237861 
2360.000000	59.231376 
2359.000000	59.222650 
2358.000000	59.212684 
2357.000000	59.202408 
2356.000000	59.192395 
2355.000000	59.182667 
2354.000000	59.172582 
2353.000000	59.161186 
2352.000000	59.147381 
2351.000000	59.130334 
2350.000000	59.109902 
2349.000000	59.086799 
2348.000000	59.062671 
2347.000000	59.039759 
2346.000000	59.020805 
2345.000000	59.008359 
2344.000000	59.004449 
2343.000000	59.009766 
2342.000000	59.023904 
2341.000000	59.045171 
2340.000000	59.070777 
2339.000000	59.097361 
2338.000000	59.121346 
2337.000000	59.139633 
2336.000000	59.149932 
2335.000000	59.151077 
2334.000000	59.142971 
2333.000000	59.126520 
2332.000000	59.103369 
2331.000000	59.075641 
2330.000000	59.045481 
2329.000000	59.014773 
2328.000000	58.985185 
2327.000000	58.957934 
2326.000000	58.933782 
2325.000000	58.912992 
2324.000000	58.895611 
2323.000000	58.881425 
2322.000000	58.870005 
2321.000000	58.860969 
2320.000000	58.853626 
2319.000000	58.847522 
2318.000000	58.842062 
2317.000000	58.837008 
2316.000000	58.832287 
2315.000000	58.828139 
2314.000000	58.824944 
2313.000000	58.823490 
2312.000000	58.824515 
2311.000000	58.828878 
2310.000000	58.837151 
2309.000000	58.849525 
2308.000000	58.865690 
2307.000000	58.884692 
2306.000000	58.905148 
2305.000000	58.925318 
2304.000000	58.943295 
2303.000000	58.957362 
2302.000000	58.966112 
2301.000000	58.968806 
2300.000000	58.965468 
2299.000000	58.956432 
2298.000000	58.942437 
2297.000000	58.924603 
2296.000000	58.904123 
2295.000000	58.882355 
2294.000000	58.860540 
2293.000000	58.840203 
2292.000000	58.822941 
2291.000000	58.810377 
2290.000000	58.803796 
2289.000000	58.804154 
2288.000000	58.811330 
2287.000000	58.824276 
2286.000000	58.840847 
2285.000000	58.858084 
2284.000000	58.872723 
2283.000000	58.881950 
2282.000000	58.883976 
2281.000000	58.878421 
2280.000000	58.866477 
2279.000000	58.850622 
2278.000000	58.834052 
2277.000000	58.819961 
2276.000000	58.810877 
2275.000000	58.808207 
2274.000000	58.812046 
2273.000000	58.820962 
2272.000000	58.832907 
2271.000000	58.845496 
2270.000000	58.856558 
2269.000000	58.864545 
2268.000000	58.868598 
2267.000000	58.868646 
2266.000000	58.865213 
2265.000000	58.858966 
2264.000000	58.850622 
2263.000000	58.840775 
2262.000000	58.829951 
2261.000000	58.818483 
2260.000000	58.806705 
2259.000000	58.794927 
2258.000000	58.783721 
2257.000000	58.773756 
2256.000000	58.765697 
2255.000000	58.759880 
2254.000000	58.756279 
2253.000000	58.754324 
2252.000000	58.752846 
2251.000000	58.750224 
2250.000000	58.744525 
2249.000000	58.734130 
2248.000000	58.718132 
2247.000000	58.696508 
2246.000000	58.670401 
2245.000000	58.641862 
2244.000000	58.613729 
2243.000000	58.589029 
2242.000000	58.570432 
2241.000000	58.559870 
2240.000000	58.557891 
2239.000000	58.563709 
2238.000000	58.575367 
2237.000000	58.590245 
2236.000000	58.605623 
2235.000000	58.618855 
2234.000000	58.628249 
2233.000000	58.633017 
2232.000000	58.633422 
2231.000000	58.630371 
2230.000000	58.625245 
2229.000000	58.619213 
2228.000000	58.613228 
2227.000000	58.607745 
2226.000000	58.602476 
2225.000000	58.596730 
2224.000000	58.589577 
2223.000000	58.580374 
2222.000000	58.568739 
2221.000000	58.554983 
2220.000000	58.539819 
2219.000000	58.524370 
2218.000000	58.509826 
2217.000000	58.497095 
2216.000000	58.486747 
2215.000000	58.478736 
2214.000000	58.472251 
2213.000000	58.466100 
2212.000000	58.459091 
2211.000000	58.450102 
2210.000000	58.438491 
2209.000000	58.424186 
2208.000000	58.407711 
2207.000000	58.390355 
2206.000000	58.373546 
2205.000000	58.358883 
2204.000000	58.347773 
2203.000000	58.341336 
2202.000000	58.340239 
2201.000000	58.344650 
2200.000000	58.354020 
2199.000000	58.367300 
2198.000000	58.382868 
2197.000000	58.398652 
2196.000000	58.412265 
2195.000000	58.421444 
2194.000000	58.424353 
2193.000000	58.419823 
2192.000000	58.407950 
2191.000000	58.390069 
2190.000000	58.368492 
2189.000000	58.346414 
2188.000000	58.327102 
2187.000000	58.313393 
2186.000000	58.306956 
2185.000000	58.308124 
2184.000000	58.315658 
2183.000000	58.327245 
2182.000000	58.340048 
2181.000000	58.351206 
2180.000000	58.358573 
2179.000000	58.361005 
2178.000000	58.358454 
2177.000000	58.351778 
2176.000000	58.342361 
2175.000000	58.331751 
2174.000000	58.321166 
2173.000000	58.311390 
2172.000000	58.302640 
2171.000000	58.294677 
2170.000000	58.287072 
2169.000000	58.279585 
2168.000000	58.272314 
2167.000000	58.265686 
2166.000000	58.260226 
2165.000000	58.256363 
2164.000000	58.254480 
2163.000000	58.254384 
2162.000000	58.255481 
2161.000000	58.256888 
2160.000000	58.257651 
2159.000000	58.257102 
2158.000000	58.254933 
2157.000000	58.251190 
2156.000000	58.246231 
2155.000000	58.240246 
2154.000000	58.233284 
2153.000000	58.225083 
2152.000000	58.214831 
2151.000000	58.201837 
2150.000000	58.185815 
2149.000000	58.167386 
2148.000000	58.148288 
2147.000000	58.131122 
2146.000000	58.118700 
2145.000000	58.113193 
2144.000000	58.115291 
2143.000000	58.123612 
2142.000000	58.134651 
2141.000000	58.143424 
2140.000000	58.144760 
2139.000000	58.134436 
2138.000000	58.110380 
2137.000000	58.073425 
2136.000000	58.027172 
2135.000000	57.977247 
2134.000000	57.930040 
2133.000000	57.891201 
2132.000000	57.864642 
2131.000000	57.851791 
2130.000000	57.851648 
2129.000000	57.861351 
2128.000000	57.877302 
2127.000000	57.896161 
2126.000000	57.915377 
2125.000000	57.933497 
2124.000000	57.950115 
2123.000000	57.965064 
2122.000000	57.978200 
2121.000000	57.988691 
2120.000000	57.995176 
2119.000000	57.995963 
2118.000000	57.989335 
2117.000000	57.974171 
2116.000000	57.950568 
2115.000000	57.920098 
2114.000000	57.885408 
2113.000000	57.850074 
2112.000000	57.817769 
2111.000000	57.791805 
2110.000000	57.774424 
2109.000000	57.766413 
2108.000000	57.767415 
2107.000000	57.775974 
2106.000000	57.789802 
2105.000000	57.806682 
2104.000000	57.824468 
2103.000000	57.841658 
2102.000000	57.857155 
2101.000000	57.870554 
2100.000000	57.881832 
2099.000000	57.891035 
2098.000000	57.898163 
2097.000000	57.903194 
2096.000000	57.905960 
2095.000000	57.906675 
2094.000000	57.905960 
2093.000000	57.904839 
2092.000000	57.904577 
2091.000000	57.906508 
2090.000000	57.911610 
2089.000000	57.920098 
2088.000000	57.931280 
2087.000000	57.943820 
2086.000000	57.955932 
2085.000000	57.965755 
2084.000000	57.971882 
2083.000000	57.973599 
2082.000000	57.971000 
2081.000000	57.964920 
2080.000000	57.956504 
2079.000000	57.946848 
2078.000000	57.936644 
2077.000000	57.926011 
2076.000000	57.914733 
2075.000000	57.902455 
2074.000000	57.889008 
2073.000000	57.874655 
2072.000000	57.860136 
2071.000000	57.846832 
2070.000000	57.836127 
2069.000000	57.829070 
2068.000000	57.826113 
2067.000000	57.826852 
2066.000000	57.829880 
2065.000000	57.833075 
2064.000000	57.833957 
2063.000000	57.830214 
2062.000000	57.820010 
2061.000000	57.802581 
2060.000000	57.778286 
2059.000000	57.748746 
2058.000000	57.716202 
2057.000000	57.683563 
2056.000000	57.653689 
2055.000000	57.628965 
2054.000000	57.610964 
2053.000000	57.600116 
2052.000000	57.596015 
2051.000000	57.597637 
2050.000000	57.603287 
2049.000000	57.611250 
2048.000000	57.619905 
2047.000000	57.628202 
2046.000000	57.635402 
2045.000000	57.641243 
2044.000000	57.645511 
2043.000000	57.648253 
2042.000000	57.649397 
2041.000000	57.648897 
2040.000000	57.646584 
2039.000000	57.642555 
2038.000000	57.637166 
2037.000000	57.631039 
2036.000000	57.624769 
2035.000000	57.618951 
2034.000000	57.613897 
2033.000000	57.609343 
2032.000000	57.604432 
2031.000000	57.597875 
2030.000000	57.588100 
2029.000000	57.573747 
2028.000000	57.554054 
2027.000000	57.529258 
2026.000000	57.500815 
2025.000000	57.471036 
2024.000000	57.442927 
2023.000000	57.419610 
2022.000000	57.403707 
2021.000000	57.396793 
2020.000000	57.399272 
2019.000000	57.410120 
2018.000000	57.427692 
2017.000000	57.449626 
2016.000000	57.473683 
2015.000000	57.498002 
2014.000000	57.521176 
2013.000000	57.542347 
2012.000000	57.560729 
2011.000000	57.575559 
2010.000000	57.585811 
2009.000000	57.590341 
2008.000000	57.588195 
2007.000000	57.578802 
2006.000000	57.562541 
2005.000000	57.540726 
2004.000000	57.515859 
2003.000000	57.490730 
2002.000000	57.468104 
2001.000000	57.449984 
2000.000000	57.437109 
1999.000000	57.429099 
1998.000000	57.424545 
1997.000000	57.421660 
1996.000000	57.418870 
1995.000000	57.415556 
1994.000000	57.411861 
1993.000000	57.408905 
1992.000000	57.408189 
1991.000000	57.411003 
1990.000000	57.417869 
1989.000000	57.428169 
1988.000000	57.440280 
1987.000000	57.451796 
1986.000000	57.460236 
1985.000000	57.463383 
1984.000000	57.459950 
1983.000000	57.449722 
1982.000000	57.433700 
1981.000000	57.413482 
1980.000000	57.390975 
1979.000000	57.368183 
1978.000000	57.346844 
1977.000000	57.328295 
1976.000000	57.313489 
1975.000000	57.302784 
1974.000000	57.296276 
1973.000000	57.293772 
1972.000000	57.294869 
1971.000000	57.298827 
1970.000000	57.304930 
1969.000000	57.312273 
1968.000000	57.319998 
1967.000000	57.327318 
1966.000000	57.333636 
1965.000000	57.338571 
1964.000000	57.341957 
1963.000000	57.343864 
1962.000000	57.344198 
1961.000000	57.342886 
1960.000000	57.339549 
1959.000000	57.333612 
1958.000000	57.324528 
1957.000000	57.311892 
1956.000000	57.295727 
1955.000000	57.276773 
1954.000000	57.256507 
1953.000000	57.236909 
1952.000000	57.220220 
1951.000000	57.208323 
1950.000000	57.202410 
1949.000000	57.202553 
1948.000000	57.207417 
1947.000000	57.214570 
1946.000000	57.220983 
1945.000000	57.223844 
1944.000000	57.221007 
1943.000000	57.211852 
1942.000000	57.197237 
1941.000000	57.179355 
1940.000000	57.161331 
1939.000000	57.146072 
1938.000000	57.135748 
1937.000000	57.131171 
1936.000000	57.131862 
1935.000000	57.136011 
1934.000000	57.141113 
1933.000000	57.144808 
1932.000000	57.145452 
1931.000000	57.142519 
1930.000000	57.136583 
1929.000000	57.129073 
1928.000000	57.121729 
1927.000000	57.116103 
1926.000000	57.113003 
1925.000000	57.112312 
1924.000000	57.113003 
1923.000000	57.113671 
1922.000000	57.112932 
1921.000000	57.109808 
1920.000000	57.103896 
1919.000000	57.095599 
1918.000000	57.085847 
1917.000000	57.075738 
1916.000000	57.066226 
1915.000000	57.057714 
1914.000000	57.049894 
1913.000000	57.041788 
1912.000000	57.031989 
1911.000000	57.019042 
1910.000000	57.002019 
1909.000000	56.980919 
1908.000000	56.956839 
1907.000000	56.931734 
1906.000000	56.908202 
1905.000000	56.888890 
1904.000000	56.876063 
1903.000000	56.870985 
1902.000000	56.873822 
1901.000000	56.883668 
1900.000000	56.898856 
1899.000000	56.917023 
1898.000000	56.935811 
1897.000000	56.953167 
1896.000000	56.967568 
1895.000000	56.977987 
1894.000000	56.983900 
1893.000000	56.984996 
1892.000000	56.981396 
1891.000000	56.973409 
1890.000000	56.961655 
1889.000000	56.946921 
1888.000000	56.930375 
1887.000000	56.913185 
1886.000000	56.896662 
1885.000000	56.881713 
1884.000000	56.869006 
1883.000000	56.858539 
1882.000000	56.849956 
1881.000000	56.842589 
1880.000000	56.835746 
1879.000000	56.828737 
1878.000000	56.820869 
1877.000000	56.811761 
1876.000000	56.801247 
1875.000000	56.789255 
1874.000000	56.775808 
1873.000000	56.761074 
1872.000000	56.745386 
1871.000000	56.729388 
1870.000000	56.714034 
1869.000000	56.700491 
1868.000000	56.689977 
1867.000000	56.683874 
1866.000000	56.683087 
1865.000000	56.687641 
1864.000000	56.696748 
1863.000000	56.708478 
1862.000000	56.720232 
1861.000000	56.728911 
1860.000000	56.731724 
1859.000000	56.726741 
1858.000000	56.713533 
1857.000000	56.693124 
1856.000000	56.668281 
1855.000000	56.642651 
1854.000000	56.620430 
1853.000000	56.605291 
1852.000000	56.599783 
1851.000000	56.604695 
1850.000000	56.618905 
1849.000000	56.639885 
1848.000000	56.663918 
1847.000000	56.686925 
1846.000000	56.705069 
1845.000000	56.715726 
1844.000000	56.717276 
1843.000000	56.709766 
1842.000000	56.694412 
1841.000000	56.673526 
1840.000000	56.650018 
1839.000000	56.626868 
1838.000000	56.606912 
1837.000000	56.592082 
1836.000000	56.583619 
1835.000000	56.581234 
1834.000000	56.583809 
1833.000000	56.589269 
1832.000000	56.595301 
1831.000000	56.599593 
1830.000000	56.600403 
1829.000000	56.596803 
1828.000000	56.588840 
1827.000000	56.577730 
1826.000000	56.565237 
1825.000000	56.553483 
1824.000000	56.544208 
1823.000000	56.538820 
1822.000000	56.537914 
1821.000000	56.541371 
1820.000000	56.548476 
1819.000000	56.558275 
1818.000000	56.569647 
1817.000000	56.581640 
1816.000000	56.593537 
1815.000000	56.604671 
1814.000000	56.614375 
1813.000000	56.622147 
1812.000000	56.627225 
1811.000000	56.629037 
1810.000000	56.626939 
1809.000000	56.620478 
1808.000000	56.609606 
1807.000000	56.594848 
1806.000000	56.577277 
1805.000000	56.558299 
1804.000000	56.539654 
1803.000000	56.523275 
1802.000000	56.510972 
1801.000000	56.504225 
1800.000000	56.503987 
1799.000000	56.510543 
1798.000000	56.523323 
1797.000000	56.541252 
1796.000000	56.562685 
1795.000000	56.585597 
1794.000000	56.607794 
1793.000000	56.627345 
1792.000000	56.642580 
1791.000000	56.652474 
1790.000000	56.656479 
1789.000000	56.654596 
1788.000000	56.647181 
1787.000000	56.634855 
1786.000000	56.618475 
1785.000000	56.599044 
1784.000000	56.577777 
1783.000000	56.556129 
1782.000000	56.535935 
1781.000000	56.519269 
1780.000000	56.508111 
1779.000000	56.504058 
1778.000000	56.507968 
1777.000000	56.519484 
1776.000000	56.537079 
1775.000000	56.557989 
1774.000000	56.578850 
1773.000000	56.596112 
1772.000000	56.606960 
1771.000000	56.609678 
1770.000000	56.603932 
1769.000000	56.590843 
1768.000000	56.572580 
1767.000000	56.551742 
1766.000000	56.530761 
1765.000000	56.511282 
1764.000000	56.493854 
1763.000000	56.478190 
1762.000000	56.463456 
1761.000000	56.448531 
1760.000000	56.432509 
1759.000000	56.415462 
1758.000000	56.398081 
1757.000000	56.381511 
1756.000000	56.367278 
1755.000000	56.356549 
1754.000000	56.350064 
1753.000000	56.347751 
1752.000000	56.348633 
1751.000000	56.350970 
1750.000000	56.352758 
1749.000000	56.352090 
1748.000000	56.347537 
1747.000000	56.338500 
1746.000000	56.325364 
1745.000000	56.309437 
1744.000000	56.292986 
1743.000000	56.278634 
1742.000000	56.268906 
1741.000000	56.265592 
1740.000000	56.269168 
1739.000000	56.278538 
1738.000000	56.291270 
1737.000000	56.303834 
1736.000000	56.312465 
1735.000000	56.313729 
1734.000000	56.305718 
1733.000000	56.288170 
1732.000000	56.262302 
1731.000000	56.230664 
1730.000000	56.196498 
1729.000000	56.163382 
1728.000000	56.134223 
1727.000000	56.111168 
1726.000000	56.095457 
1725.000000	56.087374 
1724.000000	56.086611 
1723.000000	56.092190 
1722.000000	56.102705 
1721.000000	56.116414 
1720.000000	56.131100 
1719.000000	56.144428 
1718.000000	56.153821 
1717.000000	56.157493 
1716.000000	56.154346 
1715.000000	56.144690 
1714.000000	56.129956 
1713.000000	56.112694 
1712.000000	56.096029 
1711.000000	56.082963 
1710.000000	56.075930 
1709.000000	56.076455 
1708.000000	56.085014 
1707.000000	56.101012 
1706.000000	56.122899 
1705.000000	56.148481 
1704.000000	56.174874 
1703.000000	56.199145 
1702.000000	56.218314 
1701.000000	56.229805 
1700.000000	56.231713 
1699.000000	56.223201 
1698.000000	56.204676 
1697.000000	56.177687 
1696.000000	56.144785 
1695.000000	56.109476 
1694.000000	56.075239 
1693.000000	56.045269 
1692.000000	56.021618 
1691.000000	56.005191 
1690.000000	55.995273 
1689.000000	55.990052 
1688.000000	55.986881 
1687.000000	55.983042 
1686.000000	55.976080 
1685.000000	55.964469 
1684.000000	55.947828 
1683.000000	55.927276 
1682.000000	55.905079 
1681.000000	55.884385 
1680.000000	55.868482 
1679.000000	55.860018 
1678.000000	55.860495 
1677.000000	55.869746 
1676.000000	55.885839 
1675.000000	55.905365 
1674.000000	55.924630 
1673.000000	55.939865 
1672.000000	55.948114 
1671.000000	55.947780 
1670.000000	55.938768 
1669.000000	55.922508 
1668.000000	55.901193 
1667.000000	55.877685 
1666.000000	55.854821 
1665.000000	55.835485 
1664.000000	55.821990 
1663.000000	55.816793 
1662.000000	55.821919 
1661.000000	55.838918 
1660.000000	55.868458 
1659.000000	55.909562 
1658.000000	55.959582 
1657.000000	56.013846 
1656.000000	56.066346 
1655.000000	56.110858 
1654.000000	56.141662 
1653.000000	56.155085 
1652.000000	56.149816 
1651.000000	56.126904 
1650.000000	56.089282 
1649.000000	56.041240 
1648.000000	55.987453 
1647.000000	55.932116 
1646.000000	55.878710 
1645.000000	55.830025 
1644.000000	55.787992 
1643.000000	55.754423 
1642.000000	55.730319 
1641.000000	55.716300 
1640.000000	55.711650 
1639.000000	55.714535 
1638.000000	55.721664 
1637.000000	55.728387 
1636.000000	55.729866 
1635.000000	55.721902 
1634.000000	55.701923 
1633.000000	55.669665 
1632.000000	55.627274 
1631.000000	55.578947 
1630.000000	55.529785 
1629.000000	55.485057 
1628.000000	55.449271 
1627.000000	55.425500 
1626.000000	55.415034 
1625.000000	55.417394 
1624.000000	55.430841 
1623.000000	55.452680 
1622.000000	55.479383 
1621.000000	55.507421 
1620.000000	55.533242 
1619.000000	55.553841 
1618.000000	55.566835 
1617.000000	55.571126 
1616.000000	55.566430 
1615.000000	55.553913 
1614.000000	55.536007 
1613.000000	55.515694 
1612.000000	55.495929 
1611.000000	55.478930 
1610.000000	55.466127 
1609.000000	55.457425 
1608.000000	55.451488 
1607.000000	55.446362 
1606.000000	55.440092 
1605.000000	55.431199 
1604.000000	55.419278 
1603.000000	55.404806 
1602.000000	55.389261 
1601.000000	55.374217 
1600.000000	55.361104 
1599.000000	55.350613 
1598.000000	55.342960 
1597.000000	55.337691 
1596.000000	55.334210 
1595.000000	55.332422 
1594.000000	55.332541 
1593.000000	55.334782 
1592.000000	55.339407 
1591.000000	55.346226 
1590.000000	55.354642 
1589.000000	55.363130 
1588.000000	55.370187 
1587.000000	55.374360 
1586.000000	55.375003 
1585.000000	55.372977 
1584.000000	55.370163 
1583.000000	55.369281 
1582.000000	55.372881 
1581.000000	55.382561 
1580.000000	55.398154 
1579.000000	55.417585 
1578.000000	55.436944 
1577.000000	55.451464 
1576.000000	55.456614 
1575.000000	55.449461 
1574.000000	55.428767 
1573.000000	55.395913 
1572.000000	55.354452 
1571.000000	55.309963 
1570.000000	55.268979 
1569.000000	55.238103 
1568.000000	55.222964 
1567.000000	55.227160 
1566.000000	55.252099 
1565.000000	55.296206 
1564.000000	55.355358 
1563.000000	55.423045 
1562.000000	55.491566 
1561.000000	55.552864 
1560.000000	55.599737 
1559.000000	55.626940 
1558.000000	55.632162 
1557.000000	55.616164 
1556.000000	55.582571 
1555.000000	55.536937 
1554.000000	55.485701 
1553.000000	55.435132 
1552.000000	55.390739 
1551.000000	55.357003 
1550.000000	55.337047 
1549.000000	55.332779 
1548.000000	55.344367 
1547.000000	55.370450 
1546.000000	55.407738 
1545.000000	55.450940 
1544.000000	55.493569 
1543.000000	55.528831 
1542.000000	55.550909 
1541.000000	55.556011 
1540.000000	55.542802 
1539.000000	55.512547 
1538.000000	55.468606 
1537.000000	55.415844 
1536.000000	55.359768 
1535.000000	55.305433 
1534.000000	55.257058 
1533.000000	55.217576 
1532.000000	55.188941 
1531.000000	55.172491 
1530.000000	55.168747 
1529.000000	55.177497 
1528.000000	55.197644 
1527.000000	55.227255 
1526.000000	55.263137 
1525.000000	55.300807 
1524.000000	55.335211 
1523.000000	55.361390 
1522.000000	55.375504 
1521.000000	55.375576 
1520.000000	55.361628 
1519.000000	55.336070 
1518.000000	55.303049 
1517.000000	55.268144 
1516.000000	55.237483 
1515.000000	55.216741 
1514.000000	55.210089 
1513.000000	55.219268 
1512.000000	55.243587 
1511.000000	55.279517 
1510.000000	55.321264 
1509.000000	55.361819 
1508.000000	55.394124 
1507.000000	55.412507 
1506.000000	55.413675 
1505.000000	55.397033 
1504.000000	55.364441 
1503.000000	55.320000 
1502.000000	55.269002 
1501.000000	55.216860 
1500.000000	55.168294 
1499.000000	55.126643 
1498.000000	55.093765 
1497.000000	55.070090 
1496.000000	55.055069 
1495.000000	55.047464 
1494.000000	55.045557 
1493.000000	55.047416 
1492.000000	55.050873 
1491.000000	55.053496 
1490.000000	55.052852 
1489.000000	55.046701 
1488.000000	55.033469 
1487.000000	55.012583 
1486.000000	54.984760 
1485.000000	54.952096 
1484.000000	54.917883 
1483.000000	54.885935 
1482.000000	54.860115 
1481.000000	54.843616 
1480.000000	54.838204 
1479.000000	54.843974 
1478.000000	54.858994 
1477.000000	54.879665 
1476.000000	54.901218 
1475.000000	54.918503 
1474.000000	54.927206 
1473.000000	54.924702 
1472.000000	54.910516 
1471.000000	54.886531 
1470.000000	54.856586 
1469.000000	54.825568 
1468.000000	54.798746 
1467.000000	54.780650 
1466.000000	54.774379 
1465.000000	54.780769 
1464.000000	54.798650 
1463.000000	54.824638 
1462.000000	54.853844 
1461.000000	54.880833 
1460.000000	54.899978 
1459.000000	54.906868 
1458.000000	54.899072 
1457.000000	54.876875 
1456.000000	54.842805 
1455.000000	54.801726 
1454.000000	54.759645 
1453.000000	54.722714 
1452.000000	54.696083 
1451.000000	54.682660 
1450.000000	54.682564 
1449.000000	54.693269 
1448.000000	54.710245 
1447.000000	54.728293 
1446.000000	54.742860 
1445.000000	54.751062 
1444.000000	54.752063 
1443.000000	54.747247 
1442.000000	54.739332 
1441.000000	54.731369 
1440.000000	54.725432 
1439.000000	54.722189 
1438.000000	54.720330 
1437.000000	54.717254 
1436.000000	54.709672 
1435.000000	54.694509 
1434.000000	54.669785 
1433.000000	54.635477 
1432.000000	54.593825 
1431.000000	54.548645 
1430.000000	54.505038 
1429.000000	54.467844 
1428.000000	54.441142 
1427.000000	54.427170 
1426.000000	54.425930 
1425.000000	54.435420 
1424.000000	54.451727 
1423.000000	54.469919 
1422.000000	54.485130 
1421.000000	54.493260 
1420.000000	54.491829 
1419.000000	54.480028 
1418.000000	54.458880 
1417.000000	54.430770 
1416.000000	54.398870 
1415.000000	54.366517 
1414.000000	54.336643 
1413.000000	54.311561 
1412.000000	54.293107 
1411.000000	54.282593 
1410.000000	54.281044 
1409.000000	54.288840 
1408.000000	54.305839 
1407.000000	54.331064 
1406.000000	54.362463 
1405.000000	54.396963 
1404.000000	54.430508 
1403.000000	54.458904 
1402.000000	54.478287 
1401.000000	54.485917 
1400.000000	54.480671 
1399.000000	54.463434 
1398.000000	54.437041 
1397.000000	54.405379 
1396.000000	54.372787 
1395.000000	54.343008 
1394.000000	54.318785 
1393.000000	54.301285 
1392.000000	54.290151 
1391.000000	54.283881 
1390.000000	54.280281 
1389.000000	54.276847 
1388.000000	54.271435 
1387.000000	54.262423 
1386.000000	54.249000 
1385.000000	54.230999 
1384.000000	54.209113 
1383.000000	54.184746 
1382.000000	54.159784 
1381.000000	54.136490 
1380.000000	54.117131 
1379.000000	54.103755 
1378.000000	54.097723 
1377.000000	54.099583 
1376.000000	54.108738 
1375.000000	54.123473 
1374.000000	54.141235 
1373.000000	54.159140 
1372.000000	54.174375 
1371.000000	54.184722 
1370.000000	54.188823 
1369.000000	54.186558 
1368.000000	54.178929 
1367.000000	54.167604 
1366.000000	54.154729 
1365.000000	54.142355 
1364.000000	54.132175 
1363.000000	54.125261 
1362.000000	54.121875 
1361.000000	54.121732 
1360.000000	54.123902 
1359.000000	54.127168 
1358.000000	54.130101 
1357.000000	54.131364 
1356.000000	54.129910 
1355.000000	54.125261 
1354.000000	54.117393 
1353.000000	54.107022 
1352.000000	54.095458 
1351.000000	54.084324 
1350.000000	54.075193 
1349.000000	54.068970 
1348.000000	54.066014 
1347.000000	54.065990 
1346.000000	54.067730 
1345.000000	54.069757 
1344.000000	54.070544 
1343.000000	54.068779 
1342.000000	54.063963 
1341.000000	54.056000 
1340.000000	54.045248 
1339.000000	54.032206 
1338.000000	54.017400 
1337.000000	54.001092 
1336.000000	53.983473 
1335.000000	53.964710 
1334.000000	53.945231 
1333.000000	53.925991 
1332.000000	53.908467 
1331.000000	53.894400 
1330.000000	53.885602 
1329.000000	53.883314 
1328.000000	53.888082 
1327.000000	53.899526 
1326.000000	53.916335 
1325.000000	53.936529 
1324.000000	53.957748 
1323.000000	53.977847 
1322.000000	53.994774 
1321.000000	54.007077 
1320.000000	54.013729 
1319.000000	54.013919 
1318.000000	54.007291 
1317.000000	53.993701 
1316.000000	53.973650 
1315.000000	53.948283 
1314.000000	53.919625 
1313.000000	53.890395 
1312.000000	53.863739 
1311.000000	53.842616 
1310.000000	53.829240 
1309.000000	53.824424 
1308.000000	53.827476 
1307.000000	53.836154 
1306.000000	53.847217 
1305.000000	53.857064 
1304.000000	53.862810 
1303.000000	53.862667 
1302.000000	53.856420 
1301.000000	53.845453 
1300.000000	53.832054 
1299.000000	53.818821 
1298.000000	53.807950 
1297.000000	53.800654 
1296.000000	53.797030 
1295.000000	53.795933 
1294.000000	53.795719 
1293.000000	53.794789 
1292.000000	53.791952 
1291.000000	53.787016 
1290.000000	53.780674 
1289.000000	53.774118 
1288.000000	53.768658 
1287.000000	53.765177 
1286.000000	53.764033 
1285.000000	53.764605 
1284.000000	53.765416 
1283.000000	53.764677 
1282.000000	53.760766 
1281.000000	53.752326 
1280.000000	53.738927 
1279.000000	53.720855 
1278.000000	53.699326 
1277.000000	53.676104 
1276.000000	53.653383 
1275.000000	53.633213 
1274.000000	53.617358 
1273.000000	53.607249 
1272.000000	53.603792 
1271.000000	53.607058 
1270.000000	53.616404 
1269.000000	53.630280 
1268.000000	53.646945 
1267.000000	53.664088 
1266.000000	53.679943 
1265.000000	53.693103 
1264.000000	53.703427 
1263.000000	53.711628 
1262.000000	53.719067 
1261.000000	53.727269 
1260.000000	53.737306 
1259.000000	53.749322 
1258.000000	53.762507 
1257.000000	53.775191 
1256.000000	53.785181 
1255.000000	53.790521 
1254.000000	53.789901 
1253.000000	53.782844 
1252.000000	53.770136 
1251.000000	53.753256 
1250.000000	53.734111 
1249.000000	53.714394 
1248.000000	53.695297 
1247.000000	53.677058 
1246.000000	53.659081 
1245.000000	53.640437 
1244.000000	53.620147 
1243.000000	53.597855 
1242.000000	53.574085 
1241.000000	53.550195 
1240.000000	53.528261 
1239.000000	53.510713 
1238.000000	53.499507 
1237.000000	53.495645 
1236.000000	53.498673 
1235.000000	53.506660 
1234.000000	53.516626 
1233.000000	53.525209 
1232.000000	53.529191 
1231.000000	53.526663 
1230.000000	53.517436 
1229.000000	53.503155 
1228.000000	53.486704 
1227.000000	53.471517 
1226.000000	53.460454 
1225.000000	53.455257 
1224.000000	53.455805 
1223.000000	53.460502 
1222.000000	53.466677 
1221.000000	53.471517 
1220.000000	53.472733 
1219.000000	53.469371 
1218.000000	53.462076 
1217.000000	53.452658 
1216.000000	53.443717 
1215.000000	53.437519 
1214.000000	53.435444 
1213.000000	53.437638 
1212.000000	53.442668 
1211.000000	53.448104 
1210.000000	53.450942 
1209.000000	53.448700 
1208.000000	53.439903 
1207.000000	53.424477 
1206.000000	53.403854 
1205.000000	53.380584 
1204.000000	53.357863 
1203.000000	53.338694 
1202.000000	53.325414 
1201.000000	53.319048 
1200.000000	53.319239 
1199.000000	53.324365 
1198.000000	53.331971 
1197.000000	53.339219 
1196.000000	53.343439 
1195.000000	53.342580 
1194.000000	53.335523 
1193.000000	53.322291 
1192.000000	53.303909 
1191.000000	53.282117 
1190.000000	53.258991 
1189.000000	53.236413 
1188.000000	53.215909 
1187.000000	53.198194 
1186.000000	53.183364 
1185.000000	53.170990 
1184.000000	53.160405 
1183.000000	53.151011 
1182.000000	53.142356 
1181.000000	53.134202 
1180.000000	53.126287 
1179.000000	53.118443 
1178.000000	53.110241 
1177.000000	53.101420 
1176.000000	53.091669 
1175.000000	53.081059 
1174.000000	53.070092 
1173.000000	53.059864 
1172.000000	53.051781 
1171.000000	53.047323 
1170.000000	53.047704 
1169.000000	53.053188 
1168.000000	53.063011 
1167.000000	53.075432 
1166.000000	53.088164 
1165.000000	53.098845 
1164.000000	53.105688 
1163.000000	53.107929 
1162.000000	53.105807 
1161.000000	53.100371 
1160.000000	53.093099 
1159.000000	53.085422 
1158.000000	53.078556 
1157.000000	53.073048 
1156.000000	53.069186 
1155.000000	53.067040 
1154.000000	53.066325 
1153.000000	53.066706 
1152.000000	53.067612 
1151.000000	53.068304 
1150.000000	53.067755 
1149.000000	53.064918 
1148.000000	53.058838 
1147.000000	53.048992 
1146.000000	53.035521 
1145.000000	53.019380 
1144.000000	53.002452 
1143.000000	52.987074 
1142.000000	52.975535 
1141.000000	52.969765 
1140.000000	52.970623 
1139.000000	52.977848 
1138.000000	52.989840 
1137.000000	53.004360 
1136.000000	53.018712 
1135.000000	53.030467 
1134.000000	53.037905 
1133.000000	53.040361 
1132.000000	53.037929 
1131.000000	53.031420 
1130.000000	53.022098 
1129.000000	53.011417 
1128.000000	53.000450 
1127.000000	52.989864 
1126.000000	52.980113 
1125.000000	52.971553 
1124.000000	52.964520 
1123.000000	52.959370 
1122.000000	52.956438 
1121.000000	52.956128 
1120.000000	52.958607 
1119.000000	52.963900 
1118.000000	52.971458 
1117.000000	52.980375 
1116.000000	52.989315 
1115.000000	52.996921 
1114.000000	53.001713 
1113.000000	53.002619 
1112.000000	52.998757 
1111.000000	52.990174 
1110.000000	52.977132 
1109.000000	52.960515 
1108.000000	52.941060 
1107.000000	52.919507 
1106.000000	52.895975 
1105.000000	52.870130 
1104.000000	52.841210 
1103.000000	52.808666 
1102.000000	52.772665 
1101.000000	52.734112 
1100.000000	52.695298 
1099.000000	52.659392 
1098.000000	52.630233 
1097.000000	52.611351 
1096.000000	52.605366 
1095.000000	52.613234 
1094.000000	52.633833 
1093.000000	52.664065 
1092.000000	52.699208 
1091.000000	52.733635 
1090.000000	52.762150 
1089.000000	52.780747 
1088.000000	52.787542 
1087.000000	52.782630 
1086.000000	52.768254 
1085.000000	52.747464 
1084.000000	52.723264 
1083.000000	52.697539 
1082.000000	52.670907 
1081.000000	52.642798 
1080.000000	52.612280 
1079.000000	52.578520 
1078.000000	52.542066 
1077.000000	52.504849 
1076.000000	52.469897 
1075.000000	52.440929 
1074.000000	52.421021 
1073.000000	52.412033 
1072.000000	52.413630 
1071.000000	52.423810 
1070.000000	52.439236 
1069.000000	52.456545 
1068.000000	52.473235 
1067.000000	52.488303 
1066.000000	52.502489 
1065.000000	52.517580 
1064.000000	52.535605 
1063.000000	52.557873 
1062.000000	52.584242 
1061.000000	52.613353 
1060.000000	52.642679 
1059.000000	52.669429 
1058.000000	52.691125 
1057.000000	52.706432 
1056.000000	52.715063 
1055.000000	52.717709 
1054.000000	52.715563 
1053.000000	52.709913 
1052.000000	52.701878 
1051.000000	52.692341 
1050.000000	52.682042 
1049.000000	52.671933 
1048.000000	52.663183 
1047.000000	52.657628 
1046.000000	52.656769 
1045.000000	52.661609 
1044.000000	52.672076 
1043.000000	52.686810 
1042.000000	52.703094 
1041.000000	52.717399 
1040.000000	52.726387 
1039.000000	52.727603 
1038.000000	52.720355 
1037.000000	52.706027 
1036.000000	52.687525 
1035.000000	52.668428 
1034.000000	52.652478 
1033.000000	52.642202 
1032.000000	52.638435 
1031.000000	52.639865 
1030.000000	52.643918 
1029.000000	52.647066 
1028.000000	52.645945 
1027.000000	52.638149 
1026.000000	52.623009 
1025.000000	52.601528 
1024.000000	52.575874 
1023.000000	52.549099 
1022.000000	52.524304 
1021.000000	52.504110 
1020.000000	52.490139 
1019.000000	52.483177 
1018.000000	52.483367 
1017.000000	52.490043 
1016.000000	52.502155 
1015.000000	52.518033 
1014.000000	52.535510 
1013.000000	52.551770 
1012.000000	52.563762 
1011.000000	52.568721 
1010.000000	52.564644 
1009.000000	52.550792 
1008.000000	52.527904 
1007.000000	52.498221 
1006.000000	52.465105 
1005.000000	52.432441 
1004.000000	52.403593 
1003.000000	52.381086 
1002.000000	52.366018 
1001.000000	52.358317 
1000.000000	52.356839 
999.000000	 52.359890 
998.000000	 52.365684 
997.000000	 52.372694 
996.000000	 52.379775 
995.000000	 52.386236 
994.000000	 52.391695 
993.000000	 52.395486 
992.000000	 52.397179 
991.000000	 52.396392 
990.000000	 52.392959 
989.000000	 52.386903 
988.000000	 52.378463 
987.000000	 52.368211 
986.000000	 52.356529 
985.000000	 52.343750 
984.000000	 52.330136 
983.000000	 52.316117 
982.000000	 52.302098 
981.000000	 52.288866 
980.000000	 52.277445 
979.000000	 52.269244 
978.000000	 52.265715 
977.000000	 52.267885 
976.000000	 52.276253 
975.000000	 52.290391 
974.000000	 52.309036 
973.000000	 52.329826 
972.000000	 52.349877 
971.000000	 52.365756 
970.000000	 52.374529 
969.000000	 52.373790 
968.000000	 52.362346 
967.000000	 52.339935 
966.000000	 52.307581 
965.000000	 52.266979 
964.000000	 52.220416 
963.000000	 52.170419 
962.000000	 52.119398 
961.000000	 52.069497 
960.000000	 52.022600 
959.000000	 51.980066 
958.000000	 51.942896 
957.000000	 51.911616 
956.000000	 51.886510 
955.000000	 51.867079 
954.000000	 51.852369 
953.000000	 51.841282 
952.000000	 51.833057 
951.000000	 51.826810 
950.000000	 51.822280 
949.000000	 51.819539 
948.000000	 51.819014 
947.000000	 51.821422 
946.000000	 51.827025 
945.000000	 51.834774 
944.000000	 51.842761 
943.000000	 51.848387 
942.000000	 51.848983 
941.000000	 51.842308 
940.000000	 51.827573 
939.000000	 51.805782 
938.000000	 51.779913 
937.000000	 51.754522 
936.000000	 51.734375 
935.000000	 51.723241 
934.000000	 51.723098 
933.000000	 51.733756 
932.000000	 51.752018 
931.000000	 51.772260 
930.000000	 51.787209 
929.000000	 51.789641 
928.000000	 51.773715 
927.000000	 51.736760 
926.000000	 51.679301 
925.000000	 51.606488 
924.000000	 51.526665 
923.000000	 51.451396 
922.000000	 51.392507 
921.000000	 51.360893 
920.000000	 51.364278 
919.000000	 51.405811 
918.000000	 51.483631 
917.000000	 51.590681 
916.000000	 51.716160 
915.000000	 51.846289 
914.000000	 51.966857 
913.000000	 52.063822 
912.000000	 52.126193 
911.000000	 52.145099 
910.000000	 52.115249 
909.000000	 52.034902 
908.000000	 51.906585 
907.000000	 51.736664 
906.000000	 51.535558 
905.000000	 51.317644 
904.000000	 51.100373 
903.000000	 50.903201 
902.000000	 50.745129 
901.000000	 50.642061 
900.000000	 50.603914 
899.000000	 50.632715 
898.000000	 50.722122 
897.000000	 50.857138 
896.000000	 51.017761 
895.000000	 51.181793 
894.000000	 51.329421 
893.000000	 51.445364 
892.000000	 51.521873 
891.000000	 51.557588 
890.000000	 51.557779 
889.000000	 51.531219 
888.000000	 51.488828 
887.000000	 51.441216 
886.000000	 51.397299 
885.000000	 51.364183 
884.000000	 51.346111 
883.000000	 51.346087 
882.000000	 51.364135 
881.000000	 51.398587 
880.000000	 51.444792 
879.000000	 51.495933 
878.000000	 51.543498 
877.000000	 51.578855 
876.000000	 51.595067 
875.000000	 51.588392 
874.000000	 51.560306 
873.000000	 51.516819 
872.000000	 51.466345 
871.000000	 51.417803 
870.000000	 51.378655 
869.000000	 51.353073 
868.000000	 51.341462 
867.000000	 51.340413 
866.000000	 51.345205 
865.000000	 51.350498 
864.000000	 51.352691 
863.000000	 51.349949 
862.000000	 51.342034 
861.000000	 51.330256 
860.000000	 51.316428 
859.000000	 51.302433 
858.000000	 51.288795 
857.000000	 51.275539 
856.000000	 51.261997 
855.000000	 51.247811 
854.000000	 51.233577 
853.000000	 51.220226 
852.000000	 51.208972 
851.000000	 51.200819 
850.000000	 51.196026 
849.000000	 51.194143 
848.000000	 51.194190 
847.000000	 51.194787 
846.000000	 51.194620 
845.000000	 51.193070 
844.000000	 51.190209 
843.000000	 51.186680 
842.000000	 51.183462 
841.000000	 51.181626 
840.000000	 51.181864 
839.000000	 51.184391 
838.000000	 51.188731 
837.000000	 51.193666 
836.000000	 51.197504 
835.000000	 51.198673 
834.000000	 51.196074 
833.000000	 51.189160 
832.000000	 51.178693 
831.000000	 51.166200 
830.000000	 51.154637 
829.000000	 51.147580 
828.000000	 51.148629 
827.000000	 51.160740 
826.000000	 51.185059 
825.000000	 51.220464 
824.000000	 51.263380 
823.000000	 51.308417 
822.000000	 51.349472 
821.000000	 51.380920 
820.000000	 51.399064 
819.000000	 51.402688 
818.000000	 51.392889 
817.000000	 51.372504 
816.000000	 51.345443 
815.000000	 51.315450 
814.000000	 51.285791 
813.000000	 51.258182 
812.000000	 51.233792 
811.000000	 51.212596 
810.000000	 51.194262 
809.000000	 51.178431 
808.000000	 51.164650 
807.000000	 51.152896 
806.000000	 51.143288 
805.000000	 51.135897 
804.000000	 51.130175 
803.000000	 51.125311 
802.000000	 51.120138 
801.000000	 51.113557 
800.000000	 51.104593 
799.000000	 51.093339 
798.000000	 51.081013 
797.000000	 51.070022 
796.000000	 51.063299 
795.000000	 51.064014 
794.000000	 51.074504 
793.000000	 51.095342 
792.000000	 51.125216 
791.000000	 51.161265 
790.000000	 51.199483 
789.000000	 51.235437 
788.000000	 51.265048 
787.000000	 51.285696 
786.000000	 51.296305 
785.000000	 51.297640 
784.000000	 51.291561 
783.000000	 51.280379 
782.000000	 51.265716 
781.000000	 51.248908 
780.000000	 51.229882 
779.000000	 51.207709 
778.000000	 51.180768 
777.000000	 51.148033 
776.000000	 51.109123 
775.000000	 51.065111 
774.000000	 51.018285 
773.000000	 50.971722 
772.000000	 50.928783 
771.000000	 50.892424 
770.000000	 50.864171 
769.000000	 50.843596 
768.000000	 50.828433 
767.000000	 50.814986 
766.000000	 50.798821 
765.000000	 50.776195 
764.000000	 50.744700 
763.000000	 50.704503 
762.000000	 50.657916 
761.000000	 50.609898 
760.000000	 50.566697 
759.000000	 50.535082 
758.000000	 50.520515 
757.000000	 50.525903 
756.000000	 50.551319 
755.000000	 50.593352 
754.000000	 50.646185 
753.000000	 50.701928 
752.000000	 50.752401 
751.000000	 50.790119 
750.000000	 50.809907 
749.000000	 50.808715 
748.000000	 50.785684 
747.000000	 50.742244 
746.000000	 50.681519 
745.000000	 50.608038 
744.000000	 50.527191 
743.000000	 50.445151 
742.000000	 50.368428 
741.000000	 50.303053 
740.000000	 50.253844 
739.000000	 50.223875 
738.000000	 50.213742 
737.000000	 50.221085 
736.000000	 50.241017 
735.000000	 50.266361 
734.000000	 50.289845 
733.000000	 50.304675 
732.000000	 50.306916 
731.000000	 50.295424 
730.000000	 50.273060 
729.000000	 50.244712 
728.000000	 50.217318 
727.000000	 50.197529 
726.000000	 50.190687 
725.000000	 50.199723 
724.000000	 50.224304 
723.000000	 50.261378 
722.000000	 50.305485 
721.000000	 50.350284 
720.000000	 50.389313 
719.000000	 50.417065 
718.000000	 50.430417 
717.000000	 50.428748 
716.000000	 50.413918 
715.000000	 50.389504 
714.000000	 50.359964 
713.000000	 50.329208 
712.000000	 50.300359 
711.000000	 50.274872 
710.000000	 50.252676 
709.000000	 50.232839 
708.000000	 50.213980 
707.000000	 50.195336 
706.000000	 50.177311 
705.000000	 50.161647 
704.000000	 50.150656 
703.000000	 50.146627 
702.000000	 50.151228 
701.000000	 50.164461 
700.000000	 50.184440 
699.000000	 50.207281 
698.000000	 50.227904 
697.000000	 50.240802 
696.000000	 50.241661 
695.000000	 50.227689 
694.000000	 50.198388 
693.000000	 50.155329 
692.000000	 50.101828 
691.000000	 50.041961 
690.000000	 49.979400 
689.000000	 49.917101 
688.000000	 49.856734 
687.000000	 49.798846 
686.000000	 49.742889 
685.000000	 49.688076 
684.000000	 49.633550 
683.000000	 49.578404 
682.000000	 49.522066 
681.000000	 49.463844 
680.000000	 49.403858 
679.000000	 49.342203 
678.000000	 49.280428 
677.000000	 49.220538 
676.000000	 49.166440 
675.000000	 49.122428 
674.000000	 49.093556 
673.000000	 49.083733 
672.000000	 49.095320 
671.000000	 49.128031 
670.000000	 49.178934 
669.000000	 49.242091 
668.000000	 49.310183 
667.000000	 49.375438 
666.000000	 49.431777 
665.000000	 49.475359 
664.000000	 49.505949 
663.000000	 49.526143 
662.000000	 49.540758 
661.000000	 49.554967 
660.000000	 49.572730 
659.000000	 49.595403 
658.000000	 49.621653 
657.000000	 49.647855 
656.000000	 49.669098 
655.000000	 49.680805 
654.000000	 49.680376 
653.000000	 49.667835 
652.000000	 49.645900 
651.000000	 49.619030 
650.000000	 49.592399 
649.000000	 49.569964 
648.000000	 49.553227 
647.000000	 49.540758 
646.000000	 49.529623 
645.000000	 49.515795 
644.000000	 49.495911 
643.000000	 49.468421 
642.000000	 49.434471 
641.000000	 49.397587 
640.000000	 49.362754 
639.000000	 49.334764 
638.000000	 49.316406 
637.000000	 49.308657 
636.000000	 49.310398 
635.000000	 49.318552 
634.000000	 49.329018 
633.000000	 49.337697 
632.000000	 49.341106 
631.000000	 49.336719 
630.000000	 49.323010 
629.000000	 49.299073 
628.000000	 49.265170 
627.000000	 49.221706 
626.000000	 49.170684 
625.000000	 49.115538 
624.000000	 49.061822 
623.000000	 49.016404 
622.000000	 48.986601 
621.000000	 48.979187 
620.000000	 48.997664 
619.000000	 49.041843 
618.000000	 49.105930 
617.000000	 49.179577 
616.000000	 49.248647 
615.000000	 49.298596 
614.000000	 49.316406 
613.000000	 49.293184 
612.000000	 49.226832 
611.000000	 49.122405 
610.000000	 48.992252 
609.000000	 48.853659 
608.000000	 48.725891 
607.000000	 48.626160 
606.000000	 48.566198 
605.000000	 48.549962 
604.000000	 48.572683 
603.000000	 48.622536 
602.000000	 48.684096 
601.000000	 48.741960 
600.000000	 48.783707 
599.000000	 48.802757 
598.000000	 48.798060 
597.000000	 48.774456 
596.000000	 48.738861 
595.000000	 48.699641 
594.000000	 48.663783 
593.000000	 48.636507 
592.000000	 48.621082 
591.000000	 48.618531 
590.000000	 48.628878 
589.000000	 48.650693 
588.000000	 48.682737 
587.000000	 48.722505 
586.000000	 48.766803 
585.000000	 48.810744 
584.000000	 48.848104 
583.000000	 48.871874 
582.000000	 48.875355 
581.000000	 48.853683 
580.000000	 48.804950 
579.000000	 48.731064 
578.000000	 48.637366 
577.000000	 48.532319 
576.000000	 48.425626 
575.000000	 48.325800 
574.000000	 48.238492 
573.000000	 48.165655 
572.000000	 48.106074 
571.000000	 48.056173 
570.000000	 48.012304 
569.000000	 47.971320 
568.000000	 47.932910 
567.000000	 47.899580 
566.000000	 47.876167 
565.000000	 47.867274 
564.000000	 47.876596 
563.000000	 47.904586 
562.000000	 47.948384 
561.000000	 48.001432 
560.000000	 48.055052 
559.000000	 48.100018 
558.000000	 48.128724 
557.000000	 48.136615 
556.000000	 48.124003 
555.000000	 48.095870 
554.000000	 48.060131 
553.000000	 48.025345 
552.000000	 47.998833 
551.000000	 47.984838 
550.000000	 47.983479 
549.000000	 47.991037 
548.000000	 48.001480 
547.000000	 48.007893 
546.000000	 48.005199 
545.000000	 47.990512 
544.000000	 47.963237 
543.000000	 47.924971 
542.000000	 47.878241 
541.000000	 47.826147 
540.000000	 47.770881 
539.000000	 47.714638 
538.000000	 47.659635 
537.000000	 47.608566 
536.000000	 47.565340 
535.000000	 47.533321 
534.000000	 47.516083 
533.000000	 47.513532 
532.000000	 47.521257 
531.000000	 47.530364 
530.000000	 47.529745 
529.000000	 47.507095 
528.000000	 47.451901 
527.000000	 47.359704 
526.000000	 47.233700 
525.000000	 47.084736 
524.000000	 46.929430 
523.000000	 46.786284 
522.000000	 46.671485 
521.000000	 46.595454 
520.000000	 46.561026 
519.000000	 46.562671 
518.000000	 46.589446 
517.000000	 46.628475 
516.000000	 46.668386 
515.000000	 46.701717 
514.000000	 46.726107 
513.000000	 46.741533 
512.000000	 46.751451 
511.000000	 46.757793 
510.000000	 46.764183 
509.000000	 46.772146 
508.000000	 46.786451 
507.000000	 46.813011 
506.000000	 46.862387 
505.000000	 46.948027 
504.000000	 47.082829 
503.000000	 47.274780 
502.000000	 47.523236 
501.000000	 47.816920 
500.000000	 48.131632 
499.000000	 48.433423 
498.000000	 48.685503 
497.000000	 48.855280 
496.000000	 48.920798 
495.000000	 48.875284 
494.000000	 48.728060 
493.000000	 48.502731 
492.000000	 48.232054 
491.000000	 47.952604 
490.000000	 47.699737 
489.000000	 47.502160 
488.000000	 47.380375 
487.000000	 47.342848 
486.000000	 47.388124 
485.000000	 47.503566 
484.000000	 47.668814 
483.000000	 47.857475 
482.000000	 48.042345 
481.000000	 48.196029 
480.000000	 48.295140 
479.000000	 48.319625 
478.000000	 48.255038 
477.000000	 48.093557 
476.000000	 47.836709 
475.000000	 47.493624 
474.000000	 47.080922 
473.000000	 46.622920 
472.000000	 46.149587 
471.000000	 45.693230 
470.000000	 45.284438 
469.000000	 44.945883 
468.000000	 44.689536 
467.000000	 44.515776 
466.000000	 44.414973 
465.000000	 44.366741 
464.000000	 44.348049 
463.000000	 44.337534 
462.000000	 44.321537 
461.000000	 44.294333 
460.000000	 44.258761 
459.000000	 44.218516 
458.000000	 44.179487 
457.000000	 44.141840 
456.000000	 44.105935 
455.000000	 44.068598 
454.000000	 44.032764 
453.000000	 44.005846 
452.000000	 44.006085 
451.000000	 44.058632 
450.000000	 44.191145 
449.000000	 44.425725 
448.000000	 44.768071 
447.000000	 45.201349 
446.000000	 45.685672 
445.000000	 46.163749 
444.000000	 46.567511 
443.000000	 46.832108 
442.000000	 46.911191 
441.000000	 46.788024 
440.000000	 46.479177 
439.000000	 46.032691 
438.000000	 45.518422 
437.000000	 45.014333 
436.000000	 44.593763 
435.000000	 44.309520 
434.000000	 44.189429 
433.000000	 44.228577 
432.000000	 44.397401 
431.000000	 44.646048 
430.000000	 44.916939 
429.000000	 45.156669 
428.000000	 45.321559 
427.000000	 45.391559 
426.000000	 45.365405 
425.000000	 45.267796 
424.000000	 45.135617 
423.000000	 45.019245 
422.000000	 44.969391 
421.000000	 45.027875 
420.000000	 45.216369 
419.000000	 45.536065 
418.000000	 45.966148 
417.000000	 46.455383 
416.000000	 46.930456 
415.000000	 47.306227 
414.000000	 47.501897 
413.000000	 47.466683 
412.000000	 47.187447 
411.000000	 46.678137 
410.000000	 45.985293 
409.000000	 45.186066 
408.000000	 44.372892 
407.000000	 43.640494 
406.000000	 43.066811 
405.000000	 42.699408 
404.000000	 42.554116 
403.000000	 42.603516 
402.000000	 42.807626 
401.000000	 43.134331 
400.000000	 43.559813 
399.000000	 44.071149 
398.000000	 44.654870 
397.000000	 45.270419 
396.000000	 45.884275 
395.000000	 46.448063 
394.000000	 46.987795 
393.000000	 47.595477 
392.000000	 48.419809 
391.000000	 49.611759 
390.000000	 51.190829 
389.000000	 53.004479 
388.000000	 54.686331 
387.000000	 55.750131 
386.000000	 55.742812 
385.000000	 54.377818 
384.000000	 51.707887 
383.000000	 48.083448 
382.000000	 44.063615 
381.000000	 40.266966 
380.000000	 37.180876 
379.000000	 35.077071 
378.000000	 33.979678 
377.000000	 33.680748 
376.000000	 33.869338 
375.000000	 34.189271 
374.000000	 34.323787 
373.000000	 34.099555 
372.000000	 33.499169 
371.000000	 32.664561 
370.000000	 31.797957 

