PE IR       SPECTRUM    SPECTRUM    ASCII       PEDS        1.60        
  -1
C-9964~1.ASC
17/03/27
14:40:11.00
17/03/27
14:40:11.00
tln
$C-4040-8_t0002$<tbV0>[10.4,-13.0,8.0,0.0,27,1,0]
370.000000
64









2002,4.07    
MIRTGS : RIGHTBACK : INTERNAL 2
MIR : ON : INTERNAL 2
OPTKBR

0.200000
8
8.000000
FILLER
RATIO
SPECTRUM
UNLOCKED 256

DOUBLE
64
COMBINED
1
0
0


1.000000
RATIO


1
0
TRUE
51149
0
LEFT NOT FITTED RIGHT NOT FITTED 0
NONE
NONE
15600
12.000000
4.427000
51148
TRUE
1 0 8 72 0 0 0 0 

15798.010000






#HDR
-1
-1
#GR
CM-1
%T
0.00002384185791015625
0.0
5000.000000
-1.000000
4631
8
69.806289
-0.657820
#DATA
5000.000000	63.305997 
4999.000000	63.245749 
4998.000000	63.188886 
4997.000000	63.138890 
4996.000000	63.105821 
4995.000000	63.103270 
4994.000000	63.144564 
4993.000000	63.235330 
4992.000000	63.373231 
4991.000000	63.546848 
4990.000000	63.736557 
4989.000000	63.917756 
4988.000000	64.066219 
4987.000000	64.163422 
4986.000000	64.199018 
4985.000000	64.172649 
4984.000000	64.092993 
4983.000000	63.975071 
4982.000000	63.836383 
4981.000000	63.693094 
4980.000000	63.557052 
4979.000000	63.434958 
4978.000000	63.329482 
4977.000000	63.241457 
4976.000000	63.173270 
4975.000000	63.129067 
4974.000000	63.115000 
4973.000000	63.136029 
4972.000000	63.193154 
4971.000000	63.280177 
4970.000000	63.382649 
4969.000000	63.479709 
4968.000000	63.546800 
4967.000000	63.561964 
4966.000000	63.511538 
4965.000000	63.393688 
4964.000000	63.219451 
4963.000000	63.010501 
4962.000000	62.794852 
4961.000000	62.599778 
4960.000000	62.445902 
4959.000000	62.343883 
4958.000000	62.292814 
4957.000000	62.285900 
4956.000000	62.313818 
4955.000000	62.367892 
4954.000000	62.441802 
4953.000000	62.529969 
4952.000000	62.626338 
4951.000000	62.720727 
4950.000000	62.799763 
4949.000000	62.847018 
4948.000000	62.847709 
4947.000000	62.793922 
4946.000000	62.687158 
4945.000000	62.538075 
4944.000000	62.366724 
4943.000000	62.198567 
4942.000000	62.060642 
4941.000000	61.975383 
4940.000000	61.957812 
4939.000000	62.013292 
4938.000000	62.136006 
4937.000000	62.311244 
4936.000000	62.516260 
4935.000000	62.725472 
4934.000000	62.911486 
4933.000000	63.049173 
4932.000000	63.118815 
4931.000000	63.108921 
4930.000000	63.018727 
4929.000000	62.858200 
4928.000000	62.648320 
4927.000000	62.417411 
4926.000000	62.195730 
4925.000000	62.010598 
4924.000000	61.881422 
4923.000000	61.818337 
4922.000000	61.821985 
4921.000000	61.886239 
4920.000000	62.000155 
4919.000000	62.152099 
4918.000000	62.331056 
4917.000000	62.528443 
4916.000000	62.735223 
4915.000000	62.943911 
4914.000000	63.144969 
4913.000000	63.329482 
4912.000000	63.488793 
4911.000000	63.616657 
4910.000000	63.710737 
4909.000000	63.772749 
4908.000000	63.810467 
4907.000000	63.831853 
4906.000000	63.844370 
4905.000000	63.851118 
4904.000000	63.850998 
4903.000000	63.839745 
4902.000000	63.812613 
4901.000000	63.767004 
4900.000000	63.704490 
4899.000000	63.632011 
4898.000000	63.560247 
4897.000000	63.500571 
4896.000000	63.461947 
4895.000000	63.447952 
4894.000000	63.455939 
4893.000000	63.477754 
4892.000000	63.502573 
4891.000000	63.519811 
4890.000000	63.522672 
4889.000000	63.509249 
4888.000000	63.483834 
4887.000000	63.454771 
4886.000000	63.432979 
4885.000000	63.426423 
4884.000000	63.440871 
4883.000000	63.478064 
4882.000000	63.536286 
4881.000000	63.610982 
4880.000000	63.696026 
4879.000000	63.785576 
4878.000000	63.873267 
4877.000000	63.952946 
4876.000000	64.017462 
4875.000000	64.058899 
4874.000000	64.069223 
4873.000000	64.041924 
4872.000000	63.973641 
4871.000000	63.865637 
4870.000000	63.725328 
4869.000000	63.564991 
4868.000000	63.400101 
4867.000000	63.246178 
4866.000000	63.116478 
4865.000000	63.020038 
4864.000000	62.960410 
4863.000000	62.936329 
4862.000000	62.942337 
4861.000000	62.971282 
4860.000000	63.015198 
4859.000000	63.067674 
4858.000000	63.122439 
4857.000000	63.175988 
4856.000000	63.225960 
4855.000000	63.272356 
4854.000000	63.315629 
4853.000000	63.357806 
4852.000000	63.401269 
4851.000000	63.448309 
4850.000000	63.500308 
4849.000000	63.556742 
4848.000000	63.615107 
4847.000000	63.670444 
4846.000000	63.716506 
4845.000000	63.748311 
4844.000000	63.763117 
4843.000000	63.761854 
4842.000000	63.748288 
4841.000000	63.728547 
4840.000000	63.708376 
4839.000000	63.692212 
4838.000000	63.680958 
4837.000000	63.672065 
4836.000000	63.660025 
4835.000000	63.639545 
4834.000000	63.606452 
4833.000000	63.559198 
4832.000000	63.499879 
4831.000000	63.434052 
4830.000000	63.369369 
4829.000000	63.313221 
4828.000000	63.271331 
4827.000000	63.246035 
4826.000000	63.236594 
4825.000000	63.239765 
4824.000000	63.250565 
4823.000000	63.263654 
4822.000000	63.273692 
4821.000000	63.276171 
4820.000000	63.267064 
4819.000000	63.243269 
4818.000000	63.202977 
4817.000000	63.146114 
4816.000000	63.074588 
4815.000000	62.992453 
4814.000000	62.905716 
4813.000000	62.821793 
4812.000000	62.748193 
4811.000000	62.691497 
4810.000000	62.656354 
4809.000000	62.645173 
4808.000000	62.657284 
4807.000000	62.690019 
4806.000000	62.738728 
4805.000000	62.798070 
4804.000000	62.862396 
4803.000000	62.926888 
4802.000000	62.987184 
4801.000000	63.040423 
4800.000000	63.084435 
4799.000000	63.118648 
4798.000000	63.143205 
4797.000000	63.159704 
4796.000000	63.170623 
4795.000000	63.178610 
4794.000000	63.185930 
4793.000000	63.193750 
4792.000000	63.201832 
4791.000000	63.208508 
4790.000000	63.211274 
4789.000000	63.207435 
4788.000000	63.195109 
4787.000000	63.173842 
4786.000000	63.144993 
4785.000000	63.111996 
4784.000000	63.079285 
4783.000000	63.051056 
4782.000000	63.030195 
4781.000000	63.018012 
4780.000000	63.013482 
4779.000000	63.013410 
4778.000000	63.013577 
4777.000000	63.010048 
4776.000000	63.000249 
4775.000000	62.983822 
4774.000000	62.962317 
4773.000000	62.938427 
4772.000000	62.915062 
4771.000000	62.894153 
4770.000000	62.875580 
4769.000000	62.857222 
4768.000000	62.835407 
4767.000000	62.806272 
4766.000000	62.767148 
4765.000000	62.717962 
4764.000000	62.661767 
4763.000000	62.604665 
4762.000000	62.554144 
4761.000000	62.517881 
4760.000000	62.501478 
4759.000000	62.507915 
4758.000000	62.536072 
4757.000000	62.582087 
4756.000000	62.640190 
4755.000000	62.704229 
4754.000000	62.768673 
4753.000000	62.829351 
4752.000000	62.883496 
4751.000000	62.929391 
4750.000000	62.965273 
4749.000000	62.989735 
4748.000000	63.001394 
4747.000000	62.999773 
4746.000000	62.985801 
4745.000000	62.962508 
4744.000000	62.935137 
4743.000000	62.910270 
4742.000000	62.894988 
4741.000000	62.894487 
4740.000000	62.911081 
4739.000000	62.943410 
4738.000000	62.986683 
4737.000000	63.033342 
4736.000000	63.075017 
4735.000000	63.104867 
4734.000000	63.118696 
4733.000000	63.115668 
4732.000000	63.097715 
4731.000000	63.069033 
4730.000000	63.033938 
4729.000000	62.995672 
4728.000000	62.955212 
4727.000000	62.911868 
4726.000000	62.863779 
4725.000000	62.809681 
4724.000000	62.749505 
4723.000000	62.685441 
4722.000000	62.621545 
4721.000000	62.563037 
4720.000000	62.515115 
4719.000000	62.480950 
4718.000000	62.462019 
4717.000000	62.457275 
4716.000000	62.464404 
4715.000000	62.480235 
4714.000000	62.502336 
4713.000000	62.529468 
4712.000000	62.561869 
4711.000000	62.600731 
4710.000000	62.646985 
4709.000000	62.700772 
4708.000000	62.760639 
4707.000000	62.823581 
4706.000000	62.885785 
4705.000000	62.943172 
4704.000000	62.992477 
4703.000000	63.031411 
4702.000000	63.059306 
4701.000000	63.076567 
4700.000000	63.084292 
4699.000000	63.084173 
4698.000000	63.078141 
4697.000000	63.068294 
4696.000000	63.057303 
4695.000000	63.047528 
4694.000000	63.041520 
4693.000000	63.040900 
4692.000000	63.046598 
4691.000000	63.057994 
4690.000000	63.073134 
4689.000000	63.089394 
4688.000000	63.104224 
4687.000000	63.116073 
4686.000000	63.124680 
4685.000000	63.131642 
4684.000000	63.139677 
4683.000000	63.151407 
4682.000000	63.168215 
4681.000000	63.189268 
4680.000000	63.211321 
4679.000000	63.229393 
4678.000000	63.238024 
4677.000000	63.232898 
4676.000000	63.212108 
4675.000000	63.177061 
4674.000000	63.131880 
4673.000000	63.082551 
4672.000000	63.035297 
4671.000000	62.995028 
4670.000000	62.964487 
4669.000000	62.943649 
4668.000000	62.930536 
4667.000000	62.922072 
4666.000000	62.915658 
4665.000000	62.910032 
4664.000000	62.905812 
4663.000000	62.905097 
4662.000000	62.910485 
4661.000000	62.923812 
4660.000000	62.945532 
4659.000000	62.974071 
4658.000000	63.006424 
4657.000000	63.039016 
4656.000000	63.068938 
4655.000000	63.094830 
4654.000000	63.117265 
4653.000000	63.138365 
4652.000000	63.160610 
4651.000000	63.186025 
4650.000000	63.214874 
4649.000000	63.245701 
4648.000000	63.275766 
4647.000000	63.302135 
4646.000000	63.322710 
4645.000000	63.337159 
4644.000000	63.347458 
4643.000000	63.356971 
4642.000000	63.369870 
4641.000000	63.389325 
4640.000000	63.416194 
4639.000000	63.448810 
4638.000000	63.483333 
4637.000000	63.514876 
4636.000000	63.539075 
4635.000000	63.553214 
4634.000000	63.557195 
4633.000000	63.553071 
4632.000000	63.544511 
4631.000000	63.535284 
4630.000000	63.528108 
4629.000000	63.524508 
4628.000000	63.524460 
4627.000000	63.527131 
4626.000000	63.531088 
4625.000000	63.535356 
4624.000000	63.539028 
4623.000000	63.541221 
4622.000000	63.541269 
4621.000000	63.538169 
4620.000000	63.531255 
4619.000000	63.519692 
4618.000000	63.503479 
4617.000000	63.483691 
4616.000000	63.462686 
4615.000000	63.444161 
4614.000000	63.432192 
4613.000000	63.430309 
4612.000000	63.440227 
4611.000000	63.461375 
4610.000000	63.490414 
4609.000000	63.521647 
4608.000000	63.548469 
4607.000000	63.564968 
4606.000000	63.567256 
4605.000000	63.554644 
4604.000000	63.529515 
4603.000000	63.496494 
4602.000000	63.461542 
4601.000000	63.430047 
4600.000000	63.405466 
4599.000000	63.388299 
4598.000000	63.376259 
4597.000000	63.365268 
4596.000000	63.350677 
4595.000000	63.329815 
4594.000000	63.302564 
4593.000000	63.272619 
4592.000000	63.246107 
4591.000000	63.230562 
4590.000000	63.232159 
4589.000000	63.254880 
4588.000000	63.298535 
4587.000000	63.359975 
4586.000000	63.433480 
4585.000000	63.512325 
4584.000000	63.590669 
4583.000000	63.663721 
4582.000000	63.728690 
4581.000000	63.783383 
4580.000000	63.826107 
4579.000000	63.854169 
4578.000000	63.864064 
4577.000000	63.852262 
4576.000000	63.816428 
4575.000000	63.756871 
4574.000000	63.677287 
4573.000000	63.585162 
4572.000000	63.490390 
4571.000000	63.403367 
4570.000000	63.333201 
4569.000000	63.285136 
4568.000000	63.260841 
4567.000000	63.258433 
4566.000000	63.274264 
4565.000000	63.303518 
4564.000000	63.342165 
4563.000000	63.387608 
4562.000000	63.438105 
4561.000000	63.491415 
4560.000000	63.544368 
4559.000000	63.591694 
4558.000000	63.627266 
4557.000000	63.644719 
4556.000000	63.640141 
4555.000000	63.613367 
4554.000000	63.569283 
4553.000000	63.517546 
4552.000000	63.469958 
4551.000000	63.437867 
4550.000000	63.429164 
4549.000000	63.445997 
4548.000000	63.484549 
4547.000000	63.535642 
4546.000000	63.587689 
4545.000000	63.628506 
4544.000000	63.648223 
4543.000000	63.640379 
4542.000000	63.603019 
4541.000000	63.538002 
4540.000000	63.449573 
4539.000000	63.343572 
4538.000000	63.226628 
4537.000000	63.105392 
4536.000000	62.985944 
4535.000000	62.874388 
4534.000000	62.776780 
4533.000000	62.699437 
4532.000000	62.647891 
4531.000000	62.626838 
4530.000000	62.638401 
4529.000000	62.682628 
4528.000000	62.756466 
4527.000000	62.854480 
4526.000000	62.968969 
4525.000000	63.090729 
4524.000000	63.209939 
4523.000000	63.316965 
4522.000000	63.403487 
4521.000000	63.463425 
4520.000000	63.493728 
4519.000000	63.494873 
4518.000000	63.470435 
4517.000000	63.426327 
4516.000000	63.370060 
4515.000000	63.309669 
4514.000000	63.253188 
4513.000000	63.208603 
4512.000000	63.182353 
4511.000000	63.179612 
4510.000000	63.202667 
4509.000000	63.249802 
4508.000000	63.316321 
4507.000000	63.394474 
4506.000000	63.476324 
4505.000000	63.554763 
4504.000000	63.625383 
4503.000000	63.686847 
4502.000000	63.740229 
4501.000000	63.787508 
4500.000000	63.830232 
4499.000000	63.868284 
4498.000000	63.899374 
4497.000000	63.919448 
4496.000000	63.924503 
4495.000000	63.911890 
4494.000000	63.881969 
4493.000000	63.838100 
4492.000000	63.786172 
4491.000000	63.733148 
4490.000000	63.684344 
4489.000000	63.643383 
4488.000000	63.611197 
4487.000000	63.588166 
4486.000000	63.574504 
4485.000000	63.571262 
4484.000000	63.583660 
4483.000000	63.615131 
4482.000000	63.664221 
4481.000000	63.723993 
4480.000000	63.783359 
4479.000000	63.827610 
4478.000000	63.839769 
4477.000000	63.808178 
4476.000000	63.730192 
4475.000000	63.614511 
4474.000000	63.479971 
4473.000000	63.350820 
4472.000000	63.250327 
4471.000000	63.196706 
4470.000000	63.199424 
4469.000000	63.254356 
4468.000000	63.345885 
4467.000000	63.456368 
4466.000000	63.570904 
4465.000000	63.677644 
4464.000000	63.772416 
4463.000000	63.856053 
4462.000000	63.936996 
4461.000000	64.023518 
4460.000000	64.128541 
4459.000000	64.264249 
4458.000000	64.447546 
4457.000000	64.686918 
4456.000000	64.993500 
4455.000000	65.391111 
4454.000000	65.895318 
4453.000000	66.499829 
4452.000000	67.177844 
4451.000000	67.888808 
4450.000000	68.572640 
4449.000000	69.161486 
4448.000000	69.589233 
4447.000000	69.806289 
4446.000000	69.788384 
4445.000000	69.547462 
4444.000000	69.103479 
4443.000000	68.479704 
4442.000000	67.699003 
4441.000000	66.787123 
4440.000000	65.768647 
4439.000000	64.680695 
4438.000000	63.593530 
4437.000000	62.602877 
4436.000000	61.832141 
4435.000000	61.381816 
4434.000000	61.327481 
4433.000000	61.642932 
4432.000000	62.200880 
4431.000000	62.751722 
4430.000000	62.974691 
4429.000000	62.537622 
4428.000000	61.170387 
4427.000000	58.757305 
4426.000000	55.365824 
4425.000000	51.284885 
4424.000000	46.959686 
4423.000000	42.940521 
4422.000000	39.750194 
4421.000000	37.815999 
4420.000000	37.376213 
4419.000000	38.454151 
4418.000000	40.857005 
4417.000000	44.235754 
4416.000000	48.159337 
4415.000000	52.189660 
4414.000000	55.956077 
4413.000000	59.194040 
4412.000000	61.769080 
4411.000000	63.655996 
4410.000000	64.915990 
4409.000000	65.658330 
4408.000000	65.999841 
4407.000000	66.070628 
4406.000000	65.964412 
4405.000000	65.763592 
4404.000000	65.505743 
4403.000000	65.237259 
4402.000000	64.976191 
4401.000000	64.740395 
4400.000000	64.533877 
4399.000000	64.362978 
4398.000000	64.228773 
4397.000000	64.128541 
4396.000000	64.060068 
4395.000000	64.023590 
4394.000000	64.018487 
4393.000000	64.038062 
4392.000000	64.078855 
4391.000000	64.141058 
4390.000000	64.220190 
4389.000000	64.305782 
4388.000000	64.387893 
4387.000000	64.456987 
4386.000000	64.509916 
4385.000000	64.548969 
4384.000000	64.568710 
4383.000000	64.559626 
4382.000000	64.524531 
4381.000000	64.471459 
4380.000000	64.402866 
4379.000000	64.319920 
4378.000000	64.229178 
4377.000000	64.137315 
4376.000000	64.049267 
4375.000000	63.968777 
4374.000000	63.898682 
4373.000000	63.840794 
4372.000000	63.796067 
4371.000000	63.765048 
4370.000000	63.746857 
4369.000000	63.740897 
4368.000000	63.746333 
4367.000000	63.762855 
4366.000000	63.789725 
4365.000000	63.826656 
4364.000000	63.873004 
4363.000000	63.927912 
4362.000000	63.989853 
4361.000000	64.056611 
4360.000000	64.125180 
4359.000000	64.192485 
4358.000000	64.255499 
4357.000000	64.311456 
4356.000000	64.357662 
4355.000000	64.392399 
4354.000000	64.413881 
4353.000000	64.421343 
4352.000000	64.413666 
4351.000000	64.390301 
4350.000000	64.350223 
4349.000000	64.293885 
4348.000000	64.221715 
4347.000000	64.135551 
4346.000000	64.037680 
4345.000000	63.932061 
4344.000000	63.823008 
4343.000000	63.715171 
4342.000000	63.613200 
4341.000000	63.521218 
4340.000000	63.443064 
4339.000000	63.381695 
4338.000000	63.338899 
4337.000000	63.314819 
4336.000000	63.307523 
4335.000000	63.313198 
4334.000000	63.325810 
4333.000000	63.338398 
4332.000000	63.344573 
4331.000000	63.340353 
4330.000000	63.324451 
4329.000000	63.299250 
4328.000000	63.270497 
4327.000000	63.245654 
4326.000000	63.231801 
4325.000000	63.233661 
4324.000000	63.252258 
4323.000000	63.284349 
4322.000000	63.323259 
4321.000000	63.360285 
4320.000000	63.387060 
4319.000000	63.397502 
4318.000000	63.389444 
4317.000000	63.364672 
4316.000000	63.327813 
4315.000000	63.285255 
4314.000000	63.243150 
4313.000000	63.205885 
4312.000000	63.175034 
4311.000000	63.150048 
4310.000000	63.129186 
4309.000000	63.110065 
4308.000000	63.090968 
4307.000000	63.071393 
4306.000000	63.052296 
4305.000000	63.035202 
4304.000000	63.021588 
4303.000000	63.012075 
4302.000000	63.006353 
4301.000000	63.003039 
4300.000000	63.000535 
4299.000000	62.997555 
4298.000000	62.993526 
4297.000000	62.989377 
4296.000000	62.986564 
4295.000000	62.986683 
4294.000000	62.990355 
4293.000000	62.996625 
4292.000000	63.002729 
4291.000000	63.004732 
4290.000000	62.998342 
4289.000000	62.980341 
4288.000000	62.949681 
4287.000000	62.908172 
4286.000000	62.860059 
4285.000000	62.811112 
4284.000000	62.767529 
4283.000000	62.734508 
4282.000000	62.715172 
4281.000000	62.709975 
4280.000000	62.717247 
4279.000000	62.733864 
4278.000000	62.756228 
4277.000000	62.781023 
4276.000000	62.805557 
4275.000000	62.827849 
4274.000000	62.846088 
4273.000000	62.858366 
4272.000000	62.862253 
4271.000000	62.855434 
4270.000000	62.835812 
4269.000000	62.802743 
4268.000000	62.757635 
4267.000000	62.704062 
4266.000000	62.647700 
4265.000000	62.595319 
4264.000000	62.553405 
4263.000000	62.527036 
4262.000000	62.518835 
4261.000000	62.528681 
4260.000000	62.553524 
4259.000000	62.588572 
4258.000000	62.628245 
4257.000000	62.667202 
4256.000000	62.701225 
4255.000000	62.727379 
4254.000000	62.743949 
4253.000000	62.750315 
4252.000000	62.746596 
4251.000000	62.733197 
4250.000000	62.710785 
4249.000000	62.680768 
4248.000000	62.645125 
4247.000000	62.606859 
4246.000000	62.569260 
4245.000000	62.535977 
4244.000000	62.509751 
4243.000000	62.492442 
4242.000000	62.484192 
4241.000000	62.483596 
4240.000000	62.487602 
4239.000000	62.492346 
4238.000000	62.493896 
4237.000000	62.489175 
4236.000000	62.476587 
4235.000000	62.455821 
4234.000000	62.428307 
4233.000000	62.396478 
4232.000000	62.363696 
4231.000000	62.333035 
4230.000000	62.307500 
4229.000000	62.289285 
4228.000000	62.280011 
4227.000000	62.280344 
4226.000000	62.290239 
4225.000000	62.308502 
4224.000000	62.333345 
4223.000000	62.362241 
4222.000000	62.391519 
4221.000000	62.416696 
4220.000000	62.433195 
4219.000000	62.437081 
4218.000000	62.425422 
4217.000000	62.397599 
4216.000000	62.355327 
4215.000000	62.303137 
4214.000000	62.247991 
4213.000000	62.197923 
4212.000000	62.160730 
4211.000000	62.142324 
4210.000000	62.145805 
4209.000000	62.170505 
4208.000000	62.212038 
4207.000000	62.263560 
4206.000000	62.316989 
4205.000000	62.365341 
4204.000000	62.404012 
4203.000000	62.431597 
4202.000000	62.449359 
4201.000000	62.460207 
4200.000000	62.466907 
4199.000000	62.470602 
4198.000000	62.469601 
4197.000000	62.458920 
4196.000000	62.431502 
4195.000000	62.380623 
4194.000000	62.302494 
4193.000000	62.197780 
4192.000000	62.072896 
4191.000000	61.939740 
4190.000000	61.813616 
4189.000000	61.709713 
4188.000000	61.640477 
4187.000000	61.612558 
4186.000000	61.625885 
4185.000000	61.673784 
4184.000000	61.744523 
4183.000000	61.824059 
4182.000000	61.898088 
4181.000000	61.954927 
4180.000000	61.986422 
4179.000000	61.988377 
4178.000000	61.960864 
4177.000000	61.906814 
4176.000000	61.831927 
4175.000000	61.743330 
4174.000000	61.649870 
4173.000000	61.561322 
4172.000000	61.487483 
4171.000000	61.437273 
4170.000000	61.417317 
4169.000000	61.431217 
4168.000000	61.478376 
4167.000000	61.554503 
4166.000000	61.651825 
4165.000000	61.761140 
4164.000000	61.873126 
4163.000000	61.979937 
4162.000000	62.075471 
4161.000000	62.155675 
4160.000000	62.218570 
4159.000000	62.263178 
4158.000000	62.288260 
4157.000000	62.292599 
4156.000000	62.275934 
4155.000000	62.238883 
4154.000000	62.184381 
4153.000000	62.117123 
4152.000000	62.044596 
4151.000000	61.974382 
4150.000000	61.913466 
4149.000000	61.866068 
4148.000000	61.833024 
4147.000000	61.812114 
4146.000000	61.799240 
4145.000000	61.789989 
4144.000000	61.781501 
4143.000000	61.773133 
4142.000000	61.767005 
4141.000000	61.766862 
4140.000000	61.777353 
4139.000000	61.802268 
4138.000000	61.843323 
4137.000000	61.899495 
4136.000000	61.966586 
4135.000000	62.038207 
4134.000000	62.106680 
4133.000000	62.164306 
4132.000000	62.205123 
4131.000000	62.226033 
4130.000000	62.227249 
4129.000000	62.211608 
4128.000000	62.184286 
4127.000000	62.151551 
4126.000000	62.119555 
4125.000000	62.093567 
4124.000000	62.076759 
4123.000000	62.070417 
4122.000000	62.073779 
4121.000000	62.085008 
4120.000000	62.100958 
4119.000000	62.118124 
4118.000000	62.133288 
4117.000000	62.143898 
4116.000000	62.148451 
4115.000000	62.146711 
4114.000000	62.139654 
4113.000000	62.129426 
4112.000000	62.118816 
4111.000000	62.110781 
4110.000000	62.107992 
4109.000000	62.112259 
4108.000000	62.124252 
4107.000000	62.143111 
4106.000000	62.166690 
4105.000000	62.191557 
4104.000000	62.214064 
4103.000000	62.230634 
4102.000000	62.238216 
4101.000000	62.235474 
4100.000000	62.223482 
4099.000000	62.205171 
4098.000000	62.184977 
4097.000000	62.167572 
4096.000000	62.156891 
4095.000000	62.155008 
4094.000000	62.161827 
4093.000000	62.174749 
4092.000000	62.189602 
4091.000000	62.201714 
4090.000000	62.207484 
4089.000000	62.205171 
4088.000000	62.195611 
4087.000000	62.181973 
4086.000000	62.168955 
4085.000000	62.161684 
4084.000000	62.163996 
4083.000000	62.177848 
4082.000000	62.201833 
4081.000000	62.232375 
4080.000000	62.263441 
4079.000000	62.288665 
4078.000000	62.301993 
4077.000000	62.299203 
4076.000000	62.278628 
4075.000000	62.241125 
4074.000000	62.190461 
4073.000000	62.132263 
4072.000000	62.073349 
4071.000000	62.020277 
4070.000000	61.978578 
4069.000000	61.951947 
4068.000000	61.941909 
4067.000000	61.947965 
4066.000000	61.967992 
4065.000000	61.998820 
4064.000000	62.036848 
4063.000000	62.078547 
4062.000000	62.120509 
4061.000000	62.159800 
4060.000000	62.193751 
4059.000000	62.220072 
4058.000000	62.236905 
4057.000000	62.243175 
4056.000000	62.238788 
4055.000000	62.224841 
4054.000000	62.203860 
4053.000000	62.179112 
4052.000000	62.154603 
4051.000000	62.133646 
4050.000000	62.118458 
4049.000000	62.109589 
4048.000000	62.105703 
4047.000000	62.104368 
4046.000000	62.102866 
4045.000000	62.099170 
4044.000000	62.092518 
4043.000000	62.083721 
4042.000000	62.074804 
4041.000000	62.068414 
4040.000000	62.067127 
4039.000000	62.072396 
4038.000000	62.084221 
4037.000000	62.101292 
4036.000000	62.121462 
4035.000000	62.142539 
4034.000000	62.162756 
4033.000000	62.181115 
4032.000000	62.197422 
4031.000000	62.212038 
4030.000000	62.225246 
4029.000000	62.236833 
4028.000000	62.245774 
4027.000000	62.250542 
4026.000000	62.249398 
4025.000000	62.241339 
4024.000000	62.226152 
4023.000000	62.204790 
4022.000000	62.179160 
4021.000000	62.151956 
4020.000000	62.126016 
4019.000000	62.103700 
4018.000000	62.086772 
4017.000000	62.075948 
4016.000000	62.071299 
4015.000000	62.072610 
4014.000000	62.079310 
4013.000000	62.090468 
4012.000000	62.105059 
4011.000000	62.121891 
4010.000000	62.139201 
4009.000000	62.154912 
4008.000000	62.167024 
4007.000000	62.174272 
4006.000000	62.176251 
4005.000000	62.173891 
4004.000000	62.169456 
4003.000000	62.166213 
4002.000000	62.167739 
4001.000000	62.176847 
4000.000000	62.195301 
3999.000000	62.222909 
3998.000000	62.257957 
3997.000000	62.296819 
3996.000000	62.335395 
3995.000000	62.368726 
3994.000000	62.393116 
3993.000000	62.405300 
3992.000000	62.403345 
3991.000000	62.386250 
3990.000000	62.354278 
3989.000000	62.308382 
3988.000000	62.250399 
3987.000000	62.182807 
3986.000000	62.109160 
3985.000000	62.033319 
3984.000000	61.959433 
3983.000000	61.891555 
3982.000000	61.833333 
3981.000000	61.787557 
3980.000000	61.756110 
3979.000000	61.739277 
3978.000000	61.736249 
3977.000000	61.744880 
3976.000000	61.762595 
3975.000000	61.786079 
3974.000000	61.812543 
3973.000000	61.839747 
3972.000000	61.866736 
3971.000000	61.893224 
3970.000000	61.919617 
3969.000000	61.946606 
3968.000000	61.974716 
3967.000000	62.003660 
3966.000000	62.032365 
3965.000000	62.059211 
3964.000000	62.082171 
3963.000000	62.099528 
3962.000000	62.110304 
3961.000000	62.114644 
3960.000000	62.113881 
3959.000000	62.110447 
3958.000000	62.106728 
3957.000000	62.104511 
3956.000000	62.104868 
3955.000000	62.107992 
3954.000000	62.113142 
3953.000000	62.118959 
3952.000000	62.124538 
3951.000000	62.129354 
3950.000000	62.133073 
3949.000000	62.135434 
3948.000000	62.136268 
3947.000000	62.135195 
3946.000000	62.131381 
3945.000000	62.123656 
3944.000000	62.111186 
3943.000000	62.093281 
3942.000000	62.070298 
3941.000000	62.043285 
3940.000000	62.013816 
3939.000000	61.983990 
3938.000000	61.955857 
3937.000000	61.931419 
3936.000000	61.912035 
3935.000000	61.899113 
3934.000000	61.893796 
3933.000000	61.896944 
3932.000000	61.909103 
3931.000000	61.930012 
3930.000000	61.958479 
3929.000000	61.991763 
3928.000000	62.026119 
3927.000000	62.057256 
3926.000000	62.081527 
3925.000000	62.096500 
3924.000000	62.101960 
3923.000000	62.099909 
3922.000000	62.094235 
3921.000000	62.089586 
3920.000000	62.089753 
3919.000000	62.097334 
3918.000000	62.112259 
3917.000000	62.132024 
3916.000000	62.152504 
3915.000000	62.169027 
3914.000000	62.178063 
3913.000000	62.178134 
3912.000000	62.170481 
3911.000000	62.158775 
3910.000000	62.148308 
3909.000000	62.144327 
3908.000000	62.150359 
3907.000000	62.167263 
3906.000000	62.193012 
3905.000000	62.223243 
3904.000000	62.252187 
3903.000000	62.273931 
3902.000000	62.284064 
3901.000000	62.280488 
3900.000000	62.263464 
3899.000000	62.235212 
3898.000000	62.198877 
3897.000000	62.157583 
3896.000000	62.113714 
3895.000000	62.068462 
3894.000000	62.022161 
3893.000000	61.974740 
3892.000000	61.926484 
3891.000000	61.878347 
3890.000000	61.832141 
3889.000000	61.790204 
3888.000000	61.754322 
3887.000000	61.725878 
3886.000000	61.704468 
3885.000000	61.689376 
3884.000000	61.679244 
3883.000000	61.673569 
3882.000000	61.672282 
3881.000000	61.676836 
3880.000000	61.689424 
3879.000000	61.712217 
3878.000000	61.746335 
3877.000000	61.790895 
3876.000000	61.842536 
3875.000000	61.896157 
3874.000000	61.945581 
3873.000000	61.985349 
3872.000000	62.011790 
3871.000000	62.024164 
3870.000000	62.024426 
3869.000000	62.016677 
3868.000000	62.005591 
3867.000000	61.995553 
3866.000000	61.988997 
3865.000000	61.986446 
3864.000000	61.986112 
3863.000000	61.985707 
3862.000000	61.982226 
3861.000000	61.973524 
3860.000000	61.958098 
3859.000000	61.936044 
3858.000000	61.908507 
3857.000000	61.877274 
3856.000000	61.844635 
3855.000000	61.812663 
3854.000000	61.783528 
3853.000000	61.759376 
3852.000000	61.742305 
3851.000000	61.733961 
3850.000000	61.735439 
3849.000000	61.746931 
3848.000000	61.767244 
3847.000000	61.794042 
3846.000000	61.824178 
3845.000000	61.854243 
3844.000000	61.881089 
3843.000000	61.902117 
3842.000000	61.915802 
3841.000000	61.921715 
3840.000000	61.920237 
3839.000000	61.912560 
3838.000000	61.900734 
3837.000000	61.886548 
3836.000000	61.872649 
3835.000000	61.860418 
3834.000000	61.850571 
3833.000000	61.841750 
3832.000000	61.831879 
3831.000000	61.817598 
3830.000000	61.795258 
3829.000000	61.762070 
3828.000000	61.716914 
3827.000000	61.661577 
3826.000000	61.600756 
3825.000000	61.541533 
3824.000000	61.491632 
3823.000000	61.457872 
3822.000000	61.444449 
3821.000000	61.451435 
3820.000000	61.474919 
3819.000000	61.507797 
3818.000000	61.541819 
3817.000000	61.569309 
3816.000000	61.585187 
3815.000000	61.587858 
3814.000000	61.579895 
3813.000000	61.566066 
3812.000000	61.553049 
3811.000000	61.547255 
3810.000000	61.553907 
3809.000000	61.575889 
3808.000000	61.612939 
3807.000000	61.662817 
3806.000000	61.720585 
3805.000000	61.780929 
3804.000000	61.837267 
3803.000000	61.883211 
3802.000000	61.912703 
3801.000000	61.921191 
3800.000000	61.905765 
3799.000000	61.865711 
3798.000000	61.803150 
3797.000000	61.723136 
3796.000000	61.632919 
3795.000000	61.541008 
3794.000000	61.455965 
3793.000000	61.385202 
3792.000000	61.333322 
3791.000000	61.301612 
3790.000000	61.288118 
3789.000000	61.288404 
3788.000000	61.296534 
3787.000000	61.306810 
3786.000000	61.314225 
3785.000000	61.316061 
3784.000000	61.311388 
3783.000000	61.301684 
3782.000000	61.288976 
3781.000000	61.276459 
3780.000000	61.266636 
3779.000000	61.262035 
3778.000000	61.264300 
3777.000000	61.274504 
3776.000000	61.293053 
3775.000000	61.319470 
3774.000000	61.352586 
3773.000000	61.390137 
3772.000000	61.429286 
3771.000000	61.466526 
3770.000000	61.498165 
3769.000000	61.521267 
3768.000000	61.534166 
3767.000000	61.536979 
3766.000000	61.531662 
3765.000000	61.521458 
3764.000000	61.510181 
3763.000000	61.501622 
3762.000000	61.498594 
3761.000000	61.502337 
3760.000000	61.512541 
3759.000000	61.527776 
3758.000000	61.546111 
3757.000000	61.565518 
3756.000000	61.584472 
3755.000000	61.602163 
3754.000000	61.618494 
3753.000000	61.633992 
3752.000000	61.649322 
3751.000000	61.664772 
3750.000000	61.680197 
3749.000000	61.694836 
3748.000000	61.707472 
3747.000000	61.716938 
3746.000000	61.722111 
3745.000000	61.722421 
3744.000000	61.717700 
3743.000000	61.708211 
3742.000000	61.694788 
3741.000000	61.678624 
3740.000000	61.660695 
3739.000000	61.641740 
3738.000000	61.622476 
3737.000000	61.603784 
3736.000000	61.586141 
3735.000000	61.570239 
3734.000000	61.556768 
3733.000000	61.546683 
3732.000000	61.540722 
3731.000000	61.539244 
3730.000000	61.542081 
3729.000000	61.548590 
3728.000000	61.557126 
3727.000000	61.565852 
3726.000000	61.572766 
3725.000000	61.576509 
3724.000000	61.576271 
3723.000000	61.572599 
3722.000000	61.567282 
3721.000000	61.562848 
3720.000000	61.561989 
3719.000000	61.566209 
3718.000000	61.575531 
3717.000000	61.587643 
3716.000000	61.598539 
3715.000000	61.602616 
3714.000000	61.594510 
3713.000000	61.570286 
3712.000000	61.528563 
3711.000000	61.471104 
3710.000000	61.402606 
3709.000000	61.330032 
3708.000000	61.261153 
3707.000000	61.202454 
3706.000000	61.158204 
3705.000000	61.129546 
3704.000000	61.114764 
3703.000000	61.109757 
3702.000000	61.109519 
3701.000000	61.109232 
3700.000000	61.105704 
3699.000000	61.097407 
3698.000000	61.085152 
3697.000000	61.070513 
3696.000000	61.056327 
3695.000000	61.045026 
3694.000000	61.038589 
3693.000000	61.037707 
3692.000000	61.041903 
3691.000000	61.049699 
3690.000000	61.059188 
3689.000000	61.068415 
3688.000000	61.076211 
3687.000000	61.082482 
3686.000000	61.088275 
3685.000000	61.095762 
3684.000000	61.107635 
3683.000000	61.126637 
3682.000000	61.154937 
3681.000000	61.193203 
3680.000000	61.240196 
3679.000000	61.292695 
3678.000000	61.346292 
3677.000000	61.395716 
3676.000000	61.435937 
3675.000000	61.462855 
3674.000000	61.474490 
3673.000000	61.470437 
3672.000000	61.452221 
3671.000000	61.422324 
3670.000000	61.384129 
3669.000000	61.341238 
3668.000000	61.297488 
3667.000000	61.256122 
3666.000000	61.220240 
3665.000000	61.191725 
3664.000000	61.171460 
3663.000000	61.159014 
3662.000000	61.152982 
3661.000000	61.151194 
3660.000000	61.151313 
3659.000000	61.151480 
3658.000000	61.150884 
3657.000000	61.150002 
3656.000000	61.150455 
3655.000000	61.154150 
3654.000000	61.162352 
3653.000000	61.175203 
3652.000000	61.190795 
3651.000000	61.205673 
3650.000000	61.215233 
3649.000000	61.215305 
3648.000000	61.203289 
3647.000000	61.178851 
3646.000000	61.143875 
3645.000000	61.102414 
3644.000000	61.059451 
3643.000000	61.019349 
3642.000000	60.985803 
3641.000000	60.960793 
3640.000000	60.945487 
3639.000000	60.939955 
3638.000000	60.944104 
3637.000000	60.957932 
3636.000000	60.981464 
3635.000000	61.014604 
3634.000000	61.056327 
3633.000000	61.104083 
3632.000000	61.153817 
3631.000000	61.200141 
3630.000000	61.237335 
3629.000000	61.260080 
3628.000000	61.265015 
3627.000000	61.251068 
3626.000000	61.219906 
3625.000000	61.175131 
3624.000000	61.121869 
3623.000000	61.065530 
3622.000000	61.011314 
3621.000000	60.962748 
3620.000000	60.922455 
3619.000000	60.891127 
3618.000000	60.868144 
3617.000000	60.851764 
3616.000000	60.839653 
3615.000000	60.829615 
3614.000000	60.819649 
3613.000000	60.808801 
3612.000000	60.796761 
3611.000000	60.784101 
3610.000000	60.771751 
3609.000000	60.761165 
3608.000000	60.753560 
3607.000000	60.749983 
3606.000000	60.751271 
3605.000000	60.757470 
3604.000000	60.767936 
3603.000000	60.781598 
3602.000000	60.797119 
3601.000000	60.812759 
3600.000000	60.826826 
3599.000000	60.838079 
3598.000000	60.846138 
3597.000000	60.851240 
3596.000000	60.854434 
3595.000000	60.857558 
3594.000000	60.862517 
3593.000000	60.871386 
3592.000000	60.884976 
3591.000000	60.902523 
3590.000000	60.921549 
3589.000000	60.938930 
3588.000000	60.951185 
3587.000000	60.955429 
3586.000000	60.950231 
3585.000000	60.936307 
3584.000000	60.915899 
3583.000000	60.892152 
3582.000000	60.868048 
3581.000000	60.845589 
3580.000000	60.825133 
3579.000000	60.805559 
3578.000000	60.784649 
3577.000000	60.759949 
3576.000000	60.729503 
3575.000000	60.692739 
3574.000000	60.650467 
3573.000000	60.604977 
3572.000000	60.559415 
3571.000000	60.517597 
3570.000000	60.482645 
3569.000000	60.457611 
3568.000000	60.444855 
3567.000000	60.446357 
3566.000000	60.463285 
3565.000000	60.495996 
3564.000000	60.543751 
3563.000000	60.604238 
3562.000000	60.673403 
3561.000000	60.745596 
3560.000000	60.814094 
3559.000000	60.872220 
3558.000000	60.914325 
3557.000000	60.936641 
3556.000000	60.938096 
3555.000000	60.920405 
3554.000000	60.887837 
3553.000000	60.846090 
3552.000000	60.801124 
3551.000000	60.758185 
3550.000000	60.721015 
3549.000000	60.691404 
3548.000000	60.669374 
3547.000000	60.653758 
3546.000000	60.642647 
3545.000000	60.633873 
3544.000000	60.625696 
3543.000000	60.616660 
3542.000000	60.606241 
3541.000000	60.594415 
3540.000000	60.581755 
3539.000000	60.569095 
3538.000000	60.557341 
3537.000000	60.547089 
3536.000000	60.538792 
3535.000000	60.532379 
3534.000000	60.528039 
3533.000000	60.526180 
3532.000000	60.527515 
3531.000000	60.532784 
3530.000000	60.542559 
3529.000000	60.557031 
3528.000000	60.575008 
3527.000000	60.594248 
3526.000000	60.611724 
3525.000000	60.624098 
3524.000000	60.628581 
3523.000000	60.623574 
3522.000000	60.608887 
3521.000000	60.586023 
3520.000000	60.557770 
3519.000000	60.527586 
3518.000000	60.498452 
3517.000000	60.472249 
3516.000000	60.449695 
3515.000000	60.430264 
3514.000000	60.412526 
3513.000000	60.394811 
3512.000000	60.376024 
3511.000000	60.356259 
3510.000000	60.336494 
3509.000000	60.318684 
3508.000000	60.304903 
3507.000000	60.296988 
3506.000000	60.295534 
3505.000000	60.299992 
3504.000000	60.308337 
3503.000000	60.318183 
3502.000000	60.327243 
3501.000000	60.334062 
3500.000000	60.338044 
3499.000000	60.339736 
3498.000000	60.340595 
3497.000000	60.342192 
3496.000000	60.345602 
3495.000000	60.351371 
3494.000000	60.359549 
3493.000000	60.369634 
3492.000000	60.380911 
3491.000000	60.392856 
3490.000000	60.405182 
3489.000000	60.417962 
3488.000000	60.431742 
3487.000000	60.447072 
3486.000000	60.464596 
3485.000000	60.484814 
3484.000000	60.507726 
3483.000000	60.532999 
3482.000000	60.559511 
3481.000000	60.585904 
3480.000000	60.609769 
3479.000000	60.628867 
3478.000000	60.640215 
3477.000000	60.641503 
3476.000000	60.630631 
3475.000000	60.606551 
3474.000000	60.569429 
3473.000000	60.521006 
3472.000000	60.464453 
3471.000000	60.403990 
3470.000000	60.344386 
3469.000000	60.290527 
3468.000000	60.246849 
3467.000000	60.216736 
3466.000000	60.202169 
3465.000000	60.203361 
3464.000000	60.218930 
3463.000000	60.245990 
3462.000000	60.280251 
3461.000000	60.317087 
3460.000000	60.351920 
3459.000000	60.380601 
3458.000000	60.399794 
3457.000000	60.407209 
3456.000000	60.402011 
3455.000000	60.384464 
3454.000000	60.355830 
3453.000000	60.318326 
3452.000000	60.275053 
3451.000000	60.229587 
3450.000000	60.186052 
3449.000000	60.148358 
3448.000000	60.119986 
3447.000000	60.103464 
3446.000000	60.100054 
3445.000000	60.109257 
3444.000000	60.128855 
3443.000000	60.155367 
3442.000000	60.184764 
3441.000000	60.213208 
3440.000000	60.237693 
3439.000000	60.256791 
3438.000000	60.270357 
3437.000000	60.279226 
3436.000000	60.284113 
3435.000000	60.285520 
3434.000000	60.282802 
3433.000000	60.274267 
3432.000000	60.257387 
3431.000000	60.230064 
3430.000000	60.191035 
3429.000000	60.141253 
3428.000000	60.083794 
3427.000000	60.023570 
3426.000000	59.966611 
3425.000000	59.918808 
3424.000000	59.885072 
3423.000000	59.868025 
3422.000000	59.867978 
3421.000000	59.883022 
3420.000000	59.909820 
3419.000000	59.944272 
3418.000000	59.982275 
3417.000000	60.020279 
3416.000000	60.055303 
3415.000000	60.085082 
3414.000000	60.108017 
3413.000000	60.122942 
3412.000000	60.129332 
3411.000000	60.127234 
3410.000000	60.117578 
3409.000000	60.102033 
3408.000000	60.083103 
3407.000000	60.063290 
3406.000000	60.044908 
3405.000000	60.029244 
3404.000000	60.016584 
3403.000000	60.006165 
3402.000000	59.996485 
3401.000000	59.986209 
3400.000000	59.974622 
3399.000000	59.962058 
3398.000000	59.949827 
3397.000000	59.939956 
3396.000000	59.934425 
3395.000000	59.934425 
3394.000000	59.939789 
3393.000000	59.949016 
3392.000000	59.959387 
3391.000000	59.967851 
3390.000000	59.971761 
3389.000000	59.969639 
3388.000000	59.961438 
3387.000000	59.948968 
3386.000000	59.935092 
3385.000000	59.922885 
3384.000000	59.914898 
3383.000000	59.912586 
3382.000000	59.915900 
3381.000000	59.923386 
3380.000000	59.932613 
3379.000000	59.940743 
3378.000000	59.945344 
3377.000000	59.944653 
3376.000000	59.938001 
3375.000000	59.925675 
3374.000000	59.908747 
3373.000000	59.888839 
3372.000000	59.867668 
3371.000000	59.846735 
3370.000000	59.826993 
3369.000000	59.809136 
3368.000000	59.793114 
3367.000000	59.778285 
3366.000000	59.763574 
3365.000000	59.747791 
3364.000000	59.729719 
3363.000000	59.708595 
3362.000000	59.684252 
3361.000000	59.657478 
3360.000000	59.630036 
3359.000000	59.604287 
3358.000000	59.582710 
3357.000000	59.567308 
3356.000000	59.559082 
3355.000000	59.557771 
3354.000000	59.561586 
3353.000000	59.567975 
3352.000000	59.574007 
3351.000000	59.577417 
3350.000000	59.576988 
3349.000000	59.572982 
3348.000000	59.566569 
3347.000000	59.559917 
3346.000000	59.555077 
3345.000000	59.553766 
3344.000000	59.556484 
3343.000000	59.562993 
3342.000000	59.572434 
3341.000000	59.583449 
3340.000000	59.594678 
3339.000000	59.605145 
3338.000000	59.614300 
3337.000000	59.621906 
3336.000000	59.627652 
3335.000000	59.631133 
3334.000000	59.631633 
3333.000000	59.628295 
3332.000000	59.620261 
3331.000000	59.607052 
3330.000000	59.588718 
3329.000000	59.565711 
3328.000000	59.538936 
3327.000000	59.509420 
3326.000000	59.478545 
3325.000000	59.447622 
3324.000000	59.418106 
3323.000000	59.391474 
3322.000000	59.369730 
3321.000000	59.354805 
3320.000000	59.348988 
3319.000000	59.353852 
3318.000000	59.370112 
3317.000000	59.397459 
3316.000000	59.434175 
3315.000000	59.476900 
3314.000000	59.521436 
3313.000000	59.563302 
3312.000000	59.598493 
3311.000000	59.623813 
3310.000000	59.637689 
3309.000000	59.640169 
3308.000000	59.632658 
3307.000000	59.617328 
3306.000000	59.596681 
3305.000000	59.573268 
3304.000000	59.549188 
3303.000000	59.526228 
3302.000000	59.505820 
3301.000000	59.489011 
3300.000000	59.477186 
3299.000000	59.471273 
3298.000000	59.471797 
3297.000000	59.478521 
3296.000000	59.490227 
3295.000000	59.504675 
3294.000000	59.518814 
3293.000000	59.529042 
3292.000000	59.532094 
3291.000000	59.525442 
3290.000000	59.507822 
3289.000000	59.479546 
3288.000000	59.442210 
3287.000000	59.398674 
3286.000000	59.352350 
3285.000000	59.306669 
3284.000000	59.264540 
3283.000000	59.228062 
3282.000000	59.198451 
3281.000000	59.175992 
3280.000000	59.160327 
3279.000000	59.150767 
3278.000000	59.146595 
3277.000000	59.147095 
3276.000000	59.151554 
3275.000000	59.159326 
3274.000000	59.169459 
3273.000000	59.180879 
3272.000000	59.192061 
3271.000000	59.201240 
3270.000000	59.206390 
3269.000000	59.205818 
3268.000000	59.198284 
3267.000000	59.183478 
3266.000000	59.161925 
3265.000000	59.135198 
3264.000000	59.105587 
3263.000000	59.075522 
3262.000000	59.047555 
3261.000000	59.023594 
3260.000000	59.005022 
3259.000000	58.992505 
3258.000000	58.985996 
3257.000000	58.984994 
3256.000000	58.988547 
3255.000000	58.995485 
3254.000000	59.004378 
3253.000000	59.013843 
3252.000000	59.022593 
3251.000000	59.029459 
3250.000000	59.033894 
3249.000000	59.035921 
3248.000000	59.035897 
3247.000000	59.034490 
3246.000000	59.032797 
3245.000000	59.031796 
3244.000000	59.032177 
3243.000000	59.034013 
3242.000000	59.037089 
3241.000000	59.040617 
3240.000000	59.043812 
3239.000000	59.045648 
3238.000000	59.045505 
3237.000000	59.043002 
3236.000000	59.038233 
3235.000000	59.031319 
3234.000000	59.022331 
3233.000000	59.010958 
3232.000000	58.996772 
3231.000000	58.979105 
3230.000000	58.957409 
3229.000000	58.931708 
3228.000000	58.902907 
3227.000000	58.872985 
3226.000000	58.844733 
3225.000000	58.821845 
3224.000000	58.808112 
3223.000000	58.806538 
3222.000000	58.818936 
3221.000000	58.845067 
3220.000000	58.883213 
3219.000000	58.929800 
3218.000000	58.980560 
3217.000000	59.031200 
3216.000000	59.078097 
3215.000000	59.118986 
3214.000000	59.152340 
3213.000000	59.177517 
3212.000000	59.193611 
3211.000000	59.199929 
3210.000000	59.195017 
3209.000000	59.177446 
3208.000000	59.145903 
3207.000000	59.100675 
3206.000000	59.043312 
3205.000000	58.977293 
3204.000000	58.907437 
3203.000000	58.839535 
3202.000000	58.778858 
3201.000000	58.729410 
3200.000000	58.693218 
3199.000000	58.670234 
3198.000000	58.658599 
3197.000000	58.655357 
3196.000000	58.657455 
3195.000000	58.662223 
3194.000000	58.667850 
3193.000000	58.673548 
3192.000000	58.678722 
3191.000000	58.683109 
3190.000000	58.686280 
3189.000000	58.687782 
3188.000000	58.686733 
3187.000000	58.682513 
3186.000000	58.675122 
3185.000000	58.665299 
3184.000000	58.654165 
3183.000000	58.643388 
3182.000000	58.634829 
3181.000000	58.630132 
3180.000000	58.630084 
3179.000000	58.634948 
3178.000000	58.644199 
3177.000000	58.657002 
3176.000000	58.672380 
3175.000000	58.689522 
3174.000000	58.707690 
3173.000000	58.726239 
3172.000000	58.744549 
3171.000000	58.761596 
3170.000000	58.775901 
3169.000000	58.785843 
3168.000000	58.790087 
3167.000000	58.787655 
3166.000000	58.778333 
3165.000000	58.763027 
3164.000000	58.743429 
3163.000000	58.721947 
3162.000000	58.700942 
3161.000000	58.682250 
3160.000000	58.666706 
3159.000000	58.654308 
3158.000000	58.644223 
3157.000000	58.635258 
3156.000000	58.626461 
3155.000000	58.617448 
3154.000000	58.608675 
3153.000000	58.601093 
3152.000000	58.595824 
3151.000000	58.593225 
3150.000000	58.592987 
3149.000000	58.593893 
3148.000000	58.594250 
3147.000000	58.592081 
3146.000000	58.586287 
3145.000000	58.576703 
3144.000000	58.564233 
3143.000000	58.550763 
3142.000000	58.538103 
3141.000000	58.527493 
3140.000000	58.519172 
3139.000000	58.512139 
3138.000000	58.504438 
3137.000000	58.493566 
3136.000000	58.477592 
3135.000000	58.455657 
3134.000000	58.428502 
3133.000000	58.398222 
3132.000000	58.367538 
3131.000000	58.339571 
3130.000000	58.316755 
3129.000000	58.300971 
3128.000000	58.292794 
3127.000000	58.292412 
3126.000000	58.299589 
3125.000000	58.314251 
3124.000000	58.336448 
3123.000000	58.366060 
3122.000000	58.402657 
3121.000000	58.444833 
3120.000000	58.489966 
3119.000000	58.534097 
3118.000000	58.572483 
3117.000000	58.600068 
3116.000000	58.612608 
3115.000000	58.607387 
3114.000000	58.584094 
3113.000000	58.544993 
3112.000000	58.494591 
3111.000000	58.438944 
3110.000000	58.384728 
3109.000000	58.337998 
3108.000000	58.303141 
3107.000000	58.282709 
3106.000000	58.276748 
3105.000000	58.282995 
3104.000000	58.297491 
3103.000000	58.315515 
3102.000000	58.332395 
3101.000000	58.344244 
3100.000000	58.348727 
3099.000000	58.344936 
3098.000000	58.333730 
3097.000000	58.317065 
3096.000000	58.297562 
3095.000000	58.277988 
3094.000000	58.260869 
3093.000000	58.247900 
3092.000000	58.239817 
3091.000000	58.236408 
3090.000000	58.236408 
3089.000000	58.237671 
3088.000000	58.237528 
3087.000000	58.233737 
3086.000000	58.224487 
3085.000000	58.209609 
3084.000000	58.190083 
3083.000000	58.168697 
3082.000000	58.149290 
3081.000000	58.136034 
3080.000000	58.132743 
3079.000000	58.141493 
3078.000000	58.162069 
3077.000000	58.191514 
3076.000000	58.224964 
3075.000000	58.256149 
3074.000000	58.279109 
3073.000000	58.289194 
3072.000000	58.284235 
3071.000000	58.265304 
3070.000000	58.236122 
3069.000000	58.202409 
3068.000000	58.170342 
3067.000000	58.145570 
3066.000000	58.132052 
3065.000000	58.131504 
3064.000000	58.143138 
3063.000000	58.164286 
3062.000000	58.191061 
3061.000000	58.219218 
3060.000000	58.245205 
3059.000000	58.266282 
3058.000000	58.280992 
3057.000000	58.288884 
3056.000000	58.290195 
3055.000000	58.285713 
3054.000000	58.276271 
3053.000000	58.262801 
3052.000000	58.246111 
3051.000000	58.227229 
3050.000000	58.206963 
3049.000000	58.186626 
3048.000000	58.166885 
3047.000000	58.148217 
3046.000000	58.130216 
3045.000000	58.112001 
3044.000000	58.092045 
3043.000000	58.068704 
3042.000000	58.040785 
3041.000000	58.007717 
3040.000000	57.970190 
3039.000000	57.930040 
3038.000000	57.889866 
3037.000000	57.852888 
3036.000000	57.822155 
3035.000000	57.800054 
3034.000000	57.787847 
3033.000000	57.785487 
3032.000000	57.791543 
3031.000000	57.803869 
3030.000000	57.819437 
3029.000000	57.835364 
3028.000000	57.849049 
3027.000000	57.858824 
3026.000000	57.863593 
3025.000000	57.863354 
3024.000000	57.858681 
3023.000000	57.850790 
3022.000000	57.841134 
3021.000000	57.831120 
3020.000000	57.821917 
3019.000000	57.814168 
3018.000000	57.808423 
3017.000000	57.804775 
3016.000000	57.803082 
3015.000000	57.802915 
3014.000000	57.803869 
3013.000000	57.805085 
3012.000000	57.805275 
3011.000000	57.803034 
3010.000000	57.797002 
3009.000000	57.786107 
3008.000000	57.769894 
3007.000000	57.748937 
3006.000000	57.724833 
3005.000000	57.699918 
3004.000000	57.676839 
3003.000000	57.658076 
3002.000000	57.645297 
3001.000000	57.638955 
3000.000000	57.638311 
2999.000000	57.641434 
2998.000000	57.646179 
2997.000000	57.650566 
2996.000000	57.653474 
2995.000000	57.654666 
2994.000000	57.654714 
2993.000000	57.654714 
2992.000000	57.655715 
2991.000000	57.658076 
2990.000000	57.661318 
2989.000000	57.664155 
2988.000000	57.665014 
2987.000000	57.662367 
2986.000000	57.655334 
2985.000000	57.644057 
2984.000000	57.629537 
2983.000000	57.613468 
2982.000000	57.597517 
2981.000000	57.583022 
2980.000000	57.570600 
2979.000000	57.560110 
2978.000000	57.551074 
2977.000000	57.543087 
2976.000000	57.536077 
2975.000000	57.530379 
2974.000000	57.526683 
2973.000000	57.525420 
2972.000000	57.526564 
2971.000000	57.529187 
2970.000000	57.531595 
2969.000000	57.531571 
2968.000000	57.527065 
2967.000000	57.516551 
2966.000000	57.499623 
2965.000000	57.477068 
2964.000000	57.450890 
2963.000000	57.423615 
2962.000000	57.397866 
2961.000000	57.375741 
2960.000000	57.358503 
2959.000000	57.346510 
2958.000000	57.339286 
2957.000000	57.335829 
2956.000000	57.334852 
2955.000000	57.335138 
2954.000000	57.335638 
2953.000000	57.335233 
2952.000000	57.332873 
2951.000000	57.327604 
2950.000000	57.318758 
2949.000000	57.306122 
2948.000000	57.289862 
2947.000000	57.270669 
2946.000000	57.249808 
2945.000000	57.228684 
2944.000000	57.208919 
2943.000000	57.191848 
2942.000000	57.178568 
2941.000000	57.169628 
2940.000000	57.165217 
2939.000000	57.165074 
2938.000000	57.168698 
2937.000000	57.175374 
2936.000000	57.184028 
2935.000000	57.193255 
2934.000000	57.201242 
2933.000000	57.205915 
2932.000000	57.204937 
2931.000000	57.195854 
2930.000000	57.176828 
2929.000000	57.147002 
2928.000000	57.106709 
2927.000000	57.057714 
2926.000000	57.003068 
2925.000000	56.946825 
2924.000000	56.893491 
2923.000000	56.847310 
2922.000000	56.811690 
2921.000000	56.788825 
2920.000000	56.779456 
2919.000000	56.782913 
2918.000000	56.797146 
2917.000000	56.819391 
2916.000000	56.846475 
2915.000000	56.875300 
2914.000000	56.902861 
2913.000000	56.927013 
2912.000000	56.946134 
2911.000000	56.959676 
2910.000000	56.967711 
2909.000000	56.971430 
2908.000000	56.972646 
2907.000000	56.973433 
2906.000000	56.975936 
2905.000000	56.981515 
2904.000000	56.990528 
2903.000000	57.002019 
2902.000000	57.014131 
2901.000000	57.024121 
2900.000000	57.029223 
2899.000000	57.027292 
2898.000000	57.017517 
2897.000000	57.000350 
2896.000000	56.977629 
2895.000000	56.952047 
2894.000000	56.926417 
2893.000000	56.902980 
2892.000000	56.882858 
2891.000000	56.866073 
2890.000000	56.851530 
2889.000000	56.837892 
2888.000000	56.823611 
2887.000000	56.807637 
2886.000000	56.789565 
2885.000000	56.769371 
2884.000000	56.747508 
2883.000000	56.724262 
2882.000000	56.700301 
2881.000000	56.676387 
2880.000000	56.653833 
2879.000000	56.634116 
2878.000000	56.619358 
2877.000000	56.611728 
2876.000000	56.613016 
2875.000000	56.624078 
2874.000000	56.644225 
2873.000000	56.671261 
2872.000000	56.701779 
2871.000000	56.731534 
2870.000000	56.756448 
2869.000000	56.772994 
2868.000000	56.779289 
2867.000000	56.774759 
2866.000000	56.759905 
2865.000000	56.736111 
2864.000000	56.705069 
2863.000000	56.668806 
2862.000000	56.629705 
2861.000000	56.590366 
2860.000000	56.553912 
2859.000000	56.523394 
2858.000000	56.501483 
2857.000000	56.489968 
2856.000000	56.489062 
2855.000000	56.497335 
2854.000000	56.511688 
2853.000000	56.528210 
2852.000000	56.542992 
2851.000000	56.553125 
2850.000000	56.557297 
2849.000000	56.556177 
2848.000000	56.552004 
2847.000000	56.547760 
2846.000000	56.546521 
2845.000000	56.550145 
2844.000000	56.559181 
2843.000000	56.572866 
2842.000000	56.589436 
2841.000000	56.607079 
2840.000000	56.623888 
2839.000000	56.638574 
2838.000000	56.650090 
2837.000000	56.657671 
2836.000000	56.660556 
2835.000000	56.657886 
2834.000000	56.648802 
2833.000000	56.633067 
2832.000000	56.610894 
2831.000000	56.583404 
2830.000000	56.552577 
2829.000000	56.521391 
2828.000000	56.492710 
2827.000000	56.469154 
2826.000000	56.452178 
2825.000000	56.441926 
2824.000000	56.436991 
2823.000000	56.434917 
2822.000000	56.432700 
2821.000000	56.427478 
2820.000000	56.417131 
2819.000000	56.400775 
2818.000000	56.378793 
2817.000000	56.352925 
2816.000000	56.325721 
2815.000000	56.300354 
2814.000000	56.279683 
2813.000000	56.266069 
2812.000000	56.260728 
2811.000000	56.263709 
2810.000000	56.273913 
2809.000000	56.289219 
2808.000000	56.307315 
2807.000000	56.325864 
2806.000000	56.342697 
2805.000000	56.356287 
2804.000000	56.365799 
2803.000000	56.370854 
2802.000000	56.371450 
2801.000000	56.367850 
2800.000000	56.360363 
2799.000000	56.349563 
2798.000000	56.336283 
2797.000000	56.321811 
2796.000000	56.307625 
2795.000000	56.295466 
2794.000000	56.287002 
2793.000000	56.283307 
2792.000000	56.284689 
2791.000000	56.290268 
2790.000000	56.298255 
2789.000000	56.306076 
2788.000000	56.311178 
2787.000000	56.311440 
2786.000000	56.305599 
2785.000000	56.293511 
2784.000000	56.275939 
2783.000000	56.254553 
2782.000000	56.231284 
2781.000000	56.207728 
2780.000000	56.184816 
2779.000000	56.162929 
2778.000000	56.141901 
2777.000000	56.121492 
2776.000000	56.101512 
2775.000000	56.082105 
2774.000000	56.063842 
2773.000000	56.047654 
2772.000000	56.034517 
2771.000000	56.025004 
2770.000000	56.019282 
2769.000000	56.016826 
2768.000000	56.016612 
2767.000000	56.017255 
2766.000000	56.017541 
2765.000000	56.016445 
2764.000000	56.013417 
2763.000000	56.008553 
2762.000000	56.002306 
2761.000000	55.995559 
2760.000000	55.989241 
2759.000000	55.984210 
2758.000000	55.981183 
2757.000000	55.980515 
2756.000000	55.982303 
2755.000000	55.986237 
2754.000000	55.991554 
2753.000000	55.997228 
2752.000000	56.001996 
2751.000000	56.004524 
2750.000000	56.003594 
2749.000000	55.998492 
2748.000000	55.989170 
2747.000000	55.976223 
2746.000000	55.960798 
2745.000000	55.944323 
2744.000000	55.928349 
2743.000000	55.914020 
2742.000000	55.901980 
2741.000000	55.892157 
2740.000000	55.884003 
2739.000000	55.876612 
2738.000000	55.869054 
2737.000000	55.860733 
2736.000000	55.851435 
2735.000000	55.841374 
2734.000000	55.831098 
2733.000000	55.821323 
2732.000000	55.812501 
2731.000000	55.804896 
2730.000000	55.798506 
2729.000000	55.793070 
2728.000000	55.788421 
2727.000000	55.784440 
2726.000000	55.781269 
2725.000000	55.779170 
2724.000000	55.778765 
2723.000000	55.780315 
2722.000000	55.784082 
2721.000000	55.789732 
2720.000000	55.796456 
2719.000000	55.803155 
2718.000000	55.808401 
2717.000000	55.810761 
2716.000000	55.808901 
2715.000000	55.801868 
2714.000000	55.789256 
2713.000000	55.771231 
2712.000000	55.748653 
2711.000000	55.723094 
2710.000000	55.696463 
2709.000000	55.670857 
2708.000000	55.648326 
2707.000000	55.630517 
2706.000000	55.618309 
2705.000000	55.611753 
2704.000000	55.610132 
2703.000000	55.612373 
2702.000000	55.616736 
2701.000000	55.621719 
2700.000000	55.626034 
2699.000000	55.628871 
2698.000000	55.629801 
2697.000000	55.628705 
2696.000000	55.625629 
2695.000000	55.620694 
2694.000000	55.614042 
2693.000000	55.605959 
2692.000000	55.596780 
2691.000000	55.587077 
2690.000000	55.577492 
2689.000000	55.568480 
2688.000000	55.559992 
2687.000000	55.551528 
2686.000000	55.542087 
2685.000000	55.530261 
2684.000000	55.514812 
2683.000000	55.495119 
2682.000000	55.471372 
2681.000000	55.444765 
2680.000000	55.417060 
2679.000000	55.390453 
2678.000000	55.366826 
2677.000000	55.347204 
2676.000000	55.331611 
2675.000000	55.318927 
2674.000000	55.307579 
2673.000000	55.296063 
2672.000000	55.283308 
2671.000000	55.269145 
2670.000000	55.254316 
2669.000000	55.240249 
2668.000000	55.228447 
2667.000000	55.219793 
2666.000000	55.214571 
2665.000000	55.212354 
2664.000000	55.212140 
2663.000000	55.212759 
2662.000000	55.213260 
2661.000000	55.213117 
2660.000000	55.212402 
2659.000000	55.211615 
2658.000000	55.211257 
2657.000000	55.211544 
2656.000000	55.212402 
2655.000000	55.213141 
2654.000000	55.212831 
2653.000000	55.210304 
2652.000000	55.204749 
2651.000000	55.195927 
2650.000000	55.184030 
2649.000000	55.169844 
2648.000000	55.154299 
2647.000000	55.138421 
2646.000000	55.122828 
2645.000000	55.107903 
2644.000000	55.093622 
2643.000000	55.079746 
2642.000000	55.065941 
2641.000000	55.052065 
2640.000000	55.038118 
2639.000000	55.024552 
2638.000000	55.012083 
2637.000000	55.001640 
2636.000000	54.994058 
2635.000000	54.990100 
2634.000000	54.990077 
2633.000000	54.993963 
2632.000000	55.001401 
2631.000000	55.011725 
2630.000000	55.023980 
2629.000000	55.036997 
2628.000000	55.049371 
2627.000000	55.059766 
2626.000000	55.066657 
2625.000000	55.068778 
2624.000000	55.065059 
2623.000000	55.054926 
2622.000000	55.038499 
2621.000000	55.016684 
2620.000000	54.991054 
2619.000000	54.963636 
2618.000000	54.936313 
2617.000000	54.910898 
2616.000000	54.888200 
2615.000000	54.868030 
2614.000000	54.849457 
2613.000000	54.830884 
2612.000000	54.810857 
2611.000000	54.788398 
2610.000000	54.763531 
2609.000000	54.737544 
2608.000000	54.712724 
2607.000000	54.691934 
2606.000000	54.677772 
2605.000000	54.671883 
2604.000000	54.674339 
2603.000000	54.683756 
2602.000000	54.697251 
2601.000000	54.711222 
2600.000000	54.722237 
2599.000000	54.727745 
2598.000000	54.726624 
2597.000000	54.719305 
2596.000000	54.707288 
2595.000000	54.692792 
2594.000000	54.677963 
2593.000000	54.664587 
2592.000000	54.653525 
2591.000000	54.645037 
2590.000000	54.639029 
2589.000000	54.635024 
2588.000000	54.632830 
2587.000000	54.632115 
2586.000000	54.632854 
2585.000000	54.634451 
2584.000000	54.635906 
2583.000000	54.635667 
2582.000000	54.631781 
2581.000000	54.622530 
2580.000000	54.606699 
2579.000000	54.584217 
2578.000000	54.556345 
2577.000000	54.525375 
2576.000000	54.494357 
2575.000000	54.466295 
2574.000000	54.443669 
2573.000000	54.428100 
2572.000000	54.420018 
2571.000000	54.418826 
2570.000000	54.422879 
2569.000000	54.430270 
2568.000000	54.438924 
2567.000000	54.446744 
2566.000000	54.451918 
2565.000000	54.453015 
2564.000000	54.449081 
2563.000000	54.439663 
2562.000000	54.424977 
2561.000000	54.405736 
2560.000000	54.383325 
2559.000000	54.359745 
2558.000000	54.337215 
2557.000000	54.317975 
2556.000000	54.303765 
2555.000000	54.295682 
2554.000000	54.293918 
2553.000000	54.297757 
2552.000000	54.305839 
2551.000000	54.316210 
2550.000000	54.326701 
2549.000000	54.335236 
2548.000000	54.340028 
2547.000000	54.339599 
2546.000000	54.333162 
2545.000000	54.320502 
2544.000000	54.301905 
2543.000000	54.278182 
2542.000000	54.250526 
2541.000000	54.220366 
2540.000000	54.189443 
2539.000000	54.159712 
2538.000000	54.133152 
2537.000000	54.111838 
2536.000000	54.097437 
2535.000000	54.091143 
2534.000000	54.093384 
2533.000000	54.103565 
2532.000000	54.119992 
2531.000000	54.139995 
2530.000000	54.160261 
2529.000000	54.177427 
2528.000000	54.188656 
2527.000000	54.192066 
2526.000000	54.187059 
2525.000000	54.174494 
2524.000000	54.156446 
2523.000000	54.135560 
2522.000000	54.114389 
2521.000000	54.094839 
2520.000000	54.077839 
2519.000000	54.063487 
2518.000000	54.051136 
2517.000000	54.039597 
2516.000000	54.028010 
2515.000000	54.016041 
2514.000000	54.004168 
2513.000000	53.993344 
2512.000000	53.984832 
2511.000000	53.979825 
2510.000000	53.978919 
2509.000000	53.981924 
2508.000000	53.987717 
2507.000000	53.994488 
2506.000000	54.000067 
2505.000000	54.002428 
2504.000000	54.000091 
2503.000000	53.992462 
2502.000000	53.979825 
2501.000000	53.963422 
2500.000000	53.945207 
2499.000000	53.927373 
2498.000000	53.912067 
2497.000000	53.900694 
2496.000000	53.893780 
2495.000000	53.890824 
2494.000000	53.890419 
2493.000000	53.890657 
2492.000000	53.889274 
2491.000000	53.884673 
2490.000000	53.875970 
2489.000000	53.863215 
2488.000000	53.847455 
2487.000000	53.830289 
2486.000000	53.813481 
2485.000000	53.798317 
2484.000000	53.785395 
2483.000000	53.774285 
2482.000000	53.763771 
2481.000000	53.752350 
2480.000000	53.738427 
2479.000000	53.721141 
2478.000000	53.700590 
2477.000000	53.678011 
2476.000000	53.655290 
2475.000000	53.634738 
2474.000000	53.618335 
2473.000000	53.607511 
2472.000000	53.602766 
2471.000000	53.603696 
2470.000000	53.609085 
2469.000000	53.617405 
2468.000000	53.627204 
2467.000000	53.637266 
2466.000000	53.646683 
2465.000000	53.654909 
2464.000000	53.661370 
2463.000000	53.665399 
2462.000000	53.666186 
2461.000000	53.662776 
2460.000000	53.654479 
2459.000000	53.640937 
2458.000000	53.622627 
2457.000000	53.601121 
2456.000000	53.578686 
2455.000000	53.558397 
2454.000000	53.543114 
2453.000000	53.535199 
2452.000000	53.535819 
2451.000000	53.544712 
2450.000000	53.559899 
2449.000000	53.578352 
2448.000000	53.596234 
2447.000000	53.609776 
2446.000000	53.615784 
2445.000000	53.612208 
2444.000000	53.598427 
2443.000000	53.575420 
2442.000000	53.545141 
2441.000000	53.510212 
2440.000000	53.473472 
2439.000000	53.437542 
2438.000000	53.404498 
2437.000000	53.375577 
2436.000000	53.351140 
2435.000000	53.330779 
2434.000000	53.313612 
2433.000000	53.298425 
2432.000000	53.283882 
2431.000000	53.269267 
2430.000000	53.254199 
2429.000000	53.238916 
2428.000000	53.223991 
2427.000000	53.210091 
2426.000000	53.197598 
2425.000000	53.186488 
2424.000000	53.176093 
2423.000000	53.165578 
2422.000000	53.153872 
2421.000000	53.140568 
2420.000000	53.125953 
2419.000000	53.111410 
2418.000000	53.099179 
2417.000000	53.091573 
2416.000000	53.090405 
2415.000000	53.096055 
2414.000000	53.107428 
2413.000000	53.121590 
2412.000000	53.134608 
2411.000000	53.142571 
2410.000000	53.142523 
2409.000000	53.133511 
2408.000000	53.116607 
2407.000000	53.094577 
2406.000000	53.071045 
2405.000000	53.049635 
2404.000000	53.032875 
2403.000000	53.021693 
2402.000000	53.015518 
2401.000000	53.012681 
2400.000000	53.011226 
2399.000000	53.009700 
2398.000000	53.007531 
2397.000000	53.005290 
2396.000000	53.003954 
2395.000000	53.004503 
2394.000000	53.007197 
2393.000000	53.011322 
2392.000000	53.015327 
2391.000000	53.017115 
2390.000000	53.014874 
2389.000000	53.007459 
2388.000000	52.994513 
2387.000000	52.976560 
2386.000000	52.954673 
2385.000000	52.930212 
2384.000000	52.904319 
2383.000000	52.878022 
2382.000000	52.852177 
2381.000000	52.827501 
2380.000000	52.804827 
2379.000000	52.785015 
2378.000000	52.768826 
2377.000000	52.756857 
2376.000000	52.749109 
2375.000000	52.745127 
2374.000000	52.743673 
2373.000000	52.743315 
2372.000000	52.742648 
2371.000000	52.740764 
2370.000000	52.737283 
2369.000000	52.732515 
2368.000000	52.726984 
2367.000000	52.721238 
2366.000000	52.715420 
2365.000000	52.709484 
2364.000000	52.703070 
2363.000000	52.695822 
2362.000000	52.687644 
2361.000000	52.678799 
2360.000000	52.669858 
2359.000000	52.661442 
2358.000000	52.654218 
2357.000000	52.648544 
2356.000000	52.644395 
2355.000000	52.641272 
2354.000000	52.638459 
2353.000000	52.634978 
2352.000000	52.630043 
2351.000000	52.623128 
2350.000000	52.614068 
2349.000000	52.602958 
2348.000000	52.590250 
2347.000000	52.576494 
2346.000000	52.562427 
2345.000000	52.549123 
2344.000000	52.537846 
2343.000000	52.529954 
2342.000000	52.526521 
2341.000000	52.528309 
2340.000000	52.535104 
2339.000000	52.545762 
2338.000000	52.558279 
2337.000000	52.569937 
2336.000000	52.577781 
2335.000000	52.579331 
2334.000000	52.572894 
2333.000000	52.557945 
2332.000000	52.535295 
2331.000000	52.506804 
2330.000000	52.475023 
2329.000000	52.442789 
2328.000000	52.412676 
2327.000000	52.386379 
2326.000000	52.364706 
2325.000000	52.347373 
2324.000000	52.333474 
2323.000000	52.321600 
2322.000000	52.310323 
2321.000000	52.298569 
2320.000000	52.285742 
2319.000000	52.271914 
2318.000000	52.257609 
2317.000000	52.243876 
2316.000000	52.231693 
2315.000000	52.222037 
2314.000000	52.215528 
2313.000000	52.212476 
2312.000000	52.212786 
2311.000000	52.216196 
2310.000000	52.222228 
2309.000000	52.230262 
2308.000000	52.239394 
2307.000000	52.248454 
2306.000000	52.256011 
2305.000000	52.260327 
2304.000000	52.259683 
2303.000000	52.252793 
2302.000000	52.238988 
2301.000000	52.218675 
2300.000000	52.193021 
2299.000000	52.164077 
2298.000000	52.134132 
2297.000000	52.105545 
2296.000000	52.080106 
2295.000000	52.058982 
2294.000000	52.042675 
2293.000000	52.030992 
2292.000000	52.023410 
2291.000000	52.019119 
2290.000000	52.017426 
2289.000000	52.017688 
2288.000000	52.019619 
2287.000000	52.022838 
2286.000000	52.027106 
2285.000000	52.031874 
2284.000000	52.036547 
2283.000000	52.040195 
2282.000000	52.041959 
2281.000000	52.040910 
2280.000000	52.036333 
2279.000000	52.027869 
2278.000000	52.015471 
2277.000000	51.999306 
2276.000000	51.980161 
2275.000000	51.958990 
2274.000000	51.936960 
2273.000000	51.915144 
2272.000000	51.894497 
2271.000000	51.875782 
2270.000000	51.859402 
2269.000000	51.845836 
2268.000000	51.835346 
2267.000000	51.828360 
2266.000000	51.825332 
2265.000000	51.826667 
2264.000000	51.832222 
2263.000000	51.841449 
2262.000000	51.853108 
2261.000000	51.865649 
2260.000000	51.877069 
2259.000000	51.885581 
2258.000000	51.889848 
2257.000000	51.889204 
2256.000000	51.883769 
2255.000000	51.874279 
2254.000000	51.861691 
2253.000000	51.846933 
2252.000000	51.830554 
2251.000000	51.812672 
2250.000000	51.793098 
2249.000000	51.771664 
2248.000000	51.748347 
2247.000000	51.723623 
2246.000000	51.698517 
2245.000000	51.674342 
2244.000000	51.652455 
2243.000000	51.633810 
2242.000000	51.619029 
2241.000000	51.608109 
2240.000000	51.600503 
2239.000000	51.595473 
2238.000000	51.592254 
2237.000000	51.590085 
2236.000000	51.588392 
2235.000000	51.586604 
2234.000000	51.584029 
2233.000000	51.579976 
2232.000000	51.573514 
2231.000000	51.563620 
2230.000000	51.549696 
2229.000000	51.531791 
2228.000000	51.510596 
2227.000000	51.487517 
2226.000000	51.464605 
2225.000000	51.444101 
2224.000000	51.427888 
2223.000000	51.417088 
2222.000000	51.411938 
2221.000000	51.411724 
2220.000000	51.415038 
2219.000000	51.420068 
2218.000000	51.425194 
2217.000000	51.429224 
2216.000000	51.431369 
2215.000000	51.431655 
2214.000000	51.430511 
2213.000000	51.428580 
2212.000000	51.426434 
2211.000000	51.424360 
2210.000000	51.422119 
2209.000000	51.419043 
2208.000000	51.414299 
2207.000000	51.406884 
2206.000000	51.395988 
2205.000000	51.381158 
2204.000000	51.362609 
2203.000000	51.341104 
2202.000000	51.318049 
2201.000000	51.295328 
2200.000000	51.274871 
2199.000000	51.258373 
2198.000000	51.246976 
2197.000000	51.241040 
2196.000000	51.239705 
2195.000000	51.241111 
2194.000000	51.242518 
2193.000000	51.240968 
2192.000000	51.233649 
2191.000000	51.218509 
2190.000000	51.194691 
2189.000000	51.162624 
2188.000000	51.124215 
2187.000000	51.082205 
2186.000000	51.039886 
2185.000000	51.000285 
2184.000000	50.966000 
2183.000000	50.939059 
2182.000000	50.920486 
2181.000000	50.910544 
2180.000000	50.908565 
2179.000000	50.912976 
2178.000000	50.921583 
2177.000000	50.931596 
2176.000000	50.940108 
2175.000000	50.944352 
2174.000000	50.942444 
2173.000000	50.933456 
2172.000000	50.917983 
2171.000000	50.898075 
2170.000000	50.876903 
2169.000000	50.858092 
2168.000000	50.845122 
2167.000000	50.840044 
2166.000000	50.843453 
2165.000000	50.853681 
2164.000000	50.867533 
2163.000000	50.880551 
2162.000000	50.888109 
2161.000000	50.886201 
2160.000000	50.872349 
2159.000000	50.846147 
2158.000000	50.809240 
2157.000000	50.765347 
2156.000000	50.719213 
2155.000000	50.676155 
2154.000000	50.641107 
2153.000000	50.617599 
2152.000000	50.607371 
2151.000000	50.610208 
2150.000000	50.624275 
2149.000000	50.646567 
2148.000000	50.673604 
2147.000000	50.702095 
2146.000000	50.729274 
2145.000000	50.753164 
2144.000000	50.772547 
2143.000000	50.786542 
2142.000000	50.794339 
2141.000000	50.795078 
2140.000000	50.787854 
2139.000000	50.771832 
2138.000000	50.746607 
2137.000000	50.712776 
2136.000000	50.671911 
2135.000000	50.626850 
2134.000000	50.581216 
2133.000000	50.538754 
2132.000000	50.502705 
2131.000000	50.475263 
2130.000000	50.457239 
2129.000000	50.448060 
2128.000000	50.445961 
2127.000000	50.448679 
2126.000000	50.453877 
2125.000000	50.459384 
2124.000000	50.463986 
2123.000000	50.467014 
2122.000000	50.468540 
2121.000000	50.468850 
2120.000000	50.468277 
2119.000000	50.466871 
2118.000000	50.464296 
2117.000000	50.459766 
2116.000000	50.452208 
2115.000000	50.440454 
2114.000000	50.423693 
2113.000000	50.401639 
2112.000000	50.374650 
2111.000000	50.343775 
2110.000000	50.310730 
2109.000000	50.277662 
2108.000000	50.246739 
2107.000000	50.219988 
2106.000000	50.198888 
2105.000000	50.184178 
2104.000000	50.175952 
2103.000000	50.173687 
2102.000000	50.176453 
2101.000000	50.183176 
2100.000000	50.192761 
2099.000000	50.204205 
2098.000000	50.216484 
2097.000000	50.228524 
2096.000000	50.239157 
2095.000000	50.247287 
2094.000000	50.251889 
2093.000000	50.252103 
2092.000000	50.247406 
2091.000000	50.237679 
2090.000000	50.223207 
2089.000000	50.204658 
2088.000000	50.183010 
2087.000000	50.159358 
2086.000000	50.134944 
2085.000000	50.110912 
2084.000000	50.088191 
2083.000000	50.067472 
2082.000000	50.049042 
2081.000000	50.032830 
2080.000000	50.018525 
2079.000000	50.005292 
2078.000000	49.992513 
2077.000000	49.979472 
2076.000000	49.966049 
2075.000000	49.952459 
2074.000000	49.939656 
2073.000000	49.929046 
2072.000000	49.921917 
2071.000000	49.919199 
2070.000000	49.921035 
2069.000000	49.926543 
2068.000000	49.934101 
2067.000000	49.941444 
2066.000000	49.946284 
2065.000000	49.946570 
2064.000000	49.941134 
2063.000000	49.929642 
2062.000000	49.912714 
2061.000000	49.891734 
2060.000000	49.868535 
2059.000000	49.844980 
2058.000000	49.822854 
2057.000000	49.803519 
2056.000000	49.787950 
2055.000000	49.776506 
2054.000000	49.769163 
2053.000000	49.765515 
2052.000000	49.764561 
2051.000000	49.765229 
2050.000000	49.766159 
2049.000000	49.766325 
2048.000000	49.765157 
2047.000000	49.762654 
2046.000000	49.759459 
2045.000000	49.756550 
2044.000000	49.755048 
2043.000000	49.755692 
2042.000000	49.758672 
2041.000000	49.763488 
2040.000000	49.769091 
2039.000000	49.774074 
2038.000000	49.777269 
2037.000000	49.777841 
2036.000000	49.775338 
2035.000000	49.769973 
2034.000000	49.762248 
2033.000000	49.752783 
2032.000000	49.741816 
2031.000000	49.729514 
2030.000000	49.715542 
2029.000000	49.699449 
2028.000000	49.680638 
2027.000000	49.658989 
2026.000000	49.634766 
2025.000000	49.608683 
2024.000000	49.581885 
2023.000000	49.555468 
2022.000000	49.530553 
2021.000000	49.508118 
2020.000000	49.488878 
2019.000000	49.473023 
2018.000000	49.460625 
2017.000000	49.451613 
2016.000000	49.445772 
2015.000000	49.442791 
2014.000000	49.442529 
2013.000000	49.444675 
2012.000000	49.448990 
2011.000000	49.454998 
2010.000000	49.462175 
2009.000000	49.469900 
2008.000000	49.477481 
2007.000000	49.484276 
2006.000000	49.489855 
2005.000000	49.493813 
2004.000000	49.496078 
2003.000000	49.496483 
2002.000000	49.494934 
2001.000000	49.491047 
2000.000000	49.484395 
1999.000000	49.474143 
1998.000000	49.459600 
1997.000000	49.439787 
1996.000000	49.414348 
1995.000000	49.383497 
1994.000000	49.348187 
1993.000000	49.309968 
1992.000000	49.271082 
1991.000000	49.233818 
1990.000000	49.200201 
1989.000000	49.171805 
1988.000000	49.149394 
1987.000000	49.132871 
1986.000000	49.121546 
1985.000000	49.114322 
1984.000000	49.109959 
1983.000000	49.107432 
1982.000000	49.106121 
1981.000000	49.105548 
1980.000000	49.105501 
1979.000000	49.105930 
1978.000000	49.106717 
1977.000000	49.107575 
1976.000000	49.108219 
1975.000000	49.108314 
1974.000000	49.107623 
1973.000000	49.106240 
1972.000000	49.103975 
1971.000000	49.100828 
1970.000000	49.096369 
1969.000000	49.090266 
1968.000000	49.081778 
1967.000000	49.070239 
1966.000000	49.055171 
1965.000000	49.036717 
1964.000000	49.015545 
1963.000000	48.992848 
1962.000000	48.970222 
1961.000000	48.949432 
1960.000000	48.931813 
1959.000000	48.918032 
1958.000000	48.907995 
1957.000000	48.900818 
1956.000000	48.895072 
1955.000000	48.889040 
1954.000000	48.881220 
1953.000000	48.870754 
1952.000000	48.857378 
1951.000000	48.841595 
1950.000000	48.824262 
1949.000000	48.806452 
1948.000000	48.789143 
1947.000000	48.773074 
1946.000000	48.758363 
1945.000000	48.745107 
1944.000000	48.733091 
1943.000000	48.722195 
1942.000000	48.712420 
1941.000000	48.704028 
1940.000000	48.697257 
1939.000000	48.692250 
1938.000000	48.688793 
1937.000000	48.686194 
1936.000000	48.683238 
1935.000000	48.678350 
1934.000000	48.669958 
1933.000000	48.657011 
1932.000000	48.639321 
1931.000000	48.617672 
1930.000000	48.593783 
1929.000000	48.569941 
1928.000000	48.548412 
1927.000000	48.530936 
1926.000000	48.518300 
1925.000000	48.510289 
1924.000000	48.505687 
1923.000000	48.502802 
1922.000000	48.499846 
1921.000000	48.495459 
1920.000000	48.489117 
1919.000000	48.480963 
1918.000000	48.471736 
1917.000000	48.462486 
1916.000000	48.454165 
1915.000000	48.447251 
1914.000000	48.441457 
1913.000000	48.436021 
1912.000000	48.429727 
1911.000000	48.421406 
1910.000000	48.410034 
1909.000000	48.395299 
1908.000000	48.377418 
1907.000000	48.357200 
1906.000000	48.336005 
1905.000000	48.315262 
1904.000000	48.296332 
1903.000000	48.280310 
1902.000000	48.267769 
1901.000000	48.258805 
1900.000000	48.253107 
1899.000000	48.249983 
1898.000000	48.248529 
1897.000000	48.247599 
1896.000000	48.246216 
1895.000000	48.243451 
1894.000000	48.238396 
1893.000000	48.230290 
1892.000000	48.218750 
1891.000000	48.203420 
1890.000000	48.184537 
1889.000000	48.162412 
1888.000000	48.137831 
1887.000000	48.111605 
1886.000000	48.084688 
1885.000000	48.058056 
1884.000000	48.032450 
1883.000000	48.008751 
1882.000000	47.987556 
1881.000000	47.969579 
1880.000000	47.955274 
1879.000000	47.945022 
1878.000000	47.939062 
1877.000000	47.937202 
1876.000000	47.938990 
1875.000000	47.943663 
1874.000000	47.950196 
1873.000000	47.957563 
1872.000000	47.964930 
1871.000000	47.971677 
1870.000000	47.977495 
1869.000000	47.982168 
1868.000000	47.985720 
1867.000000	47.987937 
1866.000000	47.988438 
1865.000000	47.986674 
1864.000000	47.982001 
1863.000000	47.974038 
1862.000000	47.962546 
1861.000000	47.948145 
1860.000000	47.931671 
1859.000000	47.914433 
1858.000000	47.897529 
1857.000000	47.881960 
1856.000000	47.868084 
1855.000000	47.855567 
1854.000000	47.843670 
1853.000000	47.831392 
1852.000000	47.817826 
1851.000000	47.802376 
1850.000000	47.785139 
1849.000000	47.766780 
1848.000000	47.748398 
1847.000000	47.731208 
1846.000000	47.716116 
1845.000000	47.703480 
1844.000000	47.692966 
1843.000000	47.683811 
1842.000000	47.674798 
1841.000000	47.664928 
1840.000000	47.653675 
1839.000000	47.641348 
1838.000000	47.628927 
1837.000000	47.617816 
1836.000000	47.609591 
1835.000000	47.605323 
1834.000000	47.605156 
1833.000000	47.608160 
1832.000000	47.612452 
1831.000000	47.615504 
1830.000000	47.614836 
1829.000000	47.608661 
1828.000000	47.596216 
1827.000000	47.578430 
1826.000000	47.557473 
1825.000000	47.536563 
1824.000000	47.519111 
1823.000000	47.508096 
1822.000000	47.505331 
1821.000000	47.511005 
1820.000000	47.523856 
1819.000000	47.541141 
1818.000000	47.559452 
1817.000000	47.575378 
1816.000000	47.585964 
1815.000000	47.589421 
1814.000000	47.585105 
1813.000000	47.573685 
1812.000000	47.556233 
1811.000000	47.534418 
1810.000000	47.509741 
1809.000000	47.483420 
1808.000000	47.456049 
1807.000000	47.428107 
1806.000000	47.400045 
1805.000000	47.372436 
1804.000000	47.346353 
1803.000000	47.323298 
1802.000000	47.304916 
1801.000000	47.292637 
1800.000000	47.287201 
1799.000000	47.288370 
1798.000000	47.294926 
1797.000000	47.304558 
1796.000000	47.314453 
1795.000000	47.321772 
1794.000000	47.324204 
1793.000000	47.320508 
1792.000000	47.310709 
1791.000000	47.296118 
1790.000000	47.278785 
1789.000000	47.261166 
1788.000000	47.245407 
1787.000000	47.232842 
1786.000000	47.223925 
1785.000000	47.218203 
1784.000000	47.214508 
1783.000000	47.211480 
1782.000000	47.207927 
1781.000000	47.203397 
1780.000000	47.198033 
1779.000000	47.192525 
1778.000000	47.187995 
1777.000000	47.185349 
1776.000000	47.185063 
1775.000000	47.186827 
1774.000000	47.189712 
1773.000000	47.192192 
1772.000000	47.192621 
1771.000000	47.189831 
1770.000000	47.183251 
1769.000000	47.173166 
1768.000000	47.160673 
1767.000000	47.147417 
1766.000000	47.135186 
1765.000000	47.125434 
1764.000000	47.118949 
1763.000000	47.115635 
1762.000000	47.114610 
1761.000000	47.114515 
1760.000000	47.113609 
1759.000000	47.110366 
1758.000000	47.103500 
1757.000000	47.092437 
1756.000000	47.077107 
1755.000000	47.057795 
1754.000000	47.035169 
1753.000000	47.009921 
1752.000000	46.982741 
1751.000000	46.954250 
1750.000000	46.925091 
1749.000000	46.895909 
1748.000000	46.867394 
1747.000000	46.840476 
1746.000000	46.815967 
1745.000000	46.794605 
1744.000000	46.776938 
1743.000000	46.763157 
1742.000000	46.753048 
1741.000000	46.746015 
1740.000000	46.741318 
1739.000000	46.738266 
1738.000000	46.736383 
1737.000000	46.735405 
1736.000000	46.735310 
1735.000000	46.736288 
1734.000000	46.738409 
1733.000000	46.741700 
1732.000000	46.745800 
1731.000000	46.749973 
1730.000000	46.753358 
1729.000000	46.754789 
1728.000000	46.753454 
1727.000000	46.748638 
1726.000000	46.740078 
1725.000000	46.727752 
1724.000000	46.712040 
1723.000000	46.693348 
1722.000000	46.672296 
1721.000000	46.649265 
1720.000000	46.624660 
1719.000000	46.598911 
1718.000000	46.572661 
1717.000000	46.546602 
1716.000000	46.521592 
1715.000000	46.498656 
1714.000000	46.478891 
1713.000000	46.463441 
1712.000000	46.453452 
1711.000000	46.449661 
1710.000000	46.452379 
1709.000000	46.461415 
1708.000000	46.476030 
1707.000000	46.494770 
1706.000000	46.515607 
1705.000000	46.536016 
1704.000000	46.553349 
1703.000000	46.565032 
1702.000000	46.568870 
1701.000000	46.563529 
1700.000000	46.548342 
1699.000000	46.523785 
1698.000000	46.491312 
1697.000000	46.453261 
1696.000000	46.412444 
1695.000000	46.372127 
1694.000000	46.335411 
1693.000000	46.305108 
1692.000000	46.283197 
1691.000000	46.270751 
1690.000000	46.267390 
1689.000000	46.271252 
1688.000000	46.279454 
1687.000000	46.288371 
1686.000000	46.294331 
1685.000000	46.294236 
1684.000000	46.286392 
1683.000000	46.270823 
1682.000000	46.249246 
1681.000000	46.224546 
1680.000000	46.200323 
1679.000000	46.179866 
1678.000000	46.165394 
1677.000000	46.157693 
1676.000000	46.155881 
1675.000000	46.157670 
1674.000000	46.160292 
1673.000000	46.160840 
1672.000000	46.156978 
1671.000000	46.147441 
1670.000000	46.132063 
1669.000000	46.111679 
1668.000000	46.087527 
1667.000000	46.061396 
1666.000000	46.034932 
1665.000000	46.009850 
1664.000000	45.987749 
1663.000000	45.970439 
1662.000000	45.959687 
1661.000000	45.957112 
1660.000000	45.963788 
1659.000000	45.979952 
1658.000000	46.004557 
1657.000000	46.035289 
1656.000000	46.068620 
1655.000000	46.100497 
1654.000000	46.126914 
1653.000000	46.144819 
1652.000000	46.152114 
1651.000000	46.148324 
1650.000000	46.133923 
1649.000000	46.110582 
1648.000000	46.080255 
1647.000000	46.044969 
1646.000000	46.006464 
1645.000000	45.966482 
1644.000000	45.926260 
1643.000000	45.887088 
1642.000000	45.849823 
1641.000000	45.815396 
1640.000000	45.784211 
1639.000000	45.756316 
1638.000000	45.731091 
1637.000000	45.707511 
1636.000000	45.684337 
1635.000000	45.660376 
1634.000000	45.634889 
1633.000000	45.607805 
1632.000000	45.579719 
1631.000000	45.552015 
1630.000000	45.526289 
1629.000000	45.504069 
1628.000000	45.486593 
1627.000000	45.474743 
1626.000000	45.468473 
1625.000000	45.467233 
1624.000000	45.469975 
1623.000000	45.475316 
1622.000000	45.481634 
1621.000000	45.487403 
1620.000000	45.491266 
1619.000000	45.492577 
1618.000000	45.491099 
1617.000000	45.487236 
1616.000000	45.481896 
1615.000000	45.476293 
1614.000000	45.471763 
1613.000000	45.469379 
1612.000000	45.469379 
1611.000000	45.471119 
1610.000000	45.473217 
1609.000000	45.473551 
1608.000000	45.469641 
1607.000000	45.459485 
1606.000000	45.441961 
1605.000000	45.417404 
1604.000000	45.387196 
1603.000000	45.354008 
1602.000000	45.321035 
1601.000000	45.291304 
1600.000000	45.267271 
1599.000000	45.250129 
1598.000000	45.239830 
1597.000000	45.235228 
1596.000000	45.234513 
1595.000000	45.235753 
1594.000000	45.237159 
1593.000000	45.237517 
1592.000000	45.235872 
1591.000000	45.231604 
1590.000000	45.224499 
1589.000000	45.214271 
1588.000000	45.200967 
1587.000000	45.184731 
1586.000000	45.166182 
1585.000000	45.146775 
1584.000000	45.128536 
1583.000000	45.113825 
1582.000000	45.104551 
1581.000000	45.101833 
1580.000000	45.105504 
1579.000000	45.113778 
1578.000000	45.123577 
1577.000000	45.130991 
1576.000000	45.132350 
1575.000000	45.125007 
1574.000000	45.107817 
1573.000000	45.081686 
1572.000000	45.049405 
1571.000000	45.015311 
1570.000000	44.984436 
1569.000000	44.961619 
1568.000000	44.950580 
1567.000000	44.953274 
1566.000000	44.969344 
1565.000000	44.996142 
1564.000000	45.029258 
1563.000000	45.063114 
1562.000000	45.091772 
1561.000000	45.110130 
1560.000000	45.114421 
1559.000000	45.103168 
1558.000000	45.077061 
1557.000000	45.039272 
1556.000000	44.994449 
1555.000000	44.948172 
1554.000000	44.905805 
1553.000000	44.871878 
1552.000000	44.849514 
1551.000000	44.840455 
1550.000000	44.844985 
1549.000000	44.862174 
1548.000000	44.889831 
1547.000000	44.924831 
1546.000000	44.963240 
1545.000000	45.000576 
1544.000000	45.032215 
1543.000000	45.054149 
1542.000000	45.063495 
1541.000000	45.059132 
1540.000000	45.041680 
1539.000000	45.013165 
1538.000000	44.976592 
1537.000000	44.935655 
1536.000000	44.893956 
1535.000000	44.854712 
1534.000000	44.820308 
1533.000000	44.792485 
1532.000000	44.772124 
1531.000000	44.759654 
1530.000000	44.754838 
1529.000000	44.756841 
1528.000000	44.764137 
1527.000000	44.774556 
1526.000000	44.785332 
1525.000000	44.793343 
1524.000000	44.795656 
1523.000000	44.790220 
1522.000000	44.776105 
1521.000000	44.754099 
1520.000000	44.726467 
1519.000000	44.696831 
1518.000000	44.669198 
1517.000000	44.647526 
1516.000000	44.635105 
1515.000000	44.633698 
1514.000000	44.643425 
1513.000000	44.662117 
1512.000000	44.686365 
1511.000000	44.711661 
1510.000000	44.733166 
1509.000000	44.746780 
1508.000000	44.749808 
1507.000000	44.741559 
1506.000000	44.723367 
1505.000000	44.698309 
1504.000000	44.670391 
1503.000000	44.643592 
1502.000000	44.621181 
1501.000000	44.604563 
1500.000000	44.593191 
1499.000000	44.584631 
1498.000000	44.575595 
1497.000000	44.562768 
1496.000000	44.543957 
1495.000000	44.518566 
1494.000000	44.487714 
1493.000000	44.453763 
1492.000000	44.419503 
1491.000000	44.387197 
1490.000000	44.358253 
1489.000000	44.332957 
1488.000000	44.310784 
1487.000000	44.291019 
1486.000000	44.273066 
1485.000000	44.256639 
1484.000000	44.242167 
1483.000000	44.229960 
1482.000000	44.220471 
1481.000000	44.213795 
1480.000000	44.209551 
1479.000000	44.206571 
1478.000000	44.203495 
1477.000000	44.199037 
1476.000000	44.192337 
1475.000000	44.183278 
1474.000000	44.172501 
1473.000000	44.161510 
1472.000000	44.152092 
1471.000000	44.145774 
1470.000000	44.143366 
1469.000000	44.144821 
1468.000000	44.149231 
1467.000000	44.155073 
1466.000000	44.160866 
1465.000000	44.165277 
1464.000000	44.167900 
1463.000000	44.168663 
1462.000000	44.168210 
1461.000000	44.166779 
1460.000000	44.164443 
1459.000000	44.160270 
1458.000000	44.152402 
1457.000000	44.138574 
1456.000000	44.116950 
1455.000000	44.086718 
1454.000000	44.049072 
1453.000000	44.006729 
1452.000000	43.964028 
1451.000000	43.925309 
1450.000000	43.894004 
1449.000000	43.871331 
1448.000000	43.856120 
1447.000000	43.845295 
1446.000000	43.834924 
1445.000000	43.821549 
1444.000000	43.803215 
1443.000000	43.780064 
1442.000000	43.754410 
1441.000000	43.729591 
1440.000000	43.708872 
1439.000000	43.694400 
1438.000000	43.686437 
1437.000000	43.683123 
1436.000000	43.681144 
1435.000000	43.676948 
1434.000000	43.667674 
1433.000000	43.652129 
1432.000000	43.631362 
1431.000000	43.608045 
1430.000000	43.586063 
1429.000000	43.569087 
1428.000000	43.559718 
1427.000000	43.558835 
1426.000000	43.565320 
1425.000000	43.576645 
1424.000000	43.589258 
1423.000000	43.599581 
1422.000000	43.604636 
1421.000000	43.602752 
1420.000000	43.593287 
1419.000000	43.576788 
1418.000000	43.554472 
1417.000000	43.527913 
1416.000000	43.498778 
1415.000000	43.468546 
1414.000000	43.438410 
1413.000000	43.409514 
1412.000000	43.382883 
1411.000000	43.359327 
1410.000000	43.339490 
1409.000000	43.323922 
1408.000000	43.312716 
1407.000000	43.305635 
1406.000000	43.302011 
1405.000000	43.301057 
1404.000000	43.301534 
1403.000000	43.302369 
1402.000000	43.302440 
1401.000000	43.301010 
1400.000000	43.297982 
1399.000000	43.293738 
1398.000000	43.289041 
1397.000000	43.284845 
1396.000000	43.282008 
1395.000000	43.281173 
1394.000000	43.282413 
1393.000000	43.285131 
1392.000000	43.288207 
1391.000000	43.290090 
1390.000000	43.289256 
1389.000000	43.284392 
1388.000000	43.274831 
1387.000000	43.260645 
1386.000000	43.242692 
1385.000000	43.222212 
1384.000000	43.200707 
1383.000000	43.179678 
1382.000000	43.160557 
1381.000000	43.144392 
1380.000000	43.131709 
1379.000000	43.123030 
1378.000000	43.117880 
1377.000000	43.115162 
1376.000000	43.112850 
1375.000000	43.108510 
1374.000000	43.099474 
1373.000000	43.083453 
1372.000000	43.059325 
1371.000000	43.027138 
1370.000000	42.988634 
1369.000000	42.947053 
1368.000000	42.906355 
1367.000000	42.870354 
1366.000000	42.841935 
1365.000000	42.822480 
1364.000000	42.811512 
1363.000000	42.807149 
1362.000000	42.806553 
1361.000000	42.806863 
1360.000000	42.806029 
1359.000000	42.803192 
1358.000000	42.798757 
1357.000000	42.794132 
1356.000000	42.791080 
1355.000000	42.791271 
1354.000000	42.795920 
1353.000000	42.805361 
1352.000000	42.819476 
1351.000000	42.837214 
1350.000000	42.856955 
1349.000000	42.876482 
1348.000000	42.893624 
1347.000000	42.906045 
1346.000000	42.911601 
1345.000000	42.908596 
1344.000000	42.896151 
1343.000000	42.874360 
1342.000000	42.844390 
1341.000000	42.808413 
1340.000000	42.769527 
1339.000000	42.731237 
1338.000000	42.696976 
1337.000000	42.669486 
1336.000000	42.650604 
1335.000000	42.640829 
1334.000000	42.639327 
1333.000000	42.644166 
1332.000000	42.652678 
1331.000000	42.661762 
1330.000000	42.668724 
1329.000000	42.671298 
1328.000000	42.668557 
1327.000000	42.660784 
1326.000000	42.649722 
1325.000000	42.638087 
1324.000000	42.628836 
1323.000000	42.624473 
1322.000000	42.626357 
1321.000000	42.634344 
1320.000000	42.646622 
1319.000000	42.660331 
1318.000000	42.671895 
1317.000000	42.677998 
1316.000000	42.676162 
1315.000000	42.665314 
1314.000000	42.645597 
1313.000000	42.618489 
1312.000000	42.586398 
1311.000000	42.552208 
1310.000000	42.518663 
1309.000000	42.488121 
1308.000000	42.462182 
1307.000000	42.441534 
1306.000000	42.426180 
1305.000000	42.415571 
1304.000000	42.408919 
1303.000000	42.405557 
1302.000000	42.404699 
1301.000000	42.405700 
1300.000000	42.407989 
1299.000000	42.411136 
1298.000000	42.414474 
1297.000000	42.417597 
1296.000000	42.420172 
1295.000000	42.422342 
1294.000000	42.424583 
1293.000000	42.427468 
1292.000000	42.431759 
1291.000000	42.437791 
1290.000000	42.445492 
1289.000000	42.453956 
1288.000000	42.461538 
1287.000000	42.465972 
1286.000000	42.464995 
1285.000000	42.456722 
1284.000000	42.440104 
1283.000000	42.415237 
1282.000000	42.383289 
1281.000000	42.346453 
1280.000000	42.307400 
1279.000000	42.268919 
1278.000000	42.233371 
1277.000000	42.202615 
1276.000000	42.177724 
1275.000000	42.159223 
1274.000000	42.147088 
1273.000000	42.140936 
1272.000000	42.140197 
1271.000000	42.143917 
1270.000000	42.150855 
1269.000000	42.159509 
1268.000000	42.168378 
1267.000000	42.175745 
1266.000000	42.180490 
1265.000000	42.182183 
1264.000000	42.181277 
1263.000000	42.179012 
1262.000000	42.177009 
1261.000000	42.176795 
1260.000000	42.179203 
1259.000000	42.184066 
1258.000000	42.190074 
1257.000000	42.195129 
1256.000000	42.196774 
1255.000000	42.192840 
1254.000000	42.181968 
1253.000000	42.163944 
1252.000000	42.139673 
1251.000000	42.111158 
1250.000000	42.080903 
1249.000000	42.051410 
1248.000000	42.024874 
1247.000000	42.002654 
1246.000000	41.985154 
1245.000000	41.972112 
1244.000000	41.962504 
1243.000000	41.955184 
1242.000000	41.948819 
1241.000000	41.942667 
1240.000000	41.936182 
1239.000000	41.929554 
1238.000000	41.923451 
1237.000000	41.918921 
1236.000000	41.917061 
1235.000000	41.918754 
1234.000000	41.924285 
1233.000000	41.933178 
1232.000000	41.944265 
1231.000000	41.955876 
1230.000000	41.966176 
1229.000000	41.973400 
1228.000000	41.976141 
1227.000000	41.973781 
1226.000000	41.966271 
1225.000000	41.954040 
1224.000000	41.937637 
1223.000000	41.917753 
1222.000000	41.895031 
1221.000000	41.869902 
1220.000000	41.842865 
1219.000000	41.814517 
1218.000000	41.785621 
1217.000000	41.757249 
1216.000000	41.730690 
1215.000000	41.706991 
1214.000000	41.687297 
1213.000000	41.671991 
1212.000000	41.661238 
1211.000000	41.654753 
1210.000000	41.652154 
1209.000000	41.652846 
1208.000000	41.656136 
1207.000000	41.661119 
1206.000000	41.666626 
1205.000000	41.671156 
1204.000000	41.672682 
1203.000000	41.669130 
1202.000000	41.658639 
1201.000000	41.639876 
1200.000000	41.612625 
1199.000000	41.578030 
1198.000000	41.538405 
1197.000000	41.497015 
1196.000000	41.457653 
1195.000000	41.423583 
1194.000000	41.397118 
1193.000000	41.379117 
1192.000000	41.368794 
1191.000000	41.364073 
1190.000000	41.362047 
1189.000000	41.359758 
1188.000000	41.354680 
1187.000000	41.345357 
1186.000000	41.331434 
1185.000000	41.313552 
1184.000000	41.292929 
1183.000000	41.271138 
1182.000000	41.249442 
1181.000000	41.228914 
1180.000000	41.209936 
1179.000000	41.192579 
1178.000000	41.176795 
1177.000000	41.162395 
1176.000000	41.149210 
1175.000000	41.137051 
1174.000000	41.125631 
1173.000000	41.114568 
1172.000000	41.103291 
1171.000000	41.091203 
1170.000000	41.077709 
1169.000000	41.062593 
1168.000000	41.045999 
1167.000000	41.028571 
1166.000000	41.011261 
1165.000000	40.994930 
1164.000000	40.980291 
1163.000000	40.967488 
1162.000000	40.956330 
1161.000000	40.945982 
1160.000000	40.935611 
1159.000000	40.924406 
1158.000000	40.912175 
1157.000000	40.899515 
1156.000000	40.887975 
1155.000000	40.879249 
1154.000000	40.875220 
1153.000000	40.877223 
1152.000000	40.885758 
1151.000000	40.900230 
1150.000000	40.918874 
1149.000000	40.939068 
1148.000000	40.957736 
1147.000000	40.972042 
1146.000000	40.979623 
1145.000000	40.978956 
1144.000000	40.969634 
1143.000000	40.952301 
1142.000000	40.928363 
1141.000000	40.899705 
1140.000000	40.868806 
1139.000000	40.837955 
1138.000000	40.809273 
1137.000000	40.783929 
1136.000000	40.762639 
1135.000000	40.745067 
1134.000000	40.730333 
1133.000000	40.716910 
1132.000000	40.702986 
1131.000000	40.687155 
1130.000000	40.668773 
1129.000000	40.648150 
1128.000000	40.626263 
1127.000000	40.604996 
1126.000000	40.586543 
1125.000000	40.572977 
1124.000000	40.565657 
1123.000000	40.565133 
1122.000000	40.570855 
1121.000000	40.581655 
1120.000000	40.595746 
1119.000000	40.611314 
1118.000000	40.626883 
1117.000000	40.641474 
1116.000000	40.654587 
1115.000000	40.666151 
1114.000000	40.676188 
1113.000000	40.684652 
1112.000000	40.691018 
1111.000000	40.694594 
1110.000000	40.694093 
1109.000000	40.688395 
1108.000000	40.675950 
1107.000000	40.655279 
1106.000000	40.624856 
1105.000000	40.584039 
1104.000000	40.532970 
1103.000000	40.472888 
1102.000000	40.406608 
1101.000000	40.338301 
1100.000000	40.273118 
1099.000000	40.216279 
1098.000000	40.172457 
1097.000000	40.144896 
1096.000000	40.134954 
1095.000000	40.141820 
1094.000000	40.162682 
1093.000000	40.193319 
1092.000000	40.228772 
1091.000000	40.264272 
1090.000000	40.295743 
1089.000000	40.320086 
1088.000000	40.335631 
1087.000000	40.341949 
1086.000000	40.339279 
1085.000000	40.328526 
1084.000000	40.310955 
1083.000000	40.288114 
1082.000000	40.261793 
1081.000000	40.233755 
1080.000000	40.206003 
1079.000000	40.180444 
1078.000000	40.158891 
1077.000000	40.142917 
1076.000000	40.133762 
1075.000000	40.131926 
1074.000000	40.137338 
1073.000000	40.148997 
1072.000000	40.164732 
1071.000000	40.181970 
1070.000000	40.197944 
1069.000000	40.210008 
1068.000000	40.215945 
1067.000000	40.214681 
1066.000000	40.206265 
1065.000000	40.191721 
1064.000000	40.172672 
1063.000000	40.150856 
1062.000000	40.127635 
1061.000000	40.103578 
1060.000000	40.078473 
1059.000000	40.051364 
1058.000000	40.021371 
1057.000000	39.988231 
1056.000000	39.952707 
1055.000000	39.916563 
1054.000000	39.882159 
1053.000000	39.851808 
1052.000000	39.827251 
1051.000000	39.808869 
1050.000000	39.796090 
1049.000000	39.787316 
1048.000000	39.781212 
1047.000000	39.776873 
1046.000000	39.774513 
1045.000000	39.775085 
1044.000000	39.779949 
1043.000000	39.790177 
1042.000000	39.805650 
1041.000000	39.824628 
1040.000000	39.843893 
1039.000000	39.859294 
1038.000000	39.867138 
1037.000000	39.864873 
1036.000000	39.852356 
1035.000000	39.831399 
1034.000000	39.805603 
1033.000000	39.779067 
1032.000000	39.755320 
1031.000000	39.736223 
1030.000000	39.721584 
1029.000000	39.709615 
1028.000000	39.697527 
1027.000000	39.682912 
1026.000000	39.664673 
1025.000000	39.643692 
1024.000000	39.622497 
1023.000000	39.604926 
1022.000000	39.594650 
1021.000000	39.594483 
1020.000000	39.605116 
1019.000000	39.625334 
1018.000000	39.652061 
1017.000000	39.681267 
1016.000000	39.708852 
1015.000000	39.731478 
1014.000000	39.746952 
1013.000000	39.754366 
1012.000000	39.753746 
1011.000000	39.745712 
1010.000000	39.730811 
1009.000000	39.709711 
1008.000000	39.682841 
1007.000000	39.650940 
1006.000000	39.614939 
1005.000000	39.576435 
1004.000000	39.537191 
1003.000000	39.499330 
1002.000000	39.464831 
1001.000000	39.434909 
1000.000000	39.410281 
999.000000	 39.390730 
998.000000	 39.375567 
997.000000	 39.363622 
996.000000	 39.354038 
995.000000	 39.346241 
994.000000	 39.340114 
993.000000	 39.335584 
992.000000	 39.332723 
991.000000	 39.331126 
990.000000	 39.330148 
989.000000	 39.328765 
988.000000	 39.326095 
987.000000	 39.321565 
986.000000	 39.315080 
985.000000	 39.307141 
984.000000	 39.298558 
983.000000	 39.290189 
982.000000	 39.282178 
981.000000	 39.273929 
980.000000	 39.264202 
979.000000	 39.251303 
978.000000	 39.233899 
977.000000	 39.211463 
976.000000	 39.184641 
975.000000	 39.155101 
974.000000	 39.125919 
973.000000	 39.099907 
972.000000	 39.079022 
971.000000	 39.063835 
970.000000	 39.053297 
969.000000	 39.045071 
968.000000	 39.036154 
967.000000	 39.023971 
966.000000	 39.007234 
965.000000	 38.986229 
964.000000	 38.962769 
963.000000	 38.939523 
962.000000	 38.919091 
961.000000	 38.903427 
960.000000	 38.893151 
959.000000	 38.887333 
958.000000	 38.883805 
957.000000	 38.879632 
956.000000	 38.872075 
955.000000	 38.859152 
954.000000	 38.840293 
953.000000	 38.816428 
952.000000	 38.790035 
951.000000	 38.764405 
950.000000	 38.743066 
949.000000	 38.729214 
948.000000	 38.724780 
947.000000	 38.730478 
946.000000	 38.745069 
945.000000	 38.766002 
944.000000	 38.789391 
943.000000	 38.810968 
942.000000	 38.826823 
941.000000	 38.833999 
940.000000	 38.830947 
939.000000	 38.817739 
938.000000	 38.795733 
937.000000	 38.767027 
936.000000	 38.734078 
935.000000	 38.699126 
934.000000	 38.663840 
933.000000	 38.629484 
932.000000	 38.596844 
931.000000	 38.566708 
930.000000	 38.539528 
929.000000	 38.515877 
928.000000	 38.496017 
927.000000	 38.480067 
926.000000	 38.467526 
925.000000	 38.457751 
924.000000	 38.449668 
923.000000	 38.442158 
922.000000	 38.434290 
921.000000	 38.425493 
920.000000	 38.415980 
919.000000	 38.406252 
918.000000	 38.396954 
917.000000	 38.388514 
916.000000	 38.380885 
915.000000	 38.373517 
914.000000	 38.365626 
913.000000	 38.356280 
912.000000	 38.344550 
911.000000	 38.330388 
910.000000	 38.314676 
909.000000	 38.299179 
908.000000	 38.285946 
907.000000	 38.276839 
906.000000	 38.273000 
905.000000	 38.274478 
904.000000	 38.279914 
903.000000	 38.286805 
902.000000	 38.291978 
901.000000	 38.292288 
900.000000	 38.285636 
899.000000	 38.271117 
898.000000	 38.249850 
897.000000	 38.224244 
896.000000	 38.198184 
895.000000	 38.176035 
894.000000	 38.161778 
893.000000	 38.158226 
892.000000	 38.165998 
891.000000	 38.183641 
890.000000	 38.207244 
889.000000	 38.231396 
888.000000	 38.249850 
887.000000	 38.256692 
886.000000	 38.247799 
885.000000	 38.221359 
884.000000	 38.178443 
883.000000	 38.122820 
882.000000	 38.060116 
881.000000	 37.996983 
880.000000	 37.939524 
879.000000	 37.892174 
878.000000	 37.857151 
877.000000	 37.834239 
876.000000	 37.821340 
875.000000	 37.815165 
874.000000	 37.811994 
873.000000	 37.808632 
872.000000	 37.802696 
871.000000	 37.792849 
870.000000	 37.778472 
869.000000	 37.759637 
868.000000	 37.736749 
867.000000	 37.710523 
866.000000	 37.681913 
865.000000	 37.652063 
864.000000	 37.622284 
863.000000	 37.594008 
862.000000	 37.568545 
861.000000	 37.547183 
860.000000	 37.530708 
859.000000	 37.519574 
858.000000	 37.513446 
857.000000	 37.511873 
856.000000	 37.514209 
855.000000	 37.519788 
854.000000	 37.527799 
853.000000	 37.537360 
852.000000	 37.547421 
851.000000	 37.556624 
850.000000	 37.563443 
849.000000	 37.566065 
848.000000	 37.562942 
847.000000	 37.553453 
846.000000	 37.538027 
845.000000	 37.518191 
844.000000	 37.496185 
843.000000	 37.474870 
842.000000	 37.456631 
841.000000	 37.443113 
840.000000	 37.434411 
839.000000	 37.429308 
838.000000	 37.425231 
837.000000	 37.419199 
836.000000	 37.408638 
835.000000	 37.391829 
834.000000	 37.368512 
833.000000	 37.340188 
832.000000	 37.309098 
831.000000	 37.277913 
830.000000	 37.248563 
829.000000	 37.221574 
828.000000	 37.196230 
827.000000	 37.170720 
826.000000	 37.143254 
825.000000	 37.112832 
824.000000	 37.080359 
823.000000	 37.048697 
822.000000	 37.022066 
821.000000	 37.004780 
820.000000	 37.000226 
819.000000	 37.009501 
818.000000	 37.031126 
817.000000	 37.060904 
816.000000	 37.092971 
815.000000	 37.120795 
814.000000	 37.138557 
813.000000	 37.142086 
812.000000	 37.129783 
811.000000	 37.102365 
810.000000	 37.063026 
809.000000	 37.015891 
808.000000	 36.965727 
807.000000	 36.916351 
806.000000	 36.870265 
805.000000	 36.828422 
804.000000	 36.790752 
803.000000	 36.756992 
802.000000	 36.727428 
801.000000	 36.703562 
800.000000	 36.687874 
799.000000	 36.683416 
798.000000	 36.692643 
797.000000	 36.716675 
796.000000	 36.754369 
795.000000	 36.802411 
794.000000	 36.855769 
793.000000	 36.908459 
792.000000	 36.954593 
791.000000	 36.989617 
790.000000	 37.010669 
789.000000	 37.016916 
788.000000	 37.009239 
787.000000	 36.989498 
786.000000	 36.960101 
785.000000	 36.923360 
784.000000	 36.881661 
783.000000	 36.837863 
782.000000	 36.794638 
781.000000	 36.755371 
780.000000	 36.722850 
779.000000	 36.699342 
778.000000	 36.685800 
777.000000	 36.681604 
776.000000	 36.684727 
775.000000	 36.692023 
774.000000	 36.700034 
773.000000	 36.705636 
772.000000	 36.706376 
771.000000	 36.700892 
770.000000	 36.688566 
769.000000	 36.669301 
768.000000	 36.643362 
767.000000	 36.611318 
766.000000	 36.573910 
765.000000	 36.532306 
764.000000	 36.488556 
763.000000	 36.445260 
762.000000	 36.405467 
761.000000	 36.371827 
760.000000	 36.345744 
759.000000	 36.327266 
758.000000	 36.314320 
757.000000	 36.303758 
756.000000	 36.292505 
755.000000	 36.278367 
754.000000	 36.260914 
753.000000	 36.241269 
752.000000	 36.221837 
751.000000	 36.204981 
750.000000	 36.192202 
749.000000	 36.183142 
748.000000	 36.175513 
747.000000	 36.165714 
746.000000	 36.149859 
745.000000	 36.125278 
744.000000	 36.091375 
743.000000	 36.049866 
742.000000	 36.004686 
741.000000	 35.960936 
740.000000	 35.923767 
739.000000	 35.896944 
738.000000	 35.881972 
737.000000	 35.878372 
736.000000	 35.883903 
735.000000	 35.895824 
734.000000	 35.910820 
733.000000	 35.925531 
732.000000	 35.936880 
731.000000	 35.942101 
730.000000	 35.939049 
729.000000	 35.926246 
728.000000	 35.903477 
727.000000	 35.871839 
726.000000	 35.833740 
725.000000	 35.792803 
724.000000	 35.752964 
723.000000	 35.717868 
722.000000	 35.690045 
721.000000	 35.670876 
720.000000	 35.659503 
719.000000	 35.653233 
718.000000	 35.647678 
717.000000	 35.637807 
716.000000	 35.618782 
715.000000	 35.586977 
714.000000	 35.540890 
713.000000	 35.481715 
712.000000	 35.413193 
711.000000	 35.341429 
710.000000	 35.273790 
709.000000	 35.217571 
708.000000	 35.179185 
707.000000	 35.162472 
706.000000	 35.167551 
705.000000	 35.190749 
704.000000	 35.225224 
703.000000	 35.262203 
702.000000	 35.293555 
701.000000	 35.312271 
700.000000	 35.313725 
699.000000	 35.295653 
698.000000	 35.258173 
697.000000	 35.202884 
696.000000	 35.131931 
695.000000	 35.048270 
694.000000	 34.955406 
693.000000	 34.857749 
692.000000	 34.760951 
691.000000	 34.670591 
690.000000	 34.591794 
689.000000	 34.528803 
688.000000	 34.484457 
687.000000	 34.459209 
686.000000	 34.451580 
685.000000	 34.459090 
684.000000	 34.479093 
683.000000	 34.510278 
682.000000	 34.552049 
681.000000	 34.604239 
680.000000	 34.665036 
679.000000	 34.730386 
678.000000	 34.792256 
677.000000	 34.839725 
676.000000	 34.860229 
675.000000	 34.843111 
674.000000	 34.781789 
673.000000	 34.677052 
672.000000	 34.536409 
671.000000	 34.373259 
670.000000	 34.204435 
669.000000	 34.046626 
668.000000	 33.914685 
667.000000	 33.818483 
666.000000	 33.764076 
665.000000	 33.753085 
664.000000	 33.785057 
663.000000	 33.858060 
662.000000	 33.969092 
661.000000	 34.113335 
660.000000	 34.282207 
659.000000	 34.462618 
658.000000	 34.636616 
657.000000	 34.783101 
656.000000	 34.881114 
655.000000	 34.913563 
654.000000	 34.871745 
653.000000	 34.757065 
652.000000	 34.581685 
651.000000	 34.366369 
650.000000	 34.136748 
649.000000	 33.918905 
648.000000	 33.735632 
647.000000	 33.602499 
646.000000	 33.527016 
645.000000	 33.507966 
644.000000	 33.537793 
643.000000	 33.603811 
642.000000	 33.691120 
641.000000	 33.784508 
640.000000	 33.869457 
639.000000	 33.934664 
638.000000	 33.971738 
637.000000	 33.977174 
636.000000	 33.951354 
635.000000	 33.899474 
634.000000	 33.829760 
633.000000	 33.751726 
632.000000	 33.673977 
631.000000	 33.602690 
630.000000	 33.540368 
629.000000	 33.486986 
628.000000	 33.440470 
627.000000	 33.397746 
626.000000	 33.356308 
625.000000	 33.315658 
624.000000	 33.276867 
623.000000	 33.241605 
622.000000	 33.211469 
621.000000	 33.186340 
620.000000	 33.164978 
619.000000	 33.144903 
618.000000	 33.123660 
617.000000	 33.099126 
616.000000	 33.071041 
615.000000	 33.041739 
614.000000	 33.014941 
613.000000	 32.994556 
612.000000	 32.983279 
611.000000	 32.980918 
610.000000	 32.985544 
609.000000	 32.993960 
608.000000	 33.002662 
607.000000	 33.008766 
606.000000	 33.010840 
605.000000	 33.008646 
604.000000	 33.002710 
603.000000	 32.993507 
602.000000	 32.979750 
601.000000	 32.959032 
600.000000	 32.927966 
599.000000	 32.884168 
598.000000	 32.827234 
597.000000	 32.760143 
596.000000	 32.689332 
595.000000	 32.623600 
594.000000	 32.572746 
593.000000	 32.543969 
592.000000	 32.540321 
591.000000	 32.558774 
590.000000	 32.591414 
589.000000	 32.625889 
588.000000	 32.648563 
587.000000	 32.647347 
586.000000	 32.614564 
585.000000	 32.548689 
584.000000	 32.454085 
583.000000	 32.340931 
582.000000	 32.222843 
581.000000	 32.114601 
580.000000	 32.029128 
579.000000	 31.976127 
578.000000	 31.960248 
577.000000	 31.981182 
576.000000	 32.033586 
575.000000	 32.107639 
574.000000	 32.190394 
573.000000	 32.267880 
572.000000	 32.326745 
571.000000	 32.356357 
570.000000	 32.350111 
569.000000	 32.306218 
568.000000	 32.227301 
567.000000	 32.119989 
566.000000	 31.992721 
565.000000	 31.854748 
564.000000	 31.714153 
563.000000	 31.578111 
562.000000	 31.451368 
561.000000	 31.337308 
560.000000	 31.237339 
559.000000	 31.151366 
558.000000	 31.078267 
557.000000	 31.015968 
556.000000	 30.962610 
555.000000	 30.916666 
554.000000	 30.877757 
553.000000	 30.846405 
552.000000	 30.824661 
551.000000	 30.815601 
550.000000	 30.822563 
549.000000	 30.848073 
548.000000	 30.892944 
547.000000	 30.954861 
546.000000	 31.028342 
545.000000	 31.103777 
544.000000	 31.169033 
543.000000	 31.210541 
542.000000	 31.216025 
541.000000	 31.176662 
540.000000	 31.090140 
539.000000	 30.960917 
538.000000	 30.799889 
537.000000	 30.622839 
536.000000	 30.448126 
535.000000	 30.293226 
534.000000	 30.172109 
533.000000	 30.092501 
532.000000	 30.055046 
531.000000	 30.054378 
530.000000	 30.081462 
529.000000	 30.124807 
528.000000	 30.172705 
527.000000	 30.215191 
526.000000	 30.244970 
525.000000	 30.256605 
524.000000	 30.246400 
523.000000	 30.212259 
522.000000	 30.154085 
521.000000	 30.075383 
520.000000	 29.982614 
519.000000	 29.885625 
518.000000	 29.794597 
517.000000	 29.719996 
516.000000	 29.667329 
515.000000	 29.636549 
514.000000	 29.620027 
513.000000	 29.604125 
512.000000	 29.572892 
511.000000	 29.511523 
510.000000	 29.412221 
509.000000	 29.275631 
508.000000	 29.113817 
507.000000	 28.947114 
506.000000	 28.800845 
505.000000	 28.697872 
504.000000	 28.655290 
503.000000	 28.679418 
502.000000	 28.766250 
501.000000	 28.902292 
500.000000	 29.068088 
499.000000	 29.241847 
498.000000	 29.403066 
497.000000	 29.534769 
496.000000	 29.623389 
495.000000	 29.659247 
494.000000	 29.636883 
493.000000	 29.555344 
492.000000	 29.417109 
491.000000	 29.229450 
490.000000	 29.006338 
489.000000	 28.767299 
488.000000	 28.536200 
487.000000	 28.338098 
486.000000	 28.194856 
485.000000	 28.122138 
484.000000	 28.126263 
483.000000	 28.203797 
482.000000	 28.341770 
481.000000	 28.520083 
480.000000	 28.715395 
479.000000	 28.902673 
478.000000	 29.058074 
477.000000	 29.162383 
476.000000	 29.202961 
475.000000	 29.175019 
474.000000	 29.080867 
473.000000	 28.931093 
472.000000	 28.741884 
471.000000	 28.531455 
470.000000	 28.315639 
469.000000	 28.104710 
468.000000	 27.900624 
467.000000	 27.698206 
466.000000	 27.487826 
465.000000	 27.256870 
464.000000	 26.997876 
463.000000	 26.714372 
462.000000	 26.422834 
461.000000	 26.148009 
460.000000	 25.919508 
459.000000	 25.761604 
458.000000	 25.690245 
457.000000	 25.704431 
456.000000	 25.792050 
455.000000	 25.928544 
454.000000	 26.089572 
453.000000	 26.254940 
452.000000	 26.415252 
451.000000	 26.570916 
450.000000	 26.730084 
449.000000	 26.901316 
448.000000	 27.089381 
447.000000	 27.290439 
446.000000	 27.489757 
445.000000	 27.662682 
444.000000	 27.784204 
443.000000	 27.832961 
442.000000	 27.795052 
441.000000	 27.664089 
440.000000	 27.442812 
439.000000	 27.139449 
438.000000	 26.763844 
437.000000	 26.328325 
436.000000	 25.846529 
435.000000	 25.338387 
434.000000	 24.833822 
433.000000	 24.371480 
432.000000	 23.990535 
431.000000	 23.728799 
430.000000	 23.615336 
429.000000	 23.663854 
428.000000	 23.862528 
427.000000	 24.180483 
426.000000	 24.572372 
425.000000	 24.983692 
424.000000	 25.356602 
423.000000	 25.643205 
422.000000	 25.815439 
421.000000	 25.854206 
420.000000	 25.747513 
419.000000	 25.489687 
418.000000	 25.080704 
417.000000	 24.520516 
416.000000	 23.813199 
415.000000	 22.970843 
414.000000	 22.020173 
413.000000	 21.008968 
412.000000	 20.008850 
411.000000	 19.089150 
410.000000	 18.326187 
409.000000	 17.801761 
408.000000	 17.590546 
407.000000	 17.734909 
406.000000	 18.242144 
405.000000	 19.070363 
404.000000	 20.144796 
403.000000	 21.332883 
402.000000	 22.516703 
401.000000	 23.610830 
400.000000	 24.589872 
399.000000	 25.480413 
398.000000	 26.351547 
397.000000	 27.274441 
396.000000	 28.310513 
395.000000	 29.475951 
394.000000	 30.768489 
393.000000	 32.164788 
392.000000	 33.633327 
391.000000	 35.133481 
390.000000	 36.565279 
389.000000	 37.768006 
388.000000	 38.523650 
387.000000	 38.596105 
386.000000	 37.788891 
385.000000	 35.993242 
384.000000	 33.291792 
383.000000	 29.905176 
382.000000	 26.154637 
381.000000	 22.372913 
380.000000	 18.829894 
379.000000	 15.683412 
378.000000	 12.997055 
377.000000	 10.724949 
376.000000	 8.756470  
375.000000	 6.964969  
374.000000	 5.240249  
373.000000	 3.552508  
372.000000	 1.916170  
371.000000	 0.453352  
370.000000	 -0.657820 

