PE IR       SPECTRUM    SPECTRUM    ASCII       PEDS        1.60        
  -1
C-1B6F~1.ASC
17/03/27
17:16:13.00
17/03/27
17:16:13.00
tln
$C-4040-8_t0034$<tbV0>[13.0,-5.2,8.0,0.0,27,1,0]
370.000000
64









2002,4.07    
MIRTGS : RIGHTBACK : INTERNAL 2
MIR : ON : INTERNAL 2
OPTKBR

0.200000
8
8.000000
FILLER
RATIO
SPECTRUM
UNLOCKED 256

DOUBLE
64
COMBINED
1
0
0


1.000000
RATIO


1
0
TRUE
51149
0
LEFT NOT FITTED RIGHT NOT FITTED 0
NONE
NONE
15600
12.000000
4.427000
51148
TRUE
1 0 8 72 0 0 0 0 

15798.010000






#HDR
-1
-1
#GR
CM-1
%T
0.00002384185791015625
0.0
5000.000000
-1.000000
4631
8
93.914079
47.927784
#DATA
5000.000000	64.453864 
4999.000000	64.371776 
4998.000000	64.318919 
4997.000000	64.305114 
4996.000000	64.334487 
4995.000000	64.404463 
4994.000000	64.505887 
4993.000000	64.624500 
4992.000000	64.743375 
4991.000000	64.845848 
4990.000000	64.918398 
4989.000000	64.952778 
4988.000000	64.946889 
4987.000000	64.904308 
4986.000000	64.833259 
4985.000000	64.744400 
4984.000000	64.649271 
4983.000000	64.558386 
4982.000000	64.480018 
4981.000000	64.419460 
4980.000000	64.378643 
4979.000000	64.356708 
4978.000000	64.350199 
4977.000000	64.354920 
4976.000000	64.366650 
4975.000000	64.382910 
4974.000000	64.402818 
4973.000000	64.427447 
4972.000000	64.458227 
4971.000000	64.496636 
4970.000000	64.543247 
4969.000000	64.596867 
4968.000000	64.653897 
4967.000000	64.709067 
4966.000000	64.756798 
4965.000000	64.792060 
4964.000000	64.811968 
4963.000000	64.816117 
4962.000000	64.806723 
4961.000000	64.787817 
4960.000000	64.764451 
4959.000000	64.740657 
4958.000000	64.718508 
4957.000000	64.697551 
4956.000000	64.675021 
4955.000000	64.646887 
4954.000000	64.609313 
4953.000000	64.559292 
4952.000000	64.496612 
4951.000000	64.424037 
4950.000000	64.348506 
4949.000000	64.279556 
4948.000000	64.228844 
4947.000000	64.207315 
4946.000000	64.223027 
4945.000000	64.279580 
4944.000000	64.373946 
4943.000000	64.496755 
4942.000000	64.633107 
4941.000000	64.765191 
4940.000000	64.875316 
4939.000000	64.949107 
4938.000000	64.978528 
4937.000000	64.962792 
4936.000000	64.908838 
4935.000000	64.829373 
4934.000000	64.739942 
4933.000000	64.655661 
4932.000000	64.588308 
4931.000000	64.544844 
4930.000000	64.526605 
4929.000000	64.529919 
4928.000000	64.548206 
4927.000000	64.574074 
4926.000000	64.600539 
4925.000000	64.622449 
4924.000000	64.636373 
4923.000000	64.640760 
4922.000000	64.635062 
4921.000000	64.619588 
4920.000000	64.594650 
4919.000000	64.561343 
4918.000000	64.521765 
4917.000000	64.479398 
4916.000000	64.438605 
4915.000000	64.404606 
4914.000000	64.382791 
4913.000000	64.377665 
4912.000000	64.391136 
4911.000000	64.423036 
4910.000000	64.470791 
4909.000000	64.530348 
4908.000000	64.596390 
4907.000000	64.663958 
4906.000000	64.728879 
4905.000000	64.788198 
4904.000000	64.840245 
4903.000000	64.883542 
4902.000000	64.916419 
4901.000000	64.937663 
4900.000000	64.946389 
4899.000000	64.941978 
4898.000000	64.924144 
4897.000000	64.894604 
4896.000000	64.855599 
4895.000000	64.810085 
4894.000000	64.759802 
4893.000000	64.705324 
4892.000000	64.645338 
4891.000000	64.577198 
4890.000000	64.498066 
4889.000000	64.405775 
4888.000000	64.301204 
4887.000000	64.188909 
4886.000000	64.077568 
4885.000000	63.977766 
4884.000000	63.901448 
4883.000000	63.858342 
4882.000000	63.854813 
4881.000000	63.891077 
4880.000000	63.962793 
4879.000000	64.060926 
4878.000000	64.174914 
4877.000000	64.294195 
4876.000000	64.411544 
4875.000000	64.523625 
4874.000000	64.630770 
4873.000000	64.735364 
4872.000000	64.840102 
4871.000000	64.945697 
4870.000000	65.049886 
4869.000000	65.146565 
4868.000000	65.227627 
4867.000000	65.283513 
4866.000000	65.307354 
4865.000000	65.294551 
4864.000000	65.244793 
4863.000000	65.161156 
4862.000000	65.050649 
4861.000000	64.922308 
4860.000000	64.785432 
4859.000000	64.649462 
4858.000000	64.523553 
4857.000000	64.416146 
4856.000000	64.334297 
4855.000000	64.283514 
4854.000000	64.267563 
4853.000000	64.286661 
4852.000000	64.336824 
4851.000000	64.409995 
4850.000000	64.494585 
4849.000000	64.577889 
4848.000000	64.648056 
4847.000000	64.696168 
4846.000000	64.717578 
4845.000000	64.712738 
4844.000000	64.686679 
4843.000000	64.646458 
4842.000000	64.599990 
4841.000000	64.554715 
4840.000000	64.516282 
4839.000000	64.488101 
4838.000000	64.471578 
4837.000000	64.467048 
4836.000000	64.474511 
4835.000000	64.493560 
4834.000000	64.524197 
4833.000000	64.566063 
4832.000000	64.618849 
4831.000000	64.681029 
4830.000000	64.750552 
4829.000000	64.823985 
4828.000000	64.897608 
4827.000000	64.968132 
4826.000000	65.032196 
4825.000000	65.086579 
4824.000000	65.128707 
4823.000000	65.157127 
4822.000000	65.171408 
4821.000000	65.172338 
4820.000000	65.161776 
4819.000000	65.142273 
4818.000000	65.116620 
4817.000000	65.087151 
4816.000000	65.055489 
4815.000000	65.022325 
4814.000000	64.988327 
4813.000000	64.954161 
4812.000000	64.921021 
4811.000000	64.890503 
4810.000000	64.864468 
4809.000000	64.844512 
4808.000000	64.831209 
4807.000000	64.824318 
4806.000000	64.822196 
4805.000000	64.822936 
4804.000000	64.824175 
4803.000000	64.824867 
4802.000000	64.825510 
4801.000000	64.828133 
4800.000000	64.835643 
4799.000000	64.850473 
4798.000000	64.873480 
4797.000000	64.903044 
4796.000000	64.934992 
4795.000000	64.963722 
4794.000000	64.983749 
4793.000000	64.991164 
4792.000000	64.984679 
4791.000000	64.965867 
4790.000000	64.938616 
4789.000000	64.907908 
4788.000000	64.878201 
4787.000000	64.852190 
4786.000000	64.830160 
4785.000000	64.810514 
4784.000000	64.790511 
4783.000000	64.767408 
4782.000000	64.739394 
4781.000000	64.706754 
4780.000000	64.671707 
4779.000000	64.637136 
4778.000000	64.606904 
4777.000000	64.583730 
4776.000000	64.569950 
4775.000000	64.566278 
4774.000000	64.573073 
4773.000000	64.589929 
4772.000000	64.616131 
4771.000000	64.650559 
4770.000000	64.691638 
4769.000000	64.737272 
4768.000000	64.785027 
4767.000000	64.832282 
4766.000000	64.876651 
4765.000000	64.916348 
4764.000000	64.950323 
4763.000000	64.978361 
4762.000000	65.000891 
4761.000000	65.018534 
4760.000000	65.032124 
4759.000000	65.042066 
4758.000000	65.048432 
4757.000000	65.051078 
4756.000000	65.049910 
4755.000000	65.045261 
4754.000000	65.038275 
4753.000000	65.030622 
4752.000000	65.024328 
4751.000000	65.021538 
4750.000000	65.023994 
4749.000000	65.032839 
4748.000000	65.048289 
4747.000000	65.069842 
4746.000000	65.096402 
4745.000000	65.126490 
4744.000000	65.158295 
4743.000000	65.189814 
4742.000000	65.219044 
4741.000000	65.244221 
4740.000000	65.263795 
4739.000000	65.276765 
4738.000000	65.282487 
4737.000000	65.280747 
4736.000000	65.271472 
4735.000000	65.254783 
4734.000000	65.230774 
4733.000000	65.199613 
4732.000000	65.161561 
4731.000000	65.116906 
4730.000000	65.066528 
4729.000000	65.012192 
4728.000000	64.956474 
4727.000000	64.902973 
4726.000000	64.856052 
4725.000000	64.819979 
4724.000000	64.798331 
4723.000000	64.792847 
4722.000000	64.803075 
4721.000000	64.826035 
4720.000000	64.856648 
4719.000000	64.888072 
4718.000000	64.913702 
4717.000000	64.928174 
4716.000000	64.929056 
4715.000000	64.917063 
4714.000000	64.896392 
4713.000000	64.873695 
4712.000000	64.856529 
4711.000000	64.851379 
4710.000000	64.861941 
4709.000000	64.888024 
4708.000000	64.925694 
4707.000000	64.968204 
4706.000000	65.007901 
4705.000000	65.038394 
4704.000000	65.056133 
4703.000000	65.061616 
4702.000000	65.058922 
4701.000000	65.054464 
4700.000000	65.055084 
4699.000000	65.065717 
4698.000000	65.087628 
4697.000000	65.117835 
4696.000000	65.150427 
4695.000000	65.177392 
4694.000000	65.191245 
4693.000000	65.187048 
4692.000000	65.164113 
4691.000000	65.126347 
4690.000000	65.081262 
4689.000000	65.038299 
4688.000000	65.006399 
4687.000000	64.992356 
4686.000000	64.999198 
4685.000000	65.025997 
4684.000000	65.068316 
4683.000000	65.119719 
4682.000000	65.172958 
4681.000000	65.221452 
4680.000000	65.260004 
4679.000000	65.284943 
4678.000000	65.294480 
4677.000000	65.287971 
4676.000000	65.266418 
4675.000000	65.232253 
4674.000000	65.189647 
4673.000000	65.144228 
4672.000000	65.102148 
4671.000000	65.069794 
4670.000000	65.051770 
4669.000000	65.050506 
4668.000000	65.065217 
4667.000000	65.091848 
4666.000000	65.124225 
4665.000000	65.155124 
4664.000000	65.178346 
4663.000000	65.190076 
4662.000000	65.189576 
4661.000000	65.179109 
4660.000000	65.162873 
4659.000000	65.145540 
4658.000000	65.130448 
4657.000000	65.118646 
4656.000000	65.109014 
4655.000000	65.098714 
4654.000000	65.084600 
4653.000000	65.064287 
4652.000000	65.037322 
4651.000000	65.005612 
4650.000000	64.972829 
4649.000000	64.944005 
4648.000000	64.923858 
4647.000000	64.916181 
4646.000000	64.922404 
4645.000000	64.941525 
4644.000000	64.970231 
4643.000000	65.003752 
4642.000000	65.036988 
4641.000000	65.065860 
4640.000000	65.087676 
4639.000000	65.101933 
4638.000000	65.110087 
4637.000000	65.114641 
4636.000000	65.118122 
4635.000000	65.121793 
4634.000000	65.125226 
4633.000000	65.125703 
4632.000000	65.119433 
4631.000000	65.101933 
4630.000000	65.070056 
4629.000000	65.023517 
4628.000000	64.965891 
4627.000000	64.904165 
4626.000000	64.847826 
4625.000000	64.806747 
4624.000000	64.789009 
4623.000000	64.798521 
4622.000000	64.834642 
4621.000000	64.891958 
4620.000000	64.961791 
4619.000000	65.034151 
4618.000000	65.100073 
4617.000000	65.153574 
4616.000000	65.192317 
4615.000000	65.217399 
4614.000000	65.232300 
4613.000000	65.241384 
4612.000000	65.247941 
4611.000000	65.253329 
4610.000000	65.256452 
4609.000000	65.254759 
4608.000000	65.244984 
4607.000000	65.225100 
4606.000000	65.194296 
4605.000000	65.153551 
4604.000000	65.105700 
4603.000000	65.054750 
4602.000000	65.005087 
4601.000000	64.960551 
4600.000000	64.924144 
4599.000000	64.897370 
4598.000000	64.880514 
4597.000000	64.872455 
4596.000000	64.871454 
4595.000000	64.874839 
4594.000000	64.879751 
4593.000000	64.882969 
4592.000000	64.881396 
4591.000000	64.872169 
4590.000000	64.852929 
4589.000000	64.822459 
4588.000000	64.780259 
4587.000000	64.727854 
4586.000000	64.668297 
4585.000000	64.606714 
4584.000000	64.549231 
4583.000000	64.503049 
4582.000000	64.474821 
4581.000000	64.469981 
4580.000000	64.491295 
4579.000000	64.538073 
4578.000000	64.605689 
4577.000000	64.685940 
4576.000000	64.768266 
4575.000000	64.841747 
4574.000000	64.897036 
4573.000000	64.928102 
4572.000000	64.933300 
4571.000000	64.915156 
4570.000000	64.879250 
4569.000000	64.833617 
4568.000000	64.786148 
4567.000000	64.742875 
4566.000000	64.706945 
4565.000000	64.678978 
4564.000000	64.657354 
4563.000000	64.639806 
4562.000000	64.624643 
4561.000000	64.611673 
4560.000000	64.602780 
4559.000000	64.601016 
4558.000000	64.610004 
4557.000000	64.632201 
4556.000000	64.667868 
4555.000000	64.714193 
4554.000000	64.765572 
4553.000000	64.814519 
4552.000000	64.852476 
4551.000000	64.871430 
4550.000000	64.865994 
4549.000000	64.834785 
4548.000000	64.781594 
4547.000000	64.714932 
4546.000000	64.646482 
4545.000000	64.588928 
4544.000000	64.553689 
4543.000000	64.548301 
4542.000000	64.574432 
4541.000000	64.627528 
4540.000000	64.698243 
4539.000000	64.774513 
4538.000000	64.843726 
4537.000000	64.896154 
4536.000000	64.926075 
4535.000000	64.933300 
4534.000000	64.921808 
4533.000000	64.899349 
4532.000000	64.874434 
4531.000000	64.855384 
4530.000000	64.847898 
4529.000000	64.855480 
4528.000000	64.879369 
4527.000000	64.918708 
4526.000000	64.971303 
4525.000000	65.033125 
4524.000000	65.098667 
4523.000000	65.160918 
4522.000000	65.212035 
4521.000000	65.244102 
4520.000000	65.250658 
4519.000000	65.228152 
4518.000000	65.177130 
4517.000000	65.102171 
4516.000000	65.011334 
4515.000000	64.915394 
4514.000000	64.824962 
4513.000000	64.748692 
4512.000000	64.691233 
4511.000000	64.653348 
4510.000000	64.631628 
4509.000000	64.620375 
4508.000000	64.612388 
4507.000000	64.600992 
4506.000000	64.581131 
4505.000000	64.550137 
4504.000000	64.507961 
4503.000000	64.455366 
4502.000000	64.396166 
4501.000000	64.335560 
4500.000000	64.280295 
4499.000000	64.236927 
4498.000000	64.211606 
4497.000000	64.208817 
4496.000000	64.229869 
4495.000000	64.272689 
4494.000000	64.332365 
4493.000000	64.402103 
4492.000000	64.474463 
4491.000000	64.542984 
4490.000000	64.603018 
4489.000000	64.652752 
4488.000000	64.693188 
4487.000000	64.727306 
4486.000000	64.758658 
4485.000000	64.789724 
4484.000000	64.822053 
4483.000000	64.853954 
4482.000000	64.881992 
4481.000000	64.900159 
4480.000000	64.903402 
4479.000000	64.886283 
4478.000000	64.845252 
4477.000000	64.778494 
4476.000000	64.687442 
4475.000000	64.575457 
4474.000000	64.448046 
4473.000000	64.311909 
4472.000000	64.174246 
4471.000000	64.041519 
4470.000000	63.919329 
4469.000000	63.812398 
4468.000000	63.724970 
4467.000000	63.661074 
4466.000000	63.624906 
4465.000000	63.620090 
4464.000000	63.649344 
4463.000000	63.713049 
4462.000000	63.808083 
4461.000000	63.926482 
4460.000000	64.056134 
4459.000000	64.181876 
4458.000000	64.288520 
4457.000000	64.362835 
4456.000000	64.397168 
4455.000000	64.391326 
4454.000000	64.352178 
4453.000000	64.292955 
4452.000000	64.228630 
4451.000000	64.172768 
4450.000000	64.133644 
4449.000000	64.113354 
4448.000000	64.107751 
4447.000000	64.109206 
4446.000000	64.109683 
4445.000000	64.104032 
4444.000000	64.091658 
4443.000000	64.076972 
4442.000000	64.067530 
4441.000000	64.071297 
4440.000000	64.093399 
4439.000000	64.134049 
4438.000000	64.188194 
4437.000000	64.246702 
4436.000000	64.298582 
4435.000000	64.333868 
4434.000000	64.346861 
4433.000000	64.336943 
4432.000000	64.308047 
4431.000000	64.267635 
4430.000000	64.223623 
4429.000000	64.183568 
4428.000000	64.153337 
4427.000000	64.136171 
4426.000000	64.133739 
4425.000000	64.144659 
4424.000000	64.166307 
4423.000000	64.193582 
4422.000000	64.219951 
4421.000000	64.238071 
4420.000000	64.240980 
4419.000000	64.223432 
4418.000000	64.183259 
4417.000000	64.120149 
4416.000000	64.036059 
4415.000000	63.935208 
4414.000000	63.824272 
4413.000000	63.714814 
4412.000000	63.621187 
4411.000000	63.557291 
4410.000000	63.533544 
4409.000000	63.553118 
4408.000000	63.611865 
4407.000000	63.698673 
4406.000000	63.799214 
4405.000000	63.897657 
4404.000000	63.982081 
4403.000000	64.045429 
4402.000000	64.087867 
4401.000000	64.118957 
4400.000000	64.149236 
4399.000000	64.184498 
4398.000000	64.224052 
4397.000000	64.256525 
4396.000000	64.269852 
4395.000000	64.256381 
4394.000000	64.219021 
4393.000000	64.171433 
4392.000000	64.140939 
4391.000000	64.165139 
4390.000000	64.260935 
4389.000000	64.415979 
4388.000000	64.587593 
4387.000000	64.713835 
4386.000000	64.726305 
4385.000000	64.576625 
4384.000000	64.259457 
4383.000000	63.820791 
4382.000000	63.360714 
4381.000000	62.999725 
4380.000000	62.850189 
4379.000000	62.970161 
4378.000000	63.345956 
4377.000000	63.881897 
4376.000000	64.414596 
4375.000000	64.763903 
4374.000000	64.778327 
4373.000000	64.390468 
4372.000000	63.628935 
4371.000000	62.638163 
4370.000000	61.632943 
4369.000000	60.869526 
4368.000000	60.565328 
4367.000000	60.880970 
4366.000000	61.877727 
4365.000000	63.520884 
4364.000000	65.687632 
4363.000000	68.197464 
4362.000000	70.843553 
4361.000000	73.418307 
4360.000000	75.735116 
4359.000000	77.637505 
4358.000000	79.005050 
4357.000000	79.759454 
4356.000000	79.863071 
4355.000000	79.331040 
4354.000000	78.221201 
4353.000000	76.657128 
4352.000000	74.792218 
4351.000000	72.814083 
4350.000000	70.896840 
4349.000000	69.200181 
4348.000000	67.827796 
4347.000000	66.828608 
4346.000000	66.189098 
4345.000000	65.848088 
4344.000000	65.717554 
4343.000000	65.702939 
4342.000000	65.726256 
4341.000000	65.726661 
4340.000000	65.679836 
4339.000000	65.584015 
4338.000000	65.458416 
4337.000000	65.322589 
4336.000000	65.195298 
4335.000000	65.084338 
4334.000000	64.987659 
4333.000000	64.894461 
4332.000000	64.798879 
4331.000000	64.702463 
4330.000000	64.608407 
4329.000000	64.522600 
4328.000000	64.456272 
4327.000000	64.420366 
4326.000000	64.415383 
4325.000000	64.435219 
4324.000000	64.467597 
4323.000000	64.499402 
4322.000000	64.523553 
4321.000000	64.538025 
4320.000000	64.541363 
4319.000000	64.536261 
4318.000000	64.531803 
4317.000000	64.534950 
4316.000000	64.543843 
4315.000000	64.553380 
4314.000000	64.558529 
4313.000000	64.552593 
4312.000000	64.529395 
4311.000000	64.486169 
4310.000000	64.424777 
4309.000000	64.351201 
4308.000000	64.274525 
4307.000000	64.204883 
4306.000000	64.151453 
4305.000000	64.120411 
4304.000000	64.113759 
4303.000000	64.130067 
4302.000000	64.164876 
4301.000000	64.211821 
4300.000000	64.264035 
4299.000000	64.315056 
4298.000000	64.360380 
4297.000000	64.397525 
4296.000000	64.426398 
4295.000000	64.448857 
4294.000000	64.467096 
4293.000000	64.482164 
4292.000000	64.493417 
4291.000000	64.498639 
4290.000000	64.494895 
4289.000000	64.479875 
4288.000000	64.453458 
4287.000000	64.418458 
4286.000000	64.380502 
4285.000000	64.347028 
4284.000000	64.325785 
4283.000000	64.322948 
4282.000000	64.341497 
4281.000000	64.379978 
4280.000000	64.432787 
4279.000000	64.490914 
4278.000000	64.542913 
4277.000000	64.577293 
4276.000000	64.584302 
4275.000000	64.558553 
4274.000000	64.499497 
4273.000000	64.412808 
4272.000000	64.308786 
4271.000000	64.201688 
4270.000000	64.107275 
4269.000000	64.039826 
4268.000000	64.009928 
4267.000000	64.021968 
4266.000000	64.073848 
4265.000000	64.156818 
4264.000000	64.257168 
4263.000000	64.359402 
4262.000000	64.448642 
4261.000000	64.514493 
4260.000000	64.551830 
4259.000000	64.562511 
4258.000000	64.553332 
4257.000000	64.534687 
4256.000000	64.517235 
4255.000000	64.509868 
4254.000000	64.517283 
4253.000000	64.539718 
4252.000000	64.572882 
4251.000000	64.609169 
4250.000000	64.639711 
4249.000000	64.656543 
4248.000000	64.654541 
4247.000000	64.632296 
4246.000000	64.592576 
4245.000000	64.540958 
4244.000000	64.485239 
4243.000000	64.433026 
4242.000000	64.390921 
4241.000000	64.363336 
4240.000000	64.352440 
4239.000000	64.357852 
4238.000000	64.377737 
4237.000000	64.409852 
4236.000000	64.451599 
4235.000000	64.500236 
4234.000000	64.552950 
4233.000000	64.606547 
4232.000000	64.657402 
4231.000000	64.701366 
4230.000000	64.734363 
4229.000000	64.752554 
4228.000000	64.753866 
4227.000000	64.738607 
4226.000000	64.709854 
4225.000000	64.672803 
4224.000000	64.634156 
4223.000000	64.600515 
4222.000000	64.577221 
4221.000000	64.567446 
4220.000000	64.571666 
4219.000000	64.587831 
4218.000000	64.611959 
4217.000000	64.639472 
4216.000000	64.666175 
4215.000000	64.689517 
4214.000000	64.708328 
4213.000000	64.723587 
4212.000000	64.737439 
4211.000000	64.753031 
4210.000000	64.773488 
4209.000000	64.801001 
4208.000000	64.836478 
4207.000000	64.878726 
4206.000000	64.925384 
4205.000000	64.972186 
4204.000000	65.014386 
4203.000000	65.046858 
4202.000000	65.065169 
4201.000000	65.067172 
4200.000000	65.053510 
4199.000000	65.027475 
4198.000000	64.994144 
4197.000000	64.959621 
4196.000000	64.929366 
4195.000000	64.907288 
4194.000000	64.894294 
4193.000000	64.888453 
4192.000000	64.885210 
4191.000000	64.879131 
4190.000000	64.865159 
4189.000000	64.839529 
4188.000000	64.801406 
4187.000000	64.752459 
4186.000000	64.697504 
4185.000000	64.642572 
4184.000000	64.594817 
4183.000000	64.560389 
4182.000000	64.543819 
4181.000000	64.547181 
4180.000000	64.569139 
4179.000000	64.605927 
4178.000000	64.650058 
4177.000000	64.692068 
4176.000000	64.721250 
4175.000000	64.727830 
4174.000000	64.704990 
4173.000000	64.650559 
4172.000000	64.568209 
4171.000000	64.466977 
4170.000000	64.360666 
4169.000000	64.264845 
4168.000000	64.194107 
4167.000000	64.158987 
4166.000000	64.163637 
4165.000000	64.205169 
4164.000000	64.274382 
4163.000000	64.358305 
4162.000000	64.442920 
4161.000000	64.516758 
4160.000000	64.572262 
4159.000000	64.608097 
4158.000000	64.627337 
4157.000000	64.637422 
4156.000000	64.646530 
4155.000000	64.662837 
4154.000000	64.691972 
4153.000000	64.736485 
4152.000000	64.796376 
4151.000000	64.868354 
4150.000000	64.947366 
4149.000000	65.026760 
4148.000000	65.099954 
4147.000000	65.160632 
4146.000000	65.203690 
4145.000000	65.225720 
4144.000000	65.225553 
4143.000000	65.204834 
4142.000000	65.167522 
4141.000000	65.120053 
4140.000000	65.069365 
4139.000000	65.022325 
4138.000000	64.983677 
4137.000000	64.956116 
4136.000000	64.939188 
4135.000000	64.930057 
4134.000000	64.924383 
4133.000000	64.917778 
4132.000000	64.907431 
4131.000000	64.892697 
4130.000000	64.875578 
4129.000000	64.859366 
4128.000000	64.848399 
4127.000000	64.846301 
4126.000000	64.855384 
4125.000000	64.875435 
4124.000000	64.904165 
4123.000000	64.937567 
4122.000000	64.970993 
4121.000000	65.000033 
4120.000000	65.021204 
4119.000000	65.032529 
4118.000000	65.032815 
4117.000000	65.021872 
4116.000000	65.000367 
4115.000000	64.969825 
4114.000000	64.932560 
4113.000000	64.891624 
4112.000000	64.850974 
4111.000000	64.815044 
4110.000000	64.788460 
4109.000000	64.775109 
4108.000000	64.777112 
4107.000000	64.794301 
4106.000000	64.824128 
4105.000000	64.862155 
4104.000000	64.902591 
4103.000000	64.940190 
4102.000000	64.970755 
4101.000000	64.992642 
4100.000000	65.006756 
4099.000000	65.015935 
4098.000000	65.024137 
4097.000000	65.034699 
4096.000000	65.049338 
4095.000000	65.067338 
4094.000000	65.085721 
4093.000000	65.100049 
4092.000000	65.105986 
4091.000000	65.100312 
4090.000000	65.082383 
4089.000000	65.054559 
4088.000000	65.021753 
4087.000000	64.990305 
4086.000000	64.966535 
4085.000000	64.955091 
4084.000000	64.957904 
4083.000000	64.973950 
4082.000000	64.999556 
4081.000000	65.029621 
4080.000000	65.058565 
4079.000000	65.081715 
4078.000000	65.095925 
4077.000000	65.100002 
4076.000000	65.094399 
4075.000000	65.080738 
4074.000000	65.061330 
4073.000000	65.038418 
4072.000000	65.014052 
4071.000000	64.990067 
4070.000000	64.967632 
4069.000000	64.947676 
4068.000000	64.930510 
4067.000000	64.916086 
4066.000000	64.903926 
4065.000000	64.893364 
4064.000000	64.883732 
4063.000000	64.874744 
4062.000000	64.866971 
4061.000000	64.861845 
4060.000000	64.861607 
4059.000000	64.868140 
4058.000000	64.882493 
4057.000000	64.903759 
4056.000000	64.928770 
4055.000000	64.952564 
4054.000000	64.968776 
4053.000000	64.971947 
4052.000000	64.958333 
4051.000000	64.928197 
4050.000000	64.885473 
4049.000000	64.838027 
4048.000000	64.795827 
4047.000000	64.769005 
4046.000000	64.765405 
4045.000000	64.788556 
4044.000000	64.836883 
4043.000000	64.903569 
4042.000000	64.978313 
4041.000000	65.049195 
4040.000000	65.105485 
4039.000000	65.139698 
4038.000000	65.149021 
4037.000000	65.135455 
4036.000000	65.104985 
4035.000000	65.066051 
4034.000000	65.027308 
4033.000000	64.996147 
4032.000000	64.977121 
4031.000000	64.971446 
4030.000000	64.977240 
4029.000000	64.990925 
4028.000000	65.008521 
4027.000000	65.026974 
4026.000000	65.045189 
4025.000000	65.063595 
4024.000000	65.084147 
4023.000000	65.109062 
4022.000000	65.139770 
4021.000000	65.175986 
4020.000000	65.215039 
4019.000000	65.252470 
4018.000000	65.282464 
4017.000000	65.299654 
4016.000000	65.299773 
4015.000000	65.280771 
4014.000000	65.243268 
4013.000000	65.190505 
4012.000000	65.127730 
4011.000000	65.061306 
4010.000000	64.997839 
4009.000000	64.943003 
4008.000000	64.901471 
4007.000000	64.876461 
4006.000000	64.869403 
4005.000000	64.879775 
4004.000000	64.905190 
4003.000000	64.941549 
4002.000000	64.983177 
4001.000000	65.023827 
4000.000000	65.057110 
3999.000000	65.078425 
3998.000000	65.084815 
3997.000000	65.076637 
3996.000000	65.056848 
3995.000000	65.031027 
3994.000000	65.005826 
3993.000000	64.987421 
3992.000000	64.980411 
3991.000000	64.986348 
3990.000000	65.003776 
3989.000000	65.028357 
3988.000000	65.054464 
3987.000000	65.076112 
3986.000000	65.088868 
3985.000000	65.090560 
3984.000000	65.082049 
3983.000000	65.066409 
3982.000000	65.048122 
3981.000000	65.031456 
3980.000000	65.019416 
3979.000000	65.013265 
3978.000000	65.012431 
3977.000000	65.014624 
3976.000000	65.016865 
3975.000000	65.016984 
3974.000000	65.014028 
3973.000000	65.008687 
3972.000000	65.003108 
3971.000000	64.999723 
3970.000000	65.000915 
3969.000000	65.007996 
3968.000000	65.020680 
3967.000000	65.037012 
3966.000000	65.053677 
3965.000000	65.067267 
3964.000000	65.074515 
3963.000000	65.073442 
3962.000000	65.063190 
3961.000000	65.044331 
3960.000000	65.018153 
3959.000000	64.986610 
3958.000000	64.951825 
3957.000000	64.916133 
3956.000000	64.881968 
3955.000000	64.852023 
3954.000000	64.829421 
3953.000000	64.817595 
3952.000000	64.819788 
3951.000000	64.838337 
3950.000000	64.873862 
3949.000000	64.924430 
3948.000000	64.985609 
3947.000000	65.050745 
3946.000000	65.111827 
3945.000000	65.161037 
3944.000000	65.191936 
3943.000000	65.200829 
3942.000000	65.187597 
3941.000000	65.155196 
3940.000000	65.109419 
3939.000000	65.056967 
3938.000000	65.004348 
3937.000000	64.956378 
3936.000000	64.915895 
3935.000000	64.883470 
3934.000000	64.858007 
3933.000000	64.837765 
3932.000000	64.821553 
3931.000000	64.809083 
3930.000000	64.801406 
3929.000000	64.800333 
3928.000000	64.807796 
3927.000000	64.825129 
3926.000000	64.852309 
3925.000000	64.887642 
3924.000000	64.927768 
3923.000000	64.967918 
3922.000000	65.002846 
3921.000000	65.027904 
3920.000000	65.039539 
3919.000000	65.036106 
3918.000000	65.018105 
3917.000000	64.987683 
3916.000000	64.948725 
3915.000000	64.905810 
3914.000000	64.863944 
3913.000000	64.827775 
3912.000000	64.801311 
3911.000000	64.787673 
3910.000000	64.788818 
3909.000000	64.805650 
3908.000000	64.837455 
3907.000000	64.881730 
3906.000000	64.934301 
3905.000000	64.989805 
3904.000000	65.042161 
3903.000000	65.085363 
3902.000000	65.114426 
3901.000000	65.126347 
3900.000000	65.120983 
3899.000000	65.100955 
3898.000000	65.071249 
3897.000000	65.038013 
3896.000000	65.007328 
3895.000000	64.983749 
3894.000000	64.969706 
3893.000000	64.964938 
3892.000000	64.967179 
3891.000000	64.972972 
3890.000000	64.978647 
3889.000000	64.981818 
3888.000000	64.981651 
3887.000000	64.979600 
3886.000000	64.978289 
3885.000000	64.981269 
3884.000000	64.991712 
3883.000000	65.011382 
3882.000000	65.040326 
3881.000000	65.076041 
3880.000000	65.114188 
3879.000000	65.148663 
3878.000000	65.173268 
3877.000000	65.182304 
3876.000000	65.171766 
3875.000000	65.140080 
3874.000000	65.088582 
3873.000000	65.021705 
3872.000000	64.946460 
3871.000000	64.871311 
3870.000000	64.804887 
3869.000000	64.754772 
3868.000000	64.726138 
3867.000000	64.720845 
3866.000000	64.737272 
3865.000000	64.770865 
3864.000000	64.815020 
3863.000000	64.862442 
3862.000000	64.906454 
3861.000000	64.941978 
3860.000000	64.966440 
3859.000000	64.979243 
3858.000000	64.981842 
3857.000000	64.976644 
3856.000000	64.966535 
3855.000000	64.954161 
3854.000000	64.941430 
3853.000000	64.929509 
3852.000000	64.918971 
3851.000000	64.910221 
3850.000000	64.903545 
3849.000000	64.899134 
3848.000000	64.897084 
3847.000000	64.897179 
3846.000000	64.899134 
3845.000000	64.902162 
3844.000000	64.905381 
3843.000000	64.907670 
3842.000000	64.907908 
3841.000000	64.905023 
3840.000000	64.898419 
3839.000000	64.887785 
3838.000000	64.873123 
3837.000000	64.855122 
3836.000000	64.834666 
3835.000000	64.813899 
3834.000000	64.795327 
3833.000000	64.782357 
3832.000000	64.778423 
3831.000000	64.786887 
3830.000000	64.810156 
3829.000000	64.849066 
3828.000000	64.902138 
3827.000000	64.965391 
3826.000000	65.032792 
3825.000000	65.097117 
3824.000000	65.151166 
3823.000000	65.189146 
3822.000000	65.207457 
3821.000000	65.205860 
3820.000000	65.187191 
3819.000000	65.156602 
3818.000000	65.120291 
3817.000000	65.084266 
3816.000000	65.052938 
3815.000000	65.028452 
3814.000000	65.010285 
3813.000000	64.996290 
3812.000000	64.983177 
3811.000000	64.967703 
3810.000000	64.947700 
3809.000000	64.922308 
3808.000000	64.892697 
3807.000000	64.861273 
3806.000000	64.831566 
3805.000000	64.806795 
3804.000000	64.789795 
3803.000000	64.781975 
3802.000000	64.783716 
3801.000000	64.794039 
3800.000000	64.811491 
3799.000000	64.834380 
3798.000000	64.861178 
3797.000000	64.890551 
3796.000000	64.921116 
3795.000000	64.951276 
3794.000000	64.979124 
3793.000000	65.002417 
3792.000000	65.019226 
3791.000000	65.028119 
3790.000000	65.028953 
3789.000000	65.022659 
3788.000000	65.011429 
3787.000000	64.998102 
3786.000000	64.985895 
3785.000000	64.977335 
3784.000000	64.973831 
3783.000000	64.975190 
3782.000000	64.980292 
3781.000000	64.987039 
3780.000000	64.993238 
3779.000000	64.997005 
3778.000000	64.997172 
3777.000000	64.993500 
3776.000000	64.986491 
3775.000000	64.977407 
3774.000000	64.967632 
3773.000000	64.959144 
3772.000000	64.954042 
3771.000000	64.954662 
3770.000000	64.963030 
3769.000000	64.980649 
3768.000000	65.007996 
3767.000000	65.043973 
3766.000000	65.085935 
3765.000000	65.130209 
3764.000000	65.172672 
3763.000000	65.209460 
3762.000000	65.237832 
3761.000000	65.256738 
3760.000000	65.266799 
3759.000000	65.270256 
3758.000000	65.270066 
3757.000000	65.269064 
3756.000000	65.268898 
3755.000000	65.270209 
3754.000000	65.271782 
3753.000000	65.271353 
3752.000000	65.266060 
3751.000000	65.253496 
3750.000000	65.232300 
3749.000000	65.202856 
3748.000000	65.167140 
3747.000000	65.128183 
3746.000000	65.089631 
3745.000000	65.054726 
3744.000000	65.025734 
3743.000000	65.003418 
3742.000000	64.987301 
3741.000000	64.975833 
3740.000000	64.966940 
3739.000000	64.958834 
3738.000000	64.950513 
3737.000000	64.942264 
3736.000000	64.935278 
3735.000000	64.931607 
3734.000000	64.933490 
3733.000000	64.942836 
3732.000000	64.960622 
3731.000000	64.986371 
3730.000000	65.018248 
3729.000000	65.053057 
3728.000000	65.086793 
3727.000000	65.115046 
3726.000000	65.133571 
3725.000000	65.139198 
3724.000000	65.130400 
3723.000000	65.107679 
3722.000000	65.073657 
3721.000000	65.032744 
3720.000000	64.990615 
3719.000000	64.952969 
3718.000000	64.924478 
3717.000000	64.908123 
3716.000000	64.904522 
3715.000000	64.911913 
3714.000000	64.926671 
3713.000000	64.944338 
3712.000000	64.960694 
3711.000000	64.972805 
3710.000000	64.979434 
3709.000000	64.981245 
3708.000000	64.980554 
3707.000000	64.980030 
3706.000000	64.982366 
3705.000000	64.989042 
3704.000000	65.000224 
3703.000000	65.015149 
3702.000000	65.032052 
3701.000000	65.049195 
3700.000000	65.065121 
3699.000000	65.079116 
3698.000000	65.091109 
3697.000000	65.101313 
3696.000000	65.110135 
3695.000000	65.117883 
3694.000000	65.124511 
3693.000000	65.129470 
3692.000000	65.131878 
3691.000000	65.130996 
3690.000000	65.126371 
3689.000000	65.118336 
3688.000000	65.107870 
3687.000000	65.096664 
3686.000000	65.086841 
3685.000000	65.080547 
3684.000000	65.079760 
3683.000000	65.085411 
3682.000000	65.097403 
3681.000000	65.114355 
3680.000000	65.133786 
3679.000000	65.152311 
3678.000000	65.166354 
3677.000000	65.172624 
3676.000000	65.169167 
3675.000000	65.155363 
3674.000000	65.132308 
3673.000000	65.102028 
3672.000000	65.067315 
3671.000000	65.030717 
3670.000000	64.994263 
3669.000000	64.959454 
3668.000000	64.927196 
3667.000000	64.898276 
3666.000000	64.873528 
3665.000000	64.854168 
3664.000000	64.841413 
3663.000000	64.836478 
3662.000000	64.839911 
3661.000000	64.851546 
3660.000000	64.870119 
3659.000000	64.893436 
3658.000000	64.918661 
3657.000000	64.942979 
3656.000000	64.963936 
3655.000000	64.979958 
3654.000000	64.990305 
3653.000000	64.994955 
3652.000000	64.994359 
3651.000000	64.989185 
3650.000000	64.980316 
3649.000000	64.968729 
3648.000000	64.955663 
3647.000000	64.942741 
3646.000000	64.931774 
3645.000000	64.924693 
3644.000000	64.923095 
3643.000000	64.928078 
3642.000000	64.940118 
3641.000000	64.958572 
3640.000000	64.982318 
3639.000000	65.009641 
3638.000000	65.038561 
3637.000000	65.067076 
3636.000000	65.093374 
3635.000000	65.115857 
3634.000000	65.133380 
3633.000000	65.145301 
3632.000000	65.151357 
3631.000000	65.151786 
3630.000000	65.147495 
3629.000000	65.140080 
3628.000000	65.131402 
3627.000000	65.123438 
3626.000000	65.117859 
3625.000000	65.115714 
3624.000000	65.117073 
3623.000000	65.121221 
3622.000000	65.126895 
3621.000000	65.132689 
3620.000000	65.137672 
3619.000000	65.141582 
3618.000000	65.144753 
3617.000000	65.147995 
3616.000000	65.152239 
3615.000000	65.158176 
3614.000000	65.165686 
3613.000000	65.173792 
3612.000000	65.180659 
3611.000000	65.183949 
3610.000000	65.181446 
3609.000000	65.171217 
3608.000000	65.152406 
3607.000000	65.125250 
3606.000000	65.091180 
3605.000000	65.052509 
3604.000000	65.012121 
3603.000000	64.973068 
3602.000000	64.938235 
3601.000000	64.909958 
3600.000000	64.889907 
3599.000000	64.878821 
3598.000000	64.876818 
3597.000000	64.883160 
3596.000000	64.896583 
3595.000000	64.915442 
3594.000000	64.938020 
3593.000000	64.962434 
3592.000000	64.986872 
3591.000000	65.009593 
3590.000000	65.029191 
3589.000000	65.044283 
3588.000000	65.054106 
3587.000000	65.058088 
3586.000000	65.056324 
3585.000000	65.049552 
3584.000000	65.039181 
3583.000000	65.027046 
3582.000000	65.015316 
3581.000000	65.006136 
3580.000000	65.001463 
3579.000000	65.002584 
3578.000000	65.009927 
3577.000000	65.023064 
3576.000000	65.040636 
3575.000000	65.060448 
3574.000000	65.080213 
3573.000000	65.097451 
3572.000000	65.109777 
3571.000000	65.115094 
3570.000000	65.112376 
3569.000000	65.101432 
3568.000000	65.082859 
3567.000000	65.058445 
3566.000000	65.030765 
3565.000000	65.003347 
3564.000000	64.979910 
3563.000000	64.964342 
3562.000000	64.959621 
3561.000000	64.967489 
3560.000000	64.988136 
3559.000000	65.019583 
3558.000000	65.058135 
3557.000000	65.098738 
3556.000000	65.135979 
3555.000000	65.164852 
3554.000000	65.181636 
3553.000000	65.184521 
3552.000000	65.173840 
3551.000000	65.151953 
3550.000000	65.122914 
3549.000000	65.091609 
3548.000000	65.062928 
3547.000000	65.041375 
3546.000000	65.030217 
3545.000000	65.031409 
3544.000000	65.045309 
3543.000000	65.070867 
3542.000000	65.105628 
3541.000000	65.146422 
3540.000000	65.189528 
3539.000000	65.231013 
3538.000000	65.267252 
3537.000000	65.295362 
3536.000000	65.313482 
3535.000000	65.320801 
3534.000000	65.317535 
3533.000000	65.304708 
3532.000000	65.283942 
3531.000000	65.257358 
3530.000000	65.227007 
3529.000000	65.194773 
3528.000000	65.162420 
3527.000000	65.131878 
3526.000000	65.105414 
3525.000000	65.085673 
3524.000000	65.075445 
3523.000000	65.077042 
3522.000000	65.091609 
3521.000000	65.118646 
3520.000000	65.155386 
3519.000000	65.197181 
3518.000000	65.238213 
3517.000000	65.272450 
3516.000000	65.295124 
3515.000000	65.302920 
3514.000000	65.294456 
3513.000000	65.270352 
3512.000000	65.232777 
3511.000000	65.185475 
3510.000000	65.133213 
3509.000000	65.081238 
3508.000000	65.034842 
3507.000000	64.998722 
3506.000000	64.976620 
3505.000000	64.970636 
3504.000000	64.980864 
3503.000000	65.005350 
3502.000000	65.040493 
3501.000000	65.081644 
3500.000000	65.123605 
3499.000000	65.161633 
3498.000000	65.191984 
3497.000000	65.212416 
3496.000000	65.222477 
3495.000000	65.223145 
3494.000000	65.216493 
3493.000000	65.205121 
3492.000000	65.191888 
3491.000000	65.180015 
3490.000000	65.172338 
3489.000000	65.171384 
3488.000000	65.178465 
3487.000000	65.193963 
3486.000000	65.216517 
3485.000000	65.243291 
3484.000000	65.270495 
3483.000000	65.293979 
3482.000000	65.310144 
3481.000000	65.316820 
3480.000000	65.313410 
3479.000000	65.301036 
3478.000000	65.282297 
3477.000000	65.260672 
3476.000000	65.240049 
3475.000000	65.223932 
3474.000000	65.215039 
3473.000000	65.215134 
3472.000000	65.224719 
3471.000000	65.242886 
3470.000000	65.267300 
3469.000000	65.294289 
3468.000000	65.319108 
3467.000000	65.336585 
3466.000000	65.341424 
3465.000000	65.329813 
3464.000000	65.300154 
3463.000000	65.253853 
3462.000000	65.195703 
3461.000000	65.132927 
3460.000000	65.073990 
3459.000000	65.027022 
3458.000000	64.998030 
3457.000000	64.989781 
3456.000000	65.001630 
3455.000000	65.029573 
3454.000000	65.067243 
3453.000000	65.107750 
3452.000000	65.144753 
3451.000000	65.174126 
3450.000000	65.193819 
3449.000000	65.204644 
3448.000000	65.208959 
3447.000000	65.210223 
3446.000000	65.211558 
3445.000000	65.214776 
3444.000000	65.220165 
3443.000000	65.226364 
3442.000000	65.230989 
3441.000000	65.231466 
3440.000000	65.225577 
3439.000000	65.212321 
3438.000000	65.192246 
3437.000000	65.167284 
3436.000000	65.140223 
3435.000000	65.114331 
3434.000000	65.092229 
3433.000000	65.075111 
3432.000000	65.062546 
3431.000000	65.052938 
3430.000000	65.043711 
3429.000000	65.032172 
3428.000000	65.016317 
3427.000000	64.995551 
3426.000000	64.970684 
3425.000000	64.943695 
3424.000000	64.917159 
3423.000000	64.893531 
3422.000000	64.875006 
3421.000000	64.862918 
3420.000000	64.857745 
3419.000000	64.858865 
3418.000000	64.864826 
3417.000000	64.873981 
3416.000000	64.884424 
3415.000000	64.894533 
3414.000000	64.902877 
3413.000000	64.908838 
3412.000000	64.912486 
3411.000000	64.914894 
3410.000000	64.917922 
3409.000000	64.923858 
3408.000000	64.935064 
3407.000000	64.953207 
3406.000000	64.978671 
3405.000000	65.010333 
3404.000000	65.045571 
3403.000000	65.080475 
3402.000000	65.110898 
3401.000000	65.132951 
3400.000000	65.144300 
3399.000000	65.143871 
3398.000000	65.132164 
3397.000000	65.110659 
3396.000000	65.081501 
3395.000000	65.047073 
3394.000000	65.009546 
3393.000000	64.971089 
3392.000000	64.933872 
3391.000000	64.900326 
3390.000000	64.873242 
3389.000000	64.855623 
3388.000000	64.850306 
3387.000000	64.859223 
3386.000000	64.882826 
3385.000000	64.919424 
3384.000000	64.965295 
3383.000000	65.014934 
3382.000000	65.062141 
3381.000000	65.100789 
3380.000000	65.126180 
3379.000000	65.136098 
3378.000000	65.130972 
3377.000000	65.113759 
3376.000000	65.089368 
3375.000000	65.063524 
3374.000000	65.041399 
3373.000000	65.026879 
3372.000000	65.021491 
3371.000000	65.024638 
3370.000000	65.033483 
3369.000000	65.044379 
3368.000000	65.053391 
3367.000000	65.057563 
3366.000000	65.055441 
3365.000000	65.047454 
3364.000000	65.035629 
3363.000000	65.022778 
3362.000000	65.011882 
3361.000000	65.005350 
3360.000000	65.004158 
3359.000000	65.007829 
3358.000000	65.014481 
3357.000000	65.021634 
3356.000000	65.026521 
3355.000000	65.027070 
3354.000000	65.022134 
3353.000000	65.011906 
3352.000000	64.997792 
3351.000000	64.982104 
3350.000000	64.967298 
3349.000000	64.955544 
3348.000000	64.948582 
3347.000000	64.947247 
3346.000000	64.951658 
3345.000000	64.961051 
3344.000000	64.974069 
3343.000000	64.989089 
3342.000000	65.004539 
3341.000000	65.019249 
3340.000000	65.032339 
3339.000000	65.043663 
3338.000000	65.053462 
3337.000000	65.062189 
3336.000000	65.070080 
3335.000000	65.077376 
3334.000000	65.083861 
3333.000000	65.089249 
3332.000000	65.093278 
3331.000000	65.095710 
3330.000000	65.096449 
3329.000000	65.095281 
3328.000000	65.091776 
3327.000000	65.085458 
3326.000000	65.076041 
3325.000000	65.063810 
3324.000000	65.049910 
3323.000000	65.036296 
3322.000000	65.025544 
3321.000000	65.020394 
3320.000000	65.023016 
3319.000000	65.034508 
3318.000000	65.054321 
3317.000000	65.080046 
3316.000000	65.108323 
3315.000000	65.135121 
3314.000000	65.157127 
3313.000000	65.172457 
3312.000000	65.180897 
3311.000000	65.183830 
3310.000000	65.183734 
3309.000000	65.183377 
3308.000000	65.184783 
3307.000000	65.188503 
3306.000000	65.193724 
3305.000000	65.198445 
3304.000000	65.200424 
3303.000000	65.197563 
3302.000000	65.188932 
3301.000000	65.174698 
3300.000000	65.156316 
3299.000000	65.135836 
3298.000000	65.115261 
3297.000000	65.096426 
3296.000000	65.080475 
3295.000000	65.068340 
3294.000000	65.060687 
3293.000000	65.058231 
3292.000000	65.062117 
3291.000000	65.073227 
3290.000000	65.092134 
3289.000000	65.118074 
3288.000000	65.148687 
3287.000000	65.179944 
3286.000000	65.206837 
3285.000000	65.224099 
3284.000000	65.227365 
3283.000000	65.214252 
3282.000000	65.185236 
3281.000000	65.143442 
3280.000000	65.094041 
3279.000000	65.043306 
3278.000000	64.997053 
3277.000000	64.959859 
3276.000000	64.934253 
3275.000000	64.920759 
3274.000000	64.918565 
3273.000000	64.926123 
3272.000000	64.942073 
3271.000000	64.965558 
3270.000000	64.996480 
3269.000000	65.034770 
3268.000000	65.080046 
3267.000000	65.130591 
3266.000000	65.183329 
3265.000000	65.233874 
3264.000000	65.277051 
3263.000000	65.307831 
3262.000000	65.322208 
3261.000000	65.318417 
3260.000000	65.297174 
3259.000000	65.261721 
3258.000000	65.217161 
3257.000000	65.169477 
3256.000000	65.124392 
3255.000000	65.086436 
3254.000000	65.058350 
3253.000000	65.040850 
3252.000000	65.032839 
3251.000000	65.032243 
3250.000000	65.036416 
3249.000000	65.043163 
3248.000000	65.050697 
3247.000000	65.058398 
3246.000000	65.066051 
3245.000000	65.074157 
3244.000000	65.083432 
3243.000000	65.094566 
3242.000000	65.107941 
3241.000000	65.123605 
3240.000000	65.141224 
3239.000000	65.159940 
3238.000000	65.178585 
3237.000000	65.195345 
3236.000000	65.208244 
3235.000000	65.214943 
3234.000000	65.213370 
3233.000000	65.202140 
3232.000000	65.180802 
3231.000000	65.150547 
3230.000000	65.113997 
3229.000000	65.075016 
3228.000000	65.038013 
3227.000000	65.007472 
3226.000000	64.986896 
3225.000000	64.978194 
3224.000000	64.981031 
3223.000000	64.993023 
3222.000000	65.010118 
3221.000000	65.027046 
3220.000000	65.038633 
3219.000000	65.040588 
3218.000000	65.030598 
3217.000000	65.008807 
3216.000000	64.978194 
3215.000000	64.943408 
3214.000000	64.910578 
3213.000000	64.885568 
3212.000000	64.873242 
3211.000000	64.876270 
3210.000000	64.895033 
3209.000000	64.927482 
3208.000000	64.970207 
3207.000000	65.018844 
3206.000000	65.069508 
3205.000000	65.119194 
3204.000000	65.166044 
3203.000000	65.209054 
3202.000000	65.247702 
3201.000000	65.281128 
3200.000000	65.307784 
3199.000000	65.325498 
3198.000000	65.331888 
3197.000000	65.325164 
3196.000000	65.305209 
3195.000000	65.273547 
3194.000000	65.233683 
3193.000000	65.190434 
3192.000000	65.149140 
3191.000000	65.114879 
3190.000000	65.091347 
3189.000000	65.080523 
3188.000000	65.082359 
3187.000000	65.095281 
3186.000000	65.116906 
3185.000000	65.144491 
3184.000000	65.175437 
3183.000000	65.207719 
3182.000000	65.239477 
3181.000000	65.269231 
3180.000000	65.295481 
3179.000000	65.316629 
3178.000000	65.330886 
3177.000000	65.336513 
3176.000000	65.332269 
3175.000000	65.317440 
3174.000000	65.292167 
3173.000000	65.257453 
3172.000000	65.215253 
3171.000000	65.168380 
3170.000000	65.120387 
3169.000000	65.075111 
3168.000000	65.036201 
3167.000000	65.006613 
3166.000000	64.988136 
3165.000000	64.980912 
3164.000000	64.983534 
3163.000000	64.993166 
3162.000000	65.006041 
3161.000000	65.017843 
3160.000000	65.025091 
3159.000000	65.025329 
3158.000000	65.018224 
3157.000000	65.004920 
3156.000000	64.988303 
3155.000000	64.972090 
3154.000000	64.960050 
3153.000000	64.955234 
3152.000000	64.959406 
3151.000000	64.972710 
3150.000000	64.993834 
3149.000000	65.020513 
3148.000000	65.049910 
3147.000000	65.079069 
3146.000000	65.105652 
3145.000000	65.128374 
3144.000000	65.146851 
3143.000000	65.161561 
3142.000000	65.173792 
3141.000000	65.184783 
3140.000000	65.195345 
3139.000000	65.205025 
3138.000000	65.212702 
3137.000000	65.215969 
3136.000000	65.211915 
3135.000000	65.197467 
3134.000000	65.170431 
3133.000000	65.130281 
3132.000000	65.078401 
3131.000000	65.018582 
3130.000000	64.956140 
3129.000000	64.897871 
3128.000000	64.850687 
3127.000000	64.820933 
3126.000000	64.812922 
3125.000000	64.828848 
3124.000000	64.868116 
3123.000000	64.927792 
3122.000000	65.002632 
3121.000000	65.086221 
3120.000000	65.171766 
3119.000000	65.252447 
3118.000000	65.322351 
3117.000000	65.377020 
3116.000000	65.413928 
3115.000000	65.432357 
3114.000000	65.433430 
3113.000000	65.420269 
3112.000000	65.397095 
3111.000000	65.369224 
3110.000000	65.341663 
3109.000000	65.318655 
3108.000000	65.302371 
3107.000000	65.293502 
3106.000000	65.290808 
3105.000000	65.291857 
3104.000000	65.293741 
3103.000000	65.293931 
3102.000000	65.290999 
3101.000000	65.284562 
3100.000000	65.275621 
3099.000000	65.265798 
3098.000000	65.256977 
3097.000000	65.250396 
3096.000000	65.246510 
3095.000000	65.244603 
3094.000000	65.243053 
3093.000000	65.239691 
3092.000000	65.232133 
3091.000000	65.218544 
3090.000000	65.198206 
3089.000000	65.171837 
3088.000000	65.141248 
3087.000000	65.109276 
3086.000000	65.079617 
3085.000000	65.056133 
3084.000000	65.041947 
3083.000000	65.038824 
3082.000000	65.047001 
3081.000000	65.064835 
3080.000000	65.089201 
3079.000000	65.116024 
3078.000000	65.141010 
3077.000000	65.160632 
3076.000000	65.172767 
3075.000000	65.176868 
3074.000000	65.173864 
3073.000000	65.165829 
3072.000000	65.155172 
3071.000000	65.144181 
3070.000000	65.134453 
3069.000000	65.126752 
3068.000000	65.121245 
3067.000000	65.117430 
3066.000000	65.114617 
3065.000000	65.112257 
3064.000000	65.110182 
3063.000000	65.108418 
3062.000000	65.107035 
3061.000000	65.106129 
3060.000000	65.105652 
3059.000000	65.105175 
3058.000000	65.104246 
3057.000000	65.102386 
3056.000000	65.099358 
3055.000000	65.095186 
3054.000000	65.090274 
3053.000000	65.085148 
3052.000000	65.080356 
3051.000000	65.076446 
3050.000000	65.073657 
3049.000000	65.071892 
3048.000000	65.070962 
3047.000000	65.070676 
3046.000000	65.071177 
3045.000000	65.072774 
3044.000000	65.076327 
3043.000000	65.082836 
3042.000000	65.093302 
3041.000000	65.108442 
3040.000000	65.128302 
3039.000000	65.152049 
3038.000000	65.178060 
3037.000000	65.204262 
3036.000000	65.228486 
3035.000000	65.248823 
3034.000000	65.264153 
3033.000000	65.274024 
3032.000000	65.278792 
3031.000000	65.279340 
3030.000000	65.276527 
3029.000000	65.270972 
3028.000000	65.263080 
3027.000000	65.252637 
3026.000000	65.239262 
3025.000000	65.222811 
3024.000000	65.203499 
3023.000000	65.182256 
3022.000000	65.160799 
3021.000000	65.141153 
3020.000000	65.125441 
3019.000000	65.115356 
3018.000000	65.111780 
3017.000000	65.114569 
3016.000000	65.122652 
3015.000000	65.134286 
3014.000000	65.147423 
3013.000000	65.160036 
3012.000000	65.170574 
3011.000000	65.178108 
3010.000000	65.182089 
3009.000000	65.182375 
3008.000000	65.178894 
3007.000000	65.171551 
3006.000000	65.160179 
3005.000000	65.144586 
3004.000000	65.124773 
3003.000000	65.101075 
3002.000000	65.074372 
3001.000000	65.046000 
3000.000000	65.017724 
2999.000000	64.991450 
2998.000000	64.969277 
2997.000000	64.952826 
2996.000000	64.943408 
2995.000000	64.941525 
2994.000000	64.947152 
2993.000000	64.959406 
2992.000000	64.977073 
2991.000000	64.998435 
2990.000000	65.021681 
2989.000000	65.044832 
2988.000000	65.066194 
2987.000000	65.084433 
2986.000000	65.098905 
2985.000000	65.109443 
2984.000000	65.116286 
2983.000000	65.120077 
2982.000000	65.121412 
2981.000000	65.120840 
2980.000000	65.118694 
2979.000000	65.115261 
2978.000000	65.111207 
2977.000000	65.107321 
2976.000000	65.105032 
2975.000000	65.105605 
2974.000000	65.109968 
2973.000000	65.117859 
2972.000000	65.128040 
2971.000000	65.138053 
2970.000000	65.144586 
2969.000000	65.144610 
2968.000000	65.136146 
2967.000000	65.118908 
2966.000000	65.094518 
2965.000000	65.066361 
2964.000000	65.038847 
2963.000000	65.016269 
2962.000000	65.001845 
2961.000000	64.996647 
2960.000000	64.999485 
2959.000000	65.007472 
2958.000000	65.016865 
2957.000000	65.023946 
2956.000000	65.026044 
2955.000000	65.022230 
2954.000000	65.013432 
2953.000000	65.001678 
2952.000000	64.989590 
2951.000000	64.979720 
2950.000000	64.974045 
2949.000000	64.973235 
2948.000000	64.976835 
2947.000000	64.983463 
2946.000000	64.991521 
2945.000000	64.999437 
2944.000000	65.006399 
2943.000000	65.012359 
2942.000000	65.018105 
2941.000000	65.024900 
2940.000000	65.033984 
2939.000000	65.046000 
2938.000000	65.060496 
2937.000000	65.076136 
2936.000000	65.090417 
2935.000000	65.100288 
2934.000000	65.102982 
2933.000000	65.096640 
2932.000000	65.080761 
2931.000000	65.056347 
2930.000000	65.025877 
2929.000000	64.992856 
2928.000000	64.960622 
2927.000000	64.931583 
2926.000000	64.906859 
2925.000000	64.886331 
2924.000000	64.868855 
2923.000000	64.853072 
2922.000000	64.838027 
2921.000000	64.823818 
2920.000000	64.811539 
2919.000000	64.803123 
2918.000000	64.800453 
2917.000000	64.804983 
2916.000000	64.816927 
2915.000000	64.835286 
2914.000000	64.857506 
2913.000000	64.880347 
2912.000000	64.900493 
2911.000000	64.915227 
2910.000000	64.923095 
2909.000000	64.924073 
2908.000000	64.919567 
2907.000000	64.912247 
2906.000000	64.905190 
2905.000000	64.901804 
2904.000000	64.904999 
2903.000000	64.917135 
2902.000000	64.939260 
2901.000000	64.971089 
2900.000000	65.010952 
2899.000000	65.055871 
2898.000000	65.101981 
2897.000000	65.144681 
2896.000000	65.179514 
2895.000000	65.202784 
2894.000000	65.212273 
2893.000000	65.207743 
2892.000000	65.190792 
2891.000000	65.164732 
2890.000000	65.133404 
2889.000000	65.100884 
2888.000000	65.070128 
2887.000000	65.042901 
2886.000000	65.019702 
2885.000000	65.000176 
2884.000000	64.983606 
2883.000000	64.969325 
2882.000000	64.957261 
2881.000000	64.947843 
2880.000000	64.941787 
2879.000000	64.939665 
2878.000000	64.941883 
2877.000000	64.948606 
2876.000000	64.959812 
2875.000000	64.975261 
2874.000000	64.994621 
2873.000000	65.017342 
2872.000000	65.042686 
2871.000000	65.069222 
2870.000000	65.094709 
2869.000000	65.115928 
2868.000000	65.129137 
2867.000000	65.130901 
2866.000000	65.119290 
2865.000000	65.094280 
2864.000000	65.058374 
2863.000000	65.016150 
2862.000000	64.973354 
2861.000000	64.935731 
2860.000000	64.907836 
2859.000000	64.891886 
2858.000000	64.887642 
2857.000000	64.892506 
2856.000000	64.902687 
2855.000000	64.914178 
2854.000000	64.923596 
2853.000000	64.929342 
2852.000000	64.931583 
2851.000000	64.932417 
2850.000000	64.934968 
2849.000000	64.942908 
2848.000000	64.959144 
2847.000000	64.985489 
2846.000000	65.021920 
2845.000000	65.066695 
2844.000000	65.116333 
2843.000000	65.165901 
2842.000000	65.209817 
2841.000000	65.242695 
2840.000000	65.260338 
2839.000000	65.260624 
2838.000000	65.244340 
2837.000000	65.214848 
2836.000000	65.177798 
2835.000000	65.140175 
2834.000000	65.108442 
2833.000000	65.087866 
2832.000000	65.081048 
2831.000000	65.087771 
2830.000000	65.105295 
2829.000000	65.129184 
2828.000000	65.154623 
2827.000000	65.177392 
2826.000000	65.194797 
2825.000000	65.206217 
2824.000000	65.212893 
2823.000000	65.217161 
2822.000000	65.221548 
2821.000000	65.227890 
2820.000000	65.236949 
2819.000000	65.248322 
2818.000000	65.260720 
2817.000000	65.272402 
2816.000000	65.282034 
2815.000000	65.288949 
2814.000000	65.293359 
2813.000000	65.296149 
2812.000000	65.298533 
2811.000000	65.301465 
2810.000000	65.305161 
2809.000000	65.308904 
2808.000000	65.311408 
2807.000000	65.311050 
2806.000000	65.306377 
2805.000000	65.296745 
2804.000000	65.282535 
2803.000000	65.265226 
2802.000000	65.247273 
2801.000000	65.231299 
2800.000000	65.219473 
2799.000000	65.213179 
2798.000000	65.212488 
2797.000000	65.216374 
2796.000000	65.222811 
2795.000000	65.229415 
2794.000000	65.233922 
2793.000000	65.234756 
2792.000000	65.231323 
2791.000000	65.224051 
2790.000000	65.214252 
2789.000000	65.203857 
2788.000000	65.194916 
2787.000000	65.189337 
2786.000000	65.188169 
2785.000000	65.191960 
2784.000000	65.200257 
2783.000000	65.211796 
2782.000000	65.224814 
2781.000000	65.237307 
2780.000000	65.247297 
2779.000000	65.253257 
2778.000000	65.254306 
2777.000000	65.250349 
2776.000000	65.242218 
2775.000000	65.231299 
2774.000000	65.219402 
2773.000000	65.208458 
2772.000000	65.200161 
2771.000000	65.195775 
2770.000000	65.195846 
2769.000000	65.200257 
2768.000000	65.208411 
2767.000000	65.219306 
2766.000000	65.231776 
2765.000000	65.244698 
2764.000000	65.257048 
2763.000000	65.268087 
2762.000000	65.277266 
2761.000000	65.284276 
2760.000000	65.288829 
2759.000000	65.290760 
2758.000000	65.289759 
2757.000000	65.285539 
2756.000000	65.278077 
2755.000000	65.267348 
2754.000000	65.253758 
2753.000000	65.237879 
2752.000000	65.220808 
2751.000000	65.203905 
2750.000000	65.188550 
2749.000000	65.176057 
2748.000000	65.167284 
2747.000000	65.162634 
2746.000000	65.161871 
2745.000000	65.164184 
2744.000000	65.168499 
2743.000000	65.173435 
2742.000000	65.177845 
2741.000000	65.180993 
2740.000000	65.182590 
2739.000000	65.183281 
2738.000000	65.183925 
2737.000000	65.185642 
2736.000000	65.189385 
2735.000000	65.195608 
2734.000000	65.204071 
2733.000000	65.213847 
2732.000000	65.223622 
2731.000000	65.232062 
2730.000000	65.238118 
2729.000000	65.241670 
2728.000000	65.243244 
2727.000000	65.243864 
2726.000000	65.244793 
2725.000000	65.247106 
2724.000000	65.251326 
2723.000000	65.257096 
2722.000000	65.263342 
2721.000000	65.268564 
2720.000000	65.271234 
2719.000000	65.270280 
2718.000000	65.265274 
2717.000000	65.256762 
2716.000000	65.245938 
2715.000000	65.234351 
2714.000000	65.223526 
2713.000000	65.214586 
2712.000000	65.208029 
2711.000000	65.203785 
2710.000000	65.201210 
2709.000000	65.199613 
2708.000000	65.198159 
2707.000000	65.196514 
2706.000000	65.194725 
2705.000000	65.193438 
2704.000000	65.193700 
2703.000000	65.196967 
2702.000000	65.204477 
2701.000000	65.217089 
2700.000000	65.234780 
2699.000000	65.256333 
2698.000000	65.279579 
2697.000000	65.301585 
2696.000000	65.319061 
2695.000000	65.329146 
2694.000000	65.329909 
2693.000000	65.320849 
2692.000000	65.303158 
2691.000000	65.279459 
2690.000000	65.253353 
2689.000000	65.228867 
2688.000000	65.209531 
2687.000000	65.197753 
2686.000000	65.194559 
2685.000000	65.199303 
2684.000000	65.210127 
2683.000000	65.224313 
2682.000000	65.239000 
2681.000000	65.251541 
2680.000000	65.260362 
2679.000000	65.264749 
2678.000000	65.265274 
2677.000000	65.263414 
2676.000000	65.261340 
2675.000000	65.261292 
2674.000000	65.265059 
2673.000000	65.273642 
2672.000000	65.286636 
2671.000000	65.302705 
2670.000000	65.319323 
2669.000000	65.333652 
2668.000000	65.342903 
2667.000000	65.345025 
2666.000000	65.339183 
2665.000000	65.325951 
2664.000000	65.307235 
2663.000000	65.285801 
2662.000000	65.264749 
2661.000000	65.246891 
2660.000000	65.234136 
2659.000000	65.227150 
2658.000000	65.225243 
2657.000000	65.226650 
2656.000000	65.228867 
2655.000000	65.229558 
2654.000000	65.226674 
2653.000000	65.219354 
2652.000000	65.207552 
2651.000000	65.192532 
2650.000000	65.176486 
2649.000000	65.162348 
2648.000000	65.152692 
2647.000000	65.149736 
2646.000000	65.154600 
2645.000000	65.167212 
2644.000000	65.186452 
2643.000000	65.210151 
2642.000000	65.235853 
2641.000000	65.261054 
2640.000000	65.283656 
2639.000000	65.302300 
2638.000000	65.316081 
2637.000000	65.324831 
2636.000000	65.328741 
2635.000000	65.328264 
2634.000000	65.323996 
2633.000000	65.316677 
2632.000000	65.307092 
2631.000000	65.296101 
2630.000000	65.284585 
2629.000000	65.273189 
2628.000000	65.262389 
2627.000000	65.252327 
2626.000000	65.242743 
2625.000000	65.233159 
2624.000000	65.223145 
2623.000000	65.212607 
2622.000000	65.201997 
2621.000000	65.192151 
2620.000000	65.184307 
2619.000000	65.179562 
2618.000000	65.178728 
2617.000000	65.181779 
2616.000000	65.188312 
2615.000000	65.197348 
2614.000000	65.208053 
2613.000000	65.219593 
2612.000000	65.231704 
2611.000000	65.244483 
2610.000000	65.258121 
2609.000000	65.272617 
2608.000000	65.287351 
2607.000000	65.301203 
2606.000000	65.312552 
2605.000000	65.319538 
2604.000000	65.320682 
2603.000000	65.315389 
2602.000000	65.304255 
2601.000000	65.289044 
2600.000000	65.272235 
2599.000000	65.256309 
2598.000000	65.243291 
2597.000000	65.234088 
2596.000000	65.228486 
2595.000000	65.225124 
2594.000000	65.222263 
2593.000000	65.217876 
2592.000000	65.210556 
2591.000000	65.199542 
2590.000000	65.185070 
2589.000000	65.168261 
2588.000000	65.150761 
2587.000000	65.134477 
2586.000000	65.121102 
2585.000000	65.111780 
2584.000000	65.106916 
2583.000000	65.106177 
2582.000000	65.108799 
2581.000000	65.114116 
2580.000000	65.121769 
2579.000000	65.131974 
2578.000000	65.145087 
2577.000000	65.161466 
2576.000000	65.180850 
2575.000000	65.202188 
2574.000000	65.223503 
2573.000000	65.242242 
2572.000000	65.255737 
2571.000000	65.261888 
2570.000000	65.259575 
2569.000000	65.248751 
2568.000000	65.230631 
2567.000000	65.207314 
2566.000000	65.181732 
2565.000000	65.157079 
2564.000000	65.136528 
2563.000000	65.122938 
2562.000000	65.118074 
2561.000000	65.122723 
2560.000000	65.136265 
2559.000000	65.156698 
2558.000000	65.181231 
2557.000000	65.206623 
2556.000000	65.229892 
2555.000000	65.248823 
2554.000000	65.262150 
2553.000000	65.269827 
2552.000000	65.272879 
2551.000000	65.273094 
2550.000000	65.272808 
2549.000000	65.274190 
2548.000000	65.278887 
2547.000000	65.287637 
2546.000000	65.300083 
2545.000000	65.314745 
2544.000000	65.329408 
2543.000000	65.341615 
2542.000000	65.349292 
2541.000000	65.351104 
2540.000000	65.346980 
2539.000000	65.337920 
2538.000000	65.325784 
2537.000000	65.312647 
2536.000000	65.300512 
2535.000000	65.290737 
2534.000000	65.283656 
2533.000000	65.278697 
2532.000000	65.274786 
2531.000000	65.270853 
2530.000000	65.266227 
2529.000000	65.260934 
2528.000000	65.255498 
2527.000000	65.250778 
2526.000000	65.247774 
2525.000000	65.246796 
2524.000000	65.247201 
2523.000000	65.247607 
2522.000000	65.246176 
2521.000000	65.241122 
2520.000000	65.231251 
2519.000000	65.216279 
2518.000000	65.196990 
2517.000000	65.175247 
2516.000000	65.153479 
2515.000000	65.134215 
2514.000000	65.119576 
2513.000000	65.110874 
2512.000000	65.108561 
2511.000000	65.112471 
2510.000000	65.121674 
2509.000000	65.135073 
2508.000000	65.151000 
2507.000000	65.167641 
2506.000000	65.182805 
2505.000000	65.194129 
2504.000000	65.199303 
2503.000000	65.196323 
2502.000000	65.184020 
2501.000000	65.162444 
2500.000000	65.133047 
2499.000000	65.098762 
2498.000000	65.063476 
2497.000000	65.031647 
2496.000000	65.007662 
2495.000000	64.994955 
2494.000000	64.995622 
2493.000000	65.009856 
2492.000000	65.035986 
2491.000000	65.070819 
2490.000000	65.109992 
2489.000000	65.148925 
2488.000000	65.183210 
2487.000000	65.209507 
2486.000000	65.225839 
2485.000000	65.231990 
2484.000000	65.229105 
2483.000000	65.219449 
2482.000000	65.206193 
2481.000000	65.192246 
2480.000000	65.180230 
2479.000000	65.171551 
2478.000000	65.166711 
2477.000000	65.165138 
2476.000000	65.165567 
2475.000000	65.166497 
2474.000000	65.166473 
2473.000000	65.164709 
2472.000000	65.161013 
2471.000000	65.155911 
2470.000000	65.150403 
2469.000000	65.145659 
2468.000000	65.142917 
2467.000000	65.143036 
2466.000000	65.146470 
2465.000000	65.153264 
2464.000000	65.163111 
2463.000000	65.175580 
2462.000000	65.190100 
2461.000000	65.206050 
2460.000000	65.222859 
2459.000000	65.239882 
2458.000000	65.256452 
2457.000000	65.271782 
2456.000000	65.285038 
2455.000000	65.295314 
2454.000000	65.301799 
2453.000000	65.303921 
2452.000000	65.301513 
2451.000000	65.294957 
2450.000000	65.285015 
2449.000000	65.272855 
2448.000000	65.259790 
2447.000000	65.247201 
2446.000000	65.236139 
2445.000000	65.227246 
2444.000000	65.220475 
2443.000000	65.215039 
2442.000000	65.209603 
2441.000000	65.202593 
2440.000000	65.192270 
2439.000000	65.177655 
2438.000000	65.158987 
2437.000000	65.137767 
2436.000000	65.116810 
2435.000000	65.099763 
2434.000000	65.090227 
2433.000000	65.091085 
2432.000000	65.103578 
2431.000000	65.127182 
2430.000000	65.159416 
2429.000000	65.196681 
2428.000000	65.234589 
2427.000000	65.269064 
2426.000000	65.297055 
2425.000000	65.316915 
2424.000000	65.328383 
2423.000000	65.332293 
2422.000000	65.329909 
2421.000000	65.322566 
2420.000000	65.311288 
2419.000000	65.296530 
2418.000000	65.278387 
2417.000000	65.256857 
2416.000000	65.232181 
2415.000000	65.204763 
2414.000000	65.175437 
2413.000000	65.145325 
2412.000000	65.115880 
2411.000000	65.088677 
2410.000000	65.065550 
2409.000000	65.048241 
2408.000000	65.038490 
2407.000000	65.037560 
2406.000000	65.046310 
2405.000000	65.064549 
2404.000000	65.091466 
2403.000000	65.124940 
2402.000000	65.162467 
2401.000000	65.200924 
2400.000000	65.237545 
2399.000000	65.270256 
2398.000000	65.297913 
2397.000000	65.320324 
2396.000000	65.338063 
2395.000000	65.352201 
2394.000000	65.363669 
2393.000000	65.372872 
2392.000000	65.379691 
2391.000000	65.383672 
2390.000000	65.384292 
2389.000000	65.381264 
2388.000000	65.374922 
2387.000000	65.366077 
2386.000000	65.356063 
2385.000000	65.346479 
2384.000000	65.338659 
2383.000000	65.333509 
2382.000000	65.331411 
2381.000000	65.332174 
2380.000000	65.335369 
2379.000000	65.340352 
2378.000000	65.346598 
2377.000000	65.353941 
2376.000000	65.362071 
2375.000000	65.370655 
2374.000000	65.379095 
2373.000000	65.386533 
2372.000000	65.391898 
2371.000000	65.394043 
2370.000000	65.391945 
2369.000000	65.385031 
2368.000000	65.373635 
2367.000000	65.358591 
2366.000000	65.341234 
2365.000000	65.322875 
2364.000000	65.304946 
2363.000000	65.288305 
2362.000000	65.273475 
2361.000000	65.260601 
2360.000000	65.249752 
2359.000000	65.241098 
2358.000000	65.234971 
2357.000000	65.231728 
2356.000000	65.231823 
2355.000000	65.235400 
2354.000000	65.242576 
2353.000000	65.253281 
2352.000000	65.267372 
2351.000000	65.284585 
2350.000000	65.304541 
2349.000000	65.326666 
2348.000000	65.349817 
2347.000000	65.372467 
2346.000000	65.392565 
2345.000000	65.407800 
2344.000000	65.416097 
2343.000000	65.415978 
2342.000000	65.407133 
2341.000000	65.390682 
2340.000000	65.369129 
2339.000000	65.345978 
2338.000000	65.324831 
2337.000000	65.308690 
2336.000000	65.299320 
2335.000000	65.296959 
2334.000000	65.300416 
2333.000000	65.307450 
2332.000000	65.315604 
2331.000000	65.322875 
2330.000000	65.327930 
2329.000000	65.330529 
2328.000000	65.331053 
2327.000000	65.330290 
2326.000000	65.328860 
2325.000000	65.327310 
2324.000000	65.325403 
2323.000000	65.322804 
2322.000000	65.319037 
2321.000000	65.313935 
2320.000000	65.307807 
2319.000000	65.301442 
2318.000000	65.295886 
2317.000000	65.292263 
2316.000000	65.291142 
2315.000000	65.292787 
2314.000000	65.296816 
2313.000000	65.302538 
2312.000000	65.308976 
2311.000000	65.315151 
2310.000000	65.320301 
2309.000000	65.323996 
2308.000000	65.326046 
2307.000000	65.326333 
2306.000000	65.324735 
2305.000000	65.321350 
2304.000000	65.316295 
2303.000000	65.309715 
2302.000000	65.301918 
2301.000000	65.293622 
2300.000000	65.285539 
2299.000000	65.278458 
2298.000000	65.273141 
2297.000000	65.270066 
2296.000000	65.269517 
2295.000000	65.271449 
2294.000000	65.275740 
2293.000000	65.282177 
2292.000000	65.290427 
2291.000000	65.300011 
2290.000000	65.310287 
2289.000000	65.320277 
2288.000000	65.328764 
2287.000000	65.334439 
2286.000000	65.335822 
2285.000000	65.332007 
2284.000000	65.322375 
2283.000000	65.307283 
2282.000000	65.287923 
2281.000000	65.266299 
2280.000000	65.244793 
2279.000000	65.225744 
2278.000000	65.211153 
2277.000000	65.202355 
2276.000000	65.199780 
2275.000000	65.203022 
2274.000000	65.211129 
2273.000000	65.222525 
2272.000000	65.235376 
2271.000000	65.248012 
2270.000000	65.259003 
2269.000000	65.267372 
2268.000000	65.272784 
2267.000000	65.275239 
2266.000000	65.275287 
2265.000000	65.273451 
2264.000000	65.270161 
2263.000000	65.265321 
2262.000000	65.258693 
2261.000000	65.249705 
2260.000000	65.238165 
2259.000000	65.224266 
2258.000000	65.208816 
2257.000000	65.193510 
2256.000000	65.180587 
2255.000000	65.172338 
2254.000000	65.170550 
2253.000000	65.176129 
2252.000000	65.188789 
2251.000000	65.207076 
2250.000000	65.228796 
2249.000000	65.251374 
2248.000000	65.272808 
2247.000000	65.291833 
2246.000000	65.308380 
2245.000000	65.323090 
2244.000000	65.337228 
2243.000000	65.351986 
2242.000000	65.367960 
2241.000000	65.384936 
2240.000000	65.401840 
2239.000000	65.417194 
2238.000000	65.428996 
2237.000000	65.435481 
2236.000000	65.435171 
2235.000000	65.427327 
2234.000000	65.411782 
2233.000000	65.389084 
2232.000000	65.360260 
2231.000000	65.326809 
2230.000000	65.290451 
2229.000000	65.253162 
2228.000000	65.217018 
2227.000000	65.184235 
2226.000000	65.156769 
2225.000000	65.136194 
2224.000000	65.123414 
2223.000000	65.118575 
2222.000000	65.120959 
2221.000000	65.129089 
2220.000000	65.140843 
2219.000000	65.154123 
2218.000000	65.167021 
2217.000000	65.178465 
2216.000000	65.187954 
2215.000000	65.195894 
2214.000000	65.203142 
2213.000000	65.210866 
2212.000000	65.219974 
2211.000000	65.230894 
2210.000000	65.243458 
2209.000000	65.256834 
2208.000000	65.269804 
2207.000000	65.281033 
2206.000000	65.289497 
2205.000000	65.294671 
2204.000000	65.296673 
2203.000000	65.296220 
2202.000000	65.294599 
2201.000000	65.293383 
2200.000000	65.294122 
2199.000000	65.298151 
2198.000000	65.306019 
2197.000000	65.317821 
2196.000000	65.332770 
2195.000000	65.349340 
2194.000000	65.365481 
2193.000000	65.378975 
2192.000000	65.387916 
2191.000000	65.391230 
2190.000000	65.388989 
2189.000000	65.382170 
2188.000000	65.372848 
2187.000000	65.363669 
2186.000000	65.357208 
2185.000000	65.355372 
2184.000000	65.358781 
2183.000000	65.366554 
2182.000000	65.376496 
2181.000000	65.385651 
2180.000000	65.390872 
2179.000000	65.389823 
2178.000000	65.381431 
2177.000000	65.366196 
2176.000000	65.346074 
2175.000000	65.324187 
2174.000000	65.303993 
2173.000000	65.288519 
2172.000000	65.279960 
2171.000000	65.279173 
2170.000000	65.285778 
2169.000000	65.298080 
2168.000000	65.313243 
2167.000000	65.327787 
2166.000000	65.338087 
2165.000000	65.341043 
2164.000000	65.334320 
2163.000000	65.317082 
2162.000000	65.290188 
2161.000000	65.256261 
2160.000000	65.219306 
2159.000000	65.184164 
2158.000000	65.155768 
2157.000000	65.137910 
2156.000000	65.132713 
2155.000000	65.139985 
2154.000000	65.157246 
2153.000000	65.180301 
2152.000000	65.204048 
2151.000000	65.223670 
2150.000000	65.235471 
2149.000000	65.237903 
2148.000000	65.231466 
2147.000000	65.218544 
2146.000000	65.202736 
2145.000000	65.187788 
2144.000000	65.177059 
2143.000000	65.172696 
2142.000000	65.175604 
2141.000000	65.185427 
2140.000000	65.201020 
2139.000000	65.220880 
2138.000000	65.243434 
2137.000000	65.267348 
2136.000000	65.291547 
2135.000000	65.314865 
2134.000000	65.336275 
2133.000000	65.354490 
2132.000000	65.368199 
2131.000000	65.376400 
2130.000000	65.378451 
2129.000000	65.374350 
2128.000000	65.364718 
2127.000000	65.351033 
2126.000000	65.335106 
2125.000000	65.318775 
2124.000000	65.303564 
2123.000000	65.290570 
2122.000000	65.280246 
2121.000000	65.272545 
2120.000000	65.266895 
2119.000000	65.262722 
2118.000000	65.259385 
2117.000000	65.256524 
2116.000000	65.253877 
2115.000000	65.251612 
2114.000000	65.249967 
2113.000000	65.249395 
2112.000000	65.250372 
2111.000000	65.253400 
2110.000000	65.258741 
2109.000000	65.266394 
2108.000000	65.275955 
2107.000000	65.286564 
2106.000000	65.297198 
2105.000000	65.306448 
2104.000000	65.312886 
2103.000000	65.315270 
2102.000000	65.313100 
2101.000000	65.306568 
2100.000000	65.296554 
2099.000000	65.284800 
2098.000000	65.273523 
2097.000000	65.265202 
2096.000000	65.261936 
2095.000000	65.265202 
2094.000000	65.275454 
2093.000000	65.292048 
2092.000000	65.313553 
2091.000000	65.337538 
2090.000000	65.361094 
2089.000000	65.381526 
2088.000000	65.396881 
2087.000000	65.406203 
2086.000000	65.409803 
2085.000000	65.409040 
2084.000000	65.405964 
2083.000000	65.402674 
2082.000000	65.400695 
2081.000000	65.400767 
2080.000000	65.402197 
2079.000000	65.403556 
2078.000000	65.402674 
2077.000000	65.397429 
2076.000000	65.386199 
2075.000000	65.368223 
2074.000000	65.343785 
2073.000000	65.314102 
2072.000000	65.281319 
2071.000000	65.247821 
2070.000000	65.216398 
2069.000000	65.189671 
2068.000000	65.170502 
2067.000000	65.161585 
2066.000000	65.165352 
2065.000000	65.183162 
2064.000000	65.214800 
2063.000000	65.257954 
2062.000000	65.308022 
2061.000000	65.358710 
2060.000000	65.402889 
2059.000000	65.434217 
2058.000000	65.448188 
2057.000000	65.443205 
2056.000000	65.421056 
2055.000000	65.386486 
2054.000000	65.346097 
2053.000000	65.306973 
2052.000000	65.275168 
2051.000000	65.254354 
2050.000000	65.246009 
2049.000000	65.248751 
2048.000000	65.259456 
2047.000000	65.274024 
2046.000000	65.288639 
2045.000000	65.300273 
2044.000000	65.307140 
2043.000000	65.308785 
2042.000000	65.305614 
2041.000000	65.298986 
2040.000000	65.290307 
2039.000000	65.281295 
2038.000000	65.273451 
2037.000000	65.267729 
2036.000000	65.264439 
2035.000000	65.263247 
2034.000000	65.263319 
2033.000000	65.263485 
2032.000000	65.262532 
2031.000000	65.259385 
2030.000000	65.253663 
2029.000000	65.245699 
2028.000000	65.236616 
2027.000000	65.227890 
2026.000000	65.221261 
2025.000000	65.218281 
2024.000000	65.220046 
2023.000000	65.226674 
2022.000000	65.237569 
2021.000000	65.251326 
2020.000000	65.266060 
2019.000000	65.280055 
2018.000000	65.291786 
2017.000000	65.300321 
2016.000000	65.305495 
2015.000000	65.307831 
2014.000000	65.308356 
2013.000000	65.308618 
2012.000000	65.310144 
2011.000000	65.314245 
2010.000000	65.321612 
2009.000000	65.332221 
2008.000000	65.345358 
2007.000000	65.359759 
2006.000000	65.374088 
2005.000000	65.387010 
2004.000000	65.397834 
2003.000000	65.406227 
2002.000000	65.412545 
2001.000000	65.417265 
2000.000000	65.420889 
1999.000000	65.423321 
1998.000000	65.423893 
1997.000000	65.421390 
1996.000000	65.414381 
1995.000000	65.401744 
1994.000000	65.383219 
1993.000000	65.359663 
1992.000000	65.333485 
1991.000000	65.307855 
1990.000000	65.286421 
1989.000000	65.272164 
1988.000000	65.266895 
1987.000000	65.270757 
1986.000000	65.282201 
1985.000000	65.298318 
1984.000000	65.315628 
1983.000000	65.330886 
1982.000000	65.342044 
1981.000000	65.348267 
1980.000000	65.350008 
1979.000000	65.348625 
1978.000000	65.345549 
1977.000000	65.341830 
1976.000000	65.337657 
1975.000000	65.332531 
1974.000000	65.325617 
1973.000000	65.316152 
1972.000000	65.304112 
1971.000000	65.290307 
1970.000000	65.276813 
1969.000000	65.265965 
1968.000000	65.260481 
1967.000000	65.262365 
1966.000000	65.272569 
1965.000000	65.290641 
1964.000000	65.314674 
1963.000000	65.341639 
1962.000000	65.368080 
1961.000000	65.390706 
1960.000000	65.406918 
1959.000000	65.415072 
1958.000000	65.414929 
1957.000000	65.407395 
1956.000000	65.394306 
1955.000000	65.377902 
1954.000000	65.360498 
1953.000000	65.344023 
1952.000000	65.329909 
1951.000000	65.318751 
1950.000000	65.310478 
1949.000000	65.304446 
1948.000000	65.299820 
1947.000000	65.295815 
1946.000000	65.291881 
1945.000000	65.287756 
1944.000000	65.283489 
1943.000000	65.279603 
1942.000000	65.276622 
1941.000000	65.275430 
1940.000000	65.276765 
1939.000000	65.281605 
1938.000000	65.290641 
1937.000000	65.304350 
1936.000000	65.322899 
1935.000000	65.345811 
1934.000000	65.372085 
1933.000000	65.399885 
1932.000000	65.426850 
1931.000000	65.450358 
1930.000000	65.467786 
1929.000000	65.477085 
1928.000000	65.477132 
1927.000000	65.468025 
1926.000000	65.451025 
1925.000000	65.428304 
1924.000000	65.402483 
1923.000000	65.376281 
1922.000000	65.352153 
1921.000000	65.331840 
1920.000000	65.316367 
1919.000000	65.306019 
1918.000000	65.300369 
1917.000000	65.298461 
1916.000000	65.299105 
1915.000000	65.300798 
1914.000000	65.302157 
1913.000000	65.301871 
1912.000000	65.299272 
1911.000000	65.293955 
1910.000000	65.286111 
1909.000000	65.276455 
1908.000000	65.266203 
1907.000000	65.256714 
1906.000000	65.249633 
1905.000000	65.246486 
1904.000000	65.248394 
1903.000000	65.255928 
1902.000000	65.269017 
1901.000000	65.286874 
1900.000000	65.308046 
1899.000000	65.330314 
1898.000000	65.351200 
1897.000000	65.368175 
1896.000000	65.378999 
1895.000000	65.382218 
1894.000000	65.377306 
1893.000000	65.364885 
1892.000000	65.346693 
1891.000000	65.325140 
1890.000000	65.302920 
1889.000000	65.282487 
1888.000000	65.265727 
1887.000000	65.253758 
1886.000000	65.246844 
1885.000000	65.244603 
1884.000000	65.246272 
1883.000000	65.250945 
1882.000000	65.257787 
1881.000000	65.266203 
1880.000000	65.275573 
1879.000000	65.285420 
1878.000000	65.295171 
1877.000000	65.304327 
1876.000000	65.312242 
1875.000000	65.318298 
1874.000000	65.322113 
1873.000000	65.323638 
1872.000000	65.323162 
1871.000000	65.321254 
1870.000000	65.318703 
1869.000000	65.316104 
1868.000000	65.313792 
1867.000000	65.311956 
1866.000000	65.310382 
1865.000000	65.308666 
1864.000000	65.306210 
1863.000000	65.302610 
1862.000000	65.297842 
1861.000000	65.292143 
1860.000000	65.285992 
1859.000000	65.280055 
1858.000000	65.274858 
1857.000000	65.270900 
1856.000000	65.268397 
1855.000000	65.267133 
1854.000000	65.266823 
1853.000000	65.267157 
1852.000000	65.268063 
1851.000000	65.269732 
1850.000000	65.272760 
1849.000000	65.277862 
1848.000000	65.285682 
1847.000000	65.296268 
1846.000000	65.309238 
1845.000000	65.323281 
1844.000000	65.336513 
1843.000000	65.346693 
1842.000000	65.351724 
1841.000000	65.349960 
1840.000000	65.340662 
1839.000000	65.323901 
1838.000000	65.300750 
1837.000000	65.273189 
1836.000000	65.243935 
1835.000000	65.215873 
1834.000000	65.191817 
1833.000000	65.173912 
1832.000000	65.163540 
1831.000000	65.161108 
1830.000000	65.166044 
1829.000000	65.177011 
1828.000000	65.192317 
1827.000000	65.210103 
1826.000000	65.228724 
1825.000000	65.246915 
1824.000000	65.263819 
1823.000000	65.278935 
1822.000000	65.292048 
1821.000000	65.303039 
1820.000000	65.311837 
1819.000000	65.318465 
1818.000000	65.322995 
1817.000000	65.325641 
1816.000000	65.326666 
1815.000000	65.326333 
1814.000000	65.324783 
1813.000000	65.321874 
1812.000000	65.317201 
1811.000000	65.310025 
1810.000000	65.299797 
1809.000000	65.286326 
1808.000000	65.270042 
1807.000000	65.252423 
1806.000000	65.235328 
1805.000000	65.221023 
1804.000000	65.211391 
1803.000000	65.207648 
1802.000000	65.209722 
1801.000000	65.216231 
1800.000000	65.224742 
1799.000000	65.232443 
1798.000000	65.236783 
1797.000000	65.236306 
1796.000000	65.230846 
1795.000000	65.221476 
1794.000000	65.210342 
1793.000000	65.199804 
1792.000000	65.191864 
1791.000000	65.187478 
1790.000000	65.186572 
1789.000000	65.188169 
1788.000000	65.190887 
1787.000000	65.193176 
1786.000000	65.194058 
1785.000000	65.193247 
1784.000000	65.191030 
1783.000000	65.188312 
1782.000000	65.185832 
1781.000000	65.184426 
1780.000000	65.184402 
1779.000000	65.185761 
1778.000000	65.188431 
1777.000000	65.192246 
1776.000000	65.197277 
1775.000000	65.203642 
1774.000000	65.211558 
1773.000000	65.220713 
1772.000000	65.230536 
1771.000000	65.239930 
1770.000000	65.247488 
1769.000000	65.251636 
1768.000000	65.251111 
1767.000000	65.245389 
1766.000000	65.234971 
1765.000000	65.221214 
1764.000000	65.206146 
1763.000000	65.192294 
1762.000000	65.182089 
1761.000000	65.177512 
1760.000000	65.179657 
1759.000000	65.188598 
1758.000000	65.203332 
1757.000000	65.222120 
1756.000000	65.242409 
1755.000000	65.261411 
1754.000000	65.276288 
1753.000000	65.284824 
1752.000000	65.285468 
1751.000000	65.277886 
1750.000000	65.262889 
1749.000000	65.242505 
1748.000000	65.219330 
1747.000000	65.196084 
1746.000000	65.174841 
1745.000000	65.156984 
1744.000000	65.142488 
1743.000000	65.130186 
1742.000000	65.118193 
1741.000000	65.104627 
1740.000000	65.088152 
1739.000000	65.068316 
1738.000000	65.045928 
1737.000000	65.022778 
1736.000000	65.001106 
1735.000000	64.983296 
1734.000000	64.970779 
1733.000000	64.964222 
1732.000000	64.963197 
1731.000000	64.966750 
1730.000000	64.973545 
1729.000000	64.982461 
1728.000000	64.992952 
1727.000000	65.004944 
1726.000000	65.018534 
1725.000000	65.034127 
1724.000000	65.051746 
1723.000000	65.071225 
1722.000000	65.091538 
1721.000000	65.111613 
1720.000000	65.130352 
1719.000000	65.147185 
1718.000000	65.162372 
1717.000000	65.176963 
1716.000000	65.192675 
1715.000000	65.211272 
1714.000000	65.234136 
1713.000000	65.261554 
1712.000000	65.292334 
1711.000000	65.323972 
1710.000000	65.353083 
1709.000000	65.376114 
1708.000000	65.390038 
1707.000000	65.393447 
1706.000000	65.386581 
1705.000000	65.371727 
1704.000000	65.352177 
1703.000000	65.331912 
1702.000000	65.314292 
1701.000000	65.301370 
1700.000000	65.293502 
1699.000000	65.289545 
1698.000000	65.287399 
1697.000000	65.285134 
1696.000000	65.281629 
1695.000000	65.276980 
1694.000000	65.272521 
1693.000000	65.270280 
1692.000000	65.272140 
1691.000000	65.278863 
1690.000000	65.290021 
1689.000000	65.303564 
1688.000000	65.316414 
1687.000000	65.325188 
1686.000000	65.327239 
1685.000000	65.321111 
1684.000000	65.306997 
1683.000000	65.286350 
1682.000000	65.261626 
1681.000000	65.235257 
1680.000000	65.209197 
1679.000000	65.184569 
1678.000000	65.161895 
1677.000000	65.141057 
1676.000000	65.122222 
1675.000000	65.105485 
1674.000000	65.091228 
1673.000000	65.080165 
1672.000000	65.072584 
1671.000000	65.068817 
1670.000000	65.068387 
1669.000000	65.070676 
1668.000000	65.074753 
1667.000000	65.079784 
1666.000000	65.085244 
1665.000000	65.091085 
1664.000000	65.097498 
1663.000000	65.104818 
1662.000000	65.113234 
1661.000000	65.122556 
1660.000000	65.132045 
1659.000000	65.140771 
1658.000000	65.147733 
1657.000000	65.152311 
1656.000000	65.154266 
1655.000000	65.154027 
1654.000000	65.152382 
1653.000000	65.150427 
1652.000000	65.149188 
1651.000000	65.149021 
1650.000000	65.150141 
1649.000000	65.152335 
1648.000000	65.155005 
1647.000000	65.157628 
1646.000000	65.159702 
1645.000000	65.161132 
1644.000000	65.162205 
1643.000000	65.163278 
1642.000000	65.164923 
1641.000000	65.167522 
1640.000000	65.171313 
1639.000000	65.176081 
1638.000000	65.181565 
1637.000000	65.187239 
1636.000000	65.192461 
1635.000000	65.196609 
1634.000000	65.199136 
1633.000000	65.199661 
1632.000000	65.198016 
1631.000000	65.194368 
1630.000000	65.188956 
1629.000000	65.182304 
1628.000000	65.175056 
1627.000000	65.167903 
1626.000000	65.161514 
1625.000000	65.156435 
1624.000000	65.153193 
1623.000000	65.152192 
1622.000000	65.153622 
1621.000000	65.157413 
1620.000000	65.163040 
1619.000000	65.169835 
1618.000000	65.176630 
1617.000000	65.182280 
1616.000000	65.185618 
1615.000000	65.186023 
1614.000000	65.183305 
1613.000000	65.178012 
1612.000000	65.171599 
1611.000000	65.165925 
1610.000000	65.162992 
1609.000000	65.164494 
1608.000000	65.171360 
1607.000000	65.183424 
1606.000000	65.199303 
1605.000000	65.216898 
1604.000000	65.233683 
1603.000000	65.247178 
1602.000000	65.255570 
1601.000000	65.257835 
1600.000000	65.254139 
1599.000000	65.245437 
1598.000000	65.233445 
1597.000000	65.220189 
1596.000000	65.207839 
1595.000000	65.198183 
1594.000000	65.192389 
1593.000000	65.190672 
1592.000000	65.192294 
1591.000000	65.195846 
1590.000000	65.199422 
1589.000000	65.201091 
1588.000000	65.199255 
1587.000000	65.192937 
1586.000000	65.182018 
1585.000000	65.167164 
1584.000000	65.149712 
1583.000000	65.131282 
1582.000000	65.113472 
1581.000000	65.097522 
1580.000000	65.084218 
1579.000000	65.073847 
1578.000000	65.066266 
1577.000000	65.061163 
1576.000000	65.057897 
1575.000000	65.055823 
1574.000000	65.054154 
1573.000000	65.052127 
1572.000000	65.048766 
1571.000000	65.043449 
1570.000000	65.035915 
1569.000000	65.026545 
1568.000000	65.016460 
1567.000000	65.007162 
1566.000000	65.000104 
1565.000000	64.996409 
1564.000000	64.996361 
1563.000000	64.999365 
1562.000000	65.003895 
1561.000000	65.008044 
1560.000000	65.009951 
1559.000000	65.008711 
1558.000000	65.004301 
1557.000000	64.997911 
1556.000000	64.991545 
1555.000000	64.987325 
1554.000000	64.986729 
1553.000000	64.990139 
1552.000000	64.996719 
1551.000000	65.004444 
1550.000000	65.010619 
1549.000000	65.012907 
1548.000000	65.009856 
1547.000000	65.001273 
1546.000000	64.988183 
1545.000000	64.972829 
1544.000000	64.957857 
1543.000000	64.945626 
1542.000000	64.937686 
1541.000000	64.934587 
1540.000000	64.935827 
1539.000000	64.940261 
1538.000000	64.946269 
1537.000000	64.952421 
1536.000000	64.957618 
1535.000000	64.961171 
1534.000000	64.962863 
1533.000000	64.962792 
1532.000000	64.961409 
1531.000000	64.959263 
1530.000000	64.957165 
1529.000000	64.955997 
1528.000000	64.956808 
1527.000000	64.960503 
1526.000000	64.967823 
1525.000000	64.979147 
1524.000000	64.994382 
1523.000000	65.013051 
1522.000000	65.034246 
1521.000000	65.056920 
1520.000000	65.080094 
1519.000000	65.103077 
1518.000000	65.125584 
1517.000000	65.147113 
1516.000000	65.167403 
1515.000000	65.185809 
1514.000000	65.201377 
1513.000000	65.213060 
1512.000000	65.219855 
1511.000000	65.221190 
1510.000000	65.217137 
1509.000000	65.208411 
1508.000000	65.196323 
1507.000000	65.182638 
1506.000000	65.169072 
1505.000000	65.157246 
1504.000000	65.148687 
1503.000000	65.144395 
1502.000000	65.145111 
1501.000000	65.151000 
1500.000000	65.161776 
1499.000000	65.176391 
1498.000000	65.193152 
1497.000000	65.209579 
1496.000000	65.222930 
1495.000000	65.230417 
1494.000000	65.230011 
1493.000000	65.221214 
1492.000000	65.205025 
1491.000000	65.184140 
1490.000000	65.162134 
1489.000000	65.142488 
1488.000000	65.127801 
1487.000000	65.118885 
1486.000000	65.114951 
1485.000000	65.114045 
1484.000000	65.113830 
1483.000000	65.112376 
1482.000000	65.108871 
1481.000000	65.103626 
1480.000000	65.097975 
1479.000000	65.093588 
1478.000000	65.091729 
1477.000000	65.092587 
1476.000000	65.095186 
1475.000000	65.097832 
1474.000000	65.098261 
1473.000000	65.094447 
1472.000000	65.085244 
1471.000000	65.070819 
1470.000000	65.052533 
1469.000000	65.032649 
1468.000000	65.013718 
1467.000000	64.997959 
1466.000000	64.987087 
1465.000000	64.981937 
1464.000000	64.982485 
1463.000000	64.987921 
1462.000000	64.996981 
1461.000000	65.008020 
1460.000000	65.019130 
1459.000000	65.028500 
1458.000000	65.034341 
1457.000000	65.035796 
1456.000000	65.032410 
1455.000000	65.025496 
1454.000000	65.017533 
1453.000000	65.012454 
1452.000000	65.014672 
1451.000000	65.028166 
1450.000000	65.055298 
1449.000000	65.095877 
1448.000000	65.146827 
1447.000000	65.202331 
1446.000000	65.254926 
1445.000000	65.296936 
1444.000000	65.322065 
1443.000000	65.326547 
1442.000000	65.309834 
1441.000000	65.274715 
1440.000000	65.226650 
1439.000000	65.172576 
1438.000000	65.119600 
1437.000000	65.074038 
1436.000000	65.039777 
1435.000000	65.018200 
1434.000000	65.007829 
1433.000000	65.005564 
1432.000000	65.007185 
1431.000000	65.008711 
1430.000000	65.007281 
1429.000000	65.001392 
1428.000000	64.991450 
1427.000000	64.978837 
1426.000000	64.965915 
1425.000000	64.954876 
1424.000000	64.947700 
1423.000000	64.945578 
1422.000000	64.949035 
1421.000000	64.957880 
1420.000000	64.971327 
1419.000000	64.988255 
1418.000000	65.007042 
1417.000000	65.025830 
1416.000000	65.042662 
1415.000000	65.055775 
1414.000000	65.063548 
1413.000000	65.064978 
1412.000000	65.059900 
1411.000000	65.049457 
1410.000000	65.035724 
1409.000000	65.021538 
1408.000000	65.009713 
1407.000000	65.002727 
1406.000000	65.002250 
1405.000000	65.009117 
1404.000000	65.022969 
1403.000000	65.042448 
1402.000000	65.065979 
1401.000000	65.091562 
1400.000000	65.117168 
1399.000000	65.140652 
1398.000000	65.160250 
1397.000000	65.174221 
1396.000000	65.181136 
1395.000000	65.180134 
1394.000000	65.170979 
1393.000000	65.154099 
1392.000000	65.130615 
1391.000000	65.102243 
1390.000000	65.071129 
1389.000000	65.039515 
1388.000000	65.009331 
1387.000000	64.982128 
1386.000000	64.959025 
1385.000000	64.940738 
1384.000000	64.927744 
1383.000000	64.920306 
1382.000000	64.918518 
1381.000000	64.922118 
1380.000000	64.930677 
1379.000000	64.942955 
1378.000000	64.957523 
1377.000000	64.972662 
1376.000000	64.986991 
1375.000000	64.999270 
1374.000000	65.008926 
1373.000000	65.016078 
1372.000000	65.021157 
1371.000000	65.024948 
1370.000000	65.028214 
1369.000000	65.031337 
1368.000000	65.034341 
1367.000000	65.036988 
1366.000000	65.038800 
1365.000000	65.039634 
1364.000000	65.039682 
1363.000000	65.039587 
1362.000000	65.040469 
1361.000000	65.043687 
1360.000000	65.050578 
1359.000000	65.061736 
1358.000000	65.076923 
1357.000000	65.094661 
1356.000000	65.112829 
1355.000000	65.128421 
1354.000000	65.138244 
1353.000000	65.139317 
1352.000000	65.129733 
1351.000000	65.108942 
1350.000000	65.078020 
1349.000000	65.039753 
1348.000000	64.998102 
1347.000000	64.958119 
1346.000000	64.924883 
1345.000000	64.902877 
1344.000000	64.895176 
1343.000000	64.902710 
1342.000000	64.924335 
1341.000000	64.956569 
1340.000000	64.994311 
1339.000000	65.031576 
1338.000000	65.062570 
1337.000000	65.082740 
1336.000000	65.089321 
1335.000000	65.082097 
1334.000000	65.063405 
1333.000000	65.037465 
1332.000000	65.009474 
1331.000000	64.984965 
1330.000000	64.968442 
1329.000000	64.962863 
1328.000000	64.969229 
1327.000000	64.986443 
1326.000000	65.011811 
1325.000000	65.041589 
1324.000000	65.071773 
1323.000000	65.098977 
1322.000000	65.120625 
1321.000000	65.135097 
1320.000000	65.142035 
1319.000000	65.141963 
1318.000000	65.136003 
1317.000000	65.125703 
1316.000000	65.112733 
1315.000000	65.098643 
1314.000000	65.084695 
1313.000000	65.072178 
1312.000000	65.061759 
1311.000000	65.053701 
1310.000000	65.047764 
1309.000000	65.043330 
1308.000000	65.039253 
1307.000000	65.034317 
1306.000000	65.027284 
1305.000000	65.017461 
1304.000000	65.004849 
1303.000000	64.990258 
1302.000000	64.975118 
1301.000000	64.961242 
1300.000000	64.950108 
1299.000000	64.942765 
1298.000000	64.939236 
1297.000000	64.938783 
1296.000000	64.939999 
1295.000000	64.941358 
1294.000000	64.941334 
1293.000000	64.939022 
1292.000000	64.934325 
1291.000000	64.927744 
1290.000000	64.920043 
1289.000000	64.912438 
1288.000000	64.906144 
1287.000000	64.902377 
1286.000000	64.902019 
1285.000000	64.905929 
1284.000000	64.914727 
1283.000000	64.928817 
1282.000000	64.948105 
1281.000000	64.971804 
1280.000000	64.998197 
1279.000000	65.024781 
1278.000000	65.048623 
1277.000000	65.067100 
1276.000000	65.078067 
1275.000000	65.080857 
1274.000000	65.076041 
1273.000000	65.065407 
1272.000000	65.051555 
1271.000000	65.037202 
1270.000000	65.024852 
1269.000000	65.016388 
1268.000000	65.012621 
1267.000000	65.013718 
1266.000000	65.018630 
1265.000000	65.025830 
1264.000000	65.033030 
1263.000000	65.038084 
1262.000000	65.039038 
1261.000000	65.034699 
1260.000000	65.024948 
1259.000000	65.010738 
1258.000000	64.994072 
1257.000000	64.977526 
1256.000000	64.963889 
1255.000000	64.955449 
1254.000000	64.953613 
1253.000000	64.958548 
1252.000000	64.969110 
1251.000000	64.983129 
1250.000000	64.997911 
1249.000000	65.010809 
1248.000000	65.019774 
1247.000000	65.023660 
1246.000000	65.022397 
1245.000000	65.016746 
1244.000000	65.007781 
1243.000000	64.996743 
1242.000000	64.984440 
1241.000000	64.971423 
1240.000000	64.957880 
1239.000000	64.943981 
1238.000000	64.930057 
1237.000000	64.916682 
1236.000000	64.904856 
1235.000000	64.895868 
1234.000000	64.890956 
1233.000000	64.890885 
1232.000000	64.895534 
1231.000000	64.903616 
1230.000000	64.912867 
1229.000000	64.920496 
1228.000000	64.923882 
1227.000000	64.921283 
1226.000000	64.912319 
1225.000000	64.898324 
1224.000000	64.882040 
1223.000000	64.866542 
1222.000000	64.854598 
1221.000000	64.847898 
1220.000000	64.846634 
1219.000000	64.849519 
1218.000000	64.854359 
1217.000000	64.858770 
1216.000000	64.860844 
1215.000000	64.859795 
1214.000000	64.855670 
1213.000000	64.849543 
1212.000000	64.842629 
1211.000000	64.835500 
1210.000000	64.828205 
1209.000000	64.819836 
1208.000000	64.809417 
1207.000000	64.796257 
1206.000000	64.780449 
1205.000000	64.763402 
1204.000000	64.747452 
1203.000000	64.735388 
1202.000000	64.729499 
1201.000000	64.730954 
1200.000000	64.739871 
1199.000000	64.755368 
1198.000000	64.775657 
1197.000000	64.798545 
1196.000000	64.821887 
1195.000000	64.844083 
1194.000000	64.863824 
1193.000000	64.880251 
1192.000000	64.893198 
1191.000000	64.903020 
1190.000000	64.910292 
1189.000000	64.915800 
1188.000000	64.920425 
1187.000000	64.924883 
1186.000000	64.929914 
1185.000000	64.935970 
1184.000000	64.943504 
1183.000000	64.952468 
1182.000000	64.962768 
1181.000000	64.973783 
1180.000000	64.984679 
1179.000000	64.994096 
1178.000000	65.000581 
1177.000000	65.002155 
1176.000000	64.997005 
1175.000000	64.983487 
1174.000000	64.960813 
1173.000000	64.929103 
1172.000000	64.889454 
1171.000000	64.844226 
1170.000000	64.796352 
1169.000000	64.748668 
1168.000000	64.703464 
1167.000000	64.662146 
1166.000000	64.625358 
1165.000000	64.592933 
1164.000000	64.564967 
1163.000000	64.541864 
1162.000000	64.524745 
1161.000000	64.515542 
1160.000000	64.516592 
1159.000000	64.529323 
1158.000000	64.553856 
1157.000000	64.588212 
1156.000000	64.628505 
1155.000000	64.669132 
1154.000000	64.704179 
1153.000000	64.728593 
1152.000000	64.739537 
1151.000000	64.737081 
1150.000000	64.724254 
1149.000000	64.706397 
1148.000000	64.689803 
1147.000000	64.680385 
1146.000000	64.682245 
1145.000000	64.697051 
1144.000000	64.723992 
1143.000000	64.760279 
1142.000000	64.802002 
1141.000000	64.844799 
1140.000000	64.885067 
1139.000000	64.919924 
1138.000000	64.946985 
1137.000000	64.964270 
1136.000000	64.970183 
1135.000000	64.963603 
1134.000000	64.944124 
1133.000000	64.912581 
1132.000000	64.871859 
1131.000000	64.826273 
1130.000000	64.781451 
1129.000000	64.742875 
1128.000000	64.715099 
1127.000000	64.700245 
1126.000000	64.697766 
1125.000000	64.704418 
1124.000000	64.714646 
1123.000000	64.722800 
1122.000000	64.724421 
1121.000000	64.717435 
1120.000000	64.702606 
1119.000000	64.683389 
1118.000000	64.664840 
1117.000000	64.652132 
1116.000000	64.648818 
1115.000000	64.655947 
1114.000000	64.671611 
1113.000000	64.691996 
1112.000000	64.712262 
1111.000000	64.727497 
1110.000000	64.734363 
1109.000000	64.732074 
1108.000000	64.722251 
1107.000000	64.708495 
1106.000000	64.694952 
1105.000000	64.685583 
1104.000000	64.682388 
1103.000000	64.684796 
1102.000000	64.689493 
1101.000000	64.691495 
1100.000000	64.685297 
1099.000000	64.666676 
1098.000000	64.633822 
1097.000000	64.587903 
1096.000000	64.532828 
1095.000000	64.474463 
1094.000000	64.419198 
1093.000000	64.372682 
1092.000000	64.339041 
1091.000000	64.320540 
1090.000000	64.317464 
1089.000000	64.328932 
1088.000000	64.353370 
1087.000000	64.389491 
1086.000000	64.436411 
1085.000000	64.493966 
1084.000000	64.561533 
1083.000000	64.638185 
1082.000000	64.721918 
1081.000000	64.809298 
1080.000000	64.896035 
1079.000000	64.976334 
1078.000000	65.044856 
1077.000000	65.095591 
1076.000000	65.123677 
1075.000000	65.125250 
1074.000000	65.098929 
1073.000000	65.045905 
1072.000000	64.970707 
1071.000000	64.880371 
1070.000000	64.784073 
1069.000000	64.690995 
1068.000000	64.609241 
1067.000000	64.544320 
1066.000000	64.498686 
1065.000000	64.471888 
1064.000000	64.461803 
1063.000000	64.465546 
1062.000000	64.480948 
1061.000000	64.507150 
1060.000000	64.544701 
1059.000000	64.594340 
1058.000000	64.656257 
1057.000000	64.728474 
1056.000000	64.807152 
1055.000000	64.885878 
1054.000000	64.957380 
1053.000000	65.015482 
1052.000000	65.055823 
1051.000000	65.077829 
1050.000000	65.082907 
1049.000000	65.074968 
1048.000000	65.057563 
1047.000000	65.033459 
1046.000000	65.003752 
1045.000000	64.968800 
1044.000000	64.928531 
1043.000000	64.883828 
1042.000000	64.836788 
1041.000000	64.791035 
1040.000000	64.750981 
1039.000000	64.721226 
1038.000000	64.704632 
1037.000000	64.701747 
1036.000000	64.710474 
1035.000000	64.726567 
1034.000000	64.744853 
1033.000000	64.760637 
1032.000000	64.770889 
1031.000000	64.775395 
1030.000000	64.776468 
1029.000000	64.778709 
1028.000000	64.786934 
1027.000000	64.805078 
1026.000000	64.835643 
1025.000000	64.877772 
1024.000000	64.927911 
1023.000000	64.979338 
1022.000000	65.024089 
1021.000000	65.054011 
1020.000000	65.062665 
1019.000000	65.047192 
1018.000000	65.009093 
1017.000000	64.954519 
1016.000000	64.893269 
1015.000000	64.836192 
1014.000000	64.792704 
1013.000000	64.768767 
1012.000000	64.765715 
1011.000000	64.779686 
1010.000000	64.803099 
1009.000000	64.826703 
1008.000000	64.842271 
1007.000000	64.844751 
1006.000000	64.833188 
1005.000000	64.810729 
1004.000000	64.783215 
1003.000000	64.756894 
1002.000000	64.736413 
1001.000000	64.723134 
1000.000000	64.714980 
999.000000	 64.707756 
998.000000	 64.696788 
997.000000	 64.678502 
996.000000	 64.652395 
995.000000	 64.621424 
994.000000	 64.591670 
993.000000	 64.569902 
992.000000	 64.562988 
991.000000	 64.575719 
990.000000	 64.609670 
989.000000	 64.662313 
988.000000	 64.727687 
987.000000	 64.797544 
986.000000	 64.862918 
985.000000	 64.916062 
984.000000	 64.951109 
983.000000	 64.965200 
982.000000	 64.958882 
981.000000	 64.935755 
980.000000	 64.901614 
979.000000	 64.862990 
978.000000	 64.826607 
977.000000	 64.797568 
976.000000	 64.778804 
975.000000	 64.769959 
974.000000	 64.768671 
973.000000	 64.770030 
972.000000	 64.768290 
971.000000	 64.757680 
970.000000	 64.733815 
969.000000	 64.694333 
968.000000	 64.639234 
967.000000	 64.570927 
966.000000	 64.493584 
965.000000	 64.413070 
964.000000	 64.335680 
963.000000	 64.267945 
962.000000	 64.215540 
961.000000	 64.183115 
960.000000	 64.173555 
959.000000	 64.187431 
958.000000	 64.222836 
957.000000	 64.275312 
956.000000	 64.338541 
955.000000	 64.404606 
954.000000	 64.465594 
953.000000	 64.515280 
952.000000	 64.550209 
951.000000	 64.570140 
950.000000	 64.577627 
949.000000	 64.576935 
948.000000	 64.572477 
947.000000	 64.568090 
946.000000	 64.565539 
945.000000	 64.564466 
944.000000	 64.562749 
943.000000	 64.558315 
942.000000	 64.549851 
941.000000	 64.537835 
940.000000	 64.524650 
939.000000	 64.514136 
938.000000	 64.510250 
937.000000	 64.515590 
936.000000	 64.530491 
935.000000	 64.552640 
934.000000	 64.577150 
933.000000	 64.597916 
932.000000	 64.609193 
931.000000	 64.607095 
930.000000	 64.590406 
929.000000	 64.560961 
928.000000	 64.522957 
927.000000	 64.482140 
926.000000	 64.444875 
925.000000	 64.416980 
924.000000	 64.402747 
923.000000	 64.404439 
922.000000	 64.422774 
921.000000	 64.456415 
920.000000	 64.502549 
919.000000	 64.556789 
918.000000	 64.613866 
917.000000	 64.667963 
916.000000	 64.713191 
915.000000	 64.744710 
914.000000	 64.759016 
913.000000	 64.755058 
912.000000	 64.734458 
911.000000	 64.700889 
910.000000	 64.659714 
909.000000	 64.616632 
908.000000	 64.576864 
907.000000	 64.543700 
906.000000	 64.518404 
905.000000	 64.500021 
904.000000	 64.486122 
903.000000	 64.473652 
902.000000	 64.459872 
901.000000	 64.443063 
900.000000	 64.422726 
899.000000	 64.399528 
898.000000	 64.375162 
897.000000	 64.351391 
896.000000	 64.329957 
895.000000	 64.311790 
894.000000	 64.297580 
893.000000	 64.287734 
892.000000	 64.282917 
891.000000	 64.284014 
890.000000	 64.291954 
889.000000	 64.307379 
888.000000	 64.330077 
887.000000	 64.358782 
886.000000	 64.390826 
885.000000	 64.422321 
884.000000	 64.448976 
883.000000	 64.467144 
882.000000	 64.474463 
881.000000	 64.470481 
880.000000	 64.456605 
879.000000	 64.435648 
878.000000	 64.411020 
877.000000	 64.385986 
876.000000	 64.362812 
875.000000	 64.342570 
874.000000	 64.325451 
873.000000	 64.311337 
872.000000	 64.300656 
871.000000	 64.294719 
870.000000	 64.295625 
869.000000	 64.305710 
868.000000	 64.326643 
867.000000	 64.358520 
866.000000	 64.399123 
865.000000	 64.444136 
864.000000	 64.487552 
863.000000	 64.523291 
862.000000	 64.546561 
861.000000	 64.554738 
860.000000	 64.548325 
859.000000	 64.530444 
858.000000	 64.506125 
857.000000	 64.480948 
856.000000	 64.459919 
855.000000	 64.446020 
854.000000	 64.439988 
853.000000	 64.440107 
852.000000	 64.443135 
851.000000	 64.444994 
850.000000	 64.442110 
849.000000	 64.432120 
848.000000	 64.414548 
847.000000	 64.390277 
846.000000	 64.361333 
845.000000	 64.329957 
844.000000	 64.298200 
843.000000	 64.267373 
842.000000	 64.238452 
841.000000	 64.212179 
840.000000	 64.189434 
839.000000	 64.171504 
838.000000	 64.159774 
837.000000	 64.155292 
836.000000	 64.158511 
835.000000	 64.168357 
834.000000	 64.182662 
833.000000	 64.198088 
832.000000	 64.211297 
831.000000	 64.219188 
830.000000	 64.220333 
829.000000	 64.215469 
828.000000	 64.207077 
827.000000	 64.198732 
826.000000	 64.193463 
825.000000	 64.192509 
824.000000	 64.194917 
823.000000	 64.197993 
822.000000	 64.198088 
821.000000	 64.192032 
820.000000	 64.178752 
819.000000	 64.159393 
818.000000	 64.136695 
817.000000	 64.114379 
816.000000	 64.095544 
815.000000	 64.082336 
814.000000	 64.075469 
813.000000	 64.074373 
812.000000	 64.078164 
811.000000	 64.085459 
810.000000	 64.095139 
809.000000	 64.105796 
808.000000	 64.115762 
807.000000	 64.123249 
806.000000	 64.126300 
805.000000	 64.123511 
804.000000	 64.113926 
803.000000	 64.098381 
802.000000	 64.079308 
801.000000	 64.060831 
800.000000	 64.047741 
799.000000	 64.044451 
798.000000	 64.053940 
797.000000	 64.076733 
796.000000	 64.110565 
795.000000	 64.151382 
794.000000	 64.194154 
793.000000	 64.234423 
792.000000	 64.269018 
791.000000	 64.296555 
790.000000	 64.317250 
789.000000	 64.332032 
788.000000	 64.341711 
787.000000	 64.346480 
786.000000	 64.345264 
785.000000	 64.337038 
784.000000	 64.319920 
783.000000	 64.292812 
782.000000	 64.255237 
781.000000	 64.208698 
780.000000	 64.155912 
779.000000	 64.100742 
778.000000	 64.047169 
777.000000	 63.998794 
776.000000	 63.957786 
775.000000	 63.924527 
774.000000	 63.897705 
773.000000	 63.875079 
772.000000	 63.853812 
771.000000	 63.831567 
770.000000	 63.806819 
769.000000	 63.779091 
768.000000	 63.749170 
767.000000	 63.718700 
766.000000	 63.689303 
765.000000	 63.662385 
764.000000	 63.639187 
763.000000	 63.620853 
762.000000	 63.608098 
761.000000	 63.601684 
760.000000	 63.602876 
759.000000	 63.613128 
758.000000	 63.633418 
757.000000	 63.663935 
756.000000	 63.703107 
755.000000	 63.748335 
754.000000	 63.795399 
753.000000	 63.840222 
752.000000	 63.879203 
751.000000	 63.910913 
750.000000	 63.936138 
749.000000	 63.957643 
748.000000	 63.979101 
747.000000	 64.003801 
746.000000	 64.033436 
745.000000	 64.066720 
744.000000	 64.099526 
743.000000	 64.125680 
742.000000	 64.138484 
741.000000	 64.131641 
740.000000	 64.101076 
739.000000	 64.046168 
738.000000	 63.970303 
737.000000	 63.879990 
736.000000	 63.783836 
735.000000	 63.691186 
734.000000	 63.610315 
733.000000	 63.547325 
732.000000	 63.505244 
731.000000	 63.484168 
730.000000	 63.481569 
729.000000	 63.493466 
728.000000	 63.515114 
727.000000	 63.541293 
726.000000	 63.567376 
725.000000	 63.589549 
724.000000	 63.604784 
723.000000	 63.610100 
722.000000	 63.603258 
721.000000	 63.582682 
720.000000	 63.548302 
719.000000	 63.501405 
718.000000	 63.446044 
717.000000	 63.388729 
716.000000	 63.337683 
715.000000	 63.301420 
714.000000	 63.286781 
713.000000	 63.297295 
712.000000	 63.331675 
711.000000	 63.384222 
710.000000	 63.445901 
709.000000	 63.506340 
708.000000	 63.556313 
707.000000	 63.589334 
706.000000	 63.602852 
705.000000	 63.598060 
704.000000	 63.579154 
703.000000	 63.551282 
702.000000	 63.518786 
701.000000	 63.484048 
700.000000	 63.447785 
699.000000	 63.408946 
698.000000	 63.365960 
697.000000	 63.317751 
696.000000	 63.265442 
695.000000	 63.212156 
694.000000	 63.162708 
693.000000	 63.122248 
692.000000	 63.094806 
691.000000	 63.082289 
690.000000	 63.083457 
689.000000	 63.094592 
688.000000	 63.110089 
687.000000	 63.123846 
686.000000	 63.130450 
685.000000	 63.126397 
684.000000	 63.110351 
683.000000	 63.082838 
682.000000	 63.045716 
681.000000	 63.000965 
680.000000	 62.950968 
679.000000	 62.897968 
678.000000	 62.844848 
677.000000	 62.794494 
676.000000	 62.750911 
675.000000	 62.718915 
674.000000	 62.703132 
673.000000	 62.706899 
672.000000	 62.731480 
671.000000	 62.775182 
670.000000	 62.833595 
669.000000	 62.899422 
668.000000	 62.964677 
667.000000	 63.021588 
666.000000	 63.064837 
665.000000	 63.092231 
664.000000	 63.105177 
663.000000	 63.107824 
662.000000	 63.105845 
661.000000	 63.104653 
660.000000	 63.107585 
659.000000	 63.114786 
658.000000	 63.123583 
657.000000	 63.129186 
656.000000	 63.126134 
655.000000	 63.109731 
654.000000	 63.078188 
653.000000	 63.032579 
652.000000	 62.976813 
651.000000	 62.916064 
650.000000	 62.855982 
649.000000	 62.800693 
648.000000	 62.752056 
647.000000	 62.709259 
646.000000	 62.669348 
645.000000	 62.628507 
644.000000	 62.583470 
643.000000	 62.532854 
642.000000	 62.477421 
641.000000	 62.420654 
640.000000	 62.367653 
639.000000	 62.324166 
638.000000	 62.294769 
637.000000	 62.281918 
636.000000	 62.285256 
635.000000	 62.301874 
634.000000	 62.327027 
633.000000	 62.355685 
632.000000	 62.384009 
631.000000	 62.409949 
630.000000	 62.434029 
629.000000	 62.459111 
628.000000	 62.489199 
627.000000	 62.527942 
626.000000	 62.576532 
625.000000	 62.633538 
624.000000	 62.693357 
623.000000	 62.748074 
622.000000	 62.787938 
621.000000	 62.804269 
620.000000	 62.790727 
619.000000	 62.745547 
618.000000	 62.671470 
617.000000	 62.575411 
616.000000	 62.467622 
615.000000	 62.359571 
614.000000	 62.263059 
613.000000	 62.188196 
612.000000	 62.142705 
611.000000	 62.131094 
610.000000	 62.153983 
609.000000	 62.208485 
608.000000	 62.287998 
607.000000	 62.383103 
606.000000	 62.482094 
605.000000	 62.572264 
604.000000	 62.641453 
603.000000	 62.679886 
602.000000	 62.682104 
601.000000	 62.647414 
600.000000	 62.580418 
599.000000	 62.489533 
598.000000	 62.385749 
597.000000	 62.279796 
596.000000	 62.181115 
595.000000	 62.095761 
594.000000	 62.026643 
593.000000	 61.973023 
592.000000	 61.932516 
591.000000	 61.901235 
590.000000	 61.874938 
589.000000	 61.850285 
588.000000	 61.824679 
587.000000	 61.797595 
586.000000	 61.769533 
585.000000	 61.742877 
584.000000	 61.720490 
583.000000	 61.705780 
582.000000	 61.701297 
581.000000	 61.708378 
580.000000	 61.726212 
579.000000	 61.751651 
578.000000	 61.779618 
577.000000	 61.803531 
576.000000	 61.817026 
575.000000	 61.815714 
574.000000	 61.798501 
573.000000	 61.767721 
572.000000	 61.728882 
571.000000	 61.689186 
570.000000	 61.656069 
569.000000	 61.635208 
568.000000	 61.629724 
567.000000	 61.639738 
566.000000	 61.662697 
565.000000	 61.695075 
564.000000	 61.732411 
563.000000	 61.770701 
562.000000	 61.806035 
561.000000	 61.835289 
560.000000	 61.855340 
559.000000	 61.863327 
558.000000	 61.856532 
557.000000	 61.832785 
556.000000	 61.790966 
555.000000	 61.731553 
554.000000	 61.657238 
553.000000	 61.572861 
552.000000	 61.484718 
551.000000	 61.399793 
550.000000	 61.324286 
549.000000	 61.263132 
548.000000	 61.219358 
547.000000	 61.194086 
546.000000	 61.186575 
545.000000	 61.195039 
544.000000	 61.217474 
543.000000	 61.251473 
542.000000	 61.294436 
541.000000	 61.342859 
540.000000	 61.391663 
539.000000	 61.434435 
538.000000	 61.463522 
537.000000	 61.471748 
536.000000	 61.453437 
535.000000	 61.406636 
534.000000	 61.333584 
533.000000	 61.241388 
532.000000	 61.140799 
531.000000	 61.044692 
530.000000	 60.965371 
529.000000	 60.912728 
528.000000	 60.892462 
527.000000	 60.904741 
526.000000	 60.944294 
525.000000	 61.001777 
524.000000	 61.065363 
523.000000	 61.122918 
522.000000	 61.164522 
521.000000	 61.183190 
520.000000	 61.176490 
519.000000	 61.146879 
518.000000	 61.100935 
517.000000	 61.047649 
516.000000	 60.996198 
515.000000	 60.955023 
514.000000	 60.928773 
513.000000	 60.918211 
512.000000	 60.919451 
511.000000	 60.924839 
510.000000	 60.925889 
509.000000	 60.916590 
508.000000	 60.894298 
507.000000	 60.860514 
506.000000	 60.819840 
505.000000	 60.778808 
504.000000	 60.742616 
503.000000	 60.713195 
502.000000	 60.688591 
501.000000	 60.663700 
500.000000	 60.632085 
499.000000	 60.588502 
498.000000	 60.530972 
497.000000	 60.462522 
496.000000	 60.391283 
495.000000	 60.329651 
494.000000	 60.291528 
493.000000	 60.289025 
492.000000	 60.329484 
491.000000	 60.412335 
490.000000	 60.529875 
489.000000	 60.665893 
488.000000	 60.799479 
487.000000	 60.906529 
486.000000	 60.965251 
485.000000	 60.958838 
484.000000	 60.879325 
483.000000	 60.728836 
482.000000	 60.519552 
481.000000	 60.271596 
480.000000	 60.010337 
479.000000	 59.760642 
478.000000	 59.543204 
477.000000	 59.370923 
476.000000	 59.248042 
475.000000	 59.171247 
474.000000	 59.132432 
473.000000	 59.121823 
472.000000	 59.130907 
471.000000	 59.155368 
470.000000	 59.195041 
469.000000	 59.251356 
468.000000	 59.324598 
467.000000	 59.411525 
466.000000	 59.503626 
465.000000	 59.587788 
464.000000	 59.648251 
463.000000	 59.669184 
462.000000	 59.639310 
461.000000	 59.556317 
460.000000	 59.427404 
459.000000	 59.268951 
458.000000	 59.102702 
457.000000	 58.951210 
456.000000	 58.833336 
455.000000	 58.761310 
454.000000	 58.738183 
453.000000	 58.757877 
452.000000	 58.807992 
451.000000	 58.874511 
450.000000	 58.942389 
449.000000	 58.998513 
448.000000	 59.031605 
447.000000	 59.033250 
446.000000	 58.995938 
445.000000	 58.913946 
444.000000	 58.783936 
443.000000	 58.607506 
442.000000	 58.393192 
441.000000	 58.158707 
440.000000	 57.932019 
439.000000	 57.747197 
438.000000	 57.638978 
437.000000	 57.633209 
436.000000	 57.739377 
435.000000	 57.946014 
434.000000	 58.222699 
433.000000	 58.524274 
432.000000	 58.798122 
431.000000	 58.996105 
430.000000	 59.092187 
429.000000	 59.076356 
428.000000	 58.948945 
427.000000	 58.722925 
426.000000	 58.428120 
425.000000	 58.088922 
424.000000	 57.713508 
423.000000	 57.308030 
422.000000	 56.886386 
421.000000	 56.460189 
420.000000	 56.040692 
419.000000	 55.647587 
418.000000	 55.308532 
417.000000	 55.044150 
416.000000	 54.864144 
415.000000	 54.769372 
414.000000	 54.751801 
413.000000	 54.787659 
412.000000	 54.851198 
411.000000	 54.911017 
410.000000	 54.953360 
409.000000	 54.988312 
408.000000	 55.059194 
407.000000	 55.210161 
406.000000	 55.504631 
405.000000	 55.995392 
404.000000	 56.743860 
403.000000	 57.751274 
402.000000	 59.039282 
401.000000	 60.649037 
400.000000	 62.637495 
399.000000	 65.058636 
398.000000	 67.924499 
397.000000	 71.160244 
396.000000	 74.625802 
395.000000	 78.131651 
394.000000	 81.454682 
393.000000	 84.358525 
392.000000	 86.735653 
391.000000	 88.631844 
390.000000	 90.134239 
389.000000	 91.332530 
388.000000	 92.304992 
387.000000	 93.071603 
386.000000	 93.629240 
385.000000	 93.914079 
384.000000	 93.867278 
383.000000	 93.392109 
382.000000	 92.412519 
381.000000	 90.827989 
380.000000	 88.620853 
379.000000	 85.768604 
378.000000	 82.234168 
377.000000	 78.010797 
376.000000	 73.134279 
375.000000	 67.771363 
374.000000	 62.186241 
373.000000	 56.842780 
372.000000	 52.238655 
371.000000	 49.056768 
370.000000	 47.927784 

