PE IR       SPECTRUM    SPECTRUM    ASCII       PEDS        1.60        
  -1
C-9BEF~1.ASC
17/03/27
18:23:09.00
17/03/27
18:23:09.00
tln
$C-4040-8_t0047$<tbV0>[7.8,-2.6,8.0,0.0,27,1,0]
370.000000
64









2002,4.07    
MIRTGS : RIGHTBACK : INTERNAL 2
MIR : ON : INTERNAL 2
OPTKBR

0.200000
8
8.000000
FILLER
RATIO
SPECTRUM
UNLOCKED 256

DOUBLE
64
COMBINED
1
0
0


1.000000
RATIO


1
0
TRUE
51149
0
LEFT NOT FITTED RIGHT NOT FITTED 0
NONE
NONE
15600
12.000000
4.427000
51148
TRUE
1 0 8 72 0 0 0 0 

15798.010000






#HDR
-1
-1
#GR
CM-1
%T
0.00002384185791015625
0.0
5000.000000
-1.000000
4631
8
92.290377
40.677213
#DATA
5000.000000	64.790725 
4999.000000	64.823770 
4998.000000	64.827513 
4997.000000	64.802050 
4996.000000	64.753246 
4995.000000	64.691376 
4994.000000	64.628815 
4993.000000	64.577531 
4992.000000	64.545512 
4991.000000	64.535975 
4990.000000	64.545416 
4989.000000	64.565682 
4988.000000	64.585423 
4987.000000	64.593553 
4986.000000	64.581537 
4985.000000	64.545679 
4984.000000	64.488172 
4983.000000	64.416790 
4982.000000	64.343214 
4981.000000	64.280772 
4980.000000	64.242315 
4979.000000	64.237809 
4978.000000	64.272761 
4977.000000	64.347147 
4976.000000	64.455795 
4975.000000	64.588856 
4974.000000	64.733624 
4973.000000	64.876270 
4972.000000	65.003919 
4971.000000	65.106415 
4970.000000	65.176963 
4969.000000	65.213441 
4968.000000	65.218019 
4967.000000	65.196299 
4966.000000	65.156245 
4965.000000	65.106320 
4964.000000	65.055131 
4963.000000	65.009474 
4962.000000	64.974689 
4961.000000	64.953160 
4960.000000	64.945316 
4959.000000	64.949297 
4958.000000	64.962100 
4957.000000	64.979362 
4956.000000	64.996504 
4955.000000	65.008926 
4954.000000	65.013074 
4953.000000	65.006875 
4952.000000	64.990401 
4951.000000	64.965939 
4950.000000	64.937877 
4949.000000	64.912009 
4948.000000	64.893984 
4947.000000	64.888763 
4946.000000	64.898109 
4945.000000	64.920520 
4944.000000	64.950275 
4943.000000	64.978718 
4942.000000	64.995980 
4941.000000	64.993715 
4940.000000	64.966678 
4939.000000	64.913916 
4938.000000	64.839386 
4937.000000	64.750838 
4936.000000	64.658761 
4935.000000	64.573788 
4934.000000	64.505481 
4933.000000	64.460349 
4932.000000	64.441585 
4931.000000	64.449024 
4930.000000	64.479494 
4929.000000	64.527559 
4928.000000	64.586138 
4927.000000	64.647722 
4926.000000	64.704728 
4925.000000	64.751100 
4924.000000	64.782547 
4923.000000	64.797759 
4922.000000	64.798879 
4921.000000	64.790916 
4920.000000	64.781045 
4919.000000	64.776158 
4918.000000	64.781546 
4917.000000	64.798784 
4916.000000	64.825057 
4915.000000	64.854335 
4914.000000	64.879798 
4913.000000	64.895963 
4912.000000	64.900279 
4911.000000	64.894580 
4910.000000	64.884996 
4909.000000	64.879298 
4908.000000	64.884781 
4907.000000	64.905023 
4906.000000	64.938449 
4905.000000	64.978170 
4904.000000	65.013909 
4903.000000	65.034961 
4902.000000	65.033674 
4901.000000	65.008163 
4900.000000	64.963245 
4899.000000	64.909672 
4898.000000	64.860844 
4897.000000	64.829564 
4896.000000	64.823508 
4895.000000	64.843773 
4894.000000	64.883041 
4893.000000	64.928460 
4892.000000	64.963150 
4891.000000	64.971160 
4890.000000	64.940094 
4889.000000	64.864230 
4888.000000	64.745903 
4887.000000	64.593863 
4886.000000	64.422821 
4885.000000	64.249777 
4884.000000	64.091777 
4883.000000	63.962554 
4882.000000	63.871192 
4881.000000	63.821554 
4880.000000	63.811254 
4879.000000	63.832926 
4878.000000	63.875293 
4877.000000	63.925409 
4876.000000	63.970613 
4875.000000	64.000773 
4874.000000	64.009642 
4873.000000	63.996052 
4872.000000	63.964128 
4871.000000	63.922452 
4870.000000	63.881587 
4869.000000	63.851928 
4868.000000	63.841462 
4867.000000	63.854098 
4866.000000	63.888978 
4865.000000	63.940978 
4864.000000	64.001941 
4863.000000	64.063644 
4862.000000	64.118957 
4861.000000	64.165115 
4860.000000	64.202976 
4859.000000	64.237976 
4858.000000	64.277243 
4857.000000	64.328670 
4856.000000	64.397788 
4855.000000	64.486932 
4854.000000	64.594602 
4853.000000	64.714908 
4852.000000	64.838886 
4851.000000	64.955925 
4850.000000	65.056538 
4849.000000	65.132236 
4848.000000	65.177154 
4847.000000	65.188336 
4846.000000	65.166068 
4845.000000	65.113925 
4844.000000	65.038275 
4843.000000	64.947676 
4842.000000	64.851546 
4841.000000	64.759969 
4840.000000	64.681243 
4839.000000	64.622020 
4838.000000	64.585304 
4837.000000	64.570569 
4836.000000	64.574050 
4835.000000	64.589643 
4834.000000	64.610743 
4833.000000	64.631485 
4832.000000	64.648151 
4831.000000	64.658832 
4830.000000	64.664196 
4829.000000	64.666390 
4828.000000	64.668059 
4827.000000	64.670562 
4826.000000	64.674282 
4825.000000	64.678645 
4824.000000	64.682102 
4823.000000	64.682960 
4822.000000	64.679861 
4821.000000	64.672470 
4820.000000	64.660716 
4819.000000	64.644932 
4818.000000	64.625453 
4817.000000	64.602875 
4816.000000	64.577865 
4815.000000	64.551806 
4814.000000	64.527058 
4813.000000	64.507389 
4812.000000	64.497900 
4811.000000	64.503836 
4810.000000	64.529132 
4809.000000	64.575028 
4808.000000	64.639329 
4807.000000	64.715766 
4806.000000	64.794874 
4805.000000	64.865493 
4804.000000	64.916920 
4803.000000	64.941549 
4802.000000	64.936542 
4801.000000	64.904189 
4800.000000	64.851593 
4799.000000	64.788603 
4798.000000	64.725470 
4797.000000	64.670801 
4796.000000	64.630150 
4795.000000	64.605283 
4794.000000	64.594841 
4793.000000	64.595460 
4792.000000	64.603590 
4791.000000	64.616537 
4790.000000	64.633488 
4789.000000	64.654564 
4788.000000	64.680647 
4787.000000	64.712071 
4786.000000	64.748072 
4785.000000	64.786219 
4784.000000	64.822673 
4783.000000	64.853382 
4782.000000	64.874100 
4781.000000	64.882206 
4780.000000	64.876103 
4779.000000	64.855837 
4778.000000	64.822912 
4777.000000	64.779376 
4776.000000	64.728951 
4775.000000	64.676523 
4774.000000	64.628219 
4773.000000	64.590501 
4772.000000	64.569520 
4771.000000	64.570164 
4770.000000	64.594125 
4769.000000	64.639043 
4768.000000	64.698147 
4767.000000	64.761161 
4766.000000	64.816045 
4765.000000	64.851808 
4764.000000	64.860796 
4763.000000	64.840793 
4762.000000	64.796066 
4761.000000	64.735937 
4760.000000	64.672422 
4759.000000	64.617276 
4758.000000	64.579558 
4757.000000	64.563155 
4756.000000	64.566731 
4755.000000	64.584207 
4754.000000	64.607477 
4753.000000	64.627885 
4752.000000	64.638805 
4751.000000	64.636445 
4750.000000	64.620447 
4749.000000	64.593291 
4748.000000	64.558792 
4747.000000	64.521026 
4746.000000	64.483261 
4745.000000	64.447236 
4744.000000	64.413094 
4743.000000	64.380049 
4742.000000	64.347577 
4741.000000	64.315366 
4740.000000	64.284014 
4739.000000	64.255189 
4738.000000	64.231610 
4737.000000	64.217066 
4736.000000	64.215779 
4735.000000	64.231252 
4734.000000	64.265847 
4733.000000	64.320015 
4732.000000	64.391994 
4731.000000	64.477252 
4730.000000	64.569544 
4729.000000	64.661931 
4728.000000	64.747786 
4727.000000	64.822196 
4726.000000	64.882183 
4725.000000	64.927077 
4724.000000	64.958047 
4723.000000	64.977240 
4722.000000	64.987301 
4721.000000	64.991068 
4720.000000	64.990830 
4719.000000	64.988541 
4718.000000	64.986133 
4717.000000	64.985704 
4716.000000	64.989542 
4715.000000	65.000009 
4714.000000	65.018296 
4713.000000	65.043997 
4712.000000	65.074682 
4711.000000	65.106177 
4710.000000	65.133380 
4709.000000	65.151429 
4708.000000	65.156865 
4707.000000	65.148377 
4706.000000	65.127205 
4705.000000	65.096521 
4704.000000	65.060901 
4703.000000	65.024709 
4702.000000	64.991641 
4701.000000	64.963412 
4700.000000	64.940047 
4699.000000	64.919519 
4698.000000	64.899230 
4697.000000	64.876055 
4696.000000	64.847159 
4695.000000	64.811038 
4694.000000	64.767813 
4693.000000	64.719390 
4692.000000	64.668607 
4691.000000	64.619565 
4690.000000	64.576482 
4689.000000	64.543199 
4688.000000	64.522266 
4687.000000	64.514040 
4686.000000	64.516615 
4685.000000	64.525723 
4684.000000	64.536118 
4683.000000	64.542245 
4682.000000	64.540052 
4681.000000	64.528083 
4680.000000	64.508223 
4679.000000	64.485025 
4678.000000	64.464926 
4677.000000	64.454364 
4676.000000	64.458227 
4675.000000	64.478063 
4674.000000	64.511561 
4673.000000	64.553093 
4672.000000	64.594650 
4671.000000	64.628005 
4670.000000	64.646434 
4669.000000	64.646291 
4668.000000	64.628005 
4667.000000	64.595341 
4666.000000	64.554786 
4665.000000	64.513421 
4664.000000	64.478254 
4663.000000	64.454436 
4662.000000	64.445018 
4661.000000	64.450883 
4660.000000	64.470815 
4659.000000	64.502453 
4658.000000	64.543056 
4657.000000	64.590191 
4656.000000	64.641571 
4655.000000	64.695286 
4654.000000	64.749765 
4653.000000	64.803290 
4652.000000	64.854145 
4651.000000	64.900159 
4650.000000	64.939308 
4649.000000	64.969396 
4648.000000	64.988803 
4647.000000	64.996218 
4646.000000	64.991402 
4645.000000	64.974641 
4644.000000	64.947676 
4643.000000	64.912390 
4642.000000	64.871048 
4641.000000	64.825558 
4640.000000	64.777946 
4639.000000	64.729619 
4638.000000	64.681243 
4637.000000	64.633965 
4636.000000	64.589548 
4635.000000	64.551091 
4634.000000	64.522719 
4633.000000	64.509129 
4632.000000	64.514470 
4631.000000	64.541769 
4630.000000	64.591550 
4629.000000	64.661145 
4628.000000	64.744567 
4627.000000	64.833307 
4626.000000	64.917802 
4625.000000	64.989614 
4624.000000	65.042352 
4623.000000	65.073299 
4622.000000	65.082311 
4621.000000	65.072464 
4620.000000	65.047192 
4619.000000	65.010094 
4618.000000	64.962530 
4617.000000	64.904689 
4616.000000	64.834666 
4615.000000	64.750742 
4614.000000	64.652085 
4613.000000	64.540386 
4612.000000	64.420819 
4611.000000	64.301443 
4610.000000	64.193010 
4609.000000	64.106678 
4608.000000	64.052700 
4607.000000	64.038181 
4606.000000	64.066243 
4605.000000	64.135098 
4604.000000	64.238357 
4603.000000	64.365601 
4602.000000	64.503407 
4601.000000	64.637207 
4600.000000	64.753031 
4599.000000	64.839863 
4598.000000	64.890933 
4597.000000	64.904832 
4596.000000	64.885592 
4595.000000	64.841103 
4594.000000	64.782285 
4593.000000	64.719653 
4592.000000	64.662098 
4591.000000	64.614653 
4590.000000	64.579582 
4589.000000	64.555382 
4588.000000	64.539074 
4587.000000	64.526987 
4586.000000	64.516425 
4585.000000	64.506244 
4584.000000	64.496803 
4583.000000	64.489507 
4582.000000	64.485549 
4581.000000	64.485859 
4580.000000	64.490294 
4579.000000	64.498043 
4578.000000	64.507842 
4577.000000	64.519381 
4576.000000	64.533782 
4575.000000	64.553380 
4574.000000	64.580845 
4573.000000	64.618325 
4572.000000	64.665937 
4571.000000	64.721608 
4570.000000	64.780449 
4569.000000	64.835381 
4568.000000	64.877843 
4567.000000	64.900207 
4566.000000	64.896345 
4565.000000	64.864397 
4564.000000	64.805626 
4563.000000	64.724588 
4562.000000	64.627647 
4561.000000	64.522886 
4560.000000	64.417839 
4559.000000	64.318418 
4558.000000	64.229083 
4557.000000	64.152884 
4556.000000	64.092874 
4555.000000	64.052271 
4554.000000	64.034843 
4553.000000	64.043903 
4552.000000	64.081382 
4551.000000	64.146232 
4550.000000	64.233088 
4549.000000	64.332461 
4548.000000	64.431667 
4547.000000	64.517140 
4546.000000	64.576935 
4545.000000	64.604067 
4544.000000	64.597249 
4543.000000	64.562797 
4542.000000	64.512777 
4541.000000	64.463496 
4540.000000	64.432692 
4539.000000	64.435291 
4538.000000	64.481115 
4537.000000	64.571595 
4536.000000	64.700746 
4535.000000	64.854478 
4534.000000	65.014266 
4533.000000	65.160012 
4532.000000	65.274214 
4531.000000	65.345239 
4530.000000	65.368962 
4529.000000	65.349102 
4528.000000	65.295243 
4527.000000	65.220904 
4526.000000	65.140342 
4525.000000	65.065479 
4524.000000	65.004348 
4523.000000	64.960432 
4522.000000	64.933633 
4521.000000	64.922022 
4520.000000	64.923429 
4519.000000	64.936685 
4518.000000	64.961719 
4517.000000	64.998817 
4516.000000	65.047526 
4515.000000	65.104818 
4514.000000	65.164756 
4513.000000	65.219211 
4512.000000	65.258669 
4511.000000	65.274763 
4510.000000	65.261554 
4509.000000	65.217065 
4508.000000	65.143823 
4507.000000	65.048933 
4506.000000	64.942240 
4505.000000	64.835190 
4504.000000	64.738202 
4503.000000	64.659166 
4502.000000	64.602327 
4501.000000	64.568352 
4500.000000	64.554023 
4499.000000	64.553618 
4498.000000	64.560389 
4497.000000	64.568185 
4496.000000	64.572429 
4495.000000	64.571070 
4494.000000	64.564609 
4493.000000	64.555764 
4492.000000	64.548587 
4491.000000	64.547586 
4490.000000	64.556527 
4489.000000	64.577817 
4488.000000	64.611673 
4487.000000	64.656352 
4486.000000	64.708709 
4485.000000	64.764904 
4484.000000	64.820981 
4483.000000	64.873528 
4482.000000	64.920115 
4481.000000	64.959621 
4480.000000	64.991474 
4479.000000	65.016055 
4478.000000	65.034294 
4477.000000	65.047454 
4476.000000	65.056920 
4475.000000	65.063762 
4474.000000	65.068769 
4473.000000	65.072655 
4472.000000	65.076446 
4471.000000	65.081048 
4470.000000	65.087127 
4469.000000	65.095305 
4468.000000	65.106034 
4467.000000	65.118670 
4466.000000	65.131497 
4465.000000	65.142011 
4464.000000	65.147280 
4463.000000	65.144658 
4462.000000	65.132522 
4461.000000	65.111064 
4460.000000	65.082287 
4459.000000	65.049767 
4458.000000	65.017509 
4457.000000	64.989757 
4456.000000	64.969086 
4455.000000	64.955925 
4454.000000	64.948129 
4453.000000	64.941692 
4452.000000	64.931797 
4451.000000	64.914369 
4450.000000	64.887046 
4449.000000	64.849877 
4448.000000	64.805841 
4447.000000	64.759969 
4446.000000	64.718532 
4445.000000	64.687418 
4444.000000	64.671587 
4443.000000	64.673733 
4442.000000	64.694094 
4441.000000	64.730453 
4440.000000	64.778780 
4439.000000	64.834094 
4438.000000	64.890861 
4437.000000	64.944481 
4436.000000	64.991378 
4435.000000	65.030598 
4434.000000	65.062975 
4433.000000	65.091681 
4432.000000	65.121388 
4431.000000	65.156722 
4430.000000	65.201520 
4429.000000	65.256690 
4428.000000	65.320396 
4427.000000	65.387105 
4426.000000	65.449023 
4425.000000	65.497636 
4424.000000	65.526056 
4423.000000	65.531086 
4422.000000	65.514540 
4421.000000	65.482473 
4420.000000	65.443897 
4419.000000	65.408015 
4418.000000	65.381908 
4417.000000	65.368556 
4416.000000	65.366387 
4415.000000	65.369701 
4414.000000	65.370917 
4413.000000	65.362524 
4412.000000	65.339851 
4411.000000	65.303206 
4410.000000	65.257883 
4409.000000	65.212726 
4408.000000	65.177106 
4407.000000	65.159511 
4406.000000	65.163087 
4405.000000	65.183234 
4404.000000	65.208578 
4403.000000	65.224075 
4402.000000	65.215492 
4401.000000	65.172719 
4400.000000	65.094518 
4399.000000	64.990305 
4398.000000	64.876866 
4397.000000	64.774417 
4396.000000	64.700055 
4395.000000	64.661383 
4394.000000	64.657878 
4393.000000	64.682674 
4392.000000	64.722061 
4391.000000	64.759898 
4390.000000	64.781403 
4389.000000	64.777302 
4388.000000	64.748072 
4387.000000	64.704585 
4386.000000	64.664244 
4385.000000	64.648699 
4384.000000	64.675545 
4383.000000	64.756608 
4382.000000	64.900588 
4381.000000	65.109491 
4380.000000	65.373206 
4379.000000	65.675091 
4378.000000	65.992736 
4377.000000	66.306376 
4376.000000	66.602134 
4375.000000	66.874504 
4374.000000	67.131400 
4373.000000	67.378115 
4372.000000	67.626762 
4371.000000	67.862486 
4370.000000	68.043017 
4369.000000	68.100643 
4368.000000	67.956256 
4367.000000	67.553305 
4366.000000	66.878676 
4365.000000	65.991282 
4364.000000	65.019011 
4363.000000	64.137268 
4362.000000	63.526868 
4361.000000	63.323497 
4360.000000	63.574028 
4359.000000	64.210772 
4358.000000	65.058445 
4357.000000	65.868401 
4356.000000	66.381669 
4355.000000	66.387438 
4354.000000	65.789103 
4353.000000	64.621186 
4352.000000	63.060069 
4351.000000	61.374473 
4350.000000	59.874176 
4349.000000	58.828783 
4348.000000	58.415675 
4347.000000	58.683514 
4346.000000	59.550309 
4345.000000	60.832953 
4344.000000	62.298583 
4343.000000	63.727855 
4342.000000	64.955091 
4341.000000	65.893197 
4340.000000	66.532254 
4339.000000	66.912150 
4338.000000	67.098140 
4337.000000	67.143607 
4336.000000	67.087674 
4335.000000	66.946530 
4334.000000	66.733241 
4333.000000	66.465640 
4332.000000	66.170597 
4331.000000	65.884637 
4330.000000	65.648555 
4329.000000	65.498924 
4328.000000	65.456533 
4327.000000	65.522527 
4326.000000	65.678381 
4325.000000	65.889763 
4324.000000	66.116070 
4323.000000	66.317057 
4322.000000	66.460514 
4321.000000	66.527318 
4320.000000	66.511130 
4319.000000	66.419386 
4318.000000	66.270685 
4317.000000	66.087174 
4316.000000	65.886807 
4315.000000	65.683484 
4314.000000	65.487456 
4313.000000	65.305471 
4312.000000	65.145874 
4311.000000	65.012502 
4310.000000	64.904999 
4309.000000	64.822196 
4308.000000	64.763212 
4307.000000	64.723706 
4306.000000	64.696907 
4305.000000	64.674496 
4304.000000	64.648938 
4303.000000	64.614486 
4302.000000	64.569902 
4301.000000	64.517974 
4300.000000	64.466071 
4299.000000	64.424061 
4298.000000	64.402174 
4297.000000	64.406919 
4296.000000	64.440250 
4295.000000	64.497566 
4294.000000	64.570665 
4293.000000	64.649367 
4292.000000	64.724874 
4291.000000	64.790821 
4290.000000	64.846110 
4289.000000	64.894056 
4288.000000	64.941191 
4287.000000	64.994597 
4286.000000	65.059089 
4285.000000	65.134859 
4284.000000	65.217804 
4283.000000	65.300941 
4282.000000	65.374779 
4281.000000	65.429854 
4280.000000	65.459823 
4279.000000	65.463304 
4278.000000	65.443825 
4277.000000	65.408778 
4276.000000	65.368247 
4275.000000	65.331411 
4274.000000	65.304899 
4273.000000	65.289926 
4272.000000	65.283131 
4271.000000	65.276503 
4270.000000	65.260219 
4269.000000	65.224981 
4268.000000	65.164685 
4267.000000	65.078997 
4266.000000	64.973020 
4265.000000	64.858007 
4264.000000	64.747548 
4263.000000	64.656662 
4262.000000	64.597892 
4261.000000	64.579391 
4260.000000	64.602661 
4259.000000	64.663434 
4258.000000	64.752674 
4257.000000	64.857912 
4256.000000	64.965653 
4255.000000	65.063309 
4254.000000	65.141034 
4253.000000	65.192317 
4252.000000	65.214467 
4251.000000	65.208554 
4250.000000	65.178394 
4249.000000	65.130186 
4248.000000	65.070915 
4247.000000	65.007853 
4246.000000	64.947152 
4245.000000	64.894080 
4244.000000	64.851593 
4243.000000	64.820837 
4242.000000	64.800834 
4241.000000	64.789533 
4240.000000	64.784097 
4239.000000	64.781641 
4238.000000	64.779901 
4237.000000	64.777278 
4236.000000	64.773225 
4235.000000	64.767265 
4234.000000	64.759755 
4233.000000	64.750909 
4232.000000	64.741921 
4231.000000	64.734315 
4230.000000	64.730501 
4229.000000	64.733314 
4228.000000	64.745593 
4227.000000	64.769458 
4226.000000	64.805245 
4225.000000	64.851140 
4224.000000	64.903759 
4223.000000	64.958524 
4222.000000	65.010190 
4221.000000	65.053629 
4220.000000	65.085220 
4219.000000	65.102982 
4218.000000	65.106439 
4217.000000	65.096664 
4216.000000	65.076398 
4215.000000	65.049147 
4214.000000	65.018963 
4213.000000	64.989709 
4212.000000	64.965438 
4211.000000	64.948964 
4210.000000	64.942264 
4209.000000	64.945197 
4208.000000	64.955997 
4207.000000	64.970707 
4206.000000	64.984416 
4205.000000	64.991354 
4204.000000	64.985871 
4203.000000	64.964485 
4202.000000	64.926886 
4201.000000	64.876031 
4200.000000	64.817357 
4199.000000	64.758300 
4198.000000	64.706158 
4197.000000	64.665699 
4196.000000	64.637398 
4195.000000	64.617633 
4194.000000	64.598894 
4193.000000	64.571809 
4192.000000	64.527320 
4191.000000	64.459276 
4190.000000	64.365863 
4189.000000	64.250230 
4188.000000	64.119887 
4187.000000	63.984203 
4186.000000	63.853645 
4185.000000	63.736629 
4184.000000	63.640403 
4183.000000	63.568663 
4182.000000	63.524770 
4181.000000	63.511157 
4180.000000	63.531351 
4179.000000	63.588333 
4178.000000	63.684940 
4177.000000	63.821101 
4176.000000	63.993215 
4175.000000	64.192438 
4174.000000	64.405727 
4173.000000	64.616990 
4172.000000	64.810299 
4171.000000	64.972233 
4170.000000	65.094184 
4169.000000	65.173244 
4168.000000	65.212893 
4167.000000	65.220999 
4166.000000	65.207600 
4165.000000	65.181970 
4164.000000	65.152478 
4163.000000	65.123820 
4162.000000	65.098452 
4161.000000	65.075373 
4160.000000	65.053725 
4159.000000	65.031647 
4158.000000	65.007948 
4157.000000	64.981842 
4156.000000	64.953088 
4155.000000	64.922046 
4154.000000	64.888715 
4153.000000	64.854097 
4152.000000	64.819788 
4151.000000	64.788770 
4150.000000	64.764738 
4149.000000	64.752268 
4148.000000	64.755344 
4147.000000	64.776825 
4146.000000	64.817237 
4145.000000	64.873504 
4144.000000	64.939475 
4143.000000	65.007495 
4142.000000	65.069723 
4141.000000	65.119218 
4140.000000	65.151262 
4139.000000	65.164852 
4138.000000	65.161967 
4137.000000	65.146636 
4136.000000	65.123271 
4135.000000	65.095877 
4134.000000	65.066623 
4133.000000	65.036296 
4132.000000	65.004205 
4131.000000	64.969253 
4130.000000	64.930844 
4129.000000	64.890098 
4128.000000	64.849901 
4127.000000	64.814543 
4126.000000	64.789175 
4125.000000	64.778065 
4124.000000	64.783978 
4123.000000	64.807176 
4122.000000	64.845275 
4121.000000	64.893388 
4120.000000	64.945173 
4119.000000	64.994001 
4118.000000	65.033960 
4117.000000	65.060949 
4116.000000	65.073108 
4115.000000	65.071249 
4114.000000	65.058183 
4113.000000	65.038061 
4112.000000	65.015983 
4111.000000	64.996671 
4110.000000	64.983773 
4109.000000	64.979100 
4108.000000	64.982962 
4107.000000	64.993929 
4106.000000	65.009617 
4105.000000	65.026926 
4104.000000	65.043044 
4103.000000	65.055727 
4102.000000	65.063977 
4101.000000	65.067696 
4100.000000	65.067005 
4099.000000	65.062046 
4098.000000	65.052747 
4097.000000	65.038466 
4096.000000	65.018248 
4095.000000	64.991307 
4094.000000	64.957523 
4093.000000	64.918231 
4092.000000	64.876198 
4091.000000	64.835262 
4090.000000	64.799737 
4089.000000	64.773559 
4088.000000	64.759254 
4087.000000	64.757061 
4086.000000	64.764785 
4085.000000	64.778232 
4084.000000	64.792633 
4083.000000	64.803194 
4082.000000	64.807128 
4081.000000	64.803814 
4080.000000	64.795422 
4079.000000	64.786076 
4078.000000	64.780879 
4077.000000	64.784336 
4076.000000	64.799189 
4075.000000	64.825677 
4074.000000	64.861083 
4073.000000	64.900493 
4072.000000	64.937758 
4071.000000	64.967226 
4070.000000	64.984416 
4069.000000	64.987158 
4068.000000	64.975690 
4067.000000	64.952397 
4066.000000	64.921021 
4065.000000	64.885854 
4064.000000	64.850974 
4063.000000	64.819622 
4062.000000	64.794278 
4061.000000	64.776468 
4060.000000	64.767146 
4059.000000	64.766716 
4058.000000	64.774727 
4057.000000	64.790225 
4056.000000	64.811277 
4055.000000	64.835643 
4054.000000	64.860177 
4053.000000	64.882278 
4052.000000	64.899635 
4051.000000	64.911532 
4050.000000	64.918804 
4049.000000	64.923787 
4048.000000	64.929914 
4047.000000	64.940643 
4046.000000	64.958477 
4045.000000	64.984130 
4044.000000	65.016531 
4043.000000	65.052270 
4042.000000	65.087056 
4041.000000	65.115809 
4040.000000	65.134286 
4039.000000	65.138959 
4038.000000	65.128111 
4037.000000	65.101265 
4036.000000	65.059781 
4035.000000	65.006232 
4034.000000	64.944481 
4033.000000	64.879322 
4032.000000	64.816403 
4031.000000	64.761257 
4030.000000	64.718961 
4029.000000	64.693164 
4028.000000	64.685726 
4027.000000	64.696002 
4026.000000	64.721250 
4025.000000	64.756512 
4024.000000	64.796328 
4023.000000	64.835166 
4022.000000	64.869308 
4021.000000	64.896607 
4020.000000	64.917349 
4019.000000	64.933538 
4018.000000	64.948177 
4017.000000	64.963912 
4016.000000	64.982414 
4015.000000	65.003585 
4014.000000	65.025639 
4013.000000	65.045714 
4012.000000	65.060353 
4011.000000	65.066671 
4010.000000	65.062880 
4009.000000	65.049052 
4008.000000	65.027022 
4007.000000	65.000033 
4006.000000	64.972090 
4005.000000	64.947032 
4004.000000	64.927744 
4003.000000	64.915442 
4002.000000	64.910101 
4001.000000	64.910244 
4000.000000	64.913582 
3999.000000	64.917707 
3998.000000	64.920663 
3997.000000	64.921283 
3996.000000	64.919018 
3995.000000	64.914274 
3994.000000	64.907455 
3993.000000	64.899492 
3992.000000	64.891481 
3991.000000	64.884567 
3990.000000	64.879751 
3989.000000	64.877986 
3988.000000	64.880204 
3987.000000	64.886999 
3986.000000	64.898347 
3985.000000	64.913702 
3984.000000	64.931607 
3983.000000	64.949989 
3982.000000	64.966511 
3981.000000	64.979076 
3980.000000	64.986085 
3979.000000	64.986944 
3978.000000	64.982247 
3977.000000	64.973378 
3976.000000	64.962220 
3975.000000	64.950919 
3974.000000	64.941239 
3973.000000	64.934206 
3972.000000	64.929699 
3971.000000	64.927268 
3970.000000	64.925575 
3969.000000	64.923334 
3968.000000	64.919257 
3967.000000	64.912390 
3966.000000	64.902591 
3965.000000	64.890527 
3964.000000	64.877772 
3963.000000	64.866065 
3962.000000	64.857435 
3961.000000	64.853644 
3960.000000	64.855885 
3959.000000	64.864492 
3958.000000	64.879155 
3957.000000	64.898967 
3956.000000	64.922475 
3955.000000	64.947748 
3954.000000	64.972710 
3953.000000	64.995408 
3952.000000	65.014028 
3951.000000	65.027308 
3950.000000	65.034866 
3949.000000	65.037298 
3948.000000	65.036249 
3947.000000	65.033531 
3946.000000	65.031147 
3945.000000	65.029883 
3944.000000	65.030169 
3943.000000	65.031075 
3942.000000	65.030741 
3941.000000	65.026617 
3940.000000	65.016818 
3939.000000	65.000081 
3938.000000	64.976620 
3937.000000	64.947748 
3936.000000	64.915633 
3935.000000	64.882612 
3934.000000	64.850687 
3933.000000	64.820861 
3932.000000	64.793014 
3931.000000	64.766025 
3930.000000	64.738392 
3929.000000	64.708876 
3928.000000	64.677119 
3927.000000	64.643549 
3926.000000	64.609694 
3925.000000	64.577460 
3924.000000	64.549565 
3923.000000	64.528584 
3922.000000	64.517617 
3921.000000	64.519190 
3920.000000	64.535546 
3919.000000	64.568066 
3918.000000	64.617061 
3917.000000	64.681220 
3916.000000	64.757156 
3915.000000	64.839482 
3914.000000	64.920949 
3913.000000	64.993429 
3912.000000	65.048742 
3911.000000	65.079927 
3910.000000	65.082788 
3909.000000	65.056872 
3908.000000	65.005707 
3907.000000	64.936494 
3906.000000	64.859414 
3905.000000	64.786076 
3904.000000	64.727425 
3903.000000	64.691591 
3902.000000	64.683127 
3901.000000	64.702367 
3900.000000	64.745140 
3899.000000	64.804124 
3898.000000	64.869999 
3897.000000	64.933490 
3896.000000	64.986658 
3895.000000	65.024590 
3894.000000	65.045475 
3893.000000	65.050816 
3892.000000	65.044474 
3891.000000	65.031409 
3890.000000	65.016818 
3889.000000	65.004205 
3888.000000	64.995360 
3887.000000	64.989566 
3886.000000	64.984679 
3885.000000	64.977812 
3884.000000	64.966535 
3883.000000	64.950227 
3882.000000	64.930057 
3881.000000	64.909768 
3880.000000	64.894986 
3879.000000	64.891648 
3878.000000	64.904379 
3877.000000	64.935064 
3876.000000	64.981889 
3875.000000	65.039467 
3874.000000	65.099930 
3873.000000	65.154695 
3872.000000	65.196418 
3871.000000	65.220785 
3870.000000	65.227174 
3869.000000	65.218520 
3868.000000	65.199995 
3867.000000	65.177297 
3866.000000	65.155315 
3865.000000	65.137481 
3864.000000	65.125060 
3863.000000	65.117740 
3862.000000	65.114212 
3861.000000	65.113544 
3860.000000	65.115189 
3859.000000	65.119552 
3858.000000	65.126943 
3857.000000	65.137147 
3856.000000	65.148878 
3855.000000	65.159344 
3854.000000	65.165233 
3853.000000	65.163254 
3852.000000	65.151381 
3851.000000	65.129566 
3850.000000	65.099620 
3849.000000	65.064835 
3848.000000	65.029120 
3847.000000	64.996075 
3846.000000	64.968299 
3845.000000	64.946794 
3844.000000	64.931273 
3843.000000	64.920425 
3842.000000	64.912462 
3841.000000	64.905571 
3840.000000	64.898157 
3839.000000	64.889240 
3838.000000	64.878487 
3837.000000	64.866447 
3836.000000	64.853811 
3835.000000	64.841604 
3834.000000	64.830541 
3833.000000	64.821267 
3832.000000	64.814114 
3831.000000	64.809131 
3830.000000	64.806199 
3829.000000	64.805054 
3828.000000	64.805126 
3827.000000	64.806127 
3826.000000	64.807820 
3825.000000	64.810585 
3824.000000	64.815163 
3823.000000	64.823079 
3822.000000	64.836025 
3821.000000	64.856028 
3820.000000	64.884781 
3819.000000	64.923143 
3818.000000	64.970684 
3817.000000	65.025401 
3816.000000	65.083742 
3815.000000	65.140843 
3814.000000	65.191173 
3813.000000	65.229797 
3812.000000	65.253138 
3811.000000	65.260076 
3810.000000	65.251779 
3809.000000	65.232348 
3808.000000	65.206933 
3807.000000	65.180945 
3806.000000	65.158271 
3805.000000	65.141129 
3804.000000	65.129280 
3803.000000	65.120744 
3802.000000	65.112638 
3801.000000	65.102529 
3800.000000	65.089130 
3799.000000	65.072965 
3798.000000	65.056252 
3797.000000	65.041995 
3796.000000	65.033292 
3795.000000	65.032100 
3794.000000	65.038466 
3793.000000	65.050339 
3792.000000	65.063977 
3791.000000	65.074777 
3790.000000	65.078401 
3789.000000	65.072059 
3788.000000	65.055227 
3787.000000	65.030169 
3786.000000	65.001010 
3785.000000	64.973211 
3784.000000	64.952254 
3783.000000	64.942240 
3782.000000	64.945030 
3781.000000	64.959406 
3780.000000	64.982008 
3779.000000	65.007257 
3778.000000	65.029048 
3777.000000	65.041947 
3776.000000	65.042519 
3775.000000	65.030097 
3774.000000	65.006756 
3773.000000	64.977049 
3772.000000	64.946818 
3771.000000	64.922237 
3770.000000	64.908480 
3769.000000	64.909076 
3768.000000	64.925312 
3767.000000	64.956450 
3766.000000	64.999842 
3765.000000	65.051245 
3764.000000	65.105795 
3763.000000	65.158462 
3762.000000	65.204954 
3761.000000	65.242004 
3760.000000	65.267825 
3759.000000	65.282011 
3758.000000	65.285491 
3757.000000	65.280175 
3756.000000	65.268087 
3755.000000	65.251469 
3754.000000	65.231537 
3753.000000	65.209078 
3752.000000	65.183901 
3751.000000	65.155816 
3750.000000	65.124607 
3749.000000	65.091013 
3748.000000	65.056395 
3747.000000	65.022921 
3746.000000	64.992809 
3745.000000	64.967918 
3744.000000	64.949202 
3743.000000	64.936375 
3742.000000	64.928793 
3741.000000	64.925503 
3740.000000	64.926195 
3739.000000	64.931249 
3738.000000	64.941573 
3737.000000	64.958190 
3736.000000	64.981508 
3735.000000	65.010571 
3734.000000	65.043258 
3733.000000	65.076208 
3732.000000	65.105414 
3731.000000	65.126848 
3730.000000	65.137815 
3729.000000	65.137076 
3728.000000	65.125489 
3727.000000	65.105271 
3726.000000	65.079593 
3725.000000	65.051865 
3724.000000	65.025162 
3723.000000	65.001583 
3722.000000	64.982295 
3721.000000	64.967203 
3720.000000	64.956068 
3719.000000	64.947986 
3718.000000	64.942002 
3717.000000	64.937186 
3716.000000	64.932823 
3715.000000	64.928507 
3714.000000	64.924120 
3713.000000	64.919900 
3712.000000	64.916229 
3711.000000	64.913702 
3710.000000	64.912700 
3709.000000	64.913368 
3708.000000	64.915394 
3707.000000	64.917993 
3706.000000	64.920353 
3705.000000	64.921331 
3704.000000	64.920401 
3703.000000	64.918112 
3702.000000	64.915871 
3701.000000	64.915776 
3700.000000	64.919734 
3699.000000	64.929008 
3698.000000	64.943814 
3697.000000	64.962625 
3696.000000	64.983153 
3695.000000	65.002679 
3694.000000	65.019130 
3693.000000	65.031599 
3692.000000	65.040230 
3691.000000	65.045976 
3690.000000	65.049982 
3689.000000	65.053081 
3688.000000	65.055155 
3687.000000	65.055084 
3686.000000	65.051507 
3685.000000	65.043425 
3684.000000	65.031170 
3683.000000	65.016174 
3682.000000	65.001416 
3681.000000	64.990234 
3680.000000	64.984893 
3679.000000	64.985847 
3678.000000	64.990997 
3677.000000	64.996385 
3676.000000	64.997148 
3675.000000	64.988875 
3674.000000	64.969682 
3673.000000	64.939951 
3672.000000	64.902567 
3671.000000	64.862108 
3670.000000	64.823317 
3669.000000	64.790105 
3668.000000	64.764571 
3667.000000	64.747142 
3666.000000	64.736437 
3665.000000	64.730978 
3664.000000	64.729857 
3663.000000	64.733314 
3662.000000	64.742612 
3661.000000	64.759778 
3660.000000	64.786505 
3659.000000	64.823007 
3658.000000	64.867377 
3657.000000	64.915919 
3656.000000	64.963531 
3655.000000	65.005064 
3654.000000	65.036344 
3653.000000	65.054917 
3652.000000	65.060782 
3651.000000	65.056109 
3650.000000	65.044832 
3649.000000	65.031814 
3648.000000	65.021610 
3647.000000	65.018057 
3646.000000	65.022897 
3645.000000	65.036225 
3644.000000	65.055847 
3643.000000	65.078496 
3642.000000	65.100026 
3641.000000	65.116572 
3640.000000	65.125107 
3639.000000	65.124058 
3638.000000	65.113282 
3637.000000	65.094017 
3636.000000	65.068316 
3635.000000	65.038847 
3634.000000	65.008068 
3633.000000	64.978003 
3632.000000	64.950132 
3631.000000	64.925408 
3630.000000	64.904928 
3629.000000	64.889907 
3628.000000	64.881563 
3627.000000	64.880919 
3626.000000	64.888238 
3625.000000	64.902710 
3624.000000	64.921689 
3623.000000	64.941453 
3622.000000	64.957618 
3621.000000	64.966416 
3620.000000	64.965128 
3619.000000	64.953184 
3618.000000	64.932155 
3617.000000	64.905500 
3616.000000	64.877843 
3615.000000	64.853835 
3614.000000	64.836931 
3613.000000	64.828681 
3612.000000	64.828777 
3611.000000	64.835190 
3610.000000	64.844894 
3609.000000	64.854645 
3608.000000	64.861893 
3607.000000	64.864993 
3606.000000	64.863300 
3605.000000	64.857053 
3604.000000	64.847064 
3603.000000	64.834499 
3602.000000	64.820528 
3601.000000	64.806532 
3600.000000	64.793610 
3599.000000	64.782643 
3598.000000	64.773988 
3597.000000	64.767694 
3596.000000	64.763426 
3595.000000	64.760518 
3594.000000	64.758682 
3593.000000	64.757704 
3592.000000	64.758205 
3591.000000	64.761233 
3590.000000	64.768528 
3589.000000	64.781594 
3588.000000	64.801716 
3587.000000	64.829421 
3586.000000	64.863944 
3585.000000	64.903378 
3584.000000	64.944672 
3583.000000	64.984226 
3582.000000	65.018534 
3581.000000	65.044927 
3580.000000	65.061783 
3579.000000	65.068554 
3578.000000	65.066003 
3577.000000	65.055704 
3576.000000	65.039896 
3575.000000	65.020799 
3574.000000	65.000605 
3573.000000	64.981126 
3572.000000	64.963984 
3571.000000	64.950346 
3570.000000	64.941382 
3569.000000	64.938092 
3568.000000	64.941143 
3567.000000	64.950799 
3566.000000	64.966750 
3565.000000	64.987921 
3564.000000	65.012168 
3563.000000	65.036725 
3562.000000	65.058255 
3561.000000	65.073728 
3560.000000	65.080928 
3559.000000	65.079307 
3558.000000	65.069866 
3557.000000	65.055513 
3556.000000	65.040445 
3555.000000	65.029287 
3554.000000	65.026021 
3553.000000	65.033054 
3552.000000	65.050792 
3551.000000	65.076851 
3550.000000	65.106797 
3549.000000	65.134930 
3548.000000	65.155625 
3547.000000	65.164470 
3546.000000	65.159392 
3545.000000	65.141057 
3544.000000	65.113162 
3543.000000	65.081262 
3542.000000	65.051722 
3541.000000	65.030479 
3540.000000	65.021419 
3539.000000	65.026116 
3538.000000	65.043258 
3537.000000	65.069246 
3536.000000	65.099000 
3535.000000	65.127325 
3534.000000	65.150094 
3533.000000	65.165090 
3532.000000	65.172076 
3531.000000	65.172505 
3530.000000	65.168523 
3529.000000	65.162205 
3528.000000	65.154480 
3527.000000	65.145015 
3526.000000	65.132331 
3525.000000	65.114641 
3524.000000	65.090703 
3523.000000	65.060615 
3522.000000	65.025854 
3521.000000	64.989328 
3520.000000	64.954447 
3519.000000	64.924883 
3518.000000	64.903283 
3517.000000	64.891362 
3516.000000	64.889025 
3515.000000	64.895248 
3514.000000	64.908313 
3513.000000	64.926362 
3512.000000	64.947867 
3511.000000	64.971685 
3510.000000	64.996600 
3509.000000	65.021538 
3508.000000	65.045022 
3507.000000	65.065169 
3506.000000	65.080189 
3505.000000	65.088200 
3504.000000	65.088057 
3503.000000	65.079355 
3502.000000	65.062665 
3501.000000	65.039587 
3500.000000	65.012621 
3499.000000	64.984846 
3498.000000	64.959168 
3497.000000	64.938449 
3496.000000	64.924812 
3495.000000	64.919090 
3494.000000	64.920854 
3493.000000	64.928460 
3492.000000	64.939498 
3491.000000	64.951038 
3490.000000	64.960551 
3489.000000	64.966392 
3488.000000	64.968371 
3487.000000	64.967656 
3486.000000	64.966416 
3485.000000	64.967179 
3484.000000	64.971685 
3483.000000	64.980506 
3482.000000	64.992523 
3481.000000	65.004849 
3480.000000	65.014243 
3479.000000	65.018010 
3478.000000	65.015316 
3477.000000	65.007495 
3476.000000	64.998102 
3475.000000	64.992284 
3474.000000	64.995098 
3473.000000	65.010118 
3472.000000	65.038347 
3471.000000	65.077614 
3470.000000	65.123152 
3469.000000	65.168714 
3468.000000	65.208172 
3467.000000	65.236997 
3466.000000	65.253281 
3465.000000	65.258002 
3464.000000	65.254163 
3463.000000	65.245866 
3462.000000	65.236926 
3461.000000	65.229630 
3460.000000	65.224599 
3459.000000	65.220355 
3458.000000	65.214896 
3457.000000	65.205359 
3456.000000	65.189576 
3455.000000	65.166068 
3454.000000	65.134763 
3453.000000	65.096759 
3452.000000	65.053939 
3451.000000	65.008974 
3450.000000	64.964652 
3449.000000	64.924168 
3448.000000	64.890360 
3447.000000	64.865756 
3446.000000	64.852213 
3445.000000	64.850711 
3444.000000	64.861059 
3443.000000	64.881491 
3442.000000	64.908838 
3441.000000	64.938783 
3440.000000	64.966583 
3439.000000	64.987635 
3438.000000	64.998507 
3437.000000	64.997315 
3436.000000	64.984560 
3435.000000	64.962577 
3434.000000	64.935445 
3433.000000	64.907932 
3432.000000	64.884829 
3431.000000	64.870166 
3430.000000	64.866328 
3429.000000	64.873790 
3428.000000	64.891314 
3427.000000	64.916348 
3426.000000	64.945960 
3425.000000	64.977359 
3424.000000	65.008568 
3423.000000	65.038371 
3422.000000	65.066242 
3421.000000	65.091824 
3420.000000	65.114641 
3419.000000	65.133857 
3418.000000	65.148186 
3417.000000	65.156030 
3416.000000	65.156340 
3415.000000	65.148854 
3414.000000	65.134501 
3413.000000	65.115427 
3412.000000	65.094542 
3411.000000	65.075039 
3410.000000	65.059757 
3409.000000	65.050745 
3408.000000	65.048766 
3407.000000	65.053462 
3406.000000	65.063977 
3405.000000	65.078997 
3404.000000	65.097284 
3403.000000	65.117478 
3402.000000	65.137958 
3401.000000	65.156745 
3400.000000	65.171504 
3399.000000	65.179872 
3398.000000	65.179848 
3397.000000	65.170359 
3396.000000	65.151929 
3395.000000	65.126490 
3394.000000	65.097498 
3393.000000	65.068793 
3392.000000	65.043997 
3391.000000	65.025568 
3390.000000	65.014410 
3389.000000	65.009665 
3388.000000	65.009045 
3387.000000	65.009951 
3386.000000	65.010285 
3385.000000	65.008950 
3384.000000	65.006136 
3383.000000	65.003132 
3382.000000	65.001797 
3381.000000	65.003538 
3380.000000	65.009284 
3379.000000	65.018701 
3378.000000	65.030956 
3377.000000	65.044784 
3376.000000	65.058875 
3375.000000	65.072441 
3374.000000	65.084981 
3373.000000	65.096545 
3372.000000	65.107345 
3371.000000	65.117478 
3370.000000	65.126872 
3369.000000	65.134978 
3368.000000	65.141010 
3367.000000	65.144157 
3366.000000	65.143704 
3365.000000	65.139555 
3364.000000	65.132069 
3363.000000	65.122008 
3362.000000	65.110468 
3361.000000	65.098404 
3360.000000	65.086483 
3359.000000	65.074872 
3358.000000	65.063381 
3357.000000	65.051436 
3356.000000	65.038347 
3355.000000	65.023660 
3354.000000	65.007209 
3353.000000	64.989542 
3352.000000	64.971542 
3351.000000	64.954829 
3350.000000	64.940977 
3349.000000	64.931678 
3348.000000	64.928007 
3347.000000	64.930486 
3346.000000	64.938664 
3345.000000	64.951443 
3344.000000	64.967203 
3343.000000	64.984035 
3342.000000	64.999914 
3341.000000	65.013289 
3340.000000	65.023064 
3339.000000	65.028786 
3338.000000	65.030574 
3337.000000	65.029025 
3336.000000	65.024900 
3335.000000	65.019106 
3334.000000	65.012574 
3333.000000	65.006136 
3332.000000	65.000486 
3331.000000	64.996266 
3330.000000	64.994049 
3329.000000	64.994120 
3328.000000	64.996790 
3327.000000	65.002131 
3326.000000	65.010261 
3325.000000	65.020871 
3324.000000	65.033626 
3323.000000	65.047931 
3322.000000	65.062880 
3321.000000	65.077495 
3320.000000	65.090298 
3319.000000	65.099811 
3318.000000	65.104365 
3317.000000	65.102553 
3316.000000	65.093588 
3315.000000	65.077471 
3314.000000	65.055489 
3313.000000	65.030002 
3312.000000	65.004324 
3311.000000	64.982151 
3310.000000	64.966750 
3309.000000	64.960193 
3308.000000	64.962935 
3307.000000	64.973688 
3306.000000	64.989900 
3305.000000	65.008330 
3304.000000	65.025877 
3303.000000	65.040636 
3302.000000	65.051913 
3301.000000	65.060567 
3300.000000	65.068531 
3299.000000	65.077614 
3298.000000	65.088820 
3297.000000	65.101361 
3296.000000	65.113067 
3295.000000	65.120387 
3294.000000	65.119481 
3293.000000	65.107345 
3292.000000	65.082693 
3291.000000	65.046572 
3290.000000	65.002465 
3289.000000	64.955663 
3288.000000	64.912104 
3287.000000	64.877438 
3286.000000	64.856004 
3285.000000	64.850020 
3284.000000	64.859366 
3283.000000	64.881801 
3282.000000	64.913630 
3281.000000	64.950418 
3280.000000	64.987897 
3279.000000	65.022706 
3278.000000	65.053009 
3277.000000	65.078306 
3276.000000	65.099573 
3275.000000	65.118908 
3274.000000	65.138721 
3273.000000	65.161204 
3272.000000	65.187478 
3271.000000	65.217518 
3270.000000	65.249681 
3269.000000	65.281248 
3268.000000	65.308618 
3267.000000	65.328311 
3266.000000	65.337491 
3265.000000	65.335059 
3264.000000	65.321540 
3263.000000	65.299201 
3262.000000	65.271520 
3261.000000	65.242719 
3260.000000	65.216541 
3259.000000	65.196013 
3258.000000	65.182542 
3257.000000	65.176272 
3256.000000	65.175843 
3255.000000	65.179061 
3254.000000	65.183496 
3253.000000	65.186548 
3252.000000	65.186238 
3251.000000	65.181279 
3250.000000	65.170669 
3249.000000	65.153837 
3248.000000	65.130543 
3247.000000	65.101313 
3246.000000	65.066909 
3245.000000	65.029287 
3244.000000	64.991378 
3243.000000	64.957356 
3242.000000	64.931774 
3241.000000	64.919281 
3240.000000	64.923429 
3239.000000	64.945912 
3238.000000	64.985775 
3237.000000	65.039300 
3236.000000	65.100383 
3235.000000	65.161323 
3234.000000	65.214371 
3233.000000	65.252757 
3232.000000	65.272140 
3231.000000	65.270948 
3230.000000	65.250706 
3229.000000	65.214967 
3228.000000	65.168380 
3227.000000	65.115785 
3226.000000	65.061616 
3225.000000	65.009260 
3224.000000	64.961171 
3223.000000	64.919066 
3222.000000	64.884233 
3221.000000	64.857625 
3220.000000	64.840078 
3219.000000	64.831876 
3218.000000	64.832925 
3217.000000	64.842081 
3216.000000	64.857816 
3215.000000	64.877939 
3214.000000	64.900231 
3213.000000	64.922308 
3212.000000	64.942717 
3211.000000	64.960432 
3210.000000	64.975476 
3209.000000	64.988183 
3208.000000	64.999556 
3207.000000	65.010643 
3206.000000	65.022754 
3205.000000	65.037250 
3204.000000	65.055108 
3203.000000	65.076828 
3202.000000	65.101909 
3201.000000	65.128779 
3200.000000	65.154576 
3199.000000	65.175652 
3198.000000	65.188264 
3197.000000	65.189504 
3196.000000	65.178251 
3195.000000	65.155601 
3194.000000	65.124845 
3193.000000	65.090847 
3192.000000	65.059280 
3191.000000	65.035295 
3190.000000	65.022444 
3189.000000	65.022087 
3188.000000	65.033411 
3187.000000	65.053915 
3186.000000	65.080022 
3185.000000	65.108156 
3184.000000	65.135383 
3183.000000	65.159726 
3182.000000	65.180230 
3181.000000	65.196418 
3180.000000	65.207767 
3179.000000	65.213847 
3178.000000	65.214347 
3177.000000	65.209126 
3176.000000	65.198326 
3175.000000	65.183019 
3174.000000	65.165114 
3173.000000	65.146780 
3172.000000	65.129947 
3171.000000	65.115976 
3170.000000	65.105032 
3169.000000	65.096116 
3168.000000	65.087389 
3167.000000	65.076684 
3166.000000	65.062570 
3165.000000	65.044975 
3164.000000	65.025734 
3163.000000	65.007925 
3162.000000	64.995503 
3161.000000	64.992499 
3160.000000	65.001678 
3159.000000	65.023565 
3158.000000	65.056204 
3157.000000	65.095424 
3156.000000	65.135192 
3155.000000	65.169382 
3154.000000	65.192127 
3153.000000	65.199041 
3152.000000	65.187740 
3151.000000	65.158343 
3150.000000	65.112781 
3149.000000	65.054416 
3148.000000	64.987325 
3147.000000	64.915823 
3146.000000	64.844584 
3145.000000	64.778304 
3144.000000	64.721465 
3143.000000	64.678454 
3142.000000	64.653277 
3141.000000	64.649224 
3140.000000	64.667892 
3139.000000	64.709281 
3138.000000	64.770889 
3137.000000	64.847970 
3136.000000	64.933729 
3135.000000	65.020394 
3134.000000	65.100288 
3133.000000	65.166187 
3132.000000	65.212798 
3131.000000	65.236186 
3130.000000	65.235304 
3129.000000	65.210556 
3128.000000	65.163969 
3127.000000	65.098834 
3126.000000	65.019679 
3125.000000	64.932322 
3124.000000	64.843821 
3123.000000	64.762163 
3122.000000	64.695620 
3121.000000	64.651775 
3120.000000	64.636397 
3119.000000	64.651918 
3118.000000	64.696907 
3117.000000	64.765572 
3116.000000	64.848470 
3115.000000	64.933967 
3114.000000	65.010523 
3113.000000	65.068459 
3112.000000	65.102386 
3111.000000	65.111231 
3110.000000	65.099167 
3109.000000	65.073943 
3108.000000	65.045452 
3107.000000	65.023374 
3106.000000	65.015029 
3105.000000	65.024948 
3104.000000	65.053009 
3103.000000	65.095901 
3102.000000	65.147042 
3101.000000	65.198898 
3100.000000	65.243911 
3099.000000	65.276002 
3098.000000	65.291857 
3097.000000	65.290832 
3096.000000	65.275478 
3095.000000	65.250420 
3094.000000	65.221405 
3093.000000	65.193843 
3092.000000	65.172076 
3091.000000	65.158557 
3090.000000	65.153288 
3089.000000	65.154194 
3088.000000	65.157699 
3087.000000	65.159702 
3086.000000	65.156555 
3085.000000	65.146088 
3084.000000	65.127635 
3083.000000	65.102553 
3082.000000	65.073776 
3081.000000	65.045380 
3080.000000	65.021014 
3079.000000	65.003848 
3078.000000	64.995479 
3077.000000	64.996218 
3076.000000	65.004873 
3075.000000	65.019512 
3074.000000	65.037751 
3073.000000	65.057659 
3072.000000	65.077710 
3071.000000	65.097141 
3070.000000	65.115904 
3069.000000	65.134191 
3068.000000	65.151834 
3067.000000	65.168309 
3066.000000	65.182471 
3065.000000	65.192818 
3064.000000	65.198040 
3063.000000	65.197205 
3062.000000	65.190029 
3061.000000	65.177464 
3060.000000	65.161418 
3059.000000	65.144062 
3058.000000	65.127563 
3057.000000	65.113806 
3056.000000	65.103840 
3055.000000	65.097999 
3054.000000	65.095615 
3053.000000	65.095734 
3052.000000	65.096735 
3051.000000	65.097141 
3050.000000	65.095305 
3049.000000	65.089869 
3048.000000	65.080118 
3047.000000	65.065860 
3046.000000	65.048170 
3045.000000	65.028738 
3044.000000	65.010428 
3043.000000	64.996671 
3042.000000	64.990949 
3041.000000	64.995765 
3040.000000	65.012192 
3039.000000	65.039467 
3038.000000	65.074610 
3037.000000	65.113139 
3036.000000	65.150046 
3035.000000	65.180826 
3034.000000	65.202498 
3033.000000	65.214133 
3032.000000	65.217018 
3031.000000	65.214037 
3030.000000	65.208840 
3029.000000	65.204548 
3028.000000	65.203189 
3027.000000	65.204930 
3026.000000	65.208649 
3025.000000	65.211844 
3024.000000	65.211868 
3023.000000	65.206313 
3022.000000	65.194058 
3021.000000	65.175294 
3020.000000	65.151453 
3019.000000	65.124750 
3018.000000	65.097665 
3017.000000	65.072369 
3016.000000	65.050435 
3015.000000	65.032672 
3014.000000	65.019392 
3013.000000	65.010285 
3012.000000	65.004897 
3011.000000	65.002608 
3010.000000	65.002775 
3009.000000	65.004634 
3008.000000	65.007495 
3007.000000	65.010380 
3006.000000	65.012288 
3005.000000	65.012478 
3004.000000	65.010595 
3003.000000	65.006685 
3002.000000	65.001368 
3001.000000	64.995670 
3000.000000	64.991021 
2999.000000	64.988708 
2998.000000	64.989447 
2997.000000	64.993238 
2996.000000	64.999198 
2995.000000	65.005850 
2994.000000	65.011739 
2993.000000	65.015578 
2992.000000	65.017104 
2991.000000	65.017080 
2990.000000	65.017318 
2989.000000	65.020060 
2988.000000	65.027523 
2987.000000	65.041232 
2986.000000	65.061211 
2985.000000	65.085887 
2984.000000	65.112209 
2983.000000	65.136241 
2982.000000	65.153765 
2981.000000	65.161228 
2980.000000	65.156602 
2979.000000	65.139865 
2978.000000	65.113377 
2977.000000	65.081405 
2976.000000	65.049266 
2975.000000	65.022444 
2974.000000	65.005803 
2973.000000	65.002155 
2972.000000	65.012025 
2971.000000	65.033340 
2970.000000	65.062236 
2969.000000	65.093898 
2968.000000	65.123248 
2967.000000	65.146589 
2966.000000	65.161967 
2965.000000	65.169715 
2964.000000	65.172004 
2963.000000	65.172052 
2962.000000	65.173053 
2961.000000	65.177416 
2960.000000	65.186095 
2959.000000	65.198349 
2958.000000	65.212249 
2957.000000	65.225195 
2956.000000	65.234637 
2955.000000	65.238761 
2954.000000	65.236496 
2953.000000	65.227699 
2952.000000	65.212583 
2951.000000	65.191793 
2950.000000	65.165710 
2949.000000	65.134596 
2948.000000	65.098452 
2947.000000	65.057349 
2946.000000	65.011739 
2945.000000	64.962959 
2944.000000	64.913177 
2943.000000	64.865326 
2942.000000	64.822840 
2941.000000	64.789080 
2940.000000	64.766883 
2939.000000	64.757752 
2938.000000	64.761757 
2937.000000	64.777278 
2936.000000	64.801573 
2935.000000	64.831256 
2934.000000	64.862823 
2933.000000	64.892911 
2932.000000	64.918971 
2931.000000	64.939308 
2930.000000	64.952969 
2929.000000	64.959549 
2928.000000	64.959263 
2927.000000	64.952707 
2926.000000	64.940857 
2925.000000	64.925003 
2924.000000	64.906811 
2923.000000	64.888215 
2922.000000	64.871311 
2921.000000	64.858222 
2920.000000	64.850687 
2919.000000	64.850258 
2918.000000	64.857578 
2917.000000	64.872980 
2916.000000	64.895844 
2915.000000	64.925217 
2914.000000	64.959526 
2913.000000	64.996862 
2912.000000	65.034937 
2911.000000	65.071177 
2910.000000	65.103125 
2909.000000	65.128326 
2908.000000	65.145039 
2907.000000	65.152072 
2906.000000	65.149211 
2905.000000	65.137076 
2904.000000	65.117120 
2903.000000	65.091371 
2902.000000	65.062236 
2901.000000	65.032291 
2900.000000	65.003895 
2899.000000	64.979267 
2898.000000	64.960002 
2897.000000	64.947295 
2896.000000	64.941740 
2895.000000	64.943265 
2894.000000	64.951086 
2893.000000	64.963722 
2892.000000	64.979505 
2891.000000	64.996123 
2890.000000	65.011572 
2889.000000	65.024256 
2888.000000	65.033245 
2887.000000	65.038228 
2886.000000	65.039300 
2885.000000	65.036869 
2884.000000	65.031218 
2883.000000	65.022540 
2882.000000	65.011143 
2881.000000	64.997458 
2880.000000	64.982652 
2879.000000	64.968371 
2878.000000	64.956712 
2877.000000	64.950013 
2876.000000	64.950108 
2875.000000	64.957761 
2874.000000	64.972424 
2873.000000	64.991879 
2872.000000	65.012979 
2871.000000	65.031886 
2870.000000	65.044879 
2869.000000	65.049195 
2868.000000	65.043544 
2867.000000	65.028262 
2866.000000	65.005040 
2865.000000	64.976286 
2864.000000	64.944791 
2863.000000	64.912986 
2862.000000	64.882850 
2861.000000	64.855766 
2860.000000	64.832687 
2859.000000	64.814424 
2858.000000	64.801836 
2857.000000	64.796137 
2856.000000	64.798283 
2855.000000	64.809083 
2854.000000	64.828729 
2853.000000	64.856600 
2852.000000	64.891004 
2851.000000	64.929127 
2850.000000	64.967346 
2849.000000	65.001988 
2848.000000	65.029811 
2847.000000	65.048694 
2846.000000	65.057706 
2845.000000	65.057468 
2844.000000	65.049791 
2843.000000	65.037155 
2842.000000	65.022087 
2841.000000	65.006804 
2840.000000	64.992856 
2839.000000	64.981198 
2838.000000	64.972257 
2837.000000	64.966344 
2836.000000	64.963459 
2835.000000	64.963674 
2834.000000	64.966845 
2833.000000	64.972519 
2832.000000	64.979887 
2831.000000	64.987421 
2830.000000	64.993524 
2829.000000	64.996552 
2828.000000	64.995884 
2827.000000	64.992213 
2826.000000	64.987707 
2825.000000	64.985513 
2824.000000	64.989185 
2823.000000	65.001487 
2822.000000	65.023517 
2821.000000	65.054082 
2820.000000	65.089869 
2819.000000	65.126180 
2818.000000	65.157675 
2817.000000	65.179705 
2816.000000	65.189599 
2815.000000	65.187120 
2814.000000	65.174174 
2813.000000	65.154504 
2812.000000	65.132641 
2811.000000	65.112805 
2810.000000	65.098285 
2809.000000	65.090489 
2808.000000	65.089201 
2807.000000	65.092277 
2806.000000	65.097308 
2805.000000	65.101075 
2804.000000	65.100741 
2803.000000	65.094137 
2802.000000	65.079951 
2801.000000	65.058493 
2800.000000	65.031123 
2799.000000	65.000510 
2798.000000	64.970064 
2797.000000	64.943385 
2796.000000	64.923548 
2795.000000	64.912605 
2794.000000	64.911079 
2793.000000	64.917707 
2792.000000	64.929962 
2791.000000	64.944219 
2790.000000	64.956760 
2789.000000	64.964485 
2788.000000	64.965724 
2787.000000	64.960289 
2786.000000	64.949750 
2785.000000	64.936590 
2784.000000	64.924240 
2783.000000	64.915704 
2782.000000	64.913463 
2781.000000	64.918661 
2780.000000	64.931178 
2779.000000	64.949893 
2778.000000	64.972853 
2777.000000	64.997434 
2776.000000	65.021085 
2775.000000	65.041589 
2774.000000	65.057682 
2773.000000	65.069055 
2772.000000	65.076661 
2771.000000	65.082120 
2770.000000	65.087270 
2769.000000	65.093541 
2768.000000	65.101552 
2767.000000	65.110754 
2766.000000	65.119242 
2765.000000	65.124201 
2764.000000	65.122604 
2763.000000	65.112304 
2762.000000	65.092587 
2761.000000	65.064883 
2760.000000	65.032505 
2759.000000	65.000462 
2758.000000	64.974451 
2757.000000	64.959645 
2756.000000	64.959430 
2755.000000	64.974856 
2754.000000	65.004539 
2753.000000	65.044641 
2752.000000	65.089869 
2751.000000	65.134239 
2750.000000	65.172314 
2749.000000	65.199828 
2748.000000	65.214228 
2747.000000	65.215253 
2746.000000	65.204811 
2745.000000	65.186309 
2744.000000	65.164017 
2743.000000	65.142393 
2742.000000	65.125298 
2741.000000	65.115356 
2740.000000	65.113496 
2739.000000	65.119099 
2738.000000	65.130043 
2737.000000	65.143251 
2736.000000	65.155386 
2735.000000	65.163469 
2734.000000	65.165472 
2733.000000	65.160655 
2732.000000	65.149450 
2731.000000	65.133428 
2730.000000	65.114736 
2729.000000	65.095782 
2728.000000	65.078496 
2727.000000	65.064215 
2726.000000	65.053391 
2725.000000	65.045762 
2724.000000	65.040254 
2723.000000	65.035367 
2722.000000	65.029454 
2721.000000	65.020966 
2720.000000	65.009307 
2719.000000	64.994859 
2718.000000	64.979028 
2717.000000	64.963746 
2716.000000	64.951276 
2715.000000	64.943528 
2714.000000	64.941477 
2713.000000	64.944839 
2712.000000	64.952039 
2711.000000	64.960527 
2710.000000	64.967441 
2709.000000	64.970445 
2708.000000	64.968347 
2707.000000	64.961552 
2706.000000	64.951968 
2705.000000	64.942598 
2704.000000	64.936780 
2703.000000	64.937400 
2702.000000	64.946055 
2701.000000	64.962768 
2700.000000	64.985799 
2699.000000	65.012025 
2698.000000	65.038013 
2697.000000	65.060162 
2696.000000	65.075540 
2695.000000	65.082406 
2694.000000	65.080595 
2693.000000	65.071392 
2692.000000	65.057039 
2691.000000	65.040588 
2690.000000	65.025305 
2689.000000	65.013933 
2688.000000	65.008258 
2687.000000	65.008807 
2686.000000	65.014791 
2685.000000	65.024352 
2684.000000	65.034866 
2683.000000	65.043425 
2682.000000	65.047788 
2681.000000	65.046644 
2680.000000	65.040206 
2679.000000	65.029835 
2678.000000	65.017986 
2677.000000	65.007615 
2676.000000	65.001344 
2675.000000	65.001034 
2674.000000	65.007424 
2673.000000	65.019965 
2672.000000	65.037298 
2671.000000	65.057539 
2670.000000	65.078926 
2669.000000	65.100359 
2668.000000	65.121269 
2667.000000	65.141654 
2666.000000	65.161800 
2665.000000	65.181827 
2664.000000	65.201425 
2663.000000	65.219545 
2662.000000	65.234589 
2661.000000	65.244865 
2660.000000	65.249061 
2659.000000	65.246629 
2658.000000	65.238022 
2657.000000	65.224552 
2656.000000	65.208268 
2655.000000	65.191435 
2654.000000	65.176129 
2653.000000	65.163683 
2652.000000	65.154433 
2651.000000	65.147900 
2650.000000	65.143156 
2649.000000	65.139007 
2648.000000	65.134501 
2647.000000	65.128970 
2646.000000	65.122389 
2645.000000	65.115213 
2644.000000	65.108132 
2643.000000	65.101861 
2642.000000	65.096902 
2641.000000	65.093445 
2640.000000	65.091180 
2639.000000	65.089678 
2638.000000	65.088415 
2637.000000	65.087056 
2636.000000	65.085220 
2635.000000	65.083146 
2634.000000	65.081334 
2633.000000	65.080618 
2632.000000	65.081930 
2631.000000	65.086245 
2630.000000	65.094232 
2629.000000	65.106153 
2628.000000	65.121722 
2627.000000	65.140104 
2626.000000	65.160059 
2625.000000	65.179991 
2624.000000	65.198278 
2623.000000	65.213513 
2622.000000	65.224838 
2621.000000	65.232086 
2620.000000	65.235757 
2619.000000	65.237164 
2618.000000	65.237736 
2617.000000	65.239334 
2616.000000	65.243124 
2615.000000	65.249681 
2614.000000	65.258383 
2613.000000	65.267896 
2612.000000	65.276241 
2611.000000	65.281462 
2610.000000	65.282106 
2609.000000	65.277361 
2608.000000	65.267753 
2607.000000	65.254807 
2606.000000	65.240693 
2605.000000	65.227699 
2604.000000	65.217924 
2603.000000	65.212655 
2602.000000	65.212154 
2601.000000	65.215778 
2600.000000	65.222096 
2599.000000	65.229249 
2598.000000	65.235424 
2597.000000	65.239143 
2596.000000	65.239405 
2595.000000	65.235996 
2594.000000	65.229082 
2593.000000	65.219545 
2592.000000	65.208959 
2591.000000	65.198969 
2590.000000	65.191316 
2589.000000	65.187168 
2588.000000	65.187072 
2587.000000	65.190482 
2586.000000	65.195846 
2585.000000	65.200972 
2584.000000	65.203428 
2583.000000	65.201139 
2582.000000	65.192747 
2581.000000	65.178012 
2580.000000	65.157842 
2579.000000	65.134072 
2578.000000	65.108895 
2577.000000	65.084648 
2576.000000	65.063190 
2575.000000	65.045809 
2574.000000	65.033173 
2573.000000	65.025472 
2572.000000	65.022540 
2571.000000	65.024089 
2570.000000	65.029740 
2569.000000	65.038752 
2568.000000	65.050292 
2567.000000	65.063023 
2566.000000	65.075612 
2565.000000	65.086770 
2564.000000	65.095782 
2563.000000	65.102410 
2562.000000	65.107035 
2561.000000	65.110492 
2560.000000	65.113520 
2559.000000	65.116596 
2558.000000	65.119576 
2557.000000	65.121793 
2556.000000	65.122389 
2555.000000	65.120506 
2554.000000	65.115642 
2553.000000	65.108156 
2552.000000	65.099191 
2551.000000	65.090513 
2550.000000	65.084099 
2549.000000	65.081572 
2548.000000	65.083885 
2547.000000	65.091109 
2546.000000	65.102148 
2545.000000	65.115165 
2544.000000	65.128326 
2543.000000	65.139794 
2542.000000	65.148353 
2541.000000	65.153121 
2540.000000	65.154027 
2539.000000	65.151143 
2538.000000	65.144681 
2537.000000	65.134525 
2536.000000	65.120434 
2535.000000	65.101885 
2534.000000	65.078711 
2533.000000	65.051078 
2532.000000	65.019726 
2531.000000	64.986395 
2530.000000	64.953899 
2529.000000	64.925479 
2528.000000	64.904356 
2527.000000	64.893364 
2526.000000	64.894509 
2525.000000	64.908409 
2524.000000	64.934158 
2523.000000	64.969706 
2522.000000	65.012264 
2521.000000	65.058588 
2520.000000	65.105748 
2519.000000	65.151119 
2518.000000	65.193009 
2517.000000	65.230345 
2516.000000	65.262770 
2515.000000	65.290403 
2514.000000	65.313029 
2513.000000	65.331006 
2512.000000	65.343928 
2511.000000	65.351462 
2510.000000	65.352487 
2509.000000	65.346550 
2508.000000	65.332627 
2507.000000	65.310096 
2506.000000	65.278410 
2505.000000	65.237975 
2504.000000	65.189504 
2503.000000	65.134572 
2502.000000	65.075373 
2501.000000	65.014624 
2500.000000	64.955449 
2499.000000	64.900898 
2498.000000	64.853787 
2497.000000	64.816236 
2496.000000	64.789485 
2495.000000	64.774012 
2494.000000	64.769291 
2493.000000	64.774274 
2492.000000	64.787435 
2491.000000	64.807367 
2490.000000	64.832210 
2489.000000	64.860486 
2488.000000	64.890837 
2487.000000	64.922261 
2486.000000	64.953541 
2485.000000	64.983510 
2484.000000	65.011215 
2483.000000	65.035796 
2482.000000	65.056633 
2481.000000	65.073108 
2480.000000	65.085077 
2479.000000	65.092301 
2478.000000	65.095090 
2477.000000	65.093612 
2476.000000	65.088105 
2475.000000	65.079140 
2474.000000	65.067481 
2473.000000	65.054416 
2472.000000	65.041446 
2471.000000	65.030646 
2470.000000	65.024304 
2469.000000	65.024399 
2468.000000	65.032124 
2467.000000	65.047597 
2466.000000	65.069365 
2465.000000	65.094518 
2464.000000	65.118932 
2463.000000	65.138101 
2462.000000	65.147852 
2461.000000	65.145373 
2460.000000	65.129947 
2459.000000	65.103101 
2458.000000	65.068507 
2457.000000	65.031385 
2456.000000	64.997315 
2455.000000	64.971590 
2454.000000	64.957642 
2453.000000	64.956736 
2452.000000	64.967870 
2451.000000	64.988160 
2450.000000	65.013909 
2449.000000	65.041661 
2448.000000	65.068745 
2447.000000	65.093326 
2446.000000	65.114784 
2445.000000	65.133070 
2444.000000	65.148091 
2443.000000	65.159130 
2442.000000	65.164828 
2441.000000	65.163445 
2440.000000	65.153598 
2439.000000	65.134882 
2438.000000	65.108466 
2437.000000	65.077233 
2436.000000	65.045261 
2435.000000	65.017700 
2434.000000	64.998722 
2433.000000	64.992070 
2432.000000	64.999294 
2431.000000	65.020918 
2430.000000	65.056490 
2429.000000	65.104770 
2428.000000	65.164470 
2427.000000	65.233111 
2426.000000	65.307378 
2425.000000	65.381741 
2424.000000	65.449333 
2423.000000	65.501761 
2422.000000	65.530586 
2421.000000	65.529060 
2420.000000	65.493965 
2419.000000	65.426921 
2418.000000	65.334749 
2417.000000	65.228533 
2416.000000	65.121674 
2415.000000	65.027451 
2414.000000	64.956569 
2413.000000	64.915037 
2412.000000	64.903688 
2411.000000	64.918923 
2410.000000	64.954090 
2409.000000	65.001368 
2408.000000	65.053439 
2407.000000	65.104174 
2406.000000	65.149760 
2405.000000	65.187406 
2404.000000	65.215969 
2403.000000	65.234708 
2402.000000	65.243744 
2401.000000	65.243792 
2400.000000	65.235996 
2399.000000	65.222334 
2398.000000	65.204858 
2397.000000	65.186214 
2396.000000	65.168452 
2395.000000	65.153050 
2394.000000	65.140271 
2393.000000	65.129399 
2392.000000	65.119194 
2391.000000	65.108442 
2390.000000	65.096569 
2389.000000	65.083861 
2388.000000	65.071272 
2387.000000	65.060114 
2386.000000	65.051627 
2385.000000	65.046501 
2384.000000	65.044236 
2383.000000	65.043473 
2382.000000	65.042543 
2381.000000	65.039920 
2380.000000	65.034437 
2379.000000	65.026044 
2378.000000	65.015387 
2377.000000	65.004229 
2376.000000	64.995050 
2375.000000	64.990496 
2374.000000	64.992737 
2373.000000	65.002822 
2372.000000	65.020704 
2371.000000	65.044903 
2370.000000	65.072870 
2369.000000	65.101194 
2368.000000	65.126442 
2367.000000	65.145540 
2366.000000	65.156507 
2365.000000	65.158581 
2364.000000	65.152382 
2363.000000	65.139889 
2362.000000	65.123963 
2361.000000	65.107774 
2360.000000	65.094304 
2359.000000	65.085792 
2358.000000	65.083312 
2357.000000	65.086865 
2356.000000	65.094995 
2355.000000	65.105676 
2354.000000	65.116310 
2353.000000	65.124344 
2352.000000	65.127897 
2351.000000	65.125656 
2350.000000	65.117692 
2349.000000	65.105080 
2348.000000	65.089774 
2347.000000	65.074062 
2346.000000	65.060091 
2345.000000	65.049457 
2344.000000	65.042757 
2343.000000	65.039706 
2342.000000	65.039324 
2341.000000	65.040349 
2340.000000	65.041732 
2339.000000	65.042972 
2338.000000	65.044260 
2337.000000	65.046358 
2336.000000	65.050411 
2335.000000	65.057301 
2334.000000	65.067434 
2333.000000	65.080451 
2332.000000	65.095329 
2331.000000	65.110492 
2330.000000	65.124201 
2329.000000	65.134954 
2328.000000	65.141749 
2327.000000	65.144252 
2326.000000	65.142512 
2325.000000	65.137052 
2324.000000	65.128588 
2323.000000	65.117764 
2322.000000	65.105438 
2321.000000	65.092492 
2320.000000	65.079855 
2319.000000	65.068554 
2318.000000	65.059542 
2317.000000	65.053892 
2316.000000	65.052080 
2315.000000	65.054488 
2314.000000	65.061068 
2313.000000	65.071487 
2312.000000	65.085101 
2311.000000	65.101432 
2310.000000	65.120053 
2309.000000	65.140461 
2308.000000	65.161991 
2307.000000	65.183663 
2306.000000	65.204238 
2305.000000	65.222096 
2304.000000	65.235590 
2303.000000	65.243363 
2302.000000	65.244650 
2301.000000	65.239739 
2300.000000	65.229654 
2299.000000	65.216302 
2298.000000	65.201520 
2297.000000	65.187025 
2296.000000	65.173888 
2295.000000	65.162515 
2294.000000	65.152573 
2293.000000	65.143394 
2292.000000	65.134382 
2291.000000	65.125274 
2290.000000	65.116333 
2289.000000	65.108323 
2288.000000	65.101981 
2287.000000	65.097618 
2286.000000	65.095067 
2285.000000	65.093445 
2284.000000	65.091681 
2283.000000	65.088653 
2282.000000	65.084052 
2281.000000	65.078282 
2280.000000	65.072774 
2279.000000	65.069460 
2278.000000	65.070271 
2277.000000	65.076446 
2276.000000	65.088057 
2275.000000	65.103912 
2274.000000	65.121817 
2273.000000	65.138888 
2272.000000	65.152573 
2271.000000	65.161204 
2270.000000	65.164232 
2269.000000	65.162563 
2268.000000	65.157914 
2267.000000	65.152692 
2266.000000	65.148949 
2265.000000	65.148544 
2264.000000	65.152454 
2263.000000	65.161013 
2262.000000	65.173983 
2261.000000	65.190625 
2260.000000	65.209913 
2259.000000	65.230393 
2258.000000	65.250563 
2257.000000	65.268874 
2256.000000	65.283989 
2255.000000	65.294981 
2254.000000	65.301370 
2253.000000	65.303349 
2252.000000	65.301489 
2251.000000	65.296936 
2250.000000	65.290832 
2249.000000	65.284276 
2248.000000	65.277934 
2247.000000	65.272164 
2246.000000	65.266942 
2245.000000	65.262079 
2244.000000	65.257310 
2243.000000	65.252614 
2242.000000	65.248036 
2241.000000	65.243816 
2240.000000	65.240287 
2239.000000	65.237522 
2238.000000	65.235304 
2237.000000	65.233492 
2236.000000	65.231847 
2235.000000	65.230131 
2234.000000	65.228128 
2233.000000	65.225768 
2232.000000	65.222883 
2231.000000	65.219116 
2230.000000	65.214014 
2229.000000	65.207147 
2228.000000	65.197920 
2227.000000	65.185856 
2226.000000	65.171003 
2225.000000	65.153932 
2224.000000	65.135788 
2223.000000	65.118217 
2222.000000	65.103030 
2221.000000	65.092015 
2220.000000	65.086388 
2219.000000	65.086698 
2218.000000	65.092468 
2217.000000	65.102124 
2216.000000	65.113592 
2215.000000	65.124320 
2214.000000	65.131807 
2213.000000	65.134000 
2212.000000	65.129685 
2211.000000	65.118718 
2210.000000	65.101695 
2209.000000	65.080356 
2208.000000	65.056681 
2207.000000	65.032911 
2206.000000	65.011072 
2205.000000	64.992475 
2204.000000	64.977884 
2203.000000	64.967131 
2202.000000	64.959621 
2201.000000	64.954400 
2200.000000	64.950609 
2199.000000	64.947986 
2198.000000	64.946937 
2197.000000	64.948391 
2196.000000	64.953780 
2195.000000	64.964389 
2194.000000	64.981174 
2193.000000	65.004110 
2192.000000	65.032243 
2191.000000	65.063405 
2190.000000	65.094661 
2189.000000	65.123009 
2188.000000	65.145754 
2187.000000	65.161180 
2186.000000	65.168523 
2185.000000	65.168428 
2184.000000	65.162301 
2183.000000	65.152263 
2182.000000	65.140366 
2181.000000	65.128397 
2180.000000	65.117597 
2179.000000	65.108871 
2178.000000	65.102529 
2177.000000	65.098571 
2176.000000	65.096545 
2175.000000	65.095663 
2174.000000	65.094804 
2173.000000	65.092778 
2172.000000	65.088462 
2171.000000	65.081381 
2170.000000	65.071964 
2169.000000	65.061593 
2168.000000	65.052533 
2167.000000	65.047740 
2166.000000	65.050125 
2165.000000	65.061950 
2164.000000	65.084147 
2163.000000	65.116024 
2162.000000	65.155053 
2161.000000	65.197420 
2160.000000	65.238976 
2159.000000	65.275478 
2158.000000	65.303587 
2157.000000	65.320825 
2156.000000	65.326142 
2155.000000	65.319490 
2154.000000	65.301561 
2153.000000	65.273761 
2152.000000	65.238070 
2151.000000	65.197038 
2150.000000	65.153527 
2149.000000	65.110635 
2148.000000	65.071535 
2147.000000	65.038990 
2146.000000	65.015316 
2145.000000	65.001988 
2144.000000	64.999699 
2143.000000	65.008234 
2142.000000	65.026593 
2141.000000	65.053224 
2140.000000	65.086221 
2139.000000	65.123152 
2138.000000	65.161585 
2137.000000	65.198731 
2136.000000	65.231871 
2135.000000	65.258574 
2134.000000	65.276718 
2133.000000	65.285277 
2132.000000	65.283966 
2131.000000	65.273880 
2130.000000	65.256762 
2129.000000	65.234994 
2128.000000	65.210890 
2127.000000	65.186381 
2126.000000	65.162801 
2125.000000	65.141153 
2124.000000	65.122103 
2123.000000	65.106153 
2122.000000	65.093922 
2121.000000	65.086102 
2120.000000	65.083360 
2119.000000	65.086221 
2118.000000	65.094590 
2117.000000	65.107488 
2116.000000	65.123152 
2115.000000	65.139293 
2114.000000	65.153384 
2113.000000	65.163278 
2112.000000	65.167546 
2111.000000	65.165877 
2110.000000	65.159344 
2109.000000	65.149927 
2108.000000	65.139937 
2107.000000	65.131711 
2106.000000	65.127253 
2105.000000	65.127539 
2104.000000	65.132451 
2103.000000	65.140581 
2102.000000	65.150237 
2101.000000	65.159177 
2100.000000	65.165495 
2099.000000	65.167665 
2098.000000	65.165162 
2097.000000	65.158462 
2096.000000	65.148997 
2095.000000	65.138983 
2094.000000	65.130829 
2093.000000	65.126800 
2092.000000	65.128397 
2091.000000	65.135908 
2090.000000	65.148067 
2089.000000	65.162348 
2088.000000	65.175271 
2087.000000	65.183138 
2086.000000	65.182709 
2085.000000	65.172004 
2084.000000	65.150713 
2083.000000	65.120339 
2082.000000	65.083503 
2081.000000	65.043568 
2080.000000	65.003752 
2079.000000	64.966320 
2078.000000	64.932513 
2077.000000	64.902234 
2076.000000	64.875030 
2075.000000	64.850497 
2074.000000	64.829087 
2073.000000	64.812183 
2072.000000	64.801955 
2071.000000	64.800548 
2070.000000	64.809536 
2069.000000	64.829087 
2068.000000	64.857721 
2067.000000	64.892339 
2066.000000	64.928770 
2065.000000	64.962697 
2064.000000	64.990544 
2063.000000	65.010166 
2062.000000	65.021204 
2061.000000	65.024948 
2060.000000	65.024065 
2059.000000	65.021705 
2058.000000	65.020799 
2057.000000	65.023446 
2056.000000	65.030574 
2055.000000	65.041685 
2054.000000	65.055465 
2053.000000	65.069580 
2052.000000	65.081620 
2051.000000	65.089440 
2050.000000	65.091514 
2049.000000	65.087723 
2048.000000	65.079116 
2047.000000	65.068149 
2046.000000	65.058183 
2045.000000	65.052795 
2044.000000	65.054845 
2043.000000	65.066123 
2042.000000	65.086722 
2041.000000	65.115118 
2040.000000	65.148448 
2039.000000	65.183067 
2038.000000	65.215301 
2037.000000	65.242075 
2036.000000	65.261316 
2035.000000	65.272116 
2034.000000	65.274810 
2033.000000	65.270686 
2032.000000	65.261411 
2031.000000	65.248990 
2030.000000	65.234923 
2029.000000	65.220594 
2028.000000	65.206694 
2027.000000	65.193462 
2026.000000	65.180444 
2025.000000	65.166711 
2024.000000	65.151262 
2023.000000	65.133070 
2022.000000	65.112137 
2021.000000	65.089631 
2020.000000	65.067958 
2019.000000	65.050315 
2018.000000	65.039849 
2017.000000	65.038895 
2016.000000	65.047955 
2015.000000	65.065312 
2014.000000	65.087413 
2013.000000	65.109705 
2012.000000	65.127778 
2011.000000	65.138578 
2010.000000	65.141296 
2009.000000	65.137219 
2008.000000	65.129518 
2007.000000	65.121960 
2006.000000	65.117621 
2005.000000	65.117931 
2004.000000	65.122199 
2003.000000	65.127849 
2002.000000	65.131759 
2001.000000	65.131068 
2000.000000	65.124487 
1999.000000	65.112638 
1998.000000	65.097856 
1997.000000	65.083622 
1996.000000	65.073108 
1995.000000	65.068626 
1994.000000	65.070819 
1993.000000	65.078639 
1992.000000	65.089869 
1991.000000	65.101766 
1990.000000	65.112113 
1989.000000	65.119624 
1988.000000	65.124297 
1987.000000	65.126991 
1986.000000	65.129017 
1985.000000	65.131545 
1984.000000	65.135288 
1983.000000	65.140485 
1982.000000	65.146899 
1981.000000	65.154361 
1980.000000	65.162563 
1979.000000	65.171432 
1978.000000	65.180873 
1977.000000	65.190339 
1976.000000	65.199089 
1975.000000	65.205812 
1974.000000	65.209031 
1973.000000	65.207481 
1972.000000	65.200400 
1971.000000	65.187978 
1970.000000	65.170931 
1969.000000	65.151023 
1968.000000	65.129947 
1967.000000	65.109252 
1966.000000	65.089821 
1965.000000	65.071940 
1964.000000	65.055322 
1963.000000	65.039372 
1962.000000	65.023732 
1961.000000	65.008592 
1960.000000	64.994597 
1959.000000	64.982914 
1958.000000	64.974641 
1957.000000	64.970445 
1956.000000	64.970684 
1955.000000	64.975285 
1954.000000	64.983868 
1953.000000	64.995932 
1952.000000	65.011239 
1951.000000	65.029501 
1950.000000	65.050530 
1949.000000	65.073680 
1948.000000	65.097665 
1947.000000	65.120506 
1946.000000	65.139698 
1945.000000	65.152955 
1944.000000	65.158534 
1943.000000	65.156364 
1942.000000	65.148067 
1941.000000	65.136671 
1940.000000	65.126228 
1939.000000	65.120387 
1938.000000	65.121769 
1937.000000	65.130734 
1936.000000	65.145540 
1935.000000	65.162444 
1934.000000	65.176892 
1933.000000	65.184307 
1932.000000	65.181493 
1931.000000	65.167379 
1930.000000	65.143346 
1929.000000	65.112924 
1928.000000	65.080690 
1927.000000	65.051507 
1926.000000	65.029287 
1925.000000	65.016388 
1924.000000	65.013146 
1923.000000	65.018320 
1922.000000	65.029525 
1921.000000	65.044236 
1920.000000	65.060210 
1919.000000	65.075707 
1918.000000	65.089893 
1917.000000	65.102767 
1916.000000	65.114450 
1915.000000	65.124773 
1914.000000	65.133118 
1913.000000	65.138125 
1912.000000	65.138053 
1911.000000	65.131235 
1910.000000	65.116858 
1909.000000	65.095233 
1908.000000	65.068292 
1907.000000	65.039300 
1906.000000	65.012240 
1905.000000	64.991021 
1904.000000	64.978861 
1903.000000	64.977502 
1902.000000	64.987301 
1901.000000	65.007162 
1900.000000	65.034937 
1899.000000	65.067744 
1898.000000	65.102410 
1897.000000	65.135741 
1896.000000	65.164756 
1895.000000	65.186882 
1894.000000	65.199708 
1893.000000	65.201592 
1892.000000	65.191936 
1891.000000	65.171527 
1890.000000	65.142774 
1889.000000	65.109300 
1888.000000	65.076041 
1887.000000	65.047836 
1886.000000	65.029096 
1885.000000	65.022349 
1884.000000	65.028095 
1883.000000	65.044498 
1882.000000	65.067958 
1881.000000	65.093970 
1880.000000	65.118098 
1879.000000	65.136647 
1878.000000	65.147352 
1877.000000	65.149474 
1876.000000	65.143656 
1875.000000	65.131592 
1874.000000	65.115380 
1873.000000	65.097260 
1872.000000	65.079283 
1871.000000	65.063238 
1870.000000	65.050649 
1869.000000	65.042781 
1868.000000	65.040397 
1867.000000	65.043902 
1866.000000	65.053009 
1865.000000	65.066552 
1864.000000	65.082597 
1863.000000	65.098714 
1862.000000	65.112328 
1861.000000	65.121245 
1860.000000	65.124249 
1859.000000	65.121126 
1858.000000	65.112900 
1857.000000	65.101623 
1856.000000	65.089774 
1855.000000	65.079617 
1854.000000	65.072679 
1853.000000	65.069580 
1852.000000	65.069746 
1851.000000	65.071654 
1850.000000	65.073180 
1849.000000	65.072393 
1848.000000	65.067696 
1847.000000	65.058422 
1846.000000	65.044808 
1845.000000	65.028214 
1844.000000	65.010595 
1843.000000	64.994502 
1842.000000	64.982438 
1841.000000	64.976692 
1840.000000	64.978861 
1839.000000	64.989686 
1838.000000	65.009069 
1837.000000	65.035867 
1836.000000	65.068411 
1835.000000	65.104222 
1834.000000	65.140461 
1833.000000	65.174031 
1832.000000	65.201973 
1831.000000	65.221452 
1830.000000	65.230298 
1829.000000	65.227222 
1828.000000	65.212202 
1827.000000	65.186595 
1826.000000	65.153241 
1825.000000	65.116024 
1824.000000	65.079498 
1823.000000	65.048241 
1822.000000	65.026092 
1821.000000	65.015482 
1820.000000	65.016984 
1819.000000	65.029263 
1818.000000	65.049457 
1817.000000	65.073609 
1816.000000	65.097880 
1815.000000	65.118718 
1814.000000	65.134096 
1813.000000	65.143179 
1812.000000	65.146684 
1811.000000	65.146088 
1810.000000	65.143346 
1809.000000	65.140271 
1808.000000	65.137982 
1807.000000	65.136933 
1806.000000	65.136671 
1805.000000	65.136289 
1804.000000	65.134811 
1803.000000	65.131425 
1802.000000	65.126013 
1801.000000	65.119242 
1800.000000	65.112495 
1799.000000	65.107369 
1798.000000	65.105414 
1797.000000	65.107727 
1796.000000	65.114593 
1795.000000	65.125441 
1794.000000	65.138578 
1793.000000	65.151834 
1792.000000	65.162944 
1791.000000	65.170025 
1790.000000	65.172243 
1789.000000	65.169501 
1788.000000	65.162873 
1787.000000	65.153813 
1786.000000	65.143704 
1785.000000	65.133404 
1784.000000	65.122961 
1783.000000	65.111851 
1782.000000	65.099430 
1781.000000	65.085363 
1780.000000	65.070223 
1779.000000	65.055465 
1778.000000	65.043163 
1777.000000	65.035724 
1776.000000	65.034890 
1775.000000	65.041613 
1774.000000	65.055251 
1773.000000	65.074133 
1772.000000	65.095520 
1771.000000	65.116524 
1770.000000	65.134835 
1769.000000	65.148925 
1768.000000	65.158295 
1767.000000	65.163064 
1766.000000	65.163874 
1765.000000	65.161323 
1764.000000	65.155529 
1763.000000	65.146493 
1762.000000	65.134096 
1761.000000	65.118622 
1760.000000	65.100717 
1759.000000	65.081739 
1758.000000	65.063309 
1757.000000	65.047287 
1756.000000	65.035128 
1755.000000	65.027642 
1754.000000	65.024876 
1753.000000	65.026092 
1752.000000	65.030002 
1751.000000	65.034937 
1750.000000	65.039134 
1749.000000	65.041208 
1748.000000	65.039992 
1747.000000	65.034794 
1746.000000	65.025115 
1745.000000	65.010738 
1744.000000	64.991974 
1743.000000	64.969420 
1742.000000	64.944124 
1741.000000	64.917564 
1740.000000	64.891386 
1739.000000	64.867234 
1738.000000	64.846420 
1737.000000	64.829921 
1736.000000	64.818143 
1735.000000	64.811229 
1734.000000	64.808988 
1733.000000	64.811420 
1732.000000	64.818286 
1731.000000	64.829611 
1730.000000	64.845418 
1729.000000	64.865827 
1728.000000	64.890623 
1727.000000	64.919090 
1726.000000	64.950156 
1725.000000	64.981961 
1724.000000	65.012049 
1723.000000	65.037417 
1722.000000	65.055274 
1721.000000	65.062999 
1720.000000	65.058851 
1719.000000	65.042328 
1718.000000	65.014696 
1717.000000	64.978861 
1716.000000	64.939117 
1715.000000	64.900636 
1714.000000	64.868664 
1713.000000	64.847254 
1712.000000	64.838790 
1711.000000	64.843273 
1710.000000	64.858794 
1709.000000	64.881730 
1708.000000	64.907884 
1707.000000	64.933276 
1706.000000	64.955115 
1705.000000	64.972043 
1704.000000	64.984297 
1703.000000	64.992928 
1702.000000	64.999389 
1701.000000	65.004801 
1700.000000	65.009450 
1699.000000	65.012812 
1698.000000	65.013813 
1697.000000	65.011429 
1696.000000	65.005207 
1695.000000	64.995622 
1694.000000	64.984273 
1693.000000	64.973521 
1692.000000	64.966058 
1691.000000	64.963960 
1690.000000	64.968609 
1689.000000	64.980220 
1688.000000	64.997911 
1687.000000	65.019917 
1686.000000	65.043854 
1685.000000	65.067386 
1684.000000	65.088486 
1683.000000	65.105676 
1682.000000	65.117907 
1681.000000	65.124654 
1680.000000	65.125751 
1679.000000	65.121436 
1678.000000	65.112257 
1677.000000	65.099120 
1676.000000	65.083360 
1675.000000	65.066671 
1674.000000	65.051364 
1673.000000	65.039825 
1672.000000	65.034270 
1671.000000	65.036010 
1670.000000	65.045499 
1669.000000	65.061521 
1668.000000	65.081453 
1667.000000	65.101671 
1666.000000	65.118026 
1665.000000	65.126848 
1664.000000	65.125536 
1663.000000	65.113162 
1662.000000	65.090775 
1661.000000	65.061330 
1660.000000	65.029048 
1659.000000	64.998769 
1658.000000	64.974904 
1657.000000	64.960694 
1656.000000	64.957642 
1655.000000	64.965319 
1654.000000	64.981532 
1653.000000	65.002679 
1652.000000	65.024709 
1651.000000	65.043807 
1650.000000	65.057349 
1649.000000	65.063667 
1648.000000	65.062737 
1647.000000	65.055537 
1646.000000	65.043640 
1645.000000	65.028858 
1644.000000	65.012669 
1643.000000	64.996004 
1642.000000	64.979410 
1641.000000	64.963078 
1640.000000	64.947199 
1639.000000	64.932298 
1638.000000	64.919233 
1637.000000	64.909076 
1636.000000	64.903044 
1635.000000	64.901709 
1634.000000	64.905142 
1633.000000	64.912414 
1632.000000	64.921855 
1631.000000	64.931440 
1630.000000	64.938998 
1629.000000	64.942932 
1628.000000	64.942097 
1627.000000	64.936399 
1626.000000	64.926457 
1625.000000	64.913845 
1624.000000	64.900374 
1623.000000	64.888072 
1622.000000	64.878702 
1621.000000	64.873242 
1620.000000	64.872074 
1619.000000	64.874315 
1618.000000	64.878511 
1617.000000	64.882373 
1616.000000	64.883661 
1615.000000	64.880609 
1614.000000	64.872264 
1613.000000	64.859342 
1612.000000	64.843702 
1611.000000	64.828610 
1610.000000	64.817857 
1609.000000	64.814758 
1608.000000	64.821147 
1607.000000	64.837265 
1606.000000	64.861249 
1605.000000	64.889883 
1604.000000	64.919090 
1603.000000	64.945077 
1602.000000	64.964890 
1601.000000	64.976906 
1600.000000	64.980864 
1599.000000	64.977598 
1598.000000	64.968490 
1597.000000	64.955353 
1596.000000	64.939618 
1595.000000	64.922690 
1594.000000	64.905405 
1593.000000	64.888358 
1592.000000	64.871931 
1591.000000	64.856481 
1590.000000	64.842486 
1589.000000	64.830279 
1588.000000	64.820384 
1587.000000	64.813232 
1586.000000	64.809703 
1585.000000	64.810609 
1584.000000	64.817166 
1583.000000	64.830255 
1582.000000	64.850473 
1581.000000	64.877343 
1580.000000	64.909434 
1579.000000	64.943981 
1578.000000	64.977335 
1577.000000	65.005373 
1576.000000	65.024328 
1575.000000	65.031456 
1574.000000	65.025830 
1573.000000	65.008163 
1572.000000	64.980983 
1571.000000	64.947986 
1570.000000	64.913892 
1569.000000	64.883065 
1568.000000	64.859175 
1567.000000	64.844298 
1566.000000	64.839029 
1565.000000	64.842200 
1564.000000	64.851617 
1563.000000	64.864563 
1562.000000	64.878392 
1561.000000	64.891195 
1560.000000	64.901804 
1559.000000	64.910054 
1558.000000	64.916300 
1557.000000	64.921283 
1556.000000	64.925456 
1555.000000	64.929366 
1554.000000	64.933156 
1553.000000	64.937043 
1552.000000	64.941239 
1551.000000	64.946103 
1550.000000	64.952087 
1549.000000	64.959716 
1548.000000	64.969062 
1547.000000	64.979815 
1546.000000	64.990830 
1545.000000	65.000486 
1544.000000	65.006732 
1543.000000	65.007853 
1542.000000	65.002465 
1541.000000	64.990258 
1540.000000	64.971828 
1539.000000	64.948582 
1538.000000	64.922356 
1537.000000	64.895391 
1536.000000	64.869666 
1535.000000	64.846491 
1534.000000	64.826631 
1533.000000	64.810323 
1532.000000	64.797329 
1531.000000	64.787125 
1530.000000	64.779043 
1529.000000	64.772510 
1528.000000	64.767265 
1527.000000	64.763498 
1526.000000	64.761757 
1525.000000	64.762639 
1524.000000	64.766931 
1523.000000	64.775204 
1522.000000	64.787578 
1521.000000	64.803385 
1520.000000	64.821219 
1519.000000	64.838957 
1518.000000	64.854097 
1517.000000	64.864373 
1516.000000	64.868116 
1515.000000	64.865159 
1514.000000	64.856576 
1513.000000	64.845180 
1512.000000	64.834690 
1511.000000	64.829444 
1510.000000	64.833235 
1509.000000	64.848709 
1508.000000	64.876866 
1507.000000	64.916372 
1506.000000	64.964175 
1505.000000	65.015125 
1504.000000	65.063190 
1503.000000	65.101957 
1502.000000	65.126013 
1501.000000	65.131473 
1500.000000	65.116786 
1499.000000	65.083098 
1498.000000	65.034174 
1497.000000	64.975976 
1496.000000	64.915752 
1495.000000	64.860987 
1494.000000	64.818286 
1493.000000	64.792227 
1492.000000	64.784765 
1491.000000	64.794969 
1490.000000	64.819431 
1489.000000	64.853286 
1488.000000	64.891338 
1487.000000	64.928388 
1486.000000	64.960289 
1485.000000	64.983892 
1484.000000	64.997649 
1483.000000	65.000724 
1482.000000	64.993739 
1481.000000	64.978051 
1480.000000	64.955997 
1479.000000	64.930701 
1478.000000	64.905214 
1477.000000	64.882254 
1476.000000	64.863705 
1475.000000	64.850378 
1474.000000	64.842319 
1473.000000	64.839053 
1472.000000	64.840030 
1471.000000	64.844608 
1470.000000	64.852213 
1469.000000	64.862203 
1468.000000	64.873576 
1467.000000	64.884662 
1466.000000	64.893293 
1465.000000	64.896583 
1464.000000	64.891862 
1463.000000	64.877176 
1462.000000	64.851617 
1461.000000	64.816069 
1460.000000	64.773344 
1459.000000	64.727950 
1458.000000	64.685487 
1457.000000	64.651632 
1456.000000	64.631080 
1455.000000	64.626479 
1454.000000	64.637899 
1453.000000	64.662575 
1452.000000	64.695358 
1451.000000	64.729905 
1450.000000	64.759993 
1449.000000	64.780759 
1448.000000	64.789581 
1447.000000	64.786911 
1446.000000	64.775657 
1445.000000	64.760565 
1444.000000	64.746761 
1443.000000	64.738631 
1442.000000	64.738464 
1441.000000	64.746189 
1440.000000	64.759397 
1439.000000	64.774084 
1438.000000	64.786028 
1437.000000	64.791512 
1436.000000	64.789056 
1435.000000	64.779233 
1434.000000	64.765095 
1433.000000	64.750981 
1432.000000	64.741778 
1431.000000	64.741349 
1430.000000	64.751935 
1429.000000	64.773631 
1428.000000	64.804315 
1427.000000	64.840173 
1426.000000	64.876699 
1425.000000	64.909696 
1424.000000	64.935731 
1423.000000	64.952564 
1422.000000	64.959454 
1421.000000	64.956808 
1420.000000	64.946222 
1419.000000	64.929986 
1418.000000	64.910745 
1417.000000	64.891076 
1416.000000	64.873170 
1415.000000	64.858341 
1414.000000	64.847111 
1413.000000	64.839315 
1412.000000	64.834141 
1411.000000	64.830780 
1410.000000	64.828348 
1409.000000	64.826393 
1408.000000	64.824962 
1407.000000	64.824461 
1406.000000	64.825534 
1405.000000	64.828562 
1404.000000	64.833879 
1403.000000	64.841365 
1402.000000	64.850449 
1401.000000	64.860248 
1400.000000	64.869928 
1399.000000	64.878630 
1398.000000	64.885926 
1397.000000	64.891457 
1396.000000	64.895176 
1395.000000	64.897251 
1394.000000	64.897775 
1393.000000	64.897251 
1392.000000	64.896535 
1391.000000	64.896845 
1390.000000	64.899420 
1389.000000	64.905214 
1388.000000	64.914512 
1387.000000	64.926910 
1386.000000	64.940857 
1385.000000	64.954066 
1384.000000	64.963722 
1383.000000	64.967489 
1382.000000	64.963722 
1381.000000	64.952158 
1380.000000	64.933609 
1379.000000	64.910244 
1378.000000	64.884591 
1377.000000	64.859223 
1376.000000	64.836072 
1375.000000	64.816212 
1374.000000	64.799809 
1373.000000	64.786434 
1372.000000	64.775252 
1371.000000	64.765572 
1370.000000	64.757084 
1369.000000	64.749979 
1368.000000	64.744544 
1367.000000	64.741015 
1366.000000	64.739322 
1365.000000	64.738917 
1364.000000	64.739060 
1363.000000	64.738917 
1362.000000	64.738178 
1361.000000	64.737105 
1360.000000	64.736676 
1359.000000	64.738178 
1358.000000	64.742469 
1357.000000	64.749550 
1356.000000	64.758372 
1355.000000	64.766955 
1354.000000	64.772796 
1353.000000	64.773702 
1352.000000	64.768648 
1351.000000	64.758014 
1350.000000	64.743757 
1349.000000	64.728522 
1348.000000	64.715361 
1347.000000	64.706349 
1346.000000	64.701938 
1345.000000	64.700889 
1344.000000	64.700603 
1343.000000	64.698171 
1342.000000	64.691162 
1341.000000	64.678764 
1340.000000	64.661955 
1339.000000	64.643383 
1338.000000	64.626550 
1337.000000	64.614844 
1336.000000	64.610648 
1335.000000	64.615130 
1334.000000	64.628076 
1333.000000	64.648222 
1332.000000	64.673733 
1331.000000	64.702725 
1330.000000	64.733529 
1329.000000	64.764451 
1328.000000	64.794278 
1327.000000	64.821553 
1326.000000	64.845037 
1325.000000	64.863514 
1324.000000	64.876317 
1323.000000	64.883518 
1322.000000	64.886093 
1321.000000	64.886021 
1320.000000	64.885520 
1319.000000	64.886665 
1318.000000	64.890503 
1317.000000	64.897179 
1316.000000	64.905381 
1315.000000	64.912819 
1314.000000	64.916968 
1313.000000	64.915585 
1312.000000	64.907217 
1311.000000	64.891457 
1310.000000	64.869046 
1309.000000	64.841485 
1308.000000	64.810967 
1307.000000	64.779877 
1306.000000	64.750576 
1305.000000	64.725089 
1304.000000	64.704847 
1303.000000	64.690637 
1302.000000	64.682531 
1301.000000	64.679908 
1300.000000	64.681649 
1299.000000	64.686322 
1298.000000	64.692068 
1297.000000	64.697432 
1296.000000	64.701294 
1295.000000	64.703369 
1294.000000	64.703941 
1293.000000	64.704132 
1292.000000	64.705491 
1291.000000	64.709663 
1290.000000	64.717841 
1289.000000	64.730191 
1288.000000	64.745879 
1287.000000	64.763116 
1286.000000	64.779424 
1285.000000	64.792251 
1284.000000	64.799761 
1283.000000	64.801144 
1282.000000	64.796876 
1281.000000	64.788460 
1280.000000	64.778113 
1279.000000	64.768290 
1278.000000	64.761114 
1277.000000	64.757943 
1276.000000	64.759111 
1275.000000	64.764332 
1274.000000	64.772534 
1273.000000	64.782500 
1272.000000	64.792799 
1271.000000	64.802074 
1270.000000	64.809203 
1269.000000	64.813137 
1268.000000	64.813137 
1267.000000	64.808630 
1266.000000	64.799571 
1265.000000	64.786815 
1264.000000	64.771795 
1263.000000	64.756464 
1262.000000	64.742875 
1261.000000	64.732933 
1260.000000	64.727807 
1259.000000	64.727783 
1258.000000	64.732432 
1257.000000	64.740967 
1256.000000	64.752626 
1255.000000	64.767026 
1254.000000	64.784002 
1253.000000	64.803481 
1252.000000	64.825081 
1251.000000	64.847731 
1250.000000	64.869403 
1249.000000	64.887309 
1248.000000	64.898347 
1247.000000	64.899706 
1246.000000	64.889574 
1245.000000	64.867615 
1244.000000	64.835357 
1243.000000	64.795875 
1242.000000	64.753007 
1241.000000	64.710736 
1240.000000	64.672374 
1239.000000	64.639925 
1238.000000	64.613866 
1237.000000	64.593577 
1236.000000	64.577603 
1235.000000	64.564800 
1234.000000	64.554595 
1233.000000	64.547514 
1232.000000	64.544677 
1231.000000	64.547634 
1230.000000	64.557647 
1229.000000	64.575242 
1228.000000	64.599633 
1227.000000	64.628767 
1226.000000	64.659643 
1225.000000	64.689111 
1224.000000	64.714241 
1223.000000	64.733028 
1222.000000	64.744544 
1221.000000	64.749002 
1220.000000	64.747738 
1219.000000	64.742326 
1218.000000	64.734768 
1217.000000	64.726686 
1216.000000	64.719653 
1215.000000	64.715242 
1214.000000	64.714837 
1213.000000	64.719533 
1212.000000	64.729547 
1211.000000	64.744162 
1210.000000	64.761495 
1209.000000	64.778518 
1208.000000	64.791679 
1207.000000	64.797353 
1206.000000	64.793229 
1205.000000	64.778780 
1204.000000	64.755725 
1203.000000	64.727950 
1202.000000	64.700746 
1201.000000	64.679908 
1200.000000	64.670491 
1199.000000	64.675879 
1198.000000	64.697289 
1197.000000	64.733481 
1196.000000	64.781141 
1195.000000	64.835166 
1194.000000	64.889693 
1193.000000	64.938592 
1192.000000	64.976191 
1191.000000	64.997410 
1190.000000	64.998388 
1189.000000	64.976835 
1188.000000	64.932656 
1187.000000	64.868068 
1186.000000	64.787840 
1185.000000	64.699077 
1184.000000	64.610362 
1183.000000	64.530682 
1182.000000	64.468121 
1181.000000	64.428210 
1180.000000	64.413118 
1179.000000	64.421439 
1178.000000	64.448642 
1177.000000	64.488196 
1176.000000	64.532852 
1175.000000	64.576458 
1174.000000	64.615011 
1173.000000	64.647436 
1172.000000	64.675331 
1171.000000	64.701795 
1170.000000	64.729833 
1169.000000	64.761137 
1168.000000	64.795160 
1167.000000	64.828968 
1166.000000	64.857745 
1165.000000	64.876794 
1164.000000	64.882040 
1163.000000	64.871883 
1162.000000	64.846777 
1161.000000	64.809799 
1160.000000	64.765477 
1159.000000	64.718723 
1158.000000	64.674520 
1157.000000	64.636731 
1156.000000	64.608979 
1155.000000	64.594101 
1154.000000	64.594817 
1153.000000	64.613533 
1152.000000	64.651656 
1151.000000	64.708924 
1150.000000	64.781880 
1149.000000	64.863228 
1148.000000	64.942812 
1147.000000	65.008997 
1146.000000	65.051412 
1145.000000	65.063023 
1144.000000	65.042281 
1143.000000	64.993023 
1142.000000	64.923906 
1141.000000	64.845967 
1140.000000	64.769363 
1139.000000	64.701342 
1138.000000	64.645504 
1137.000000	64.601659 
1136.000000	64.566969 
1135.000000	64.537811 
1134.000000	64.512014 
1133.000000	64.489173 
1132.000000	64.470863 
1131.000000	64.459466 
1130.000000	64.455962 
1129.000000	64.459967 
1128.000000	64.468121 
1127.000000	64.476656 
1126.000000	64.482021 
1125.000000	64.483380 
1124.000000	64.482975 
1123.000000	64.486217 
1122.000000	64.499902 
1121.000000	64.530158 
1120.000000	64.579677 
1119.000000	64.645910 
1118.000000	64.720463 
1117.000000	64.791202 
1116.000000	64.844155 
1115.000000	64.866900 
1114.000000	64.850997 
1113.000000	64.794278 
1112.000000	64.701175 
1111.000000	64.581108 
1110.000000	64.447522 
1109.000000	64.314842 
1108.000000	64.197254 
1107.000000	64.107346 
1106.000000	64.054012 
1105.000000	64.042854 
1104.000000	64.073514 
1103.000000	64.140343 
1102.000000	64.231634 
1101.000000	64.330744 
1100.000000	64.419794 
1099.000000	64.481997 
1098.000000	64.506864 
1097.000000	64.491295 
1096.000000	64.442706 
1095.000000	64.376735 
1094.000000	64.314866 
1093.000000	64.279031 
1092.000000	64.286899 
1091.000000	64.347124 
1090.000000	64.457607 
1089.000000	64.605617 
1088.000000	64.771509 
1087.000000	64.932513 
1086.000000	65.068268 
1085.000000	65.163826 
1084.000000	65.212106 
1083.000000	65.213465 
1082.000000	65.174198 
1081.000000	65.103936 
1080.000000	65.013551 
1079.000000	64.912629 
1078.000000	64.810085 
1077.000000	64.712119 
1076.000000	64.623546 
1075.000000	64.547252 
1074.000000	64.485764 
1073.000000	64.440631 
1072.000000	64.412617 
1071.000000	64.401507 
1070.000000	64.405632 
1069.000000	64.423036 
1068.000000	64.451384 
1067.000000	64.487981 
1066.000000	64.529609 
1065.000000	64.572572 
1064.000000	64.612770 
1063.000000	64.645361 
1062.000000	64.665532 
1061.000000	64.669513 
1060.000000	64.655542 
1059.000000	64.624714 
1058.000000	64.581036 
1057.000000	64.531564 
1056.000000	64.484119 
1055.000000	64.445805 
1054.000000	64.421081 
1053.000000	64.410972 
1052.000000	64.412784 
1051.000000	64.420795 
1050.000000	64.428377 
1049.000000	64.429736 
1048.000000	64.421987 
1047.000000	64.406299 
1046.000000	64.386963 
1045.000000	64.369559 
1044.000000	64.359498 
1043.000000	64.360141 
1042.000000	64.371848 
1041.000000	64.391469 
1040.000000	64.413714 
1039.000000	64.432621 
1038.000000	64.442563 
1037.000000	64.439797 
1036.000000	64.422845 
1035.000000	64.392852 
1034.000000	64.353013 
1033.000000	64.308190 
1032.000000	64.263606 
1031.000000	64.224052 
1030.000000	64.193439 
1029.000000	64.174103 
1028.000000	64.166975 
1027.000000	64.171433 
1026.000000	64.185667 
1025.000000	64.207339 
1024.000000	64.233493 
1023.000000	64.261770 
1022.000000	64.290022 
1021.000000	64.317274 
1020.000000	64.343118 
1019.000000	64.368200 
1018.000000	64.393401 
1017.000000	64.419531 
1016.000000	64.446663 
1015.000000	64.473915 
1014.000000	64.499545 
1013.000000	64.521169 
1012.000000	64.536499 
1011.000000	64.543771 
1010.000000	64.542508 
1009.000000	64.533877 
1008.000000	64.520621 
1007.000000	64.506530 
1006.000000	64.495468 
1005.000000	64.490914 
1004.000000	64.494490 
1003.000000	64.506173 
1002.000000	64.523458 
1001.000000	64.542627 
1000.000000	64.559054 
999.000000	 64.568090 
998.000000	 64.566183 
997.000000	 64.551663 
996.000000	 64.524912 
995.000000	 64.488220 
994.000000	 64.445376 
993.000000	 64.400887 
992.000000	 64.359140 
991.000000	 64.323782 
990.000000	 64.297008 
989.000000	 64.279532 
988.000000	 64.270806 
987.000000	 64.269495 
986.000000	 64.273858 
985.000000	 64.282202 
984.000000	 64.293384 
983.000000	 64.306974 
982.000000	 64.322686 
981.000000	 64.340186 
980.000000	 64.358592 
979.000000	 64.376330 
978.000000	 64.390969 
977.000000	 64.399671 
976.000000	 64.400029 
975.000000	 64.390778 
974.000000	 64.372205 
973.000000	 64.346647 
972.000000	 64.318132 
971.000000	 64.291691 
970.000000	 64.272451 
969.000000	 64.264774 
968.000000	 64.271163 
967.000000	 64.291834 
966.000000	 64.324855 
965.000000	 64.366388 
964.000000	 64.411568 
963.000000	 64.455437 
962.000000	 64.493823 
961.000000	 64.523839 
960.000000	 64.544177 
959.000000	 64.554953 
958.000000	 64.557456 
957.000000	 64.553618 
956.000000	 64.545464 
955.000000	 64.534902 
954.000000	 64.523005 
953.000000	 64.510083 
952.000000	 64.495372 
951.000000	 64.477896 
950.000000	 64.456439 
949.000000	 64.430212 
948.000000	 64.399480 
947.000000	 64.365386 
946.000000	 64.330530 
945.000000	 64.298224 
944.000000	 64.272332 
943.000000	 64.256191 
942.000000	 64.252138 
941.000000	 64.261031 
940.000000	 64.281892 
939.000000	 64.312148 
938.000000	 64.347720 
937.000000	 64.383816 
936.000000	 64.415502 
935.000000	 64.438557 
934.000000	 64.449977 
933.000000	 64.448380 
932.000000	 64.434170 
931.000000	 64.409136 
930.000000	 64.376783 
929.000000	 64.341735 
928.000000	 64.309191 
927.000000	 64.284014 
926.000000	 64.270377 
925.000000	 64.270782 
924.000000	 64.285969 
923.000000	 64.314270 
922.000000	 64.352154 
921.000000	 64.394450 
920.000000	 64.435386 
919.000000	 64.469480 
918.000000	 64.492082 
917.000000	 64.500737 
916.000000	 64.495062 
915.000000	 64.477324 
914.000000	 64.451503 
913.000000	 64.422655 
912.000000	 64.396142 
911.000000	 64.375686 
910.000000	 64.363217 
909.000000	 64.357995 
908.000000	 64.357280 
907.000000	 64.356994 
906.000000	 64.352893 
905.000000	 64.341759 
904.000000	 64.322018 
903.000000	 64.294242 
902.000000	 64.260911 
901.000000	 64.225435 
900.000000	 64.191436 
899.000000	 64.161658 
898.000000	 64.137840 
897.000000	 64.120173 
896.000000	 64.108252 
895.000000	 64.101195 
894.000000	 64.098358 
893.000000	 64.099621 
892.000000	 64.105391 
891.000000	 64.116096 
890.000000	 64.131903 
889.000000	 64.151811 
888.000000	 64.174318 
887.000000	 64.197325 
886.000000	 64.218735 
885.000000	 64.236855 
884.000000	 64.250612 
883.000000	 64.259934 
882.000000	 64.265179 
881.000000	 64.267158 
880.000000	 64.266204 
879.000000	 64.262104 
878.000000	 64.254117 
877.000000	 64.241504 
876.000000	 64.224100 
875.000000	 64.202928 
874.000000	 64.180064 
873.000000	 64.158844 
872.000000	 64.143085 
871.000000	 64.136481 
870.000000	 64.141273 
869.000000	 64.158082 
868.000000	 64.185690 
867.000000	 64.221501 
866.000000	 64.261794 
865.000000	 64.302563 
864.000000	 64.340305 
863.000000	 64.372253 
862.000000	 64.396429 
861.000000	 64.411854 
860.000000	 64.418292 
859.000000	 64.416503 
858.000000	 64.407944 
857.000000	 64.394760 
856.000000	 64.379692 
855.000000	 64.365625 
854.000000	 64.355492 
853.000000	 64.351248 
852.000000	 64.353537 
851.000000	 64.361190 
850.000000	 64.371323 
849.000000	 64.379835 
848.000000	 64.382195 
847.000000	 64.374542 
846.000000	 64.354586 
845.000000	 64.322090 
844.000000	 64.278984 
843.000000	 64.228940 
842.000000	 64.176392 
841.000000	 64.125156 
840.000000	 64.077782 
839.000000	 64.035081 
838.000000	 63.996434 
837.000000	 63.960385 
836.000000	 63.925862 
835.000000	 63.892102 
834.000000	 63.860368 
833.000000	 63.833284 
832.000000	 63.814783 
831.000000	 63.808298 
830.000000	 63.816761 
829.000000	 63.841104 
828.000000	 63.880109 
827.000000	 63.930249 
826.000000	 63.986015 
825.000000	 64.040899 
824.000000	 64.088296 
823.000000	 64.122986 
822.000000	 64.141511 
821.000000	 64.143037 
820.000000	 64.129352 
819.000000	 64.104509 
818.000000	 64.074444 
817.000000	 64.045476 
816.000000	 64.023756 
815.000000	 64.013004 
814.000000	 64.014482 
813.000000	 64.025759 
812.000000	 64.041900 
811.000000	 64.056110 
810.000000	 64.061284 
809.000000	 64.051985 
808.000000	 64.025592 
807.000000	 63.983178 
806.000000	 63.928890 
805.000000	 63.869810 
804.000000	 63.813591 
803.000000	 63.767814 
802.000000	 63.737893 
801.000000	 63.726592 
800.000000	 63.733673 
799.000000	 63.756179 
798.000000	 63.789391 
797.000000	 63.827705 
796.000000	 63.865375 
795.000000	 63.897466 
794.000000	 63.920211 
793.000000	 63.931226 
792.000000	 63.929724 
791.000000	 63.916254 
790.000000	 63.892674 
789.000000	 63.861894 
788.000000	 63.827371 
787.000000	 63.792777 
786.000000	 63.761258 
785.000000	 63.735103 
784.000000	 63.715386 
783.000000	 63.701891 
782.000000	 63.693642 
781.000000	 63.689470 
780.000000	 63.688445 
779.000000	 63.689804 
778.000000	 63.693332 
777.000000	 63.698959 
776.000000	 63.706350 
775.000000	 63.714766 
774.000000	 63.722753 
773.000000	 63.728046 
772.000000	 63.728785 
771.000000	 63.723993 
770.000000	 63.714623 
769.000000	 63.703465 
768.000000	 63.695812 
767.000000	 63.697648 
766.000000	 63.714146 
765.000000	 63.747453 
764.000000	 63.795137 
763.000000	 63.850045 
762.000000	 63.900852 
761.000000	 63.935327 
760.000000	 63.943123 
759.000000	 63.919568 
758.000000	 63.867402 
757.000000	 63.796901 
756.000000	 63.724184 
755.000000	 63.666701 
754.000000	 63.639473 
753.000000	 63.650178 
752.000000	 63.697409 
751.000000	 63.770222 
750.000000	 63.851380 
749.000000	 63.921070 
748.000000	 63.962173 
747.000000	 63.964009 
746.000000	 63.925004 
745.000000	 63.851761 
744.000000	 63.756680 
743.000000	 63.654398 
742.000000	 63.558077 
741.000000	 63.477110 
740.000000	 63.415956 
739.000000	 63.374972 
738.000000	 63.351845 
737.000000	 63.343811 
736.000000	 63.348650 
735.000000	 63.364887 
734.000000	 63.391470 
733.000000	 63.426280 
732.000000	 63.465905 
731.000000	 63.503956 
730.000000	 63.533329 
729.000000	 63.546919 
728.000000	 63.540434 
727.000000	 63.513350 
726.000000	 63.469839 
725.000000	 63.418030 
724.000000	 63.368487 
723.000000	 63.331651 
722.000000	 63.315415 
721.000000	 63.323187 
720.000000	 63.353633 
719.000000	 63.401341 
718.000000	 63.458800 
717.000000	 63.518404 
716.000000	 63.573575 
715.000000	 63.619828 
714.000000	 63.654661 
713.000000	 63.677263 
712.000000	 63.687419 
711.000000	 63.684964 
710.000000	 63.669514 
709.000000	 63.640499 
708.000000	 63.598942 
707.000000	 63.547015 
706.000000	 63.488340 
705.000000	 63.427162 
704.000000	 63.368129 
703.000000	 63.315343 
702.000000	 63.271236 
701.000000	 63.237118 
700.000000	 63.212585 
699.000000	 63.197088 
698.000000	 63.190388 
697.000000	 63.192629 
696.000000	 63.204407 
695.000000	 63.225412 
694.000000	 63.253831 
693.000000	 63.285350 
692.000000	 63.313174 
691.000000	 63.329243 
690.000000	 63.325619 
689.000000	 63.296771 
688.000000	 63.241243 
687.000000	 63.162231 
686.000000	 63.067603 
685.000000	 62.968111 
684.000000	 62.875890 
683.000000	 62.802386 
682.000000	 62.756371 
681.000000	 62.742590 
680.000000	 62.761187 
679.000000	 62.808227 
678.000000	 62.876462 
677.000000	 62.956476 
676.000000	 63.038325 
675.000000	 63.112449 
674.000000	 63.171339 
673.000000	 63.209605 
672.000000	 63.225197 
671.000000	 63.219046 
670.000000	 63.194799 
669.000000	 63.158583 
668.000000	 63.116574 
667.000000	 63.074564 
666.000000	 63.036227 
665.000000	 63.003420 
664.000000	 62.976098 
663.000000	 62.953305 
662.000000	 62.933850 
661.000000	 62.917375 
660.000000	 62.903738 
659.000000	 62.893080 
658.000000	 62.885284 
657.000000	 62.879729 
656.000000	 62.874984 
655.000000	 62.868690 
654.000000	 62.858438 
653.000000	 62.841939 
652.000000	 62.817287 
651.000000	 62.783455 
650.000000	 62.740826 
649.000000	 62.690925 
648.000000	 62.636303 
647.000000	 62.580204 
646.000000	 62.525939 
645.000000	 62.476682 
644.000000	 62.435150 
643.000000	 62.402939 
642.000000	 62.380409 
641.000000	 62.366628 
640.000000	 62.359428 
639.000000	 62.356495 
638.000000	 62.355351 
637.000000	 62.355756 
636.000000	 62.359476 
635.000000	 62.370347 
634.000000	 62.392926 
633.000000	 62.431073 
632.000000	 62.486338 
631.000000	 62.556242 
630.000000	 62.634372 
629.000000	 62.711477 
628.000000	 62.777423 
627.000000	 62.823605 
626.000000	 62.844967 
625.000000	 62.840914 
624.000000	 62.815570 
623.000000	 62.776684 
622.000000	 62.733817 
621.000000	 62.695503 
620.000000	 62.668538 
619.000000	 62.656974 
618.000000	 62.661695 
617.000000	 62.681603 
616.000000	 62.713336 
615.000000	 62.753772 
614.000000	 62.797999 
613.000000	 62.840318 
612.000000	 62.873387 
611.000000	 62.889027 
610.000000	 62.878870 
609.000000	 62.836050 
608.000000	 62.756800 
607.000000	 62.641811 
606.000000	 62.497568 
605.000000	 62.335801 
604.000000	 62.171220 
603.000000	 62.019133 
602.000000	 61.892771 
601.000000	 61.801171 
600.000000	 61.747074 
599.000000	 61.728334 
598.000000	 61.738944 
597.000000	 61.771702 
596.000000	 61.819195 
595.000000	 61.876034 
594.000000	 61.937904 
593.000000	 62.002754 
592.000000	 62.067556 
591.000000	 62.130236 
590.000000	 62.188124 
589.000000	 62.238764 
588.000000	 62.280344 
587.000000	 62.311100 
586.000000	 62.330484 
585.000000	 62.337493 
584.000000	 62.331390 
583.000000	 62.310266 
582.000000	 62.272047 
581.000000	 62.214660 
580.000000	 62.137269 
579.000000	 62.041020 
578.000000	 61.929988 
577.000000	 61.811447 
576.000000	 61.695241 
575.000000	 61.591720 
574.000000	 61.510205 
573.000000	 61.457395 
572.000000	 61.436295 
571.000000	 61.445021 
570.000000	 61.477804 
569.000000	 61.526775 
568.000000	 61.582732 
567.000000	 61.636495 
566.000000	 61.679697 
565.000000	 61.705660 
564.000000	 61.709570 
563.000000	 61.688470 
562.000000	 61.641693 
561.000000	 61.570525 
560.000000	 61.478877 
559.000000	 61.373043 
558.000000	 61.261677 
557.000000	 61.155104 
556.000000	 61.063361 
555.000000	 60.994577 
554.000000	 60.953402 
553.000000	 60.940265 
552.000000	 60.951685 
551.000000	 60.981559 
550.000000	 61.021971 
549.000000	 61.065459 
548.000000	 61.106085 
547.000000	 61.141395 
546.000000	 61.171388 
545.000000	 61.198949 
544.000000	 61.228036 
543.000000	 61.262583 
542.000000	 61.305069 
541.000000	 61.355042 
540.000000	 61.409330 
539.000000	 61.462163 
538.000000	 61.506319 
537.000000	 61.535763 
536.000000	 61.547350 
535.000000	 61.542797 
534.000000	 61.528062 
533.000000	 61.513113 
532.000000	 61.509847 
531.000000	 61.528396 
530.000000	 61.574864 
529.000000	 61.646795 
528.000000	 61.733317 
527.000000	 61.816191 
526.000000	 61.874389 
525.000000	 61.888670 
524.000000	 61.846780 
523.000000	 61.747121 
522.000000	 61.599731 
521.000000	 61.424612 
520.000000	 61.246681 
519.000000	 61.090016 
518.000000	 60.971951 
517.000000	 60.900640 
516.000000	 60.872721 
515.000000	 60.875630 
514.000000	 60.890841 
513.000000	 60.899925 
512.000000	 60.888338 
511.000000	 60.847353 
510.000000	 60.777354 
509.000000	 60.685491 
508.000000	 60.585212 
507.000000	 60.490107 
506.000000	 60.414123 
505.000000	 60.367941 
504.000000	 60.358095 
503.000000	 60.385966 
502.000000	 60.447764 
501.000000	 60.535502 
500.000000	 60.637235 
499.000000	 60.738801 
498.000000	 60.824656 
497.000000	 60.880279 
496.000000	 60.894203 
495.000000	 60.860562 
494.000000	 60.781073 
493.000000	 60.664486 
492.000000	 60.526108 
491.000000	 60.383009 
490.000000	 60.250806 
489.000000	 60.139107 
488.000000	 60.051727 
487.000000	 59.984779 
486.000000	 59.928631 
485.000000	 59.871482 
484.000000	 59.803962 
483.000000	 59.721422 
482.000000	 59.625530 
481.000000	 59.523248 
480.000000	 59.422469 
479.000000	 59.332251 
478.000000	 59.259152 
477.000000	 59.207653 
476.000000	 59.179401 
475.000000	 59.173226 
474.000000	 59.185194 
473.000000	 59.211802 
472.000000	 59.250402 
471.000000	 59.297680 
470.000000	 59.349012 
469.000000	 59.396910 
468.000000	 59.432172 
467.000000	 59.444451 
466.000000	 59.426760 
465.000000	 59.375119 
464.000000	 59.294152 
463.000000	 59.201407 
462.000000	 59.121608 
461.000000	 59.084486 
460.000000	 59.110784 
459.000000	 59.208011 
458.000000	 59.361267 
457.000000	 59.534692 
456.000000	 59.679126 
455.000000	 59.743094 
454.000000	 59.690833 
453.000000	 59.511446 
452.000000	 59.228920 
451.000000	 58.895540 
450.000000	 58.586502 
449.000000	 58.381152 
448.000000	 58.344364 
447.000000	 58.508396 
446.000000	 58.867263 
445.000000	 59.376406 
444.000000	 59.958291 
443.000000	 60.517954 
442.000000	 60.963845 
441.000000	 61.224460 
440.000000	 61.257815 
439.000000	 61.057710 
438.000000	 60.651254 
437.000000	 60.091114 
436.000000	 59.443831 
435.000000	 58.775281 
434.000000	 58.148074 
433.000000	 57.605314 
432.000000	 57.165408 
431.000000	 56.826686 
430.000000	 56.580114 
429.000000	 56.413841 
428.000000	 56.306982 
427.000000	 56.255054 
426.000000	 56.272673 
425.000000	 56.384634 
424.000000	 56.604528 
423.000000	 56.943082 
422.000000	 57.391691 
421.000000	 57.939505 
420.000000	 58.576321 
419.000000	 59.270000 
418.000000	 59.965753 
417.000000	 60.622096 
416.000000	 61.213278 
415.000000	 61.724829 
414.000000	 62.151980 
413.000000	 62.483692 
412.000000	 62.710905 
411.000000	 62.822198 
410.000000	 62.827181 
409.000000	 62.756609 
408.000000	 62.677359 
407.000000	 62.707853 
406.000000	 62.981963 
405.000000	 63.575506 
404.000000	 64.552474 
403.000000	 65.850353 
402.000000	 67.451667 
401.000000	 69.441008 
400.000000	 71.939039 
399.000000	 75.170660 
398.000000	 79.141426 
397.000000	 83.589982 
396.000000	 87.885117 
395.000000	 91.088747 
394.000000	 92.290377 
393.000000	 90.861177 
392.000000	 86.677646 
391.000000	 80.220341 
390.000000	 72.285032 
389.000000	 63.867545 
388.000000	 55.827403 
387.000000	 48.851227 
386.000000	 43.616652 
385.000000	 40.682744 
384.000000	 40.677213 
383.000000	 43.935704 
382.000000	 50.288987 
381.000000	 58.962106 
380.000000	 68.396973 
379.000000	 76.776313 
378.000000	 82.389783 
377.000000	 84.123611 
376.000000	 81.838488 
375.000000	 76.256155 
374.000000	 68.758630 
373.000000	 60.935521 
372.000000	 54.092144 
371.000000	 49.015855 
370.000000	 45.835685 

