PE IR       SPECTRUM    SPECTRUM    ASCII       PEDS        1.60        
  -1
C-996F~1.ASC
17/03/27
14:49:25.00
17/03/27
14:49:25.00
tln
$C-4040-8_t0004$<tbV0>[5.2,-13.0,8.0,0.0,27,1,0]
370.000000
64









2002,4.07    
MIRTGS : RIGHTBACK : INTERNAL 2
MIR : ON : INTERNAL 2
OPTKBR

0.200000
8
8.000000
FILLER
RATIO
SPECTRUM
UNLOCKED 256

DOUBLE
64
COMBINED
1
0
0


1.000000
RATIO


1
0
TRUE
51149
0
LEFT NOT FITTED RIGHT NOT FITTED 0
NONE
NONE
15600
12.000000
4.427000
51148
TRUE
1 0 8 72 0 0 0 0 

15798.010000






#HDR
-1
-1
#GR
CM-1
%T
0.00002384185791015625
0.0
5000.000000
-1.000000
4631
8
69.946670
-0.073742
#DATA
5000.000000	63.540673 
4999.000000	63.481044 
4998.000000	63.436794 
4997.000000	63.423514 
4996.000000	63.450241 
4995.000000	63.519716 
4994.000000	63.624000 
4993.000000	63.747262 
4992.000000	63.866734 
4991.000000	63.958621 
4990.000000	64.001727 
4989.000000	63.982367 
4988.000000	63.896846 
4987.000000	63.751959 
4986.000000	63.564229 
4985.000000	63.356709 
4984.000000	63.153743 
4983.000000	62.976241 
4982.000000	62.838387 
4981.000000	62.745976 
4980.000000	62.696075 
4979.000000	62.679767 
4978.000000	62.684440 
4977.000000	62.698411 
4976.000000	62.714624 
4975.000000	62.731957 
4974.000000	62.752366 
4973.000000	62.779712 
4972.000000	62.817025 
4971.000000	62.863206 
4970.000000	62.911438 
4969.000000	62.949705 
4968.000000	62.962460 
4967.000000	62.936019 
4966.000000	62.862610 
4965.000000	62.744569 
4964.000000	62.594819 
4963.000000	62.436342 
4962.000000	62.297391 
4961.000000	62.205410 
4960.000000	62.180209 
4959.000000	62.229967 
4958.000000	62.348914 
4957.000000	62.520194 
4956.000000	62.719535 
4955.000000	62.920951 
4954.000000	63.100886 
4953.000000	63.238620 
4952.000000	63.318419 
4951.000000	63.329744 
4950.000000	63.268399 
4949.000000	63.135004 
4948.000000	62.937211 
4947.000000	62.690925 
4946.000000	62.419223 
4945.000000	62.150740 
4944.000000	61.915826 
4943.000000	61.742687 
4942.000000	61.652398 
4941.000000	61.654734 
4940.000000	61.747288 
4939.000000	61.914610 
4938.000000	62.132835 
4937.000000	62.373280 
4936.000000	62.608027 
4935.000000	62.813568 
4934.000000	62.973690 
4933.000000	63.079214 
4932.000000	63.128924 
4931.000000	63.127398 
4930.000000	63.085436 
4929.000000	63.017463 
4928.000000	62.941408 
4927.000000	62.875795 
4926.000000	62.837457 
4925.000000	62.838530 
4924.000000	62.884116 
4923.000000	62.971568 
4922.000000	63.091850 
4921.000000	63.231897 
4920.000000	63.376712 
4919.000000	63.513183 
4918.000000	63.632345 
4917.000000	63.730716 
4916.000000	63.809442 
4915.000000	63.872718 
4914.000000	63.924574 
4913.000000	63.967919 
4912.000000	64.003968 
4911.000000	64.032483 
4910.000000	64.053416 
4909.000000	64.067339 
4908.000000	64.078092 
4907.000000	64.089441 
4906.000000	64.105296 
4905.000000	64.126014 
4904.000000	64.147877 
4903.000000	64.164566 
4902.000000	64.168953 
4901.000000	64.154911 
4900.000000	64.119195 
4899.000000	64.063501 
4898.000000	63.993692 
4897.000000	63.918566 
4896.000000	63.847160 
4895.000000	63.786482 
4894.000000	63.739275 
4893.000000	63.704085 
4892.000000	63.675498 
4891.000000	63.646507 
4890.000000	63.610625 
4889.000000	63.563704 
4888.000000	63.505887 
4887.000000	63.441228 
4886.000000	63.377833 
4885.000000	63.324141 
4884.000000	63.288688 
4883.000000	63.277721 
4882.000000	63.293719 
4881.000000	63.335061 
4880.000000	63.395094 
4879.000000	63.463735 
4878.000000	63.527989 
4877.000000	63.574671 
4876.000000	63.592386 
4875.000000	63.573789 
4874.000000	63.517355 
4873.000000	63.428139 
4872.000000	63.317036 
4871.000000	63.199067 
4870.000000	63.090896 
4869.000000	63.007283 
4868.000000	62.958073 
4867.000000	62.946748 
4866.000000	62.970018 
4865.000000	63.019919 
4864.000000	63.085508 
4863.000000	63.156628 
4862.000000	63.225483 
4861.000000	63.288354 
4860.000000	63.344573 
4859.000000	63.396072 
4858.000000	63.444089 
4857.000000	63.489246 
4856.000000	63.530349 
4855.000000	63.564801 
4854.000000	63.589811 
4853.000000	63.603091 
4852.000000	63.604688 
4851.000000	63.596606 
4850.000000	63.582944 
4849.000000	63.568401 
4848.000000	63.557338 
4847.000000	63.552355 
4846.000000	63.554215 
4845.000000	63.562345 
4844.000000	63.575482 
4843.000000	63.593101 
4842.000000	63.615083 
4841.000000	63.641953 
4840.000000	63.673567 
4839.000000	63.709020 
4838.000000	63.745284 
4837.000000	63.777446 
4836.000000	63.798689 
4835.000000	63.802790 
4834.000000	63.784050 
4833.000000	63.739752 
4832.000000	63.669824 
4831.000000	63.577580 
4830.000000	63.469099 
4829.000000	63.352823 
4828.000000	63.237476 
4827.000000	63.130760 
4826.000000	63.038229 
4825.000000	62.962913 
4824.000000	62.905406 
4823.000000	62.864494 
4822.000000	62.838077 
4821.000000	62.824153 
4820.000000	62.821197 
4819.000000	62.828373 
4818.000000	62.844824 
4817.000000	62.869453 
4816.000000	62.900114 
4815.000000	62.934184 
4814.000000	62.968492 
4813.000000	63.000345 
4812.000000	63.027858 
4811.000000	63.050532 
4810.000000	63.069558 
4809.000000	63.086485 
4808.000000	63.103222 
4807.000000	63.120055 
4806.000000	63.135361 
4805.000000	63.145589 
4804.000000	63.146018 
4803.000000	63.132953 
4802.000000	63.104867 
4801.000000	63.064551 
4800.000000	63.018679 
4799.000000	62.977099 
4798.000000	62.950396 
4797.000000	62.948036 
4796.000000	62.975883 
4795.000000	63.035368 
4794.000000	63.122797 
4793.000000	63.230538 
4792.000000	63.348317 
4791.000000	63.464760 
4790.000000	63.569045 
4789.000000	63.652276 
4788.000000	63.708615 
4787.000000	63.735651 
4786.000000	63.734555 
4785.000000	63.709807 
4784.000000	63.668155 
4783.000000	63.617801 
4782.000000	63.566541 
4781.000000	63.521599 
4780.000000	63.487124 
4779.000000	63.465070 
4778.000000	63.454127 
4777.000000	63.450980 
4776.000000	63.451290 
4775.000000	63.451290 
4774.000000	63.448286 
4773.000000	63.441443 
4772.000000	63.431191 
4771.000000	63.418459 
4770.000000	63.403749 
4769.000000	63.386607 
4768.000000	63.365721 
4767.000000	63.339567 
4766.000000	63.307094 
4765.000000	63.268637 
4764.000000	63.226509 
4763.000000	63.185024 
4762.000000	63.149142 
4761.000000	63.123583 
4760.000000	63.111972 
4759.000000	63.116192 
4758.000000	63.134932 
4757.000000	63.164925 
4756.000000	63.201737 
4755.000000	63.240599 
4754.000000	63.277339 
4753.000000	63.308906 
4752.000000	63.333129 
4751.000000	63.349246 
4750.000000	63.357019 
4749.000000	63.357257 
4748.000000	63.350844 
4747.000000	63.339519 
4746.000000	63.326072 
4745.000000	63.313126 
4744.000000	63.303089 
4743.000000	63.297200 
4742.000000	63.295531 
4741.000000	63.296031 
4740.000000	63.295102 
4739.000000	63.288378 
4738.000000	63.272118 
4737.000000	63.244009 
4736.000000	63.204073 
4735.000000	63.155293 
4734.000000	63.102817 
4733.000000	63.052821 
4732.000000	63.010978 
4731.000000	62.980890 
4730.000000	62.963604 
4729.000000	62.957239 
4728.000000	62.957954 
4727.000000	62.960720 
4726.000000	62.961602 
4725.000000	62.958312 
4724.000000	62.951683 
4723.000000	62.944245 
4722.000000	62.940669 
4721.000000	62.945795 
4720.000000	62.963962 
4719.000000	62.997269 
4718.000000	63.045358 
4717.000000	63.105273 
4716.000000	63.172340 
4715.000000	63.241291 
4714.000000	63.307237 
4713.000000	63.366532 
4712.000000	63.417291 
4711.000000	63.459324 
4710.000000	63.493752 
4709.000000	63.522005 
4708.000000	63.545632 
4707.000000	63.565087 
4706.000000	63.580060 
4705.000000	63.588881 
4704.000000	63.589692 
4703.000000	63.580060 
4702.000000	63.558149 
4701.000000	63.522839 
4700.000000	63.474678 
4699.000000	63.416123 
4698.000000	63.351273 
4697.000000	63.286137 
4696.000000	63.227343 
4695.000000	63.182067 
4694.000000	63.156485 
4693.000000	63.154840 
4692.000000	63.178443 
4691.000000	63.225126 
4690.000000	63.289237 
4689.000000	63.362693 
4688.000000	63.435912 
4687.000000	63.499712 
4686.000000	63.546848 
4685.000000	63.572978 
4684.000000	63.576841 
4683.000000	63.560199 
4682.000000	63.526868 
4681.000000	63.481473 
4680.000000	63.428211 
4679.000000	63.371038 
4678.000000	63.313055 
4677.000000	63.256931 
4676.000000	63.204789 
4675.000000	63.158941 
4674.000000	63.121294 
4673.000000	63.093304 
4672.000000	63.075685 
4671.000000	63.067841 
4670.000000	63.068485 
4669.000000	63.075065 
4668.000000	63.085269 
4667.000000	63.096737 
4666.000000	63.108444 
4665.000000	63.120436 
4664.000000	63.134098 
4663.000000	63.151121 
4662.000000	63.173031 
4661.000000	63.200283 
4660.000000	63.231730 
4659.000000	63.264298 
4658.000000	63.293790 
4657.000000	63.315701 
4656.000000	63.326430 
4655.000000	63.324022 
4654.000000	63.308596 
4653.000000	63.282036 
4652.000000	63.247370 
4651.000000	63.208079 
4650.000000	63.167166 
4649.000000	63.127112 
4648.000000	63.089299 
4647.000000	63.055014 
4646.000000	63.025641 
4645.000000	63.003277 
4644.000000	62.990427 
4643.000000	62.989711 
4642.000000	63.002896 
4641.000000	63.030195 
4640.000000	63.068962 
4639.000000	63.114881 
4638.000000	63.161969 
4637.000000	63.205051 
4636.000000	63.240647 
4635.000000	63.268327 
4634.000000	63.290643 
4633.000000	63.311839 
4632.000000	63.336253 
4631.000000	63.366460 
4630.000000	63.402152 
4629.000000	63.439917 
4628.000000	63.474130 
4627.000000	63.499140 
4626.000000	63.510370 
4625.000000	63.506245 
4624.000000	63.488101 
4623.000000	63.460230 
4622.000000	63.427972 
4621.000000	63.396286 
4620.000000	63.368463 
4619.000000	63.345289 
4618.000000	63.325715 
4617.000000	63.307642 
4616.000000	63.289475 
4615.000000	63.271188 
4614.000000	63.254761 
4613.000000	63.244104 
4612.000000	63.243365 
4611.000000	63.255357 
4610.000000	63.280677 
4609.000000	63.316655 
4608.000000	63.358139 
4607.000000	63.398432 
4606.000000	63.431406 
4605.000000	63.453054 
4604.000000	63.462495 
4603.000000	63.461995 
4602.000000	63.456416 
4601.000000	63.451623 
4600.000000	63.452672 
4599.000000	63.462185 
4598.000000	63.480043 
4597.000000	63.503193 
4596.000000	63.527107 
4595.000000	63.546466 
4594.000000	63.557815 
4593.000000	63.559198 
4592.000000	63.551020 
4591.000000	63.534522 
4590.000000	63.511109 
4589.000000	63.481807 
4588.000000	63.446450 
4587.000000	63.405203 
4586.000000	63.359212 
4585.000000	63.311576 
4584.000000	63.267421 
4583.000000	63.233351 
4582.000000	63.216018 
4581.000000	63.219976 
4580.000000	63.245940 
4579.000000	63.290739 
4578.000000	63.347554 
4577.000000	63.407635 
4576.000000	63.461947 
4575.000000	63.503217 
4574.000000	63.527250 
4573.000000	63.533139 
4572.000000	63.522958 
4571.000000	63.500475 
4570.000000	63.469815 
4569.000000	63.434624 
4568.000000	63.397026 
4567.000000	63.357973 
4566.000000	63.317227 
4565.000000	63.275194 
4564.000000	63.232231 
4563.000000	63.190293 
4562.000000	63.151049 
4561.000000	63.115835 
4560.000000	63.084673 
4559.000000	63.055658 
4558.000000	63.025593 
4557.000000	62.990522 
4556.000000	62.947416 
4555.000000	62.895250 
4554.000000	62.836503 
4553.000000	62.777018 
4552.000000	62.724876 
4551.000000	62.688469 
4550.000000	62.674760 
4549.000000	62.687325 
4548.000000	62.725448 
4547.000000	62.784409 
4546.000000	62.856030 
4545.000000	62.931203 
4544.000000	63.002538 
4543.000000	63.065242 
4542.000000	63.118124 
4541.000000	63.161993 
4540.000000	63.198184 
4539.000000	63.226723 
4538.000000	63.245987 
4537.000000	63.252329 
4536.000000	63.241457 
4535.000000	63.210034 
4534.000000	63.158798 
4533.000000	63.091874 
4532.000000	63.016581 
4531.000000	62.943172 
4530.000000	62.882161 
4529.000000	62.843847 
4528.000000	62.836122 
4527.000000	62.863588 
4526.000000	62.926363 
4525.000000	63.019347 
4524.000000	63.132667 
4523.000000	63.252305 
4522.000000	63.362312 
4521.000000	63.447618 
4520.000000	63.497161 
4519.000000	63.505840 
4518.000000	63.475847 
4517.000000	63.415288 
4516.000000	63.337063 
4515.000000	63.255834 
4514.000000	63.185906 
4513.000000	63.139224 
4512.000000	63.123273 
4511.000000	63.141107 
4510.000000	63.190531 
4509.000000	63.265252 
4508.000000	63.355922 
4507.000000	63.452029 
4506.000000	63.543772 
4505.000000	63.623785 
4504.000000	63.686847 
4503.000000	63.730072 
4502.000000	63.751530 
4501.000000	63.749861 
4500.000000	63.723778 
4499.000000	63.672733 
4498.000000	63.596749 
4497.000000	63.497495 
4496.000000	63.379979 
4495.000000	63.253045 
4494.000000	63.128995 
4493.000000	63.021707 
4492.000000	62.944555 
4491.000000	62.907147 
4490.000000	62.911105 
4489.000000	62.951397 
4488.000000	63.015341 
4487.000000	63.089227 
4486.000000	63.161873 
4485.000000	63.227391 
4484.000000	63.290095 
4483.000000	63.356685 
4482.000000	63.429427 
4481.000000	63.505196 
4480.000000	63.573670 
4479.000000	63.620305 
4478.000000	63.629198 
4477.000000	63.590931 
4476.000000	63.508558 
4475.000000	63.395857 
4474.000000	63.275527 
4473.000000	63.172006 
4472.000000	63.104701 
4471.000000	63.086771 
4470.000000	63.122892 
4469.000000	63.207602 
4468.000000	63.327479 
4467.000000	63.469362 
4466.000000	63.622999 
4465.000000	63.778114 
4464.000000	63.927578 
4463.000000	64.065074 
4462.000000	64.189577 
4461.000000	64.297771 
4460.000000	64.395475 
4459.000000	64.495754 
4458.000000	64.623785 
4457.000000	64.811062 
4456.000000	65.090513 
4455.000000	65.489149 
4454.000000	66.016602 
4453.000000	66.658854 
4452.000000	67.376232 
4451.000000	68.111801 
4450.000000	68.795800 
4449.000000	69.363427 
4448.000000	69.758224 
4447.000000	69.946670 
4446.000000	69.911789 
4445.000000	69.656682 
4444.000000	69.194769 
4443.000000	68.547439 
4442.000000	67.743277 
4441.000000	66.817808 
4440.000000	65.805959 
4439.000000	64.745759 
4438.000000	63.685464 
4437.000000	62.681245 
4436.000000	61.796069 
4435.000000	61.087703 
4434.000000	60.595035 
4433.000000	60.330271 
4432.000000	60.266470 
4431.000000	60.351324 
4430.000000	60.506415 
4429.000000	60.658669 
4428.000000	60.749530 
4427.000000	60.753393 
4426.000000	60.679173 
4425.000000	60.558271 
4424.000000	60.430598 
4423.000000	60.319399 
4422.000000	60.215926 
4421.000000	60.082912 
4420.000000	59.862279 
4419.000000	59.511542 
4418.000000	59.022021 
4417.000000	58.461046 
4416.000000	57.964420 
4415.000000	57.715654 
4414.000000	57.893061 
4413.000000	58.603143 
4412.000000	59.838128 
4411.000000	61.451506 
4410.000000	63.191604 
4409.000000	64.754652 
4408.000000	65.871334 
4407.000000	66.383886 
4406.000000	66.286444 
4405.000000	65.723347 
4404.000000	64.944934 
4403.000000	64.237761 
4402.000000	63.840103 
4401.000000	63.879823 
4400.000000	64.343595 
4399.000000	65.099787 
4398.000000	65.935587 
4397.000000	66.640615 
4396.000000	67.052769 
4395.000000	67.115044 
4394.000000	66.864228 
4393.000000	66.410326 
4392.000000	65.890502 
4391.000000	65.417218 
4390.000000	65.061068 
4389.000000	64.833664 
4388.000000	64.709639 
4387.000000	64.643406 
4386.000000	64.593148 
4385.000000	64.535760 
4384.000000	64.467310 
4383.000000	64.402151 
4382.000000	64.357471 
4381.000000	64.348006 
4380.000000	64.369654 
4379.000000	64.405798 
4378.000000	64.434552 
4377.000000	64.434814 
4376.000000	64.393115 
4375.000000	64.308357 
4374.000000	64.196515 
4373.000000	64.081144 
4372.000000	63.984298 
4371.000000	63.921260 
4370.000000	63.892602 
4369.000000	63.889098 
4368.000000	63.896870 
4367.000000	63.900303 
4366.000000	63.888859 
4365.000000	63.856530 
4364.000000	63.802433 
4363.000000	63.732695 
4362.000000	63.657855 
4361.000000	63.590073 
4360.000000	63.539552 
4359.000000	63.509774 
4358.000000	63.497519 
4357.000000	63.495612 
4356.000000	63.495326 
4355.000000	63.489437 
4354.000000	63.474416 
4353.000000	63.451671 
4352.000000	63.426423 
4351.000000	63.404703 
4350.000000	63.391733 
4349.000000	63.389158 
4348.000000	63.395357 
4347.000000	63.405585 
4346.000000	63.414216 
4345.000000	63.416814 
4344.000000	63.411831 
4343.000000	63.401341 
4342.000000	63.390088 
4341.000000	63.384318 
4340.000000	63.388681 
4339.000000	63.404369 
4338.000000	63.428258 
4337.000000	63.453578 
4336.000000	63.471031 
4335.000000	63.471364 
4334.000000	63.447952 
4333.000000	63.398909 
4332.000000	63.328027 
4331.000000	63.244199 
4330.000000	63.159656 
4329.000000	63.087415 
4328.000000	63.038253 
4327.000000	63.018465 
4326.000000	63.028788 
4325.000000	63.064050 
4324.000000	63.114452 
4323.000000	63.167667 
4322.000000	63.211274 
4321.000000	63.235974 
4320.000000	63.237094 
4319.000000	63.215780 
4318.000000	63.177585 
4317.000000	63.131570 
4316.000000	63.087296 
4315.000000	63.052773 
4314.000000	63.032722 
4313.000000	63.027811 
4312.000000	63.035416 
4311.000000	63.050699 
4310.000000	63.068604 
4309.000000	63.084721 
4308.000000	63.096594 
4307.000000	63.103532 
4306.000000	63.106417 
4305.000000	63.106584 
4304.000000	63.105106 
4303.000000	63.102436 
4302.000000	63.098120 
4301.000000	63.091611 
4300.000000	63.082218 
4299.000000	63.070273 
4298.000000	63.056492 
4297.000000	63.041973 
4296.000000	63.027238 
4295.000000	63.012099 
4294.000000	62.995362 
4293.000000	62.974882 
4292.000000	62.948608 
4291.000000	62.915158 
4290.000000	62.875032 
4289.000000	62.831282 
4288.000000	62.788963 
4287.000000	62.753915 
4286.000000	62.731504 
4285.000000	62.725043 
4284.000000	62.734961 
4283.000000	62.758421 
4282.000000	62.790632 
4281.000000	62.825989 
4280.000000	62.859797 
4279.000000	62.889432 
4278.000000	62.914466 
4277.000000	62.936282 
4276.000000	62.956762 
4275.000000	62.977123 
4274.000000	62.996983 
4273.000000	63.014197 
4272.000000	63.025379 
4271.000000	63.026905 
4270.000000	63.016510 
4269.000000	62.993907 
4268.000000	62.961959 
4267.000000	62.925553 
4266.000000	62.890768 
4265.000000	62.863302 
4264.000000	62.847161 
4263.000000	62.843585 
4262.000000	62.850594 
4261.000000	62.863802 
4260.000000	62.877798 
4259.000000	62.887382 
4258.000000	62.888765 
4257.000000	62.880635 
4256.000000	62.864208 
4255.000000	62.842798 
4254.000000	62.820553 
4253.000000	62.801623 
4252.000000	62.788796 
4251.000000	62.782955 
4250.000000	62.782645 
4249.000000	62.784624 
4248.000000	62.784695 
4247.000000	62.778997 
4246.000000	62.764906 
4245.000000	62.741613 
4244.000000	62.710642 
4243.000000	62.675404 
4242.000000	62.640905 
4241.000000	62.612199 
4240.000000	62.594056 
4239.000000	62.589645 
4238.000000	62.600326 
4237.000000	62.625241 
4236.000000	62.661600 
4235.000000	62.705087 
4234.000000	62.750840 
4233.000000	62.793993 
4232.000000	62.830805 
4231.000000	62.858939 
4230.000000	62.877964 
4229.000000	62.888979 
4228.000000	62.894225 
4227.000000	62.896394 
4226.000000	62.898087 
4225.000000	62.901258 
4224.000000	62.906575 
4223.000000	62.913465 
4222.000000	62.920498 
4221.000000	62.925815 
4220.000000	62.927746 
4219.000000	62.925004 
4218.000000	62.917232 
4217.000000	62.905097 
4216.000000	62.890148 
4215.000000	62.874364 
4214.000000	62.859582 
4213.000000	62.847161 
4212.000000	62.838554 
4211.000000	62.834072 
4210.000000	62.833213 
4209.000000	62.834501 
4208.000000	62.835955 
4207.000000	62.835359 
4206.000000	62.830376 
4205.000000	62.820148 
4204.000000	62.805366 
4203.000000	62.788701 
4202.000000	62.774062 
4201.000000	62.766361 
4200.000000	62.770032 
4199.000000	62.788248 
4198.000000	62.821578 
4197.000000	62.867546 
4196.000000	62.920784 
4195.000000	62.974452 
4194.000000	63.021183 
4193.000000	63.054990 
4192.000000	63.071632 
4191.000000	63.069939 
4190.000000	63.050317 
4189.000000	63.014841 
4188.000000	62.965106 
4187.000000	62.902474 
4186.000000	62.827205 
4185.000000	62.740015 
4184.000000	62.641716 
4183.000000	62.535309 
4182.000000	62.425088 
4181.000000	62.316823 
4180.000000	62.216925 
4179.000000	62.130832 
4178.000000	62.062954 
4177.000000	62.015295 
4176.000000	61.988472 
4175.000000	61.981511 
4174.000000	61.993741 
4173.000000	62.024855 
4172.000000	62.075424 
4171.000000	62.145948 
4170.000000	62.235713 
4169.000000	62.341547 
4168.000000	62.456989 
4167.000000	62.572383 
4166.000000	62.676191 
4165.000000	62.756633 
4164.000000	62.804675 
4163.000000	62.815403 
4162.000000	62.789320 
4161.000000	62.731957 
4160.000000	62.653374 
4159.000000	62.565493 
4158.000000	62.480139 
4157.000000	62.406706 
4156.000000	62.351799 
4155.000000	62.318086 
4154.000000	62.305092 
4153.000000	62.310123 
4152.000000	62.329745 
4151.000000	62.360239 
4150.000000	62.398028 
4149.000000	62.440323 
4148.000000	62.484502 
4147.000000	62.528872 
4146.000000	62.571978 
4145.000000	62.612915 
4144.000000	62.651157 
4143.000000	62.685990 
4142.000000	62.716484 
4141.000000	62.741351 
4140.000000	62.759232 
4139.000000	62.769794 
4138.000000	62.773728 
4137.000000	62.773323 
4136.000000	62.771558 
4135.000000	62.772345 
4134.000000	62.778472 
4133.000000	62.791442 
4132.000000	62.810111 
4131.000000	62.831807 
4130.000000	62.851762 
4129.000000	62.865066 
4128.000000	62.866973 
4127.000000	62.854337 
4126.000000	62.826347 
4125.000000	62.785029 
4124.000000	62.734460 
4123.000000	62.679886 
4122.000000	62.627005 
4121.000000	62.580704 
4120.000000	62.544798 
4119.000000	62.521362 
4118.000000	62.510657 
4117.000000	62.511587 
4116.000000	62.522077 
4115.000000	62.539649 
4114.000000	62.561535 
4113.000000	62.585234 
4112.000000	62.608766 
4111.000000	62.630724 
4110.000000	62.650179 
4109.000000	62.666487 
4108.000000	62.679314 
4107.000000	62.688231 
4106.000000	62.692666 
4105.000000	62.691807 
4104.000000	62.684917 
4103.000000	62.671709 
4102.000000	62.652492 
4101.000000	62.628793 
4100.000000	62.603521 
4099.000000	62.580680 
4098.000000	62.564635 
4097.000000	62.559175 
4096.000000	62.566542 
4095.000000	62.586593 
4094.000000	62.616848 
4093.000000	62.652730 
4092.000000	62.688660 
4091.000000	62.719464 
4090.000000	62.741494 
4089.000000	62.753272 
4088.000000	62.755560 
4087.000000	62.751173 
4086.000000	62.743926 
4085.000000	62.737417 
4084.000000	62.733745 
4083.000000	62.733387 
4082.000000	62.734389 
4081.000000	62.733912 
4080.000000	62.728071 
4079.000000	62.713503 
4078.000000	62.687969 
4077.000000	62.651133 
4076.000000	62.604737 
4075.000000	62.552118 
4074.000000	62.498021 
4073.000000	62.447381 
4072.000000	62.405133 
4071.000000	62.375092 
4070.000000	62.359356 
4069.000000	62.358069 
4068.000000	62.369632 
4067.000000	62.391233 
4066.000000	62.419748 
4065.000000	62.452459 
4064.000000	62.487840 
4063.000000	62.525463 
4062.000000	62.565922 
4061.000000	62.609744 
4060.000000	62.656855 
4059.000000	62.705254 
4058.000000	62.751388 
4057.000000	62.789678 
4056.000000	62.814164 
4055.000000	62.819147 
4054.000000	62.800955 
4053.000000	62.758898 
4052.000000	62.696170 
4051.000000	62.619566 
4050.000000	62.538075 
4049.000000	62.461686 
4048.000000	62.399506 
4047.000000	62.358236 
4046.000000	62.340903 
4045.000000	62.346863 
4044.000000	62.372398 
4043.000000	62.411618 
4042.000000	62.457752 
4041.000000	62.504959 
4040.000000	62.549018 
4039.000000	62.587928 
4038.000000	62.621498 
4037.000000	62.650799 
4036.000000	62.677097 
4035.000000	62.701225 
4034.000000	62.722778 
4033.000000	62.740302 
4032.000000	62.751460 
4031.000000	62.754106 
4030.000000	62.746930 
4029.000000	62.730312 
4028.000000	62.706017 
4027.000000	62.677574 
4026.000000	62.648725 
4025.000000	62.623143 
4024.000000	62.603306 
4023.000000	62.590098 
4022.000000	62.583041 
4021.000000	62.580513 
4020.000000	62.580633 
4019.000000	62.581682 
4018.000000	62.583208 
4017.000000	62.585902 
4016.000000	62.591433 
4015.000000	62.601757 
4014.000000	62.618255 
4013.000000	62.640833 
4012.000000	62.667989 
4011.000000	62.696862 
4010.000000	62.723517 
4009.000000	62.743926 
4008.000000	62.755179 
4007.000000	62.756419 
4006.000000	62.748837 
4005.000000	62.735414 
4004.000000	62.720489 
4003.000000	62.708330 
4002.000000	62.702465 
4001.000000	62.704253 
4000.000000	62.712764 
3999.000000	62.724852 
3998.000000	62.736344 
3997.000000	62.742829 
3996.000000	62.740969 
3995.000000	62.729287 
3994.000000	62.708640 
3993.000000	62.681770 
3992.000000	62.652468 
3991.000000	62.624096 
3990.000000	62.598896 
3989.000000	62.577199 
3988.000000	62.557625 
3987.000000	62.537240 
3986.000000	62.512707 
3985.000000	62.481284 
3984.000000	62.441825 
3983.000000	62.395000 
3982.000000	62.343382 
3981.000000	62.290930 
3980.000000	62.242245 
3979.000000	62.201356 
3978.000000	62.171506 
3977.000000	62.154340 
3976.000000	62.150526 
3975.000000	62.159442 
3974.000000	62.180256 
3973.000000	62.211942 
3972.000000	62.253618 
3971.000000	62.304234 
3970.000000	62.362313 
3969.000000	62.425303 
3968.000000	62.489295 
3967.000000	62.549352 
3966.000000	62.599492 
3965.000000	62.633943 
3964.000000	62.648129 
3963.000000	62.639927 
3962.000000	62.610125 
3961.000000	62.562537 
3960.000000	62.503600 
3959.000000	62.441658 
3958.000000	62.385129 
3957.000000	62.341070 
3956.000000	62.314248 
3955.000000	62.306571 
3954.000000	62.317085 
3953.000000	62.342548 
3952.000000	62.378311 
3951.000000	62.419295 
3950.000000	62.460732 
3949.000000	62.498950 
3948.000000	62.531280 
3947.000000	62.556099 
3946.000000	62.572503 
3945.000000	62.580084 
3944.000000	62.578988 
3943.000000	62.569594 
3942.000000	62.552976 
3941.000000	62.530636 
3940.000000	62.504792 
3939.000000	62.478327 
3938.000000	62.454700 
3937.000000	62.437438 
3936.000000	62.429499 
3935.000000	62.433075 
3934.000000	62.448883 
3933.000000	62.476038 
3932.000000	62.512135 
3931.000000	62.553429 
3930.000000	62.595081 
3929.000000	62.632083 
3928.000000	62.659740 
3927.000000	62.673878 
3926.000000	62.671422 
3925.000000	62.651181 
3924.000000	62.614035 
3923.000000	62.563133 
3922.000000	62.503600 
3921.000000	62.441992 
3920.000000	62.385153 
3919.000000	62.339663 
3918.000000	62.310099 
3917.000000	62.298274 
3916.000000	62.302994 
3915.000000	62.320756 
3914.000000	62.346458 
3913.000000	62.374043 
3912.000000	62.398910 
3911.000000	62.418365 
3910.000000	62.432575 
3909.000000	62.443542 
3908.000000	62.454628 
3907.000000	62.468862 
3906.000000	62.488389 
3905.000000	62.513589 
3904.000000	62.542867 
3903.000000	62.573170 
3902.000000	62.601184 
3901.000000	62.624168 
3900.000000	62.640404 
3899.000000	62.649393 
3898.000000	62.651538 
3897.000000	62.647771 
3896.000000	62.639331 
3895.000000	62.626934 
3894.000000	62.611246 
3893.000000	62.592196 
3892.000000	62.569785 
3891.000000	62.543416 
3890.000000	62.513208 
3889.000000	62.478852 
3888.000000	62.439942 
3887.000000	62.396264 
3886.000000	62.347698 
3885.000000	62.295413 
3884.000000	62.241411 
3883.000000	62.189912 
3882.000000	62.146019 
3881.000000	62.116241 
3880.000000	62.106871 
3879.000000	62.122559 
3878.000000	62.164711 
3877.000000	62.230730 
3876.000000	62.313866 
3875.000000	62.403964 
3874.000000	62.489151 
3873.000000	62.557792 
3872.000000	62.600851 
3871.000000	62.613391 
3870.000000	62.595534 
3869.000000	62.551665 
3868.000000	62.489819 
3867.000000	62.419676 
3866.000000	62.350797 
3865.000000	62.291336 
3864.000000	62.246680 
3863.000000	62.219953 
3862.000000	62.211275 
3861.000000	62.219285 
3860.000000	62.240886 
3859.000000	62.272214 
3858.000000	62.308955 
3857.000000	62.346458 
3856.000000	62.380433 
3855.000000	62.406659 
3854.000000	62.422323 
3853.000000	62.426066 
3852.000000	62.418794 
3851.000000	62.403416 
3850.000000	62.384319 
3849.000000	62.366199 
3848.000000	62.353467 
3847.000000	62.349200 
3846.000000	62.354898 
3845.000000	62.370085 
3844.000000	62.392616 
3843.000000	62.418913 
3842.000000	62.444949 
3841.000000	62.466478 
3840.000000	62.479782 
3839.000000	62.482142 
3838.000000	62.472391 
3837.000000	62.450718 
3836.000000	62.419176 
3835.000000	62.380242 
3834.000000	62.336587 
3833.000000	62.289977 
3832.000000	62.241673 
3831.000000	62.191915 
3830.000000	62.140393 
3829.000000	62.087082 
3828.000000	62.032699 
3827.000000	61.979818 
3826.000000	61.932659 
3825.000000	61.896538 
3824.000000	61.876440 
3823.000000	61.875891 
3822.000000	61.895823 
3821.000000	61.933612 
3820.000000	61.983537 
3819.000000	62.038254 
3818.000000	62.090611 
3817.000000	62.135148 
3816.000000	62.169408 
3815.000000	62.194061 
3814.000000	62.212395 
3813.000000	62.228631 
3812.000000	62.246656 
3811.000000	62.268924 
3810.000000	62.295532 
3809.000000	62.324595 
3808.000000	62.352514 
3807.000000	62.375736 
3806.000000	62.391090 
3805.000000	62.397408 
3804.000000	62.394976 
3803.000000	62.385487 
3802.000000	62.371349 
3801.000000	62.355256 
3800.000000	62.339162 
3799.000000	62.323856 
3798.000000	62.309217 
3797.000000	62.294769 
3796.000000	62.279701 
3795.000000	62.263298 
3794.000000	62.245440 
3793.000000	62.226390 
3792.000000	62.207055 
3791.000000	62.188434 
3790.000000	62.171387 
3789.000000	62.156200 
3788.000000	62.142658 
3787.000000	62.129855 
3786.000000	62.116098 
3785.000000	62.099432 
3784.000000	62.078022 
3783.000000	62.050986 
3782.000000	62.018179 
3781.000000	61.981272 
3780.000000	61.943030 
3779.000000	61.907887 
3778.000000	61.880588 
3777.000000	61.865854 
3776.000000	61.867094 
3775.000000	61.885929 
3774.000000	61.921477 
3773.000000	61.970400 
3772.000000	62.027430 
3771.000000	62.086200 
3770.000000	62.140226 
3769.000000	62.183928 
3768.000000	62.213373 
3767.000000	62.226724 
3766.000000	62.224292 
3765.000000	62.208080 
3764.000000	62.181568 
3763.000000	62.148737 
3762.000000	62.113523 
3761.000000	62.079620 
3760.000000	62.050127 
3759.000000	62.027406 
3758.000000	62.013053 
3757.000000	62.007761 
3756.000000	62.011766 
3755.000000	62.024331 
3754.000000	62.044596 
3753.000000	62.071084 
3752.000000	62.102198 
3751.000000	62.136054 
3750.000000	62.170720 
3749.000000	62.204051 
3748.000000	62.234044 
3747.000000	62.259078 
3746.000000	62.277817 
3745.000000	62.289476 
3744.000000	62.293839 
3743.000000	62.291431 
3742.000000	62.283015 
3741.000000	62.269401 
3740.000000	62.250947 
3739.000000	62.227368 
3738.000000	62.197446 
3737.000000	62.159490 
3736.000000	62.111902 
3735.000000	62.054061 
3734.000000	61.987066 
3733.000000	61.914157 
3732.000000	61.840701 
3731.000000	61.773085 
3730.000000	61.717653 
3729.000000	61.679196 
3728.000000	61.659383 
3727.000000	61.657309 
3726.000000	61.668920 
3725.000000	61.689186 
3724.000000	61.712479 
3723.000000	61.734962 
3722.000000	61.754941 
3721.000000	61.773371 
3720.000000	61.792635 
3719.000000	61.815929 
3718.000000	61.845326 
3717.000000	61.880993 
3716.000000	61.920642 
3715.000000	61.960124 
3714.000000	61.994647 
3713.000000	62.020373 
3712.000000	62.035298 
3711.000000	62.040162 
3710.000000	62.037754 
3709.000000	62.032556 
3708.000000	62.028861 
3707.000000	62.029314 
3706.000000	62.033987 
3705.000000	62.040686 
3704.000000	62.045240 
3703.000000	62.042975 
3702.000000	62.030029 
3701.000000	62.004947 
3700.000000	61.969184 
3699.000000	61.926960 
3698.000000	61.884593 
3697.000000	61.848616 
3696.000000	61.824774 
3695.000000	61.816620 
3694.000000	61.824893 
3693.000000	61.847305 
3692.000000	61.879467 
3691.000000	61.915826 
3690.000000	61.950755 
3689.000000	61.979460 
3688.000000	61.998891 
3687.000000	62.008142 
3686.000000	62.008070 
3685.000000	62.000775 
3684.000000	61.989307 
3683.000000	61.976885 
3682.000000	61.966490 
3681.000000	61.960053 
3680.000000	61.958813 
3679.000000	61.962437 
3678.000000	61.969780 
3677.000000	61.978483 
3676.000000	61.985611 
3675.000000	61.988091 
3674.000000	61.982965 
3673.000000	61.968278 
3672.000000	61.943364 
3671.000000	61.909365 
3670.000000	61.868739 
3669.000000	61.825346 
3668.000000	61.783647 
3667.000000	61.748170 
3666.000000	61.722397 
3665.000000	61.708140 
3664.000000	61.704969 
3663.000000	61.710572 
3662.000000	61.721467 
3661.000000	61.733913 
3660.000000	61.744832 
3659.000000	61.752581 
3658.000000	61.757206 
3657.000000	61.760497 
3656.000000	61.765003 
3655.000000	61.773300 
3654.000000	61.786389 
3653.000000	61.803460 
3652.000000	61.821508 
3651.000000	61.836051 
3650.000000	61.841797 
3649.000000	61.834335 
3648.000000	61.810636 
3647.000000	61.770391 
3646.000000	61.715745 
3645.000000	61.650681 
3644.000000	61.580657 
3643.000000	61.511182 
3642.000000	61.447834 
3641.000000	61.395168 
3640.000000	61.357092 
3639.000000	61.336135 
3638.000000	61.333489 
3637.000000	61.348962 
3636.000000	61.380505 
3635.000000	61.424279 
3634.000000	61.475014 
3633.000000	61.526274 
3632.000000	61.571621 
3631.000000	61.605429 
3630.000000	61.624145 
3629.000000	61.626625 
3628.000000	61.614418 
3627.000000	61.591148 
3626.000000	61.561775 
3625.000000	61.531090 
3624.000000	61.503338 
3623.000000	61.481261 
3622.000000	61.466145 
3621.000000	61.457681 
3620.000000	61.455321 
3619.000000	61.457800 
3618.000000	61.463904 
3617.000000	61.472082 
3616.000000	61.480665 
3615.000000	61.487650 
3614.000000	61.490535 
3613.000000	61.486816 
3612.000000	61.474514 
3611.000000	61.452698 
3610.000000	61.421704 
3609.000000	61.383485 
3608.000000	61.341476 
3607.000000	61.300015 
3606.000000	61.263394 
3605.000000	61.235070 
3604.000000	61.217093 
3603.000000	61.209869 
3602.000000	61.212611 
3601.000000	61.223506 
3600.000000	61.240506 
3599.000000	61.261987 
3598.000000	61.287403 
3597.000000	61.316585 
3596.000000	61.349797 
3595.000000	61.387014 
3594.000000	61.427450 
3593.000000	61.469268 
3592.000000	61.509799 
3591.000000	61.545586 
3590.000000	61.573386 
3589.000000	61.590957 
3588.000000	61.597442 
3587.000000	61.593627 
3586.000000	61.581563 
3585.000000	61.564421 
3584.000000	61.545300 
3583.000000	61.526703 
3582.000000	61.509943 
3581.000000	61.495208 
3580.000000	61.481738 
3579.000000	61.468434 
3578.000000	61.454272 
3577.000000	61.439061 
3576.000000	61.423158 
3575.000000	61.407518 
3574.000000	61.393213 
3573.000000	61.381101 
3572.000000	61.371469 
3571.000000	61.363911 
3570.000000	61.357188 
3569.000000	61.349844 
3568.000000	61.340308 
3567.000000	61.327648 
3566.000000	61.311531 
3565.000000	61.292600 
3564.000000	61.272382 
3563.000000	61.253190 
3562.000000	61.237359 
3561.000000	61.227083 
3560.000000	61.224102 
3559.000000	61.229157 
3558.000000	61.241602 
3557.000000	61.259627 
3556.000000	61.280608 
3555.000000	61.301350 
3554.000000	61.318564 
3553.000000	61.329793 
3552.000000	61.333465 
3551.000000	61.329507 
3550.000000	61.319088 
3549.000000	61.304187 
3548.000000	61.287212 
3547.000000	61.270093 
3546.000000	61.254382 
3545.000000	61.240983 
3544.000000	61.230325 
3543.000000	61.222577 
3542.000000	61.218023 
3541.000000	61.217403 
3540.000000	61.221551 
3539.000000	61.231398 
3538.000000	61.247229 
3537.000000	61.268091 
3536.000000	61.291766 
3535.000000	61.314916 
3534.000000	61.333441 
3533.000000	61.343145 
3532.000000	61.340975 
3531.000000	61.325740 
3530.000000	61.298441 
3529.000000	61.262202 
3528.000000	61.221623 
3527.000000	61.181759 
3526.000000	61.147189 
3525.000000	61.121058 
3524.000000	61.104273 
3523.000000	61.095738 
3522.000000	61.092615 
3521.000000	61.091208 
3520.000000	61.087751 
3519.000000	61.079406 
3518.000000	61.064505 
3517.000000	61.043238 
3516.000000	61.016964 
3515.000000	60.988450 
3514.000000	60.960650 
3513.000000	60.936808 
3512.000000	60.919618 
3511.000000	60.911202 
3510.000000	60.912942 
3509.000000	60.925173 
3508.000000	60.947275 
3507.000000	60.977363 
3506.000000	61.012601 
3505.000000	61.049103 
3504.000000	61.082410 
3503.000000	61.107969 
3502.000000	61.121797 
3501.000000	61.121320 
3500.000000	61.105847 
3499.000000	61.076807 
3498.000000	61.037707 
3497.000000	60.993552 
3496.000000	60.950160 
3495.000000	60.912847 
3494.000000	60.885810 
3493.000000	60.871410 
3492.000000	60.870218 
3491.000000	60.881257 
3490.000000	60.902500 
3489.000000	60.931348 
3488.000000	60.965132 
3487.000000	61.001253 
3486.000000	61.037349 
3485.000000	61.071085 
3484.000000	61.100244 
3483.000000	61.122608 
3482.000000	61.136317 
3481.000000	61.140298 
3480.000000	61.134481 
3479.000000	61.120009 
3478.000000	61.099219 
3477.000000	61.075353 
3476.000000	61.051702 
3475.000000	61.031365 
3474.000000	61.016297 
3473.000000	61.006927 
3472.000000	61.002492 
3471.000000	61.001348 
3470.000000	61.001276 
3469.000000	61.000084 
3468.000000	60.995745 
3467.000000	60.986733 
3466.000000	60.972166 
3465.000000	60.952043 
3464.000000	60.927057 
3463.000000	60.898923 
3462.000000	60.869979 
3461.000000	60.843062 
3460.000000	60.821270 
3459.000000	60.807132 
3458.000000	60.802388 
3457.000000	60.807180 
3456.000000	60.820484 
3455.000000	60.839891 
3454.000000	60.862016 
3453.000000	60.883069 
3452.000000	60.899710 
3451.000000	60.909366 
3450.000000	60.910654 
3449.000000	60.903358 
3448.000000	60.888290 
3447.000000	60.867094 
3446.000000	60.841941 
3445.000000	60.815358 
3444.000000	60.789990 
3443.000000	60.768532 
3442.000000	60.753512 
3441.000000	60.746645 
3440.000000	60.748291 
3439.000000	60.757541 
3438.000000	60.771799 
3437.000000	60.787200 
3436.000000	60.799169 
3435.000000	60.803222 
3434.000000	60.796070 
3433.000000	60.776162 
3432.000000	60.744142 
3431.000000	60.702729 
3430.000000	60.656404 
3429.000000	60.610389 
3428.000000	60.569596 
3427.000000	60.537838 
3426.000000	60.517001 
3425.000000	60.507178 
3424.000000	60.506772 
3423.000000	60.513043 
3422.000000	60.523056 
3421.000000	60.534334 
3420.000000	60.545420 
3419.000000	60.555791 
3418.000000	60.565996 
3417.000000	60.576915 
3416.000000	60.589599 
3415.000000	60.604429 
3414.000000	60.620713 
3413.000000	60.636734 
3412.000000	60.650181 
3411.000000	60.658574 
3410.000000	60.659837 
3409.000000	60.652709 
3408.000000	60.637378 
3407.000000	60.615253 
3406.000000	60.588645 
3405.000000	60.560154 
3404.000000	60.532021 
3403.000000	60.505938 
3402.000000	60.482788 
3401.000000	60.462689 
3400.000000	60.445261 
3399.000000	60.430049 
3398.000000	60.416603 
3397.000000	60.405087 
3396.000000	60.396146 
3395.000000	60.390758 
3394.000000	60.389876 
3393.000000	60.394239 
3392.000000	60.403776 
3391.000000	60.417771 
3390.000000	60.434699 
3389.000000	60.452675 
3388.000000	60.469627 
3387.000000	60.484075 
3386.000000	60.495424 
3385.000000	60.504126 
3384.000000	60.511326 
3383.000000	60.518789 
3382.000000	60.527825 
3381.000000	60.539221 
3380.000000	60.552144 
3379.000000	60.564398 
3378.000000	60.572743 
3377.000000	60.573673 
3376.000000	60.564422 
3375.000000	60.543727 
3374.000000	60.512638 
3373.000000	60.474562 
3372.000000	60.434269 
3371.000000	60.397148 
3370.000000	60.367608 
3369.000000	60.348415 
3368.000000	60.339713 
3367.000000	60.339212 
3366.000000	60.343003 
3365.000000	60.346603 
3364.000000	60.346245 
3363.000000	60.339856 
3362.000000	60.327506 
3361.000000	60.311102 
3360.000000	60.293936 
3359.000000	60.279488 
3358.000000	60.270452 
3357.000000	60.267949 
3356.000000	60.271620 
3355.000000	60.279798 
3354.000000	60.290026 
3353.000000	60.299777 
3352.000000	60.307073 
3351.000000	60.310864 
3350.000000	60.310983 
3349.000000	60.307979 
3348.000000	60.302567 
3347.000000	60.295486 
3346.000000	60.287308 
3345.000000	60.278463 
3344.000000	60.269379 
3343.000000	60.260510 
3342.000000	60.252737 
3341.000000	60.247015 
3340.000000	60.244226 
3339.000000	60.244894 
3338.000000	60.249018 
3337.000000	60.255861 
3336.000000	60.263872 
3335.000000	60.271167 
3334.000000	60.275697 
3333.000000	60.275483 
3332.000000	60.269069 
3331.000000	60.255694 
3330.000000	60.235571 
3329.000000	60.209655 
3328.000000	60.179924 
3327.000000	60.148835 
3326.000000	60.119199 
3325.000000	60.093736 
3324.000000	60.074663 
3323.000000	60.063314 
3322.000000	60.060119 
3321.000000	60.064387 
3320.000000	60.074472 
3319.000000	60.087919 
3318.000000	60.101914 
3317.000000	60.113930 
3316.000000	60.121989 
3315.000000	60.124754 
3314.000000	60.121846 
3313.000000	60.113668 
3312.000000	60.101342 
3311.000000	60.086393 
3310.000000	60.070753 
3309.000000	60.056376 
3308.000000	60.045146 
3307.000000	60.038757 
3306.000000	60.038018 
3305.000000	60.042905 
3304.000000	60.052537 
3303.000000	60.065102 
3302.000000	60.078191 
3301.000000	60.089278 
3300.000000	60.096287 
3299.000000	60.097765 
3298.000000	60.093307 
3297.000000	60.083389 
3296.000000	60.069322 
3295.000000	60.052704 
3294.000000	60.034847 
3293.000000	60.016584 
3292.000000	59.998321 
3291.000000	59.979867 
3290.000000	59.960985 
3289.000000	59.941673 
3288.000000	59.922409 
3287.000000	59.904670 
3286.000000	59.890413 
3285.000000	59.881949 
3284.000000	59.881234 
3283.000000	59.889245 
3282.000000	59.905838 
3281.000000	59.929394 
3280.000000	59.957122 
3279.000000	59.985423 
3278.000000	60.010480 
3277.000000	60.029196 
3276.000000	60.039472 
3275.000000	60.040760 
3274.000000	60.033822 
3273.000000	60.020542 
3272.000000	60.003232 
3271.000000	59.984254 
3270.000000	59.965229 
3269.000000	59.947228 
3268.000000	59.930324 
3267.000000	59.914207 
3266.000000	59.898257 
3265.000000	59.882116 
3264.000000	59.865736 
3263.000000	59.849262 
3262.000000	59.833025 
3261.000000	59.817481 
3260.000000	59.803032 
3259.000000	59.789943 
3258.000000	59.778642 
3257.000000	59.769487 
3256.000000	59.763026 
3255.000000	59.759640 
3254.000000	59.759664 
3253.000000	59.763121 
3252.000000	59.769201 
3251.000000	59.776449 
3250.000000	59.782505 
3249.000000	59.784793 
3248.000000	59.780883 
3247.000000	59.769010 
3246.000000	59.748744 
3245.000000	59.721255 
3244.000000	59.689068 
3243.000000	59.656167 
3242.000000	59.626865 
3241.000000	59.605455 
3240.000000	59.594964 
3239.000000	59.596824 
3238.000000	59.610581 
3237.000000	59.633994 
3236.000000	59.663462 
3235.000000	59.694504 
3234.000000	59.722733 
3233.000000	59.744524 
3232.000000	59.757661 
3231.000000	59.761762 
3230.000000	59.757947 
3229.000000	59.748554 
3228.000000	59.736657 
3227.000000	59.725451 
3226.000000	59.717464 
3225.000000	59.714293 
3224.000000	59.716105 
3223.000000	59.722137 
3222.000000	59.730958 
3221.000000	59.740757 
3220.000000	59.750080 
3219.000000	59.758138 
3218.000000	59.764957 
3217.000000	59.771537 
3216.000000	59.779143 
3215.000000	59.788990 
3214.000000	59.801292 
3213.000000	59.815120 
3212.000000	59.828090 
3211.000000	59.836912 
3210.000000	59.837889 
3209.000000	59.828114 
3208.000000	59.805870 
3207.000000	59.771609 
3206.000000	59.727764 
3205.000000	59.678602 
3204.000000	59.629201 
3203.000000	59.584283 
3202.000000	59.547948 
3201.000000	59.522938 
3200.000000	59.510397 
3199.000000	59.509897 
3198.000000	59.520149 
3197.000000	59.539270 
3196.000000	59.565067 
3195.000000	59.595227 
3194.000000	59.626889 
3193.000000	59.657120 
3192.000000	59.682559 
3191.000000	59.699916 
3190.000000	59.706544 
3189.000000	59.700846 
3188.000000	59.682941 
3187.000000	59.654426 
3186.000000	59.618520 
3185.000000	59.578967 
3184.000000	59.539818 
3183.000000	59.504103 
3182.000000	59.473514 
3181.000000	59.448170 
3180.000000	59.426927 
3179.000000	59.407734 
3178.000000	59.388422 
3177.000000	59.367489 
3176.000000	59.344339 
3175.000000	59.319758 
3174.000000	59.295392 
3173.000000	59.273552 
3172.000000	59.256696 
3171.000000	59.246611 
3170.000000	59.244155 
3169.000000	59.249305 
3168.000000	59.261012 
3167.000000	59.277629 
3166.000000	59.297037 
3165.000000	59.316968 
3164.000000	59.335327 
3163.000000	59.350514 
3162.000000	59.361410 
3161.000000	59.367251 
3160.000000	59.368109 
3159.000000	59.364438 
3158.000000	59.357404 
3157.000000	59.348678 
3156.000000	59.340119 
3155.000000	59.333562 
3154.000000	59.330344 
3153.000000	59.331536 
3152.000000	59.337019 
3151.000000	59.345674 
3150.000000	59.355735 
3149.000000	59.365177 
3148.000000	59.372162 
3147.000000	59.375452 
3146.000000	59.374833 
3145.000000	59.371137 
3144.000000	59.365940 
3143.000000	59.360861 
3142.000000	59.357142 
3141.000000	59.355020 
3140.000000	59.353733 
3139.000000	59.351277 
3138.000000	59.345245 
3137.000000	59.333443 
3136.000000	59.314560 
3135.000000	59.288835 
3134.000000	59.258079 
3133.000000	59.225463 
3132.000000	59.194874 
3131.000000	59.169983 
3130.000000	59.153437 
3129.000000	59.146451 
3128.000000	59.148478 
3127.000000	59.157705 
3126.000000	59.171223 
3125.000000	59.186291 
3124.000000	59.200859 
3123.000000	59.213900 
3122.000000	59.225344 
3121.000000	59.235692 
3120.000000	59.245467 
3119.000000	59.254646 
3118.000000	59.262204 
3117.000000	59.266400 
3116.000000	59.265041 
3115.000000	59.256196 
3114.000000	59.238767 
3113.000000	59.213137 
3112.000000	59.181332 
3111.000000	59.146809 
3110.000000	59.113860 
3109.000000	59.086871 
3108.000000	59.069442 
3107.000000	59.063935 
3106.000000	59.070754 
3105.000000	59.088349 
3104.000000	59.113454 
3103.000000	59.141731 
3102.000000	59.168171 
3101.000000	59.187865 
3100.000000	59.196829 
3099.000000	59.192490 
3098.000000	59.174156 
3097.000000	59.142971 
3096.000000	59.101772 
3095.000000	59.054636 
3094.000000	59.006237 
3093.000000	58.960938 
3092.000000	58.922171 
3091.000000	58.891916 
3090.000000	58.870649 
3089.000000	58.857631 
3088.000000	58.851003 
3087.000000	58.848881 
3086.000000	58.849453 
3085.000000	58.851671 
3084.000000	58.855009 
3083.000000	58.859753 
3082.000000	58.866262 
3081.000000	58.875203 
3080.000000	58.886599 
3079.000000	58.900141 
3078.000000	58.914995 
3077.000000	58.930158 
3076.000000	58.944725 
3075.000000	58.958029 
3074.000000	58.969807 
3073.000000	58.980059 
3072.000000	58.989119 
3071.000000	58.997106 
3070.000000	59.003901 
3069.000000	59.008979 
3068.000000	59.011530 
3067.000000	59.010791 
3066.000000	59.006190 
3065.000000	58.997750 
3064.000000	58.986330 
3063.000000	58.973073 
3062.000000	58.959341 
3061.000000	58.946657 
3060.000000	58.936119 
3059.000000	58.928298 
3058.000000	58.922982 
3057.000000	58.919525 
3056.000000	58.916878 
3055.000000	58.913803 
3054.000000	58.909296 
3053.000000	58.902454 
3052.000000	58.893084 
3051.000000	58.881402 
3050.000000	58.868432 
3049.000000	58.855366 
3048.000000	58.843708 
3047.000000	58.835005 
3046.000000	58.830380 
3045.000000	58.830142 
3044.000000	58.833551 
3043.000000	58.839082 
3042.000000	58.844351 
3041.000000	58.846688 
3040.000000	58.843851 
3039.000000	58.834624 
3038.000000	58.819222 
3037.000000	58.799386 
3036.000000	58.778095 
3035.000000	58.758950 
3034.000000	58.745241 
3033.000000	58.739209 
3032.000000	58.741450 
3031.000000	58.750820 
3030.000000	58.764886 
3029.000000	58.780264 
3028.000000	58.793640 
3027.000000	58.802390 
3026.000000	58.805179 
3025.000000	58.801817 
3024.000000	58.793234 
3023.000000	58.780717 
3022.000000	58.765459 
3021.000000	58.748221 
3020.000000	58.729052 
3019.000000	58.707523 
3018.000000	58.683156 
3017.000000	58.655929 
3016.000000	58.626532 
3015.000000	58.596491 
3014.000000	58.568143 
3013.000000	58.544206 
3012.000000	58.527088 
3011.000000	58.518290 
3010.000000	58.518075 
3009.000000	58.525371 
3008.000000	58.537960 
3007.000000	58.553004 
3006.000000	58.567547 
3005.000000	58.579087 
3004.000000	58.586144 
3003.000000	58.588242 
3002.000000	58.585619 
3001.000000	58.579158 
3000.000000	58.569931 
2999.000000	58.558702 
2998.000000	58.545899 
2997.000000	58.531832 
2996.000000	58.516550 
2995.000000	58.500146 
2994.000000	58.482789 
2993.000000	58.465051 
2992.000000	58.447813 
2991.000000	58.431911 
2990.000000	58.418083 
2989.000000	58.406615 
2988.000000	58.397316 
2987.000000	58.389520 
2986.000000	58.382391 
2985.000000	58.374929 
2984.000000	58.366394 
2983.000000	58.356571 
2982.000000	58.345460 
2981.000000	58.333539 
2980.000000	58.321595 
2979.000000	58.310341 
2978.000000	58.300685 
2977.000000	58.293175 
2976.000000	58.288216 
2975.000000	58.285450 
2974.000000	58.284139 
2973.000000	58.282732 
2972.000000	58.279252 
2971.000000	58.271741 
2970.000000	58.258557 
2969.000000	58.238840 
2968.000000	58.213138 
2967.000000	58.183217 
2966.000000	58.151769 
2965.000000	58.122014 
2964.000000	58.097219 
2963.000000	58.079743 
2962.000000	58.070588 
2961.000000	58.069300 
2960.000000	58.074069 
2959.000000	58.082222 
2958.000000	58.090877 
2957.000000	58.097434 
2956.000000	58.100128 
2955.000000	58.098053 
2954.000000	58.091235 
2953.000000	58.080339 
2952.000000	58.066248 
2951.000000	58.050131 
2950.000000	58.033132 
2949.000000	58.016419 
2948.000000	58.001089 
2947.000000	57.988047 
2946.000000	57.978105 
2945.000000	57.971715 
2944.000000	57.969069 
2943.000000	57.969927 
2942.000000	57.973885 
2941.000000	57.980108 
2940.000000	57.987809 
2939.000000	57.996296 
2938.000000	58.004975 
2937.000000	58.013534 
2936.000000	58.021712 
2935.000000	58.029150 
2934.000000	58.035349 
2933.000000	58.039712 
2932.000000	58.041453 
2931.000000	58.039546 
2930.000000	58.033084 
2929.000000	58.021569 
2928.000000	58.004736 
2927.000000	57.982635 
2926.000000	57.955861 
2925.000000	57.925391 
2924.000000	57.892799 
2923.000000	57.859921 
2922.000000	57.828831 
2921.000000	57.801365 
2920.000000	57.778930 
2919.000000	57.762074 
2918.000000	57.750368 
2917.000000	57.742524 
2916.000000	57.736349 
2915.000000	57.729697 
2914.000000	57.720351 
2913.000000	57.707262 
2912.000000	57.690262 
2911.000000	57.670474 
2910.000000	57.649922 
2909.000000	57.631373 
2908.000000	57.617497 
2907.000000	57.610583 
2906.000000	57.611751 
2905.000000	57.621145 
2904.000000	57.637619 
2903.000000	57.659339 
2902.000000	57.683801 
2901.000000	57.708573 
2900.000000	57.731223 
2899.000000	57.749819 
2898.000000	57.762789 
2897.000000	57.769155 
2896.000000	57.768392 
2895.000000	57.760477 
2894.000000	57.745981 
2893.000000	57.726025 
2892.000000	57.702136 
2891.000000	57.676768 
2890.000000	57.652521 
2889.000000	57.632088 
2888.000000	57.617592 
2887.000000	57.610583 
2886.000000	57.611131 
2885.000000	57.617807 
2884.000000	57.627987 
2883.000000	57.638168 
2882.000000	57.645320 
2881.000000	57.647323 
2880.000000	57.643699 
2879.000000	57.635569 
2878.000000	57.625484 
2877.000000	57.616519 
2876.000000	57.611346 
2875.000000	57.611370 
2874.000000	57.616209 
2873.000000	57.623600 
2872.000000	57.630014 
2871.000000	57.631683 
2870.000000	57.625460 
2869.000000	57.609701 
2868.000000	57.584547 
2867.000000	57.552099 
2866.000000	57.515621 
2865.000000	57.479166 
2864.000000	57.446408 
2863.000000	57.420182 
2862.000000	57.402467 
2861.000000	57.393789 
2860.000000	57.393836 
2859.000000	57.400798 
2858.000000	57.411861 
2857.000000	57.423400 
2856.000000	57.431364 
2855.000000	57.432174 
2854.000000	57.423210 
2853.000000	57.403874 
2852.000000	57.375621 
2851.000000	57.342290 
2850.000000	57.309269 
2849.000000	57.282757 
2848.000000	57.268404 
2847.000000	57.270026 
2846.000000	57.289004 
2845.000000	57.323741 
2844.000000	57.370018 
2843.000000	57.421946 
2842.000000	57.472825 
2841.000000	57.516527 
2840.000000	57.548260 
2839.000000	57.565021 
2838.000000	57.565855 
2837.000000	57.551527 
2836.000000	57.524299 
2835.000000	57.487416 
2834.000000	57.444739 
2833.000000	57.400798 
2832.000000	57.359695 
2831.000000	57.325124 
2830.000000	57.299685 
2829.000000	57.284927 
2828.000000	57.280778 
2827.000000	57.286024 
2826.000000	57.298159 
2825.000000	57.313895 
2824.000000	57.329940 
2823.000000	57.343554 
2822.000000	57.352948 
2821.000000	57.357430 
2820.000000	57.357120 
2819.000000	57.352709 
2818.000000	57.345199 
2817.000000	57.335638 
2816.000000	57.324886 
2815.000000	57.313656 
2814.000000	57.302522 
2813.000000	57.291865 
2812.000000	57.281947 
2811.000000	57.272982 
2810.000000	57.264757 
2809.000000	57.256865 
2808.000000	57.249379 
2807.000000	57.242274 
2806.000000	57.235860 
2805.000000	57.229971 
2804.000000	57.224273 
2803.000000	57.217669 
2802.000000	57.208561 
2801.000000	57.195115 
2800.000000	57.175564 
2799.000000	57.149124 
2798.000000	57.116484 
2797.000000	57.080054 
2796.000000	57.043766 
2795.000000	57.012438 
2794.000000	56.990790 
2793.000000	56.982445 
2792.000000	56.988883 
2791.000000	57.008981 
2790.000000	57.039141 
2789.000000	57.073831 
2788.000000	57.106924 
2787.000000	57.132768 
2786.000000	57.147383 
2785.000000	57.149028 
2784.000000	57.138419 
2783.000000	57.118177 
2782.000000	57.092165 
2781.000000	57.064247 
2780.000000	57.037568 
2779.000000	57.014322 
2778.000000	56.995153 
2777.000000	56.979823 
2776.000000	56.967306 
2775.000000	56.956720 
2774.000000	56.947350 
2773.000000	56.939101 
2772.000000	56.932163 
2771.000000	56.926703 
2770.000000	56.922936 
2769.000000	56.920623 
2768.000000	56.919217 
2767.000000	56.917738 
2766.000000	56.915116 
2765.000000	56.910276 
2764.000000	56.902527 
2763.000000	56.891775 
2762.000000	56.878399 
2761.000000	56.863307 
2760.000000	56.847715 
2759.000000	56.833052 
2758.000000	56.820893 
2757.000000	56.812644 
2756.000000	56.809306 
2755.000000	56.811499 
2754.000000	56.819200 
2753.000000	56.831979 
2752.000000	56.848573 
2751.000000	56.867289 
2750.000000	56.885838 
2749.000000	56.901812 
2748.000000	56.912922 
2747.000000	56.917357 
2746.000000	56.914067 
2745.000000	56.902766 
2744.000000	56.884217 
2743.000000	56.859993 
2742.000000	56.832408 
2741.000000	56.803989 
2740.000000	56.777119 
2739.000000	56.753730 
2738.000000	56.734967 
2737.000000	56.721091 
2736.000000	56.711530 
2735.000000	56.705188 
2734.000000	56.700634 
2733.000000	56.696486 
2732.000000	56.691813 
2731.000000	56.686353 
2730.000000	56.680440 
2729.000000	56.675052 
2728.000000	56.671190 
2727.000000	56.669783 
2726.000000	56.671094 
2725.000000	56.674861 
2724.000000	56.679821 
2723.000000	56.683969 
2722.000000	56.685137 
2721.000000	56.681275 
2720.000000	56.671023 
2719.000000	56.654095 
2718.000000	56.631255 
2717.000000	56.604433 
2716.000000	56.576204 
2715.000000	56.549239 
2714.000000	56.525778 
2713.000000	56.507325 
2712.000000	56.494379 
2711.000000	56.486558 
2710.000000	56.482696 
2709.000000	56.481337 
2708.000000	56.480789 
2707.000000	56.479787 
2706.000000	56.477236 
2705.000000	56.472468 
2704.000000	56.465196 
2703.000000	56.455516 
2702.000000	56.443881 
2701.000000	56.431078 
2700.000000	56.418228 
2699.000000	56.406688 
2698.000000	56.397962 
2697.000000	56.393289 
2696.000000	56.393408 
2695.000000	56.398367 
2694.000000	56.407451 
2693.000000	56.419253 
2692.000000	56.431841 
2691.000000	56.443333 
2690.000000	56.451988 
2689.000000	56.456542 
2688.000000	56.456279 
2687.000000	56.450748 
2686.000000	56.439876 
2685.000000	56.423592 
2684.000000	56.401729 
2683.000000	56.374239 
2682.000000	56.341290 
2681.000000	56.303691 
2680.000000	56.263065 
2679.000000	56.221890 
2678.000000	56.183576 
2677.000000	56.151723 
2676.000000	56.129765 
2675.000000	56.119942 
2674.000000	56.123089 
2673.000000	56.138300 
2672.000000	56.162929 
2671.000000	56.192803 
2670.000000	56.223273 
2669.000000	56.249642 
2668.000000	56.268167 
2667.000000	56.276392 
2666.000000	56.273388 
2665.000000	56.259751 
2664.000000	56.237339 
2663.000000	56.208801 
2662.000000	56.177020 
2661.000000	56.144666 
2660.000000	56.114006 
2659.000000	56.086564 
2658.000000	56.062984 
2657.000000	56.043195 
2656.000000	56.026554 
2655.000000	56.012272 
2654.000000	55.999350 
2653.000000	55.987238 
2652.000000	55.975651 
2651.000000	55.964875 
2650.000000	55.955362 
2649.000000	55.947685 
2648.000000	55.942130 
2647.000000	55.938458 
2646.000000	55.935788 
2645.000000	55.932760 
2644.000000	55.927872 
2643.000000	55.920004 
2642.000000	55.908560 
2641.000000	55.894088 
2640.000000	55.878138 
2639.000000	55.863165 
2638.000000	55.851840 
2637.000000	55.846548 
2636.000000	55.848646 
2635.000000	55.858230 
2634.000000	55.873918 
2633.000000	55.893182 
2632.000000	55.912876 
2631.000000	55.929780 
2630.000000	55.941200 
2629.000000	55.945491 
2628.000000	55.941987 
2627.000000	55.930852 
2626.000000	55.912804 
2625.000000	55.888843 
2624.000000	55.860137 
2623.000000	55.827569 
2622.000000	55.792093 
2621.000000	55.755090 
2620.000000	55.718207 
2619.000000	55.683636 
2618.000000	55.653834 
2617.000000	55.631089 
2616.000000	55.617284 
2615.000000	55.613207 
2614.000000	55.618643 
2613.000000	55.631995 
2612.000000	55.650925 
2611.000000	55.672645 
2610.000000	55.694437 
2609.000000	55.713868 
2608.000000	55.729031 
2607.000000	55.738496 
2606.000000	55.741286 
2605.000000	55.736684 
2604.000000	55.724406 
2603.000000	55.704855 
2602.000000	55.679225 
2601.000000	55.649542 
2600.000000	55.618810 
2599.000000	55.590319 
2598.000000	55.567502 
2597.000000	55.552506 
2596.000000	55.546188 
2595.000000	55.547404 
2594.000000	55.553269 
2593.000000	55.560135 
2592.000000	55.563926 
2591.000000	55.561685 
2590.000000	55.552148 
2589.000000	55.536031 
2588.000000	55.515718 
2587.000000	55.494451 
2586.000000	55.475497 
2585.000000	55.461025 
2584.000000	55.451726 
2583.000000	55.446600 
2582.000000	55.443549 
2581.000000	55.440068 
2580.000000	55.434107 
2579.000000	55.424666 
2578.000000	55.412101 
2577.000000	55.398035 
2576.000000	55.384731 
2575.000000	55.374217 
2574.000000	55.367732 
2573.000000	55.365395 
2572.000000	55.366182 
2571.000000	55.368256 
2570.000000	55.369544 
2569.000000	55.368423 
2568.000000	55.364036 
2567.000000	55.356621 
2566.000000	55.347371 
2565.000000	55.337905 
2564.000000	55.329871 
2563.000000	55.324244 
2562.000000	55.321025 
2561.000000	55.319595 
2560.000000	55.318427 
2559.000000	55.315923 
2558.000000	55.310726 
2557.000000	55.302453 
2556.000000	55.291676 
2555.000000	55.279994 
2554.000000	55.269455 
2553.000000	55.262017 
2552.000000	55.259013 
2551.000000	55.260539 
2550.000000	55.265426 
2549.000000	55.271291 
2548.000000	55.275130 
2547.000000	55.273962 
2546.000000	55.265784 
2545.000000	55.250000 
2544.000000	55.227684 
2543.000000	55.201363 
2542.000000	55.174541 
2541.000000	55.150651 
2540.000000	55.132675 
2539.000000	55.122017 
2538.000000	55.118608 
2537.000000	55.120801 
2536.000000	55.125951 
2535.000000	55.131292 
2534.000000	55.134367 
2533.000000	55.133867 
2532.000000	55.129528 
2531.000000	55.122113 
2530.000000	55.113029 
2529.000000	55.103731 
2528.000000	55.095028 
2527.000000	55.087208 
2526.000000	55.079841 
2525.000000	55.072069 
2524.000000	55.062842 
2523.000000	55.051231 
2522.000000	55.036878 
2521.000000	55.019807 
2520.000000	55.000782 
2519.000000	54.980683 
2518.000000	54.960942 
2517.000000	54.942703 
2516.000000	54.927396 
2515.000000	54.916381 
2514.000000	54.910850 
2513.000000	54.911828 
2512.000000	54.919672 
2511.000000	54.933834 
2510.000000	54.952573 
2509.000000	54.973459 
2508.000000	54.992961 
2507.000000	55.007386 
2506.000000	55.013132 
2505.000000	55.007600 
2504.000000	54.989480 
2503.000000	54.958987 
2502.000000	54.917764 
2501.000000	54.868698 
2500.000000	54.815530 
2499.000000	54.762339 
2498.000000	54.713177 
2497.000000	54.671525 
2496.000000	54.639935 
2495.000000	54.619789 
2494.000000	54.611063 
2493.000000	54.612612 
2492.000000	54.621672 
2491.000000	54.635095 
2490.000000	54.649019 
2489.000000	54.660367 
2488.000000	54.666924 
2487.000000	54.668283 
2486.000000	54.665660 
2485.000000	54.661560 
2484.000000	54.659223 
2483.000000	54.661440 
2482.000000	54.670047 
2481.000000	54.685091 
2480.000000	54.704761 
2479.000000	54.725885 
2478.000000	54.744648 
2477.000000	54.757356 
2476.000000	54.761314 
2475.000000	54.755520 
2474.000000	54.740619 
2473.000000	54.718637 
2472.000000	54.692435 
2471.000000	54.665064 
2470.000000	54.639196 
2469.000000	54.616761 
2468.000000	54.598569 
2467.000000	54.584789 
2466.000000	54.575109 
2465.000000	54.568767 
2464.000000	54.564881 
2463.000000	54.562473 
2462.000000	54.560661 
2461.000000	54.558444 
2460.000000	54.555106 
2459.000000	54.549980 
2458.000000	54.542970 
2457.000000	54.534649 
2456.000000	54.526114 
2455.000000	54.518651 
2454.000000	54.513478 
2453.000000	54.511642 
2452.000000	54.513478 
2451.000000	54.518151 
2450.000000	54.524421 
2449.000000	54.530811 
2448.000000	54.536128 
2447.000000	54.539775 
2446.000000	54.541969 
2445.000000	54.543733 
2444.000000	54.546332 
2443.000000	54.550671 
2442.000000	54.556655 
2441.000000	54.562973 
2440.000000	54.567480 
2439.000000	54.567790 
2438.000000	54.562258 
2437.000000	54.550480 
2436.000000	54.534053 
2435.000000	54.515790 
2434.000000	54.499340 
2433.000000	54.487586 
2432.000000	54.481649 
2431.000000	54.480004 
2430.000000	54.478907 
2429.000000	54.472827 
2428.000000	54.456210 
2427.000000	54.424881 
2426.000000	54.377579 
2425.000000	54.316520 
2424.000000	54.247117 
2423.000000	54.176735 
2422.000000	54.112911 
2421.000000	54.061889 
2420.000000	54.027032 
2419.000000	54.008817 
2418.000000	54.004812 
2417.000000	54.011130 
2416.000000	54.023289 
2415.000000	54.037570 
2414.000000	54.051399 
2413.000000	54.063367 
2412.000000	54.073071 
2411.000000	54.080057 
2410.000000	54.083704 
2409.000000	54.082894 
2408.000000	54.075884 
2407.000000	54.061269 
2406.000000	54.038071 
2405.000000	54.006791 
2404.000000	53.969144 
2403.000000	53.927874 
2402.000000	53.886413 
2401.000000	53.848195 
2400.000000	53.816175 
2399.000000	53.792190 
2398.000000	53.777170 
2397.000000	53.771090 
2396.000000	53.773117 
2395.000000	53.781676 
2394.000000	53.794813 
2393.000000	53.810381 
2392.000000	53.826451 
2391.000000	53.841280 
2390.000000	53.853821 
2389.000000	53.863716 
2388.000000	53.871345 
2387.000000	53.877663 
2386.000000	53.883957 
2385.000000	53.891324 
2384.000000	53.900384 
2383.000000	53.910875 
2382.000000	53.921461 
2381.000000	53.930139 
2380.000000	53.934907 
2379.000000	53.933930 
2378.000000	53.926372 
2377.000000	53.912520 
2376.000000	53.893876 
2375.000000	53.872680 
2374.000000	53.851509 
2373.000000	53.832530 
2372.000000	53.817296 
2371.000000	53.806304 
2370.000000	53.799343 
2369.000000	53.795313 
2368.000000	53.792643 
2367.000000	53.789710 
2366.000000	53.785157 
2365.000000	53.778100 
2364.000000	53.768205 
2363.000000	53.755474 
2362.000000	53.740310 
2361.000000	53.723382 
2360.000000	53.705477 
2359.000000	53.687334 
2358.000000	53.669381 
2357.000000	53.651905 
2356.000000	53.634786 
2355.000000	53.617382 
2354.000000	53.598713 
2353.000000	53.577589 
2352.000000	53.552985 
2351.000000	53.524136 
2350.000000	53.491306 
2349.000000	53.455352 
2348.000000	53.418397 
2347.000000	53.383159 
2346.000000	53.352856 
2345.000000	53.330373 
2344.000000	53.317904 
2343.000000	53.316497 
2342.000000	53.325700 
2341.000000	53.343582 
2340.000000	53.367114 
2339.000000	53.392624 
2338.000000	53.416609 
2337.000000	53.436064 
2336.000000	53.448963 
2335.000000	53.454494 
2334.000000	53.452730 
2333.000000	53.444600 
2332.000000	53.431415 
2331.000000	53.414440 
2330.000000	53.394865 
2329.000000	53.373622 
2328.000000	53.351736 
2327.000000	53.330206 
2326.000000	53.310394 
2325.000000	53.293561 
2324.000000	53.281235 
2323.000000	53.274655 
2322.000000	53.274488 
2321.000000	53.280472 
2320.000000	53.291416 
2319.000000	53.305077 
2318.000000	53.318476 
2317.000000	53.328633 
2316.000000	53.332948 
2315.000000	53.329944 
2314.000000	53.319430 
2313.000000	53.302717 
2312.000000	53.282189 
2311.000000	53.260850 
2310.000000	53.241539 
2309.000000	53.226208 
2308.000000	53.215765 
2307.000000	53.209853 
2306.000000	53.207254 
2305.000000	53.206157 
2304.000000	53.204774 
2303.000000	53.201746 
2302.000000	53.196310 
2301.000000	53.188276 
2300.000000	53.177785 
2299.000000	53.165054 
2298.000000	53.149986 
2297.000000	53.132271 
2296.000000	53.111624 
2295.000000	53.087997 
2294.000000	53.061938 
2293.000000	53.034710 
2292.000000	53.008151 
2291.000000	52.984380 
2290.000000	52.965307 
2289.000000	52.952027 
2288.000000	52.944755 
2287.000000	52.942633 
2286.000000	52.944064 
2285.000000	52.946877 
2284.000000	52.949166 
2283.000000	52.949452 
2282.000000	52.947020 
2281.000000	52.942013 
2280.000000	52.935075 
2279.000000	52.927327 
2278.000000	52.919816 
2277.000000	52.913427 
2276.000000	52.908706 
2275.000000	52.905821 
2274.000000	52.904796 
2273.000000	52.905297 
2272.000000	52.906918 
2271.000000	52.909207 
2270.000000	52.911567 
2269.000000	52.913117 
2268.000000	52.913165 
2267.000000	52.910733 
2266.000000	52.905154 
2265.000000	52.895808 
2264.000000	52.882385 
2263.000000	52.864861 
2262.000000	52.843689 
2261.000000	52.819633 
2260.000000	52.793693 
2259.000000	52.767229 
2258.000000	52.741718 
2257.000000	52.718639 
2256.000000	52.699446 
2255.000000	52.685165 
2254.000000	52.676439 
2253.000000	52.673220 
2252.000000	52.674722 
2251.000000	52.679371 
2250.000000	52.684926 
2249.000000	52.688837 
2248.000000	52.688694 
2247.000000	52.682399 
2246.000000	52.668881 
2245.000000	52.648234 
2244.000000	52.621817 
2243.000000	52.591848 
2242.000000	52.561306 
2241.000000	52.533268 
2240.000000	52.510333 
2239.000000	52.494239 
2238.000000	52.485442 
2237.000000	52.483177 
2236.000000	52.485704 
2235.000000	52.490401 
2234.000000	52.494764 
2233.000000	52.496600 
2232.000000	52.494525 
2231.000000	52.488112 
2230.000000	52.477788 
2229.000000	52.464509 
2228.000000	52.449631 
2227.000000	52.434277 
2226.000000	52.419209 
2225.000000	52.404594 
2224.000000	52.390193 
2223.000000	52.375459 
2222.000000	52.359962 
2221.000000	52.343511 
2220.000000	52.326345 
2219.000000	52.309155 
2218.000000	52.292847 
2217.000000	52.278447 
2216.000000	52.266573 
2215.000000	52.257680 
2214.000000	52.251601 
2213.000000	52.247905 
2212.000000	52.245950 
2211.000000	52.244973 
2210.000000	52.244210 
2209.000000	52.242994 
2208.000000	52.241039 
2207.000000	52.238202 
2206.000000	52.234387 
2205.000000	52.229475 
2204.000000	52.223396 
2203.000000	52.215981 
2202.000000	52.207207 
2201.000000	52.196836 
2200.000000	52.184820 
2199.000000	52.171134 
2198.000000	52.155876 
2197.000000	52.139353 
2196.000000	52.122092 
2195.000000	52.104663 
2194.000000	52.087712 
2193.000000	52.071905 
2192.000000	52.057719 
2191.000000	52.045226 
2190.000000	52.034068 
2189.000000	52.023673 
2188.000000	52.013301 
2187.000000	52.002358 
2186.000000	51.990818 
2185.000000	51.979017 
2184.000000	51.967978 
2183.000000	51.959061 
2182.000000	51.953530 
2181.000000	51.952171 
2180.000000	51.954913 
2179.000000	51.960802 
2178.000000	51.967978 
2177.000000	51.974153 
2176.000000	51.977276 
2175.000000	51.976180 
2174.000000	51.970767 
2173.000000	51.962232 
2172.000000	51.952648 
2171.000000	51.944375 
2170.000000	51.939535 
2169.000000	51.939558 
2168.000000	51.944756 
2167.000000	51.954412 
2166.000000	51.967144 
2165.000000	51.981019 
2164.000000	51.994132 
2163.000000	52.004432 
2162.000000	52.010273 
2161.000000	52.010107 
2160.000000	52.002596 
2159.000000	51.986646 
2158.000000	51.961636 
2157.000000	51.927661 
2156.000000	51.885962 
2155.000000	51.838684 
2154.000000	51.788902 
2153.000000	51.739883 
2152.000000	51.694822 
2151.000000	51.656079 
2150.000000	51.624941 
2149.000000	51.601624 
2148.000000	51.585650 
2147.000000	51.576304 
2146.000000	51.572799 
2145.000000	51.574778 
2144.000000	51.581931 
2143.000000	51.593804 
2142.000000	51.609373 
2141.000000	51.626825 
2140.000000	51.643562 
2139.000000	51.656603 
2138.000000	51.662969 
2137.000000	51.660704 
2136.000000	51.648879 
2135.000000	51.628422 
2134.000000	51.601266 
2133.000000	51.570320 
2132.000000	51.538205 
2131.000000	51.506996 
2130.000000	51.477599 
2129.000000	51.449942 
2128.000000	51.423382 
2127.000000	51.397323 
2126.000000	51.371741 
2125.000000	51.347541 
2124.000000	51.326608 
2123.000000	51.311421 
2122.000000	51.304340 
2121.000000	51.306700 
2120.000000	51.318502 
2119.000000	51.338148 
2118.000000	51.362633 
2117.000000	51.388144 
2116.000000	51.410818 
2115.000000	51.427769 
2114.000000	51.437330 
2113.000000	51.439404 
2112.000000	51.435208 
2111.000000	51.426696 
2110.000000	51.415920 
2109.000000	51.404380 
2108.000000	51.392889 
2107.000000	51.381087 
2106.000000	51.368165 
2105.000000	51.352953 
2104.000000	51.334428 
2103.000000	51.312112 
2102.000000	51.286482 
2101.000000	51.258873 
2100.000000	51.230978 
2099.000000	51.204800 
2098.000000	51.182150 
2097.000000	51.164412 
2096.000000	51.152110 
2095.000000	51.145100 
2094.000000	51.142621 
2093.000000	51.143383 
2092.000000	51.146149 
2091.000000	51.149630 
2090.000000	51.152849 
2089.000000	51.155161 
2088.000000	51.156592 
2087.000000	51.157522 
2086.000000	51.158618 
2085.000000	51.160573 
2084.000000	51.163673 
2083.000000	51.167845 
2082.000000	51.172089 
2081.000000	51.174926 
2080.000000	51.173877 
2079.000000	51.166248 
2078.000000	51.149225 
2077.000000	51.120948 
2076.000000	51.080560 
2075.000000	51.028800 
2074.000000	50.967931 
2073.000000	50.901722 
2072.000000	50.834870 
2071.000000	50.772142 
2070.000000	50.717997 
2069.000000	50.675940 
2068.000000	50.648140 
2067.000000	50.635337 
2066.000000	50.636982 
2065.000000	50.651264 
2064.000000	50.675487 
2063.000000	50.706243 
2062.000000	50.739455 
2061.000000	50.770974 
2060.000000	50.796651 
2059.000000	50.813078 
2058.000000	50.817728 
2057.000000	50.809717 
2056.000000	50.789976 
2055.000000	50.761222 
2054.000000	50.727605 
2053.000000	50.693678 
2052.000000	50.663757 
2051.000000	50.640821 
2050.000000	50.626182 
2049.000000	50.619268 
2048.000000	50.617933 
2047.000000	50.619411 
2046.000000	50.620937 
2045.000000	50.620532 
2044.000000	50.617241 
2043.000000	50.611543 
2042.000000	50.604772 
2041.000000	50.598812 
2040.000000	50.595259 
2039.000000	50.595378 
2038.000000	50.599741 
2037.000000	50.608038 
2036.000000	50.619006 
2035.000000	50.631022 
2034.000000	50.642156 
2033.000000	50.650382 
2032.000000	50.653839 
2031.000000	50.650882 
2030.000000	50.640344 
2029.000000	50.621676 
2028.000000	50.595188 
2027.000000	50.561857 
2026.000000	50.523447 
2025.000000	50.482201 
2024.000000	50.440645 
2023.000000	50.401091 
2022.000000	50.365614 
2021.000000	50.335621 
2020.000000	50.312209 
2019.000000	50.295734 
2018.000000	50.286221 
2017.000000	50.283408 
2016.000000	50.286793 
2015.000000	50.295448 
2014.000000	50.308394 
2013.000000	50.324392 
2012.000000	50.341796 
2011.000000	50.358605 
2010.000000	50.372529 
2009.000000	50.381493 
2008.000000	50.383877 
2007.000000	50.378966 
2006.000000	50.367474 
2005.000000	50.351452 
2004.000000	50.334095 
2003.000000	50.319004 
2002.000000	50.309467 
2001.000000	50.307416 
2000.000000	50.313091 
1999.000000	50.324463 
1998.000000	50.337886 
1997.000000	50.348854 
1996.000000	50.352978 
1995.000000	50.347137 
1994.000000	50.330162 
1993.000000	50.303077 
1992.000000	50.268936 
1991.000000	50.231647 
1990.000000	50.195193 
1989.000000	50.162529 
1988.000000	50.135016 
1987.000000	50.112605 
1986.000000	50.094079 
1985.000000	50.077700 
1984.000000	50.062060 
1983.000000	50.046634 
1982.000000	50.031971 
1981.000000	50.019025 
1980.000000	50.009107 
1979.000000	50.002980 
1978.000000	50.000786 
1977.000000	50.001621 
1976.000000	50.003790 
1975.000000	50.005316 
1974.000000	50.004553 
1973.000000	50.000500 
1972.000000	49.993014 
1971.000000	49.982857 
1970.000000	49.971246 
1969.000000	49.959492 
1968.000000	49.948596 
1967.000000	49.939084 
1966.000000	49.930691 
1965.000000	49.922823 
1964.000000	49.914455 
1963.000000	49.904751 
1962.000000	49.893045 
1961.000000	49.879193 
1960.000000	49.863505 
1959.000000	49.846601 
1958.000000	49.829339 
1957.000000	49.812674 
1956.000000	49.797320 
1955.000000	49.783635 
1954.000000	49.771690 
1953.000000	49.761343 
1952.000000	49.752259 
1951.000000	49.744057 
1950.000000	49.736475 
1949.000000	49.729299 
1948.000000	49.722480 
1947.000000	49.715971 
1946.000000	49.709844 
1945.000000	49.703884 
1944.000000	49.697852 
1943.000000	49.691224 
1942.000000	49.683499 
1941.000000	49.674177 
1940.000000	49.662852 
1939.000000	49.649524 
1938.000000	49.634361 
1937.000000	49.617719 
1936.000000	49.600100 
1935.000000	49.581933 
1934.000000	49.563646 
1933.000000	49.545717 
1932.000000	49.528741 
1931.000000	49.513459 
1930.000000	49.500823 
1929.000000	49.491667 
1928.000000	49.486637 
1927.000000	49.485826 
1926.000000	49.488854 
1925.000000	49.494433 
1924.000000	49.500799 
1923.000000	49.505758 
1922.000000	49.507427 
1921.000000	49.504303 
1920.000000	49.495816 
1919.000000	49.482321 
1918.000000	49.465012 
1917.000000	49.445748 
1916.000000	49.426269 
1915.000000	49.408006 
1914.000000	49.391746 
1913.000000	49.377417 
1912.000000	49.364233 
1911.000000	49.351024 
1910.000000	49.336624 
1909.000000	49.320149 
1908.000000	49.301362 
1907.000000	49.280738 
1906.000000	49.259591 
1905.000000	49.239563 
1904.000000	49.222445 
1903.000000	49.209785 
1902.000000	49.202561 
1901.000000	49.201035 
1900.000000	49.204516 
1899.000000	49.211645 
1898.000000	49.220657 
1897.000000	49.229478 
1896.000000	49.236178 
1895.000000	49.239063 
1894.000000	49.236965 
1893.000000	49.229240 
1892.000000	49.215698 
1891.000000	49.196863 
1890.000000	49.173569 
1889.000000	49.147129 
1888.000000	49.119186 
1887.000000	49.091315 
1886.000000	49.065232 
1885.000000	49.042272 
1884.000000	49.023437 
1883.000000	49.009180 
1882.000000	48.999333 
1881.000000	48.993182 
1880.000000	48.989748 
1879.000000	48.987936 
1878.000000	48.986625 
1877.000000	48.984956 
1876.000000	48.982357 
1875.000000	48.978281 
1874.000000	48.972201 
1873.000000	48.963809 
1872.000000	48.952651 
1871.000000	48.938488 
1870.000000	48.921275 
1869.000000	48.901391 
1868.000000	48.879575 
1867.000000	48.857045 
1866.000000	48.835062 
1865.000000	48.814749 
1864.000000	48.796796 
1863.000000	48.781323 
1862.000000	48.768043 
1861.000000	48.756098 
1860.000000	48.744702 
1859.000000	48.733091 
1858.000000	48.721241 
1857.000000	48.709464 
1856.000000	48.698711 
1855.000000	48.689985 
1854.000000	48.684334 
1853.000000	48.682332 
1852.000000	48.683977 
1851.000000	48.688626 
1850.000000	48.695278 
1849.000000	48.702669 
1848.000000	48.709511 
1847.000000	48.714590 
1846.000000	48.716926 
1845.000000	48.715591 
1844.000000	48.709869 
1843.000000	48.699259 
1842.000000	48.683404 
1841.000000	48.662638 
1840.000000	48.637986 
1839.000000	48.611283 
1838.000000	48.585152 
1837.000000	48.562264 
1836.000000	48.545002 
1835.000000	48.534560 
1834.000000	48.530817 
1833.000000	48.532104 
1832.000000	48.535346 
1831.000000	48.537087 
1830.000000	48.533940 
1829.000000	48.523998 
1828.000000	48.506903 
1827.000000	48.484253 
1826.000000	48.458933 
1825.000000	48.434686 
1824.000000	48.414897 
1823.000000	48.401904 
1822.000000	48.396325 
1821.000000	48.397350 
1820.000000	48.402738 
1819.000000	48.409676 
1818.000000	48.415136 
1817.000000	48.416543 
1816.000000	48.412251 
1815.000000	48.401355 
1814.000000	48.383951 
1813.000000	48.360943 
1812.000000	48.333907 
1811.000000	48.304891 
1810.000000	48.276209 
1809.000000	48.250222 
1808.000000	48.228907 
1807.000000	48.213768 
1806.000000	48.205351 
1805.000000	48.203158 
1804.000000	48.205900 
1803.000000	48.211407 
1802.000000	48.217606 
1801.000000	48.222494 
1800.000000	48.224830 
1799.000000	48.224067 
1798.000000	48.220372 
1797.000000	48.214268 
1796.000000	48.206305 
1795.000000	48.196935 
1794.000000	48.186326 
1793.000000	48.174428 
1792.000000	48.161435 
1791.000000	48.147630 
1790.000000	48.133683 
1789.000000	48.120164 
1788.000000	48.107767 
1787.000000	48.096871 
1786.000000	48.087501 
1785.000000	48.079538 
1784.000000	48.072528 
1783.000000	48.066067 
1782.000000	48.060131 
1781.000000	48.055052 
1780.000000	48.051548 
1779.000000	48.050260 
1778.000000	48.051595 
1777.000000	48.055195 
1776.000000	48.060035 
1775.000000	48.064160 
1774.000000	48.065257 
1773.000000	48.061108 
1772.000000	48.050141 
1771.000000	48.032021 
1770.000000	48.007678 
1769.000000	47.979235 
1768.000000	47.949671 
1767.000000	47.922253 
1766.000000	47.899723 
1765.000000	47.883987 
1764.000000	47.875475 
1763.000000	47.873377 
1762.000000	47.875595 
1761.000000	47.879409 
1760.000000	47.881913 
1759.000000	47.880482 
1758.000000	47.873306 
1757.000000	47.859382 
1756.000000	47.838807 
1755.000000	47.812438 
1754.000000	47.781896 
1753.000000	47.749161 
1752.000000	47.716283 
1751.000000	47.685551 
1750.000000	47.658920 
1749.000000	47.638106 
1748.000000	47.624254 
1747.000000	47.617864 
1746.000000	47.618627 
1745.000000	47.625446 
1744.000000	47.636628 
1743.000000	47.650051 
1742.000000	47.663378 
1741.000000	47.674512 
1740.000000	47.681784 
1739.000000	47.684097 
1738.000000	47.681164 
1737.000000	47.673344 
1736.000000	47.661566 
1735.000000	47.646832 
1734.000000	47.630500 
1733.000000	47.613668 
1732.000000	47.596859 
1731.000000	47.580075 
1730.000000	47.563195 
1729.000000	47.545623 
1728.000000	47.527289 
1727.000000	47.508001 
1726.000000	47.488212 
1725.000000	47.468638 
1724.000000	47.450304 
1723.000000	47.434091 
1722.000000	47.420525 
1721.000000	47.409486 
1720.000000	47.400069 
1719.000000	47.391009 
1718.000000	47.380948 
1717.000000	47.368812 
1716.000000	47.354269 
1715.000000	47.337865 
1714.000000	47.320961 
1713.000000	47.305154 
1712.000000	47.292208 
1711.000000	47.283101 
1710.000000	47.278261 
1709.000000	47.277617 
1708.000000	47.280883 
1707.000000	47.287893 
1706.000000	47.298526 
1705.000000	47.312831 
1704.000000	47.330522 
1703.000000	47.351098 
1702.000000	47.372794 
1701.000000	47.393035 
1700.000000	47.408509 
1699.000000	47.415852 
1698.000000	47.412300 
1697.000000	47.396588 
1696.000000	47.369360 
1695.000000	47.333431 
1694.000000	47.293233 
1693.000000	47.254061 
1692.000000	47.220754 
1691.000000	47.197031 
1690.000000	47.184228 
1689.000000	47.181367 
1688.000000	47.185230 
1687.000000	47.191572 
1686.000000	47.195339 
1685.000000	47.192239 
1684.000000	47.179293 
1683.000000	47.155904 
1682.000000	47.123408 
1681.000000	47.085285 
1680.000000	47.046041 
1679.000000	47.010517 
1678.000000	46.982908 
1677.000000	46.965909 
1676.000000	46.960258 
1675.000000	46.964597 
1674.000000	46.976137 
1673.000000	46.990871 
1672.000000	47.004294 
1671.000000	47.012305 
1670.000000	47.011709 
1669.000000	47.000837 
1668.000000	46.979451 
1667.000000	46.949243 
1666.000000	46.913170 
1665.000000	46.875715 
1664.000000	46.841716 
1663.000000	46.816205 
1662.000000	46.803450 
1661.000000	46.806335 
1660.000000	46.825647 
1659.000000	46.859574 
1658.000000	46.903800 
1657.000000	46.952033 
1656.000000	46.996927 
1655.000000	47.031664 
1654.000000	47.050833 
1653.000000	47.051763 
1652.000000	47.034478 
1651.000000	47.001481 
1650.000000	46.956944 
1649.000000	46.905779 
1648.000000	46.852421 
1647.000000	46.800327 
1646.000000	46.751546 
1645.000000	46.707129 
1644.000000	46.667361 
1643.000000	46.632528 
1642.000000	46.602940 
1641.000000	46.579122 
1640.000000	46.561408 
1639.000000	46.549725 
1638.000000	46.543264 
1637.000000	46.540141 
1636.000000	46.537923 
1635.000000	46.534061 
1634.000000	46.526646 
1633.000000	46.514916 
1632.000000	46.499443 
1631.000000	46.482133 
1630.000000	46.465516 
1629.000000	46.452188 
1628.000000	46.444296 
1627.000000	46.442842 
1626.000000	46.447443 
1625.000000	46.456408 
1624.000000	46.467351 
1623.000000	46.477317 
1622.000000	46.483564 
1621.000000	46.483659 
1620.000000	46.476006 
1619.000000	46.459889 
1618.000000	46.435570 
1617.000000	46.404361 
1616.000000	46.368122 
1615.000000	46.329426 
1614.000000	46.291446 
1613.000000	46.257305 
1612.000000	46.229958 
1611.000000	46.211433 
1610.000000	46.202659 
1609.000000	46.203136 
1608.000000	46.211004 
1607.000000	46.223258 
1606.000000	46.236252 
1605.000000	46.246361 
1604.000000	46.250605 
1603.000000	46.247005 
1602.000000	46.235060 
1601.000000	46.215462 
1600.000000	46.189928 
1599.000000	46.160936 
1598.000000	46.131157 
1597.000000	46.103119 
1596.000000	46.078896 
1595.000000	46.060180 
1594.000000	46.047806 
1593.000000	46.041965 
1592.000000	46.041870 
1591.000000	46.046185 
1590.000000	46.052646 
1589.000000	46.058511 
1588.000000	46.060824 
1587.000000	46.056795 
1586.000000	46.044468 
1585.000000	46.023082 
1584.000000	45.993542 
1583.000000	45.958161 
1582.000000	45.920395 
1581.000000	45.884203 
1580.000000	45.853233 
1579.000000	45.830321 
1578.000000	45.816850 
1577.000000	45.812511 
1576.000000	45.815587 
1575.000000	45.823335 
1574.000000	45.832347 
1573.000000	45.839619 
1572.000000	45.842623 
1571.000000	45.840430 
1570.000000	45.833563 
1569.000000	45.824074 
1568.000000	45.815014 
1567.000000	45.809483 
1566.000000	45.810174 
1565.000000	45.818352 
1564.000000	45.833706 
1563.000000	45.853924 
1562.000000	45.875167 
1561.000000	45.892691 
1560.000000	45.902132 
1559.000000	45.900297 
1558.000000	45.885896 
1557.000000	45.859956 
1556.000000	45.825529 
1555.000000	45.786857 
1554.000000	45.748400 
1553.000000	45.714020 
1552.000000	45.686340 
1551.000000	45.666813 
1550.000000	45.655655 
1549.000000	45.652413 
1548.000000	45.655965 
1547.000000	45.664739 
1546.000000	45.676732 
1545.000000	45.689415 
1544.000000	45.699977 
1543.000000	45.705580 
1542.000000	45.703816 
1541.000000	45.693373 
1540.000000	45.674037 
1539.000000	45.646762 
1538.000000	45.613646 
1537.000000	45.577406 
1536.000000	45.541000 
1535.000000	45.507168 
1534.000000	45.478057 
1533.000000	45.454835 
1532.000000	45.438051 
1531.000000	45.427727 
1530.000000	45.423483 
1529.000000	45.424485 
1528.000000	45.429658 
1527.000000	45.437693 
1526.000000	45.446777 
1525.000000	45.454740 
1524.000000	45.459342 
1523.000000	45.458507 
1522.000000	45.450830 
1521.000000	45.435786 
1520.000000	45.413947 
1519.000000	45.387125 
1518.000000	45.357942 
1517.000000	45.329952 
1516.000000	45.306944 
1515.000000	45.292472 
1514.000000	45.289349 
1513.000000	45.298647 
1512.000000	45.319628 
1511.000000	45.349407 
1510.000000	45.383310 
1509.000000	45.415449 
1508.000000	45.439863 
1507.000000	45.451593 
1506.000000	45.447611 
1505.000000	45.427227 
1504.000000	45.392227 
1503.000000	45.346379 
1502.000000	45.294785 
1501.000000	45.242524 
1500.000000	45.193791 
1499.000000	45.151352 
1498.000000	45.116066 
1497.000000	45.087289 
1496.000000	45.063161 
1495.000000	45.041441 
1494.000000	45.020103 
1493.000000	44.997644 
1492.000000	44.973611 
1491.000000	44.948101 
1490.000000	44.921970 
1489.000000	44.895839 
1488.000000	44.870471 
1487.000000	44.846343 
1486.000000	44.823837 
1485.000000	44.802975 
1484.000000	44.783806 
1483.000000	44.766640 
1482.000000	44.751763 
1481.000000	44.739508 
1480.000000	44.730019 
1479.000000	44.723057 
1478.000000	44.718074 
1477.000000	44.714164 
1476.000000	44.710206 
1475.000000	44.704818 
1474.000000	44.696831 
1473.000000	44.685530 
1472.000000	44.670677 
1471.000000	44.652652 
1470.000000	44.632244 
1469.000000	44.610667 
1468.000000	44.589638 
1467.000000	44.571232 
1466.000000	44.557571 
1465.000000	44.550848 
1464.000000	44.552850 
1463.000000	44.564676 
1462.000000	44.586563 
1461.000000	44.617533 
1460.000000	44.655179 
1459.000000	44.696044 
1458.000000	44.735813 
1457.000000	44.770073 
1456.000000	44.795131 
1455.000000	44.808268 
1454.000000	44.808435 
1453.000000	44.796037 
1452.000000	44.773125 
1451.000000	44.742298 
1450.000000	44.706296 
1449.000000	44.667434 
1448.000000	44.627404 
1447.000000	44.587516 
1446.000000	44.548916 
1445.000000	44.512772 
1444.000000	44.480657 
1443.000000	44.454169 
1442.000000	44.434762 
1441.000000	44.422912 
1440.000000	44.417810 
1439.000000	44.417214 
1438.000000	44.417667 
1437.000000	44.415068 
1436.000000	44.405674 
1435.000000	44.386672 
1434.000000	44.357347 
1433.000000	44.319033 
1432.000000	44.275474 
1431.000000	44.232058 
1430.000000	44.194698 
1429.000000	44.168567 
1428.000000	44.157242 
1427.000000	44.161844 
1426.000000	44.180679 
1425.000000	44.209647 
1424.000000	44.242954 
1423.000000	44.274449 
1422.000000	44.298529 
1421.000000	44.311141 
1420.000000	44.310259 
1419.000000	44.295883 
1418.000000	44.269776 
1417.000000	44.234752 
1416.000000	44.193863 
1415.000000	44.149947 
1414.000000	44.105267 
1413.000000	44.061875 
1412.000000	44.021677 
1411.000000	43.986845 
1410.000000	43.959689 
1409.000000	43.942523 
1408.000000	43.936920 
1407.000000	43.943166 
1406.000000	43.959760 
1405.000000	43.983530 
1404.000000	44.009900 
1403.000000	44.033908 
1402.000000	44.051051 
1401.000000	44.058322 
1400.000000	44.054436 
1399.000000	44.040322 
1398.000000	44.018578 
1397.000000	43.992733 
1396.000000	43.966317 
1395.000000	43.942117 
1394.000000	43.921780 
1393.000000	43.905639 
1392.000000	43.892955 
1391.000000	43.882203 
1390.000000	43.871521 
1389.000000	43.859195 
1388.000000	43.843865 
1387.000000	43.824553 
1386.000000	43.800878 
1385.000000	43.773078 
1384.000000	43.742227 
1383.000000	43.710136 
1382.000000	43.679189 
1381.000000	43.651986 
1380.000000	43.630981 
1379.000000	43.617916 
1378.000000	43.613219 
1377.000000	43.616175 
1376.000000	43.624758 
1375.000000	43.635630 
1374.000000	43.645334 
1373.000000	43.650770 
1372.000000	43.650054 
1371.000000	43.642520 
1370.000000	43.629217 
1369.000000	43.612599 
1368.000000	43.595790 
1367.000000	43.581795 
1366.000000	43.572711 
1365.000000	43.569254 
1364.000000	43.570637 
1363.000000	43.574929 
1362.000000	43.579292 
1361.000000	43.580794 
1360.000000	43.576955 
1359.000000	43.566465 
1358.000000	43.549013 
1357.000000	43.525385 
1356.000000	43.497228 
1355.000000	43.466424 
1354.000000	43.434858 
1353.000000	43.404078 
1352.000000	43.375205 
1351.000000	43.348860 
1350.000000	43.325209 
1349.000000	43.303990 
1348.000000	43.284654 
1347.000000	43.266725 
1346.000000	43.249607 
1345.000000	43.232989 
1344.000000	43.216443 
1343.000000	43.199896 
1342.000000	43.183517 
1341.000000	43.167662 
1340.000000	43.152832 
1339.000000	43.139624 
1338.000000	43.128633 
1337.000000	43.120455 
1336.000000	43.115472 
1335.000000	43.113684 
1334.000000	43.114805 
1333.000000	43.118214 
1332.000000	43.123078 
1331.000000	43.128490 
1330.000000	43.133521 
1329.000000	43.137383 
1328.000000	43.139457 
1327.000000	43.139529 
1326.000000	43.137645 
1325.000000	43.134021 
1324.000000	43.128967 
1323.000000	43.122720 
1322.000000	43.115162 
1321.000000	43.106174 
1320.000000	43.095397 
1319.000000	43.082475 
1318.000000	43.067002 
1317.000000	43.049025 
1316.000000	43.028998 
1315.000000	43.007850 
1314.000000	42.986893 
1313.000000	42.967510 
1312.000000	42.951107 
1311.000000	42.938923 
1310.000000	42.931675 
1309.000000	42.929267 
1308.000000	42.931079 
1307.000000	42.935681 
1306.000000	42.941379 
1305.000000	42.946052 
1304.000000	42.947840 
1303.000000	42.945241 
1302.000000	42.937254 
1301.000000	42.923665 
1300.000000	42.904996 
1299.000000	42.882394 
1298.000000	42.857575 
1297.000000	42.832446 
1296.000000	42.809057 
1295.000000	42.788910 
1294.000000	42.773342 
1293.000000	42.762541 
1292.000000	42.756032 
1291.000000	42.752218 
1290.000000	42.748856 
1289.000000	42.743158 
1288.000000	42.732357 
1287.000000	42.713999 
1286.000000	42.686629 
1285.000000	42.650127 
1284.000000	42.605853 
1283.000000	42.556405 
1282.000000	42.505359 
1281.000000	42.456626 
1280.000000	42.413926 
1279.000000	42.379951 
1278.000000	42.356228 
1277.000000	42.342782 
1276.000000	42.338585 
1275.000000	42.341423 
1274.000000	42.348790 
1273.000000	42.358255 
1272.000000	42.368054 
1271.000000	42.376828 
1270.000000	42.384266 
1269.000000	42.389988 
1268.000000	42.394256 
1267.000000	42.397165 
1266.000000	42.398858 
1265.000000	42.399168 
1264.000000	42.397665 
1263.000000	42.394256 
1262.000000	42.388892 
1261.000000	42.381596 
1260.000000	42.372393 
1259.000000	42.361593 
1258.000000	42.349553 
1257.000000	42.336606 
1256.000000	42.323231 
1255.000000	42.309856 
1254.000000	42.296719 
1253.000000	42.284011 
1252.000000	42.271637 
1251.000000	42.259120 
1250.000000	42.245507 
1249.000000	42.229700 
1248.000000	42.210388 
1247.000000	42.186880 
1246.000000	42.159223 
1245.000000	42.128729 
1244.000000	42.097592 
1243.000000	42.069077 
1242.000000	42.046856 
1241.000000	42.034268 
1240.000000	42.033362 
1239.000000	42.044711 
1238.000000	42.066884 
1237.000000	42.096996 
1236.000000	42.130994 
1235.000000	42.164254 
1234.000000	42.192721 
1233.000000	42.213177 
1232.000000	42.223858 
1231.000000	42.224216 
1230.000000	42.214870 
1229.000000	42.197012 
1228.000000	42.172122 
1227.000000	42.141866 
1226.000000	42.107534 
1225.000000	42.070508 
1224.000000	42.032003 
1223.000000	41.993188 
1222.000000	41.954946 
1221.000000	41.918015 
1220.000000	41.882824 
1219.000000	41.849231 
1218.000000	41.817021 
1217.000000	41.785478 
1216.000000	41.754412 
1215.000000	41.723775 
1214.000000	41.694545 
1213.000000	41.667890 
1212.000000	41.645765 
1211.000000	41.630005 
1210.000000	41.622161 
1209.000000	41.622710 
1208.000000	41.630911 
1207.000000	41.644906 
1206.000000	41.661667 
1205.000000	41.677618 
1204.000000	41.689395 
1203.000000	41.694521 
1202.000000	41.691756 
1201.000000	41.681098 
1200.000000	41.664028 
1199.000000	41.642928 
1198.000000	41.620516 
1197.000000	41.599273 
1196.000000	41.580820 
1195.000000	41.565537 
1194.000000	41.553258 
1193.000000	41.542911 
1192.000000	41.533136 
1191.000000	41.522574 
1190.000000	41.510462 
1189.000000	41.496562 
1188.000000	41.480875 
1187.000000	41.463780 
1186.000000	41.445660 
1185.000000	41.426730 
1184.000000	41.407346 
1183.000000	41.387796 
1182.000000	41.368484 
1181.000000	41.350078 
1180.000000	41.333270 
1179.000000	41.318941 
1178.000000	41.307663 
1177.000000	41.299486 
1176.000000	41.294145 
1175.000000	41.290712 
1174.000000	41.287899 
1173.000000	41.284441 
1172.000000	41.279315 
1171.000000	41.272258 
1170.000000	41.263580 
1169.000000	41.254210 
1168.000000	41.245365 
1167.000000	41.238451 
1166.000000	41.234397 
1165.000000	41.233444 
1164.000000	41.234803 
1163.000000	41.237282 
1162.000000	41.238927 
1161.000000	41.237592 
1160.000000	41.231203 
1159.000000	41.218304 
1158.000000	41.198277 
1157.000000	41.171693 
1156.000000	41.140127 
1155.000000	41.106033 
1154.000000	41.072106 
1153.000000	41.041016 
1152.000000	41.014766 
1151.000000	40.994501 
1150.000000	40.980219 
1149.000000	40.971279 
1148.000000	40.966296 
1147.000000	40.963673 
1146.000000	40.962171 
1145.000000	40.961122 
1144.000000	40.960359 
1143.000000	40.960288 
1142.000000	40.961718 
1141.000000	40.965676 
1140.000000	40.972852 
1139.000000	40.983510 
1138.000000	40.997195 
1137.000000	41.012692 
1136.000000	41.028523 
1135.000000	41.042613 
1134.000000	41.052889 
1133.000000	41.057229 
1132.000000	41.054153 
1131.000000	41.042661 
1130.000000	41.022968 
1129.000000	40.995860 
1128.000000	40.963053 
1127.000000	40.926885 
1126.000000	40.889883 
1125.000000	40.854406 
1124.000000	40.822410 
1123.000000	40.794777 
1122.000000	40.771436 
1121.000000	40.751242 
1120.000000	40.732359 
1119.000000	40.712451 
1118.000000	40.689301 
1117.000000	40.661263 
1116.000000	40.627956 
1115.000000	40.590381 
1114.000000	40.551376 
1113.000000	40.514588 
1112.000000	40.484189 
1111.000000	40.464115 
1110.000000	40.456986 
1109.000000	40.463399 
1108.000000	40.481686 
1107.000000	40.507888 
1106.000000	40.536355 
1105.000000	40.560960 
1104.000000	40.576004 
1103.000000	40.577268 
1102.000000	40.563058 
1101.000000	40.534162 
1100.000000	40.494012 
1099.000000	40.447711 
1098.000000	40.401244 
1097.000000	40.360236 
1096.000000	40.329003 
1095.000000	40.309715 
1094.000000	40.302276 
1093.000000	40.304613 
1092.000000	40.312933 
1091.000000	40.322637 
1090.000000	40.329146 
1089.000000	40.328764 
1088.000000	40.319061 
1087.000000	40.299534 
1086.000000	40.271139 
1085.000000	40.236544 
1084.000000	40.198945 
1083.000000	40.162158 
1082.000000	40.129542 
1081.000000	40.103888 
1080.000000	40.086936 
1079.000000	40.079331 
1078.000000	40.080595 
1077.000000	40.089297 
1076.000000	40.103101 
1075.000000	40.119075 
1074.000000	40.134119 
1073.000000	40.145492 
1072.000000	40.151238 
1071.000000	40.150403 
1070.000000	40.143108 
1069.000000	40.130281 
1068.000000	40.113496 
1067.000000	40.094351 
1066.000000	40.074348 
1065.000000	40.054655 
1064.000000	40.035867 
1063.000000	40.018248 
1062.000000	40.001869 
1061.000000	39.986681 
1060.000000	39.972591 
1059.000000	39.959430 
1058.000000	39.947104 
1057.000000	39.935398 
1056.000000	39.924454 
1055.000000	39.914202 
1054.000000	39.904999 
1053.000000	39.897465 
1052.000000	39.892649 
1051.000000	39.891815 
1050.000000	39.896130 
1049.000000	39.906311 
1048.000000	39.922070 
1047.000000	39.942169 
1046.000000	39.964103 
1045.000000	39.984703 
1044.000000	40.000200 
1043.000000	40.007114 
1042.000000	40.002512 
1041.000000	39.984655 
1040.000000	39.953136 
1039.000000	39.909076 
1038.000000	39.855432 
1037.000000	39.796543 
1036.000000	39.737606 
1035.000000	39.683818 
1034.000000	39.639544 
1033.000000	39.607810 
1032.000000	39.589595 
1031.000000	39.584040 
1030.000000	39.588689 
1029.000000	39.600396 
1028.000000	39.615464 
1027.000000	39.631104 
1026.000000	39.645123 
1025.000000	39.656805 
1024.000000	39.665865 
1023.000000	39.672684 
1022.000000	39.677572 
1021.000000	39.680838 
1020.000000	39.682412 
1019.000000	39.682102 
1018.000000	39.679741 
1017.000000	39.675092 
1016.000000	39.668250 
1015.000000	39.658737 
1014.000000	39.645528 
1013.000000	39.626789 
1012.000000	39.600396 
1011.000000	39.564490 
1010.000000	39.518260 
1009.000000	39.462637 
1008.000000	39.400696 
1007.000000	39.337205 
1006.000000	39.278197 
1005.000000	39.229297 
1004.000000	39.194869 
1003.000000	39.176678 
1002.000000	39.173865 
1001.000000	39.182591 
1000.000000	39.197564 
999.000000	 39.213061 
998.000000	 39.224624 
997.000000	 39.229321 
996.000000	 39.226818 
995.000000	 39.218711 
994.000000	 39.208245 
993.000000	 39.198780 
992.000000	 39.193487 
991.000000	 39.194464 
990.000000	 39.202499 
989.000000	 39.217185 
988.000000	 39.236712 
987.000000	 39.258527 
986.000000	 39.279341 
985.000000	 39.295768 
984.000000	 39.304542 
983.000000	 39.302730 
982.000000	 39.288282 
981.000000	 39.260220 
980.000000	 39.218592 
979.000000	 39.164686 
978.000000	 39.101052 
977.000000	 39.031243 
976.000000	 38.959026 
975.000000	 38.888406 
974.000000	 38.823199 
973.000000	 38.766884 
972.000000	 38.722062 
971.000000	 38.690614 
970.000000	 38.673257 
969.000000	 38.669657 
968.000000	 38.678193 
967.000000	 38.696265 
966.000000	 38.719820 
965.000000	 38.744711 
964.000000	 38.767290 
963.000000	 38.784885 
962.000000	 38.795876 
961.000000	 38.800311 
960.000000	 38.799452 
959.000000	 38.795185 
958.000000	 38.789343 
957.000000	 38.783216 
956.000000	 38.777303 
955.000000	 38.771176 
954.000000	 38.763856 
953.000000	 38.754439 
952.000000	 38.742303 
951.000000	 38.727951 
950.000000	 38.712549 
949.000000	 38.697481 
948.000000	 38.684010 
947.000000	 38.673138 
946.000000	 38.664865 
945.000000	 38.658261 
944.000000	 38.651275 
943.000000	 38.641977 
942.000000	 38.628029 
941.000000	 38.607478 
940.000000	 38.578701 
939.000000	 38.540911 
938.000000	 38.494277 
937.000000	 38.440084 
936.000000	 38.380527 
935.000000	 38.318443 
934.000000	 38.257169 
933.000000	 38.200020 
932.000000	 38.149523 
931.000000	 38.107323 
930.000000	 38.074064 
929.000000	 38.049507 
928.000000	 38.032603 
927.000000	 38.022232 
926.000000	 38.017678 
925.000000	 38.019227 
924.000000	 38.027667 
923.000000	 38.044381 
922.000000	 38.070178 
921.000000	 38.104605 
920.000000	 38.145780 
919.000000	 38.190102 
918.000000	 38.232684 
917.000000	 38.268136 
916.000000	 38.291764 
915.000000	 38.299942 
914.000000	 38.291025 
913.000000	 38.265275 
912.000000	 38.225150 
911.000000	 38.174629 
910.000000	 38.118720 
909.000000	 38.062524 
908.000000	 38.010954 
907.000000	 37.967300 
906.000000	 37.933254 
905.000000	 37.908387 
904.000000	 37.890863 
903.000000	 37.877583 
902.000000	 37.865424 
901.000000	 37.851786 
900.000000	 37.835693 
899.000000	 37.818121 
898.000000	 37.802100 
897.000000	 37.791585 
896.000000	 37.790393 
895.000000	 37.801337 
894.000000	 37.824630 
893.000000	 37.857961 
892.000000	 37.895917 
891.000000	 37.931728 
890.000000	 37.958312 
889.000000	 37.970066 
888.000000	 37.964034 
887.000000	 37.940669 
886.000000	 37.903571 
885.000000	 37.858796 
884.000000	 37.813162 
883.000000	 37.773108 
882.000000	 37.743043 
881.000000	 37.724661 
880.000000	 37.716650 
879.000000	 37.715506 
878.000000	 37.716054 
877.000000	 37.712979 
876.000000	 37.701416 
875.000000	 37.678098 
874.000000	 37.641620 
873.000000	 37.592387 
872.000000	 37.532067 
871.000000	 37.463665 
870.000000	 37.390828 
869.000000	 37.318086 
868.000000	 37.250208 
867.000000	 37.192344 
866.000000	 37.148952 
865.000000	 37.123537 
864.000000	 37.117791 
863.000000	 37.131333 
862.000000	 37.160730 
861.000000	 37.200880 
860.000000	 37.245440 
859.000000	 37.287902 
858.000000	 37.322425 
857.000000	 37.344479 
856.000000	 37.351632 
855.000000	 37.342739 
854.000000	 37.317705 
853.000000	 37.277126 
852.000000	 37.222290 
851.000000	 37.155270 
850.000000	 37.079238 
849.000000	 36.998748 
848.000000	 36.919569 
847.000000	 36.848998 
846.000000	 36.794590 
845.000000	 36.762619 
844.000000	 36.756682 
843.000000	 36.776423 
842.000000	 36.817479 
841.000000	 36.871528 
840.000000	 36.928176 
839.000000	 36.976861 
838.000000	 37.009048 
837.000000	 37.019252 
836.000000	 37.006235 
835.000000	 36.972737 
834.000000	 36.923933 
833.000000	 36.866354 
832.000000	 36.805248 
831.000000	 36.743974 
830.000000	 36.682319 
829.000000	 36.617827 
828.000000	 36.546707 
827.000000	 36.466050 
826.000000	 36.376547 
825.000000	 36.283516 
824.000000	 36.196684 
823.000000	 36.128354 
822.000000	 36.090350 
821.000000	 36.090993 
820.000000	 36.132049 
819.000000	 36.207938 
818.000000	 36.307024 
817.000000	 36.414122 
816.000000	 36.514115 
815.000000	 36.594867 
814.000000	 36.649346 
813.000000	 36.676430 
812.000000	 36.679649 
811.000000	 36.665248 
810.000000	 36.640143 
809.000000	 36.609554 
808.000000	 36.576390 
807.000000	 36.540675 
806.000000	 36.501216 
805.000000	 36.456060 
804.000000	 36.405110 
803.000000	 36.350107 
802.000000	 36.295461 
801.000000	 36.246538 
800.000000	 36.208629 
799.000000	 36.184525 
798.000000	 36.173558 
797.000000	 36.171412 
796.000000	 36.170911 
795.000000	 36.164402 
794.000000	 36.145758 
793.000000	 36.111974 
792.000000	 36.063981 
791.000000	 36.006259 
790.000000	 35.945773 
789.000000	 35.889744 
788.000000	 35.844326 
787.000000	 35.812997 
786.000000	 35.796451 
785.000000	 35.793113 
784.000000	 35.799598 
783.000000	 35.812234 
782.000000	 35.827064 
781.000000	 35.840988 
780.000000	 35.851120 
779.000000	 35.854744 
778.000000	 35.849571 
777.000000	 35.833859 
776.000000	 35.806608 
775.000000	 35.767865 
774.000000	 35.718917 
773.000000	 35.662746 
772.000000	 35.602307 
771.000000	 35.540032 
770.000000	 35.476469 
769.000000	 35.410284 
768.000000	 35.338878 
767.000000	 35.259962 
766.000000	 35.172343 
765.000000	 35.078096 
764.000000	 34.983515 
763.000000	 34.899425 
762.000000	 34.838032 
761.000000	 34.811711 
760.000000	 34.828948 
759.000000	 34.892940 
758.000000	 34.999012 
757.000000	 35.136699 
756.000000	 35.290050 
755.000000	 35.442328 
754.000000	 35.578322 
753.000000	 35.688161 
752.000000	 35.768079 
751.000000	 35.820722 
750.000000	 35.853433 
749.000000	 35.875177 
748.000000	 35.893702 
747.000000	 35.912656 
746.000000	 35.931777 
745.000000	 35.944771 
744.000000	 35.942053 
743.000000	 35.912370 
742.000000	 35.846805 
741.000000	 35.739874 
740.000000	 35.591864 
739.000000	 35.408806 
738.000000	 35.202550 
737.000000	 34.988999 
736.000000	 34.786224 
735.000000	 34.610915 
734.000000	 34.476327 
733.000000	 34.390568 
732.000000	 34.355616 
731.000000	 34.366416 
730.000000	 34.412932 
729.000000	 34.481477 
728.000000	 34.558391 
727.000000	 34.630393 
726.000000	 34.689188 
725.000000	 34.730625 
724.000000	 34.756326 
723.000000	 34.770703 
722.000000	 34.780907 
721.000000	 34.794187 
720.000000	 34.815788 
719.000000	 34.847450 
718.000000	 34.887123 
717.000000	 34.929943 
716.000000	 34.968590 
715.000000	 34.994983 
714.000000	 35.001158 
713.000000	 34.980440 
712.000000	 34.928417 
711.000000	 34.843206 
710.000000	 34.725308 
709.000000	 34.577965 
708.000000	 34.407424 
707.000000	 34.222960 
706.000000	 34.035062 
705.000000	 33.855438 
704.000000	 33.696174 
703.000000	 33.568620 
702.000000	 33.480691 
701.000000	 33.437180 
700.000000	 33.437728 
699.000000	 33.477759 
698.000000	 33.548235 
697.000000	 33.637142 
696.000000	 33.730363 
695.000000	 33.814072 
694.000000	 33.876061 
693.000000	 33.907461 
692.000000	 33.903169 
691.000000	 33.862924 
690.000000	 33.790636 
689.000000	 33.694481 
688.000000	 33.585095 
687.000000	 33.474278 
686.000000	 33.373379 
685.000000	 33.291745 
684.000000	 33.235812 
683.000000	 33.208656 
682.000000	 33.209824 
681.000000	 33.235526 
680.000000	 33.279633 
679.000000	 33.334088 
678.000000	 33.390784 
677.000000	 33.441781 
676.000000	 33.481407 
675.000000	 33.506202 
674.000000	 33.515691 
673.000000	 33.512043 
672.000000	 33.499336 
671.000000	 33.482289 
670.000000	 33.465194 
669.000000	 33.451104 
668.000000	 33.441495 
667.000000	 33.436417 
666.000000	 33.434748 
665.000000	 33.435034 
664.000000	 33.436107 
663.000000	 33.437609 
662.000000	 33.439731 
661.000000	 33.442783 
660.000000	 33.446502 
659.000000	 33.449363 
658.000000	 33.449053 
657.000000	 33.442354 
656.000000	 33.425736 
655.000000	 33.395838 
654.000000	 33.351254 
653.000000	 33.291959 
652.000000	 33.219790 
651.000000	 33.137226 
650.000000	 33.047604 
649.000000	 32.953834 
648.000000	 32.858252 
647.000000	 32.762622 
646.000000	 32.667875 
645.000000	 32.575058 
644.000000	 32.485556 
643.000000	 32.401490 
642.000000	 32.324886 
641.000000	 32.258415 
640.000000	 32.204365 
639.000000	 32.164812 
638.000000	 32.140183 
637.000000	 32.130956 
636.000000	 32.137274 
635.000000	 32.159113 
634.000000	 32.195615 
633.000000	 32.245206 
632.000000	 32.304954 
631.000000	 32.370042 
630.000000	 32.434034 
629.000000	 32.489800 
628.000000	 32.530665 
627.000000	 32.551836 
626.000000	 32.551097 
625.000000	 32.529687 
624.000000	 32.491803 
623.000000	 32.444524 
622.000000	 32.395529 
621.000000	 32.352495 
620.000000	 32.320380 
619.000000	 32.302021 
618.000000	 32.296037 
617.000000	 32.298135 
616.000000	 32.301092 
615.000000	 32.297158 
614.000000	 32.278442 
613.000000	 32.238817 
612.000000	 32.175040 
611.000000	 32.087397 
610.000000	 31.980013 
609.000000	 31.860113 
608.000000	 31.737089 
607.000000	 31.620883 
606.000000	 31.519579 
605.000000	 31.438302 
604.000000	 31.378197 
603.000000	 31.336998 
602.000000	 31.310439 
601.000000	 31.293725 
600.000000	 31.282567 
599.000000	 31.274127 
598.000000	 31.267142 
597.000000	 31.261396 
596.000000	 31.256151 
595.000000	 31.250023 
594.000000	 31.240487 
593.000000	 31.224250 
592.000000	 31.198358 
591.000000	 31.160259 
590.000000	 31.108880 
589.000000	 31.044864 
588.000000	 30.971050 
587.000000	 30.891776 
586.000000	 30.812144 
585.000000	 30.737566 
584.000000	 30.672478 
583.000000	 30.621170 
582.000000	 30.587434 
581.000000	 30.573940 
580.000000	 30.581712 
579.000000	 30.609440 
578.000000	 30.652928 
577.000000	 30.705356 
576.000000	 30.757999 
575.000000	 30.800843 
574.000000	 30.824756 
573.000000	 30.823445 
572.000000	 30.795049 
571.000000	 30.742025 
570.000000	 30.671358 
569.000000	 30.592823 
568.000000	 30.517554 
567.000000	 30.455970 
566.000000	 30.415368 
565.000000	 30.400037 
564.000000	 30.408644 
563.000000	 30.436205 
562.000000	 30.472803 
561.000000	 30.506944 
560.000000	 30.525493 
559.000000	 30.516457 
558.000000	 30.470180 
557.000000	 30.381202 
556.000000	 30.250215 
555.000000	 30.084419 
554.000000	 29.897046 
553.000000	 29.705333 
552.000000	 29.528450 
551.000000	 29.383921 
550.000000	 29.284477 
549.000000	 29.235720 
548.000000	 29.235243 
547.000000	 29.273724 
546.000000	 29.335975 
545.000000	 29.405307 
544.000000	 29.466247 
543.000000	 29.508423 
542.000000	 29.526185 
541.000000	 29.520750 
540.000000	 29.497766 
539.000000	 29.466056 
538.000000	 29.434251 
537.000000	 29.408764 
536.000000	 29.393053 
535.000000	 29.385781 
534.000000	 29.383134 
533.000000	 29.377603 
532.000000	 29.361271 
531.000000	 29.326081 
530.000000	 29.266357 
529.000000	 29.179382 
528.000000	 29.066252 
527.000000	 28.932213 
526.000000	 28.785920 
525.000000	 28.638291 
524.000000	 28.500652 
523.000000	 28.383398 
522.000000	 28.293991 
521.000000	 28.235721 
520.000000	 28.207111 
519.000000	 28.202342 
518.000000	 28.212428 
517.000000	 28.227066 
516.000000	 28.236508 
515.000000	 28.232622 
514.000000	 28.210377 
513.000000	 28.167939 
512.000000	 28.106427 
511.000000	 28.028607 
510.000000	 27.938532 
509.000000	 27.840352 
508.000000	 27.738475 
507.000000	 27.637434 
506.000000	 27.542018 
505.000000	 27.456831 
504.000000	 27.386856 
503.000000	 27.336645 
502.000000	 27.309823 
501.000000	 27.308177 
500.000000	 27.330112 
499.000000	 27.369999 
498.000000	 27.419471 
497.000000	 27.468085 
496.000000	 27.504110 
495.000000	 27.516460 
494.000000	 27.497196 
493.000000	 27.442812 
492.000000	 27.354454 
491.000000	 27.238368 
490.000000	 27.104783 
489.000000	 26.966476 
488.000000	 26.837134 
487.000000	 26.728892 
486.000000	 26.649355 
485.000000	 26.602101 
484.000000	 26.587057 
483.000000	 26.601552 
482.000000	 26.640772 
481.000000	 26.699399 
480.000000	 26.772975 
479.000000	 26.855897 
478.000000	 26.940917 
477.000000	 27.017855 
476.000000	 27.074861 
475.000000	 27.097058 
474.000000	 27.069139 
473.000000	 26.978373 
472.000000	 26.817941 
471.000000	 26.587867 
470.000000	 26.295900 
469.000000	 25.956511 
468.000000	 25.589466 
467.000000	 25.215744 
466.000000	 24.857068 
465.000000	 24.531006 
464.000000	 24.254155 
463.000000	 24.040889 
462.000000	 23.906064 
461.000000	 23.860645 
460.000000	 23.913526 
459.000000	 24.067425 
458.000000	 24.317693 
457.000000	 24.646306 
456.000000	 25.025868 
455.000000	 25.419044 
454.000000	 25.787472 
453.000000	 26.095986 
452.000000	 26.321053 
451.000000	 26.452612 
450.000000	 26.497697 
449.000000	 26.478099 
448.000000	 26.422548 
447.000000	 26.359200 
446.000000	 26.309967 
445.000000	 26.286888 
444.000000	 26.287484 
443.000000	 26.297378 
442.000000	 26.299905 
441.000000	 26.280260 
440.000000	 26.229238 
439.000000	 26.144242 
438.000000	 26.029253 
437.000000	 25.890445 
436.000000	 25.736308 
435.000000	 25.572061 
434.000000	 25.391268 
433.000000	 25.184416 
432.000000	 24.948811 
431.000000	 24.690127 
430.000000	 24.412727 
429.000000	 24.137139 
428.000000	 23.903226 
427.000000	 23.756718 
426.000000	 23.734068 
425.000000	 23.856687 
424.000000	 24.120187 
423.000000	 24.498200 
422.000000	 24.944162 
421.000000	 25.410032 
420.000000	 25.854182 
419.000000	 26.264214 
418.000000	 26.657319 
417.000000	 27.063322 
416.000000	 27.507686 
415.000000	 28.005075 
414.000000	 28.539752 
413.000000	 29.068517 
412.000000	 29.508924 
411.000000	 29.778647 
410.000000	 29.778838 
409.000000	 29.422378 
408.000000	 28.625345 
407.000000	 27.350616 
406.000000	 25.585675 
405.000000	 23.361420 
404.000000	 20.744943 
403.000000	 17.820858 
402.000000	 14.723801 
401.000000	 11.641144 
400.000000	 8.796620  
399.000000	 6.407952  
398.000000	 4.678249  
397.000000	 3.745913  
396.000000	 3.682613  
395.000000	 4.451394  
394.000000	 5.976390  
393.000000	 8.138608  
392.000000	 10.820960 
391.000000	 13.906669 
390.000000	 17.197966 
389.000000	 20.434856 
388.000000	 23.278498 
387.000000	 25.407958 
386.000000	 26.663374 
385.000000	 27.074456 
384.000000	 26.965260 
383.000000	 26.768994 
382.000000	 26.886796 
381.000000	 27.517533 
380.000000	 28.558993 
379.000000	 29.636907 
378.000000	 30.283594 
377.000000	 29.997515 
376.000000	 28.583741 
375.000000	 25.978183 
374.000000	 22.219347 
373.000000	 17.482590 
372.000000	 11.917281 
371.000000	 5.889391  
370.000000	 -0.073742 

