PE IR       SPECTRUM    SPECTRUM    ASCII       PEDS        1.60        
  -1
C-9A61~1.ASC
17/03/27
16:03:50.00
17/03/27
16:03:50.00
tln
$C-4040-8_t0020$<tbV0>[-7.8,-10.4,8.0,0.0,27,1,0]
370.000000
64









2002,4.07    
MIRTGS : RIGHTBACK : INTERNAL 2
MIR : ON : INTERNAL 2
OPTKBR

0.200000
8
8.000000
FILLER
RATIO
SPECTRUM
UNLOCKED 256

DOUBLE
64
COMBINED
1
0
0


1.000000
RATIO


1
0
TRUE
51149
0
LEFT NOT FITTED RIGHT NOT FITTED 0
NONE
NONE
15600
12.000000
4.427000
51148
TRUE
1 0 8 72 0 0 0 0 

15798.010000






#HDR
-1
-1
#GR
CM-1
%T
0.00002384185791015625
0.0
5000.000000
-1.000000
4631
8
73.018097
18.781399
#DATA
5000.000000	64.248943 
4999.000000	64.219737 
4998.000000	64.172267 
4997.000000	64.118003 
4996.000000	64.072394 
4995.000000	64.051628 
4994.000000	64.068222 
4993.000000	64.127492 
4992.000000	64.225983 
4991.000000	64.353132 
4990.000000	64.491415 
4989.000000	64.620876 
4988.000000	64.722275 
4987.000000	64.781308 
4986.000000	64.790916 
4985.000000	64.752411 
4984.000000	64.674425 
4983.000000	64.570069 
4982.000000	64.453983 
4981.000000	64.338850 
4980.000000	64.232563 
4979.000000	64.137840 
4978.000000	64.053082 
4977.000000	63.975572 
4976.000000	63.905382 
4975.000000	63.846707 
4974.000000	63.808059 
4973.000000	63.798999 
4972.000000	63.827729 
4971.000000	63.895487 
4970.000000	63.993978 
4969.000000	64.104914 
4968.000000	64.202070 
4967.000000	64.258265 
4966.000000	64.252018 
4965.000000	64.173984 
4964.000000	64.029359 
4963.000000	63.838791 
4962.000000	63.634204 
4961.000000	63.450264 
4960.000000	63.316035 
4959.000000	63.248348 
4958.000000	63.248324 
4957.000000	63.303518 
4956.000000	63.391923 
4955.000000	63.488650 
4954.000000	63.571381 
4953.000000	63.622760 
4952.000000	63.632273 
4951.000000	63.594722 
4950.000000	63.509988 
4949.000000	63.379359 
4948.000000	63.207054 
4947.000000	63.000273 
4946.000000	62.771725 
4945.000000	62.538170 
4944.000000	62.322616 
4943.000000	62.150669 
4942.000000	62.048697 
4941.000000	62.037444 
4940.000000	62.129306 
4939.000000	62.323236 
4938.000000	62.604951 
4937.000000	62.947440 
4936.000000	63.315415 
4935.000000	63.670229 
4934.000000	63.976764 
4933.000000	64.208102 
4932.000000	64.350199 
4931.000000	64.402604 
4930.000000	64.378023 
4929.000000	64.298534 
4928.000000	64.192175 
4927.000000	64.086842 
4926.000000	64.006376 
4925.000000	63.965892 
4924.000000	63.971519 
4923.000000	64.019823 
4922.000000	64.100885 
4921.000000	64.201188 
4920.000000	64.307022 
4919.000000	64.408469 
4918.000000	64.499974 
4917.000000	64.581775 
4916.000000	64.657759 
4915.000000	64.733386 
4914.000000	64.811754 
4913.000000	64.892792 
4912.000000	64.972496 
4911.000000	65.044331 
4910.000000	65.102458 
4909.000000	65.142369 
4908.000000	65.163969 
4907.000000	65.169167 
4906.000000	65.162324 
4905.000000	65.146255 
4904.000000	65.121078 
4903.000000	65.084576 
4902.000000	65.033054 
4901.000000	64.962577 
4900.000000	64.871096 
4899.000000	64.760446 
4898.000000	64.637231 
4897.000000	64.511728 
4896.000000	64.396595 
4895.000000	64.303565 
4894.000000	64.241862 
4893.000000	64.216160 
4892.000000	64.226031 
4891.000000	64.267039 
4890.000000	64.330458 
4889.000000	64.405488 
4888.000000	64.479589 
4887.000000	64.540171 
4886.000000	64.575982 
4885.000000	64.576888 
4884.000000	64.538240 
4883.000000	64.461326 
4882.000000	64.355111 
4881.000000	64.234709 
4880.000000	64.119315 
4879.000000	64.028811 
4878.000000	63.979053 
4877.000000	63.978600 
4876.000000	64.026808 
4875.000000	64.114165 
4874.000000	64.224791 
4873.000000	64.340305 
4872.000000	64.443659 
4871.000000	64.523100 
4870.000000	64.574122 
4869.000000	64.599418 
4868.000000	64.606118 
4867.000000	64.603233 
4866.000000	64.599037 
4865.000000	64.598274 
4864.000000	64.602017 
4863.000000	64.607143 
4862.000000	64.610004 
4861.000000	64.605665 
4860.000000	64.591145 
4859.000000	64.564776 
4858.000000	64.527010 
4857.000000	64.480113 
4856.000000	64.427661 
4855.000000	64.374041 
4854.000000	64.323210 
4853.000000	64.279031 
4852.000000	64.244675 
4851.000000	64.222240 
4850.000000	64.212489 
4849.000000	64.214920 
4848.000000	64.227867 
4847.000000	64.248657 
4846.000000	64.274525 
4845.000000	64.303278 
4844.000000	64.333868 
4843.000000	64.366269 
4842.000000	64.401149 
4841.000000	64.439582 
4840.000000	64.481687 
4839.000000	64.525747 
4838.000000	64.567899 
4837.000000	64.602684 
4836.000000	64.624094 
4835.000000	64.627623 
4834.000000	64.610910 
4833.000000	64.574956 
4832.000000	64.523625 
4831.000000	64.463925 
4830.000000	64.403128 
4829.000000	64.347600 
4828.000000	64.300870 
4827.000000	64.263415 
4826.000000	64.232516 
4825.000000	64.203453 
4824.000000	64.171266 
4823.000000	64.132547 
4822.000000	64.085936 
4821.000000	64.032673 
4820.000000	63.976073 
4819.000000	63.920783 
4818.000000	63.871240 
4817.000000	63.831233 
4816.000000	63.803029 
4815.000000	63.787746 
4814.000000	63.785719 
4813.000000	63.797044 
4812.000000	63.821363 
4811.000000	63.858413 
4810.000000	63.907170 
4809.000000	63.966035 
4808.000000	64.031529 
4807.000000	64.099359 
4806.000000	64.164662 
4805.000000	64.222812 
4804.000000	64.270186 
4803.000000	64.304685 
4802.000000	64.325833 
4801.000000	64.334845 
4800.000000	64.334225 
4799.000000	64.327311 
4798.000000	64.317584 
4797.000000	64.308619 
4796.000000	64.303970 
4795.000000	64.306688 
4794.000000	64.319181 
4793.000000	64.342880 
4792.000000	64.377975 
4791.000000	64.422988 
4790.000000	64.474630 
4789.000000	64.528393 
4788.000000	64.579057 
4787.000000	64.621543 
4786.000000	64.651679 
4785.000000	64.667439 
4784.000000	64.668583 
4783.000000	64.656853 
4782.000000	64.635014 
4781.000000	64.606499 
4780.000000	64.574527 
4779.000000	64.542222 
4778.000000	64.511871 
4777.000000	64.485430 
4776.000000	64.463901 
4775.000000	64.448142 
4774.000000	64.437866 
4773.000000	64.431953 
4772.000000	64.428210 
4771.000000	64.423823 
4770.000000	64.415645 
4769.000000	64.400601 
4768.000000	64.376807 
4767.000000	64.344143 
4766.000000	64.304423 
4765.000000	64.261484 
4764.000000	64.220523 
4763.000000	64.187145 
4762.000000	64.166045 
4761.000000	64.159846 
4760.000000	64.168524 
4759.000000	64.189672 
4758.000000	64.218235 
4757.000000	64.248371 
4756.000000	64.274692 
4755.000000	64.293479 
4754.000000	64.302873 
4753.000000	64.303469 
4752.000000	64.297509 
4751.000000	64.288377 
4750.000000	64.279174 
4749.000000	64.272379 
4748.000000	64.269137 
4747.000000	64.269423 
4746.000000	64.272546 
4745.000000	64.277243 
4744.000000	64.282488 
4743.000000	64.287495 
4742.000000	64.291763 
4741.000000	64.294719 
4740.000000	64.295578 
4739.000000	64.293408 
4738.000000	64.287400 
4737.000000	64.276933 
4736.000000	64.261698 
4735.000000	64.242553 
4734.000000	64.220786 
4733.000000	64.197707 
4732.000000	64.174079 
4731.000000	64.149975 
4730.000000	64.124798 
4729.000000	64.097404 
4728.000000	64.066934 
4727.000000	64.033269 
4726.000000	63.997602 
4725.000000	63.962459 
4724.000000	63.931202 
4723.000000	63.907003 
4722.000000	63.891935 
4721.000000	63.885927 
4720.000000	63.886904 
4719.000000	63.890981 
4718.000000	63.893961 
4717.000000	63.892292 
4716.000000	63.884663 
4715.000000	63.872408 
4714.000000	63.859415 
4713.000000	63.851213 
4712.000000	63.853430 
4711.000000	63.870215 
4710.000000	63.903617 
4709.000000	63.952612 
4708.000000	64.013767 
4707.000000	64.081525 
4706.000000	64.149475 
4705.000000	64.211320 
4704.000000	64.261937 
4703.000000	64.297771 
4702.000000	64.316844 
4701.000000	64.318847 
4700.000000	64.305591 
4699.000000	64.280200 
4698.000000	64.246845 
4697.000000	64.210295 
4696.000000	64.176273 
4695.000000	64.149618 
4694.000000	64.134287 
4693.000000	64.131951 
4692.000000	64.142274 
4691.000000	64.162516 
4690.000000	64.188146 
4689.000000	64.213657 
4688.000000	64.233970 
4687.000000	64.245104 
4686.000000	64.244842 
4685.000000	64.233040 
4684.000000	64.211249 
4683.000000	64.182329 
4682.000000	64.149975 
4681.000000	64.117360 
4680.000000	64.087462 
4679.000000	64.062643 
4678.000000	64.045357 
4677.000000	64.037680 
4676.000000	64.042115 
4675.000000	64.061689 
4674.000000	64.099192 
4673.000000	64.155936 
4672.000000	64.230871 
4671.000000	64.319896 
4670.000000	64.415884 
4669.000000	64.509129 
4668.000000	64.589571 
4667.000000	64.648270 
4666.000000	64.679837 
4665.000000	64.683771 
4664.000000	64.664435 
4663.000000	64.629960 
4662.000000	64.590167 
4661.000000	64.554452 
4660.000000	64.528799 
4659.000000	64.514923 
4658.000000	64.509868 
4657.000000	64.507389 
4656.000000	64.500188 
4655.000000	64.482188 
4654.000000	64.450359 
4653.000000	64.405512 
4652.000000	64.351415 
4651.000000	64.294338 
4650.000000	64.240479 
4649.000000	64.195394 
4648.000000	64.162230 
4647.000000	64.142298 
4646.000000	64.135241 
4645.000000	64.139938 
4644.000000	64.155387 
4643.000000	64.180850 
4642.000000	64.215373 
4641.000000	64.257526 
4640.000000	64.304852 
4639.000000	64.353752 
4638.000000	64.399147 
4637.000000	64.436006 
4636.000000	64.460301 
4635.000000	64.469814 
4634.000000	64.464807 
4633.000000	64.447069 
4632.000000	64.419531 
4631.000000	64.385485 
4630.000000	64.348006 
4629.000000	64.309692 
4628.000000	64.272975 
4627.000000	64.240717 
4626.000000	64.216303 
4625.000000	64.203715 
4624.000000	64.206457 
4623.000000	64.226579 
4622.000000	64.263534 
4621.000000	64.313602 
4620.000000	64.370203 
4619.000000	64.424633 
4618.000000	64.468288 
4617.000000	64.494180 
4616.000000	64.498853 
4615.000000	64.483284 
4614.000000	64.452457 
4613.000000	64.413833 
4612.000000	64.375948 
4611.000000	64.346194 
4610.000000	64.329957 
4609.000000	64.329528 
4608.000000	64.344811 
4607.000000	64.373850 
4606.000000	64.413380 
4605.000000	64.459705 
4604.000000	64.508628 
4603.000000	64.555692 
4602.000000	64.596414 
4601.000000	64.626479 
4600.000000	64.641714 
4599.000000	64.638948 
4598.000000	64.616703 
4597.000000	64.575457 
4596.000000	64.518451 
4595.000000	64.450979 
4594.000000	64.379763 
4593.000000	64.311695 
4592.000000	64.252877 
4591.000000	64.207625 
4590.000000	64.177942 
4589.000000	64.164113 
4588.000000	64.164662 
4587.000000	64.178180 
4586.000000	64.203953 
4585.000000	64.242076 
4584.000000	64.292573 
4583.000000	64.354968 
4582.000000	64.427208 
4581.000000	64.504861 
4580.000000	64.580893 
4579.000000	64.646387 
4578.000000	64.692020 
4577.000000	64.710307 
4576.000000	64.697074 
4575.000000	64.652633 
4574.000000	64.581751 
4573.000000	64.492702 
4572.000000	64.395666 
4571.000000	64.301109 
4570.000000	64.218068 
4569.000000	64.152717 
4568.000000	64.108157 
4567.000000	64.085006 
4566.000000	64.081430 
4565.000000	64.094448 
4564.000000	64.120078 
4563.000000	64.153957 
4562.000000	64.191055 
4561.000000	64.225459 
4560.000000	64.251041 
4559.000000	64.261221 
4558.000000	64.251136 
4557.000000	64.218306 
4556.000000	64.164233 
4555.000000	64.094471 
4554.000000	64.018273 
4553.000000	63.947105 
4552.000000	63.892054 
4551.000000	63.861513 
4550.000000	63.858723 
4549.000000	63.881111 
4548.000000	63.920474 
4547.000000	63.964819 
4546.000000	64.001274 
4545.000000	64.019346 
4544.000000	64.013552 
4543.000000	63.984251 
4542.000000	63.937306 
4541.000000	63.881587 
4540.000000	63.825321 
4539.000000	63.774156 
4538.000000	63.729739 
4537.000000	63.690471 
4536.000000	63.652634 
4535.000000	63.613247 
4534.000000	63.572502 
4533.000000	63.534188 
4532.000000	63.504862 
4531.000000	63.492298 
4530.000000	63.502240 
4529.000000	63.537383 
4528.000000	63.595533 
4527.000000	63.670873 
4526.000000	63.754653 
4525.000000	63.838028 
4524.000000	63.913798 
4523.000000	63.977742 
4522.000000	64.028644 
4521.000000	64.067268 
4520.000000	64.095044 
4519.000000	64.112877 
4518.000000	64.120531 
4517.000000	64.116597 
4516.000000	64.099669 
4515.000000	64.069914 
4514.000000	64.030098 
4513.000000	63.986444 
4512.000000	63.947153 
4511.000000	63.921451 
4510.000000	63.916802 
4509.000000	63.935947 
4508.000000	63.977050 
4507.000000	64.033532 
4506.000000	64.096593 
4505.000000	64.157795 
4504.000000	64.210557 
4503.000000	64.252090 
4502.000000	64.281630 
4501.000000	64.299893 
4500.000000	64.307045 
4499.000000	64.301800 
4498.000000	64.281797 
4497.000000	64.244294 
4496.000000	64.188647 
4495.000000	64.117217 
4494.000000	64.036345 
4493.000000	63.955378 
4492.000000	63.884711 
4491.000000	63.833475 
4490.000000	63.805675 
4489.000000	63.800978 
4488.000000	63.814139 
4487.000000	63.838768 
4486.000000	63.869810 
4485.000000	63.904976 
4484.000000	63.948535 
4483.000000	64.004969 
4482.000000	64.073586 
4481.000000	64.148783 
4480.000000	64.219713 
4479.000000	64.272642 
4478.000000	64.292860 
4477.000000	64.272141 
4476.000000	64.213323 
4475.000000	64.128518 
4474.000000	64.037132 
4473.000000	63.959741 
4472.000000	63.912153 
4471.000000	63.903856 
4470.000000	63.936352 
4469.000000	64.002037 
4468.000000	64.087343 
4467.000000	64.181780 
4466.000000	64.280509 
4465.000000	64.381575 
4464.000000	64.487004 
4463.000000	64.597916 
4462.000000	64.717602 
4461.000000	64.842152 
4460.000000	64.972519 
4459.000000	65.113258 
4458.000000	65.280270 
4457.000000	65.497350 
4456.000000	65.793371 
4455.000000	66.194510 
4454.000000	66.714048 
4453.000000	67.344713 
4452.000000	68.055129 
4451.000000	68.794941 
4450.000000	69.499301 
4449.000000	70.105218 
4448.000000	70.555400 
4447.000000	70.812582 
4446.000000	70.856523 
4445.000000	70.688843 
4444.000000	70.319867 
4443.000000	69.766950 
4442.000000	69.049835 
4441.000000	68.192410 
4440.000000	67.227220 
4439.000000	66.198086 
4438.000000	65.164637 
4437.000000	64.195966 
4436.000000	63.361787 
4435.000000	62.721061 
4434.000000	62.304496 
4433.000000	62.114477 
4432.000000	62.121152 
4431.000000	62.274956 
4430.000000	62.509536 
4429.000000	62.763619 
4428.000000	62.986063 
4427.000000	63.148999 
4426.000000	63.238430 
4425.000000	63.262629 
4424.000000	63.239979 
4423.000000	63.195681 
4422.000000	63.150191 
4421.000000	63.117885 
4420.000000	63.105106 
4419.000000	63.109517 
4418.000000	63.123583 
4417.000000	63.138771 
4416.000000	63.148808 
4415.000000	63.153052 
4414.000000	63.156700 
4413.000000	63.158917 
4412.000000	63.153862 
4411.000000	63.137936 
4410.000000	63.109803 
4409.000000	63.068890 
4408.000000	63.016200 
4407.000000	62.962865 
4406.000000	62.919950 
4405.000000	62.890625 
4404.000000	62.870025 
4403.000000	62.845301 
4402.000000	62.800741 
4401.000000	62.722206 
4400.000000	62.604379 
4399.000000	62.453603 
4398.000000	62.288260 
4397.000000	62.139987 
4396.000000	62.035989 
4395.000000	61.989402 
4394.000000	61.995506 
4393.000000	62.029552 
4392.000000	62.064146 
4391.000000	62.076497 
4390.000000	62.083625 
4389.000000	62.143635 
4388.000000	62.353658 
4387.000000	62.822484 
4386.000000	63.633608 
4385.000000	64.812779 
4384.000000	66.301417 
4383.000000	67.963147 
4382.000000	69.613647 
4381.000000	71.058320 
4380.000000	72.148561 
4379.000000	72.800230 
4378.000000	73.018097 
4377.000000	72.868299 
4376.000000	72.464179 
4375.000000	71.913290 
4374.000000	71.294784 
4373.000000	70.636606 
4372.000000	69.930648 
4371.000000	69.143509 
4370.000000	68.258237 
4369.000000	67.285013 
4368.000000	66.286683 
4367.000000	65.351796 
4366.000000	64.577412 
4365.000000	64.035654 
4364.000000	63.748192 
4363.000000	63.689875 
4362.000000	63.793396 
4361.000000	63.974785 
4360.000000	64.155054 
4359.000000	64.279103 
4358.000000	64.326572 
4357.000000	64.299821 
4356.000000	64.221858 
4355.000000	64.121365 
4354.000000	64.026188 
4353.000000	63.950490 
4352.000000	63.896775 
4351.000000	63.864135 
4350.000000	63.847732 
4349.000000	63.843965 
4348.000000	63.851451 
4347.000000	63.874888 
4346.000000	63.919568 
4345.000000	63.985085 
4344.000000	64.068031 
4343.000000	64.157629 
4342.000000	64.243602 
4341.000000	64.321088 
4340.000000	64.386582 
4339.000000	64.437866 
4338.000000	64.473891 
4337.000000	64.494752 
4336.000000	64.498639 
4335.000000	64.481878 
4334.000000	64.444017 
4333.000000	64.388442 
4332.000000	64.319944 
4331.000000	64.244747 
4330.000000	64.169883 
4329.000000	64.102292 
4328.000000	64.048624 
4327.000000	64.013338 
4326.000000	63.998675 
4325.000000	64.003443 
4324.000000	64.022970 
4323.000000	64.050507 
4322.000000	64.078307 
4321.000000	64.099788 
4320.000000	64.110136 
4319.000000	64.107871 
4318.000000	64.094567 
4317.000000	64.073848 
4316.000000	64.050102 
4315.000000	64.026546 
4314.000000	64.004397 
4313.000000	63.981962 
4312.000000	63.956046 
4311.000000	63.922357 
4310.000000	63.877201 
4309.000000	63.818788 
4308.000000	63.748264 
4307.000000	63.669514 
4306.000000	63.588881 
4305.000000	63.513755 
4304.000000	63.451647 
4303.000000	63.408708 
4302.000000	63.389134 
4301.000000	63.394117 
4300.000000	63.422250 
4299.000000	63.469815 
4298.000000	63.531851 
4297.000000	63.602352 
4296.000000	63.675403 
4295.000000	63.745260 
4294.000000	63.807201 
4293.000000	63.857722 
4292.000000	63.894581 
4291.000000	63.916683 
4290.000000	63.924074 
4289.000000	63.918209 
4288.000000	63.901090 
4287.000000	63.875532 
4286.000000	63.844680 
4285.000000	63.811898 
4284.000000	63.780713 
4283.000000	63.754820 
4282.000000	63.737297 
4281.000000	63.730478 
4280.000000	63.736057 
4279.000000	63.755059 
4278.000000	63.787674 
4277.000000	63.833165 
4276.000000	63.889837 
4275.000000	63.954544 
4274.000000	64.022564 
4273.000000	64.087724 
4272.000000	64.143228 
4271.000000	64.182472 
4270.000000	64.200139 
4269.000000	64.192914 
4268.000000	64.160990 
4267.000000	64.107275 
4266.000000	64.037561 
4265.000000	63.958787 
4264.000000	63.877940 
4263.000000	63.801097 
4262.000000	63.732838 
4261.000000	63.676309 
4260.000000	63.633084 
4259.000000	63.604712 
4258.000000	63.592863 
4257.000000	63.599443 
4256.000000	63.626003 
4255.000000	63.672423 
4254.000000	63.735818 
4253.000000	63.810110 
4252.000000	63.886499 
4251.000000	63.954639 
4250.000000	64.004802 
4249.000000	64.030385 
4248.000000	64.029359 
4247.000000	64.005303 
4246.000000	63.966155 
4245.000000	63.922643 
4244.000000	63.885283 
4243.000000	63.862442 
4242.000000	63.857579 
4241.000000	63.869500 
4240.000000	63.892149 
4239.000000	63.917398 
4238.000000	63.936400 
4237.000000	63.942742 
4236.000000	63.933205 
4235.000000	63.908028 
4234.000000	63.870978 
4233.000000	63.827562 
4232.000000	63.784408 
4231.000000	63.747334 
4230.000000	63.721275 
4229.000000	63.709282 
4228.000000	63.712668 
4227.000000	63.731193 
4226.000000	63.762807 
4225.000000	63.804221 
4224.000000	63.851523 
4223.000000	63.900637 
4222.000000	63.946795 
4221.000000	63.985633 
4220.000000	64.013433 
4219.000000	64.028143 
4218.000000	64.029192 
4217.000000	64.018225 
4216.000000	63.998651 
4215.000000	63.975501 
4214.000000	63.954806 
4213.000000	63.942003 
4212.000000	63.941502 
4211.000000	63.954925 
4210.000000	63.981580 
4209.000000	64.017391 
4208.000000	64.056253 
4207.000000	64.090681 
4206.000000	64.113426 
4205.000000	64.119124 
4204.000000	64.105534 
4203.000000	64.073419 
4202.000000	64.026165 
4201.000000	63.967943 
4200.000000	63.902544 
4199.000000	63.832378 
4198.000000	63.758349 
4197.000000	63.680005 
4196.000000	63.597035 
4195.000000	63.510751 
4194.000000	63.425374 
4193.000000	63.348126 
4192.000000	63.288164 
4191.000000	63.254451 
4190.000000	63.253402 
4189.000000	63.286209 
4188.000000	63.348245 
4187.000000	63.428997 
4186.000000	63.514685 
4185.000000	63.591217 
4184.000000	63.646888 
4183.000000	63.675355 
4182.000000	63.675332 
4181.000000	63.650155 
4180.000000	63.605833 
4179.000000	63.548803 
4178.000000	63.485074 
4177.000000	63.419365 
4176.000000	63.355660 
4175.000000	63.297677 
4174.000000	63.249850 
4173.000000	63.217401 
4172.000000	63.205623 
4171.000000	63.218951 
4170.000000	63.259005 
4169.000000	63.324069 
4168.000000	63.408446 
4167.000000	63.503813 
4166.000000	63.600325 
4165.000000	63.689136 
4164.000000	63.764405 
4163.000000	63.823723 
4162.000000	63.868093 
4161.000000	63.900470 
4160.000000	63.925194 
4159.000000	63.945460 
4158.000000	63.962888 
4157.000000	63.976502 
4156.000000	63.984441 
4155.000000	63.983273 
4154.000000	63.970327 
4153.000000	63.943481 
4152.000000	63.902521 
4151.000000	63.849139 
4150.000000	63.787150 
4149.000000	63.721942 
4148.000000	63.659644 
4147.000000	63.605976 
4146.000000	63.565230 
4145.000000	63.539958 
4144.000000	63.530516 
4143.000000	63.534569 
4142.000000	63.547706 
4141.000000	63.563847 
4140.000000	63.577246 
4139.000000	63.583302 
4138.000000	63.580679 
4137.000000	63.570451 
4136.000000	63.556957 
4135.000000	63.546371 
4134.000000	63.545560 
4133.000000	63.559627 
4132.000000	63.590669 
4131.000000	63.637948 
4130.000000	63.696908 
4129.000000	63.760495 
4128.000000	63.820052 
4127.000000	63.867020 
4126.000000	63.894939 
4125.000000	63.900566 
4124.000000	63.885283 
4123.000000	63.854622 
4122.000000	63.817596 
4121.000000	63.784933 
4120.000000	63.766169 
4119.000000	63.767313 
4118.000000	63.789820 
4117.000000	63.830041 
4116.000000	63.879966 
4115.000000	63.929104 
4114.000000	63.967299 
4113.000000	63.986873 
4112.000000	63.984394 
4111.000000	63.961076 
4110.000000	63.921976 
4109.000000	63.874745 
4108.000000	63.827466 
4107.000000	63.786864 
4106.000000	63.756990 
4105.000000	63.738656 
4104.000000	63.730192 
4103.000000	63.728260 
4102.000000	63.729453 
4101.000000	63.731312 
4100.000000	63.732790 
4099.000000	63.734817 
4098.000000	63.739132 
4097.000000	63.748550 
4096.000000	63.765406 
4095.000000	63.791465 
4094.000000	63.826799 
4093.000000	63.869810 
4092.000000	63.917469 
4091.000000	63.965582 
4090.000000	64.009594 
4089.000000	64.045143 
4088.000000	64.069151 
4087.000000	64.079904 
4086.000000	64.077448 
4085.000000	64.063453 
4084.000000	64.040684 
4083.000000	64.012527 
4082.000000	63.982367 
4081.000000	63.953495 
4080.000000	63.928365 
4079.000000	63.908791 
4078.000000	63.895606 
4077.000000	63.888883 
4076.000000	63.888454 
4075.000000	63.893628 
4074.000000	63.903975 
4073.000000	63.918924 
4072.000000	63.938379 
4071.000000	63.962197 
4070.000000	63.990402 
4069.000000	64.022707 
4068.000000	64.058184 
4067.000000	64.094996 
4066.000000	64.130210 
4065.000000	64.159822 
4064.000000	64.179348 
4063.000000	64.184665 
4062.000000	64.173173 
4061.000000	64.144825 
4060.000000	64.102292 
4059.000000	64.050674 
4058.000000	63.996958 
4057.000000	63.948321 
4056.000000	63.910865 
4055.000000	63.888001 
4054.000000	63.879919 
4053.000000	63.883709 
4052.000000	63.894295 
4051.000000	63.906025 
4050.000000	63.913798 
4049.000000	63.914895 
4048.000000	63.908958 
4047.000000	63.898611 
4046.000000	63.888120 
4045.000000	63.882517 
4044.000000	63.885664 
4043.000000	63.899707 
4042.000000	63.924312 
4041.000000	63.956737 
4040.000000	63.992595 
4039.000000	64.026474 
4038.000000	64.053153 
4037.000000	64.068341 
4036.000000	64.069676 
4035.000000	64.056897 
4034.000000	64.032101 
4033.000000	63.998842 
4032.000000	63.961863 
4031.000000	63.926029 
4030.000000	63.895797 
4029.000000	63.874697 
4028.000000	63.864874 
4027.000000	63.866996 
4026.000000	63.880085 
4025.000000	63.902354 
4024.000000	63.930892 
4023.000000	63.961935 
4022.000000	63.991451 
4021.000000	64.015316 
4020.000000	64.030408 
4019.000000	64.034724 
4018.000000	64.028215 
4017.000000	64.012336 
4016.000000	63.990330 
4015.000000	63.966655 
4014.000000	63.945794 
4013.000000	63.931417 
4012.000000	63.925313 
4011.000000	63.927125 
4010.000000	63.934111 
4009.000000	63.942027 
4008.000000	63.946366 
4007.000000	63.943791 
4006.000000	63.932824 
4005.000000	63.914728 
4004.000000	63.893175 
4003.000000	63.873553 
4002.000000	63.861536 
4001.000000	63.861632 
4000.000000	63.875889 
3999.000000	63.903141 
3998.000000	63.939976 
3997.000000	63.980388 
3996.000000	64.017462 
3995.000000	64.044237 
3994.000000	64.055705 
3993.000000	64.049315 
3992.000000	64.025163 
3991.000000	63.985800 
3990.000000	63.935637 
3989.000000	63.879752 
3988.000000	63.823103 
3987.000000	63.769626 
3986.000000	63.722038 
3985.000000	63.681244 
3984.000000	63.646864 
3983.000000	63.617587 
3982.000000	63.591790 
3981.000000	63.567996 
3980.000000	63.545489 
3979.000000	63.524055 
3978.000000	63.504838 
3977.000000	63.489174 
3976.000000	63.479256 
3975.000000	63.477063 
3974.000000	63.484907 
3973.000000	63.504862 
3972.000000	63.538408 
3971.000000	63.586044 
3970.000000	63.646697 
3969.000000	63.717389 
3968.000000	63.793253 
3967.000000	63.867855 
3966.000000	63.934183 
3965.000000	63.986063 
3964.000000	64.019131 
3963.000000	64.031839 
3962.000000	64.025449 
3961.000000	64.003992 
3960.000000	63.972878 
3959.000000	63.938260 
3958.000000	63.904786 
3957.000000	63.875126 
3956.000000	63.849902 
3955.000000	63.828587 
3954.000000	63.810372 
3953.000000	63.795137 
3952.000000	63.784027 
3951.000000	63.779330 
3950.000000	63.783502 
3949.000000	63.797903 
3948.000000	63.821768 
3947.000000	63.851785 
3946.000000	63.882470 
3945.000000	63.907241 
3944.000000	63.920235 
3943.000000	63.917350 
3942.000000	63.897538 
3941.000000	63.862466 
3940.000000	63.816332 
3939.000000	63.764858 
3938.000000	63.713812 
3937.000000	63.668656 
3936.000000	63.633084 
3935.000000	63.610029 
3934.000000	63.601613 
3933.000000	63.609385 
3932.000000	63.634133 
3931.000000	63.675069 
3930.000000	63.729453 
3929.000000	63.791775 
3928.000000	63.854265 
3927.000000	63.907933 
3926.000000	63.944339 
3925.000000	63.957333 
3924.000000	63.944888 
3923.000000	63.909864 
3922.000000	63.859629 
3921.000000	63.804554 
3920.000000	63.755869 
3919.000000	63.723540 
3918.000000	63.713669 
3917.000000	63.727831 
3916.000000	63.762378 
3915.000000	63.810181 
3914.000000	63.861608 
3913.000000	63.907194 
3912.000000	63.939571 
3911.000000	63.954377 
3910.000000	63.951420 
3909.000000	63.933706 
3908.000000	63.907003 
3907.000000	63.877749 
3906.000000	63.852357 
3905.000000	63.835716 
3904.000000	63.829922 
3903.000000	63.834095 
3902.000000	63.844776 
3901.000000	63.856935 
3900.000000	63.865065 
3899.000000	63.864469 
3898.000000	63.852167 
3897.000000	63.827371 
3896.000000	63.791584 
3895.000000	63.748264 
3894.000000	63.701653 
3893.000000	63.656139 
3892.000000	63.615584 
3891.000000	63.582801 
3890.000000	63.559484 
3889.000000	63.546252 
3888.000000	63.542437 
3887.000000	63.547205 
3886.000000	63.559412 
3885.000000	63.578391 
3884.000000	63.603234 
3883.000000	63.633441 
3882.000000	63.667941 
3881.000000	63.705706 
3880.000000	63.745188 
3879.000000	63.784360 
3878.000000	63.820815 
3877.000000	63.851881 
3876.000000	63.875079 
3875.000000	63.888621 
3874.000000	63.891673 
3873.000000	63.884758 
3872.000000	63.869500 
3871.000000	63.848662 
3870.000000	63.825511 
3869.000000	63.803148 
3868.000000	63.784146 
3867.000000	63.769984 
3866.000000	63.761305 
3865.000000	63.758158 
3864.000000	63.760471 
3863.000000	63.768410 
3862.000000	63.782477 
3861.000000	63.803315 
3860.000000	63.831281 
3859.000000	63.865685 
3858.000000	63.904738 
3857.000000	63.945460 
3856.000000	63.983798 
3855.000000	64.015197 
3854.000000	64.036083 
3853.000000	64.044523 
3852.000000	64.040684 
3851.000000	64.026713 
3850.000000	64.005970 
3849.000000	63.982367 
3848.000000	63.959050 
3847.000000	63.937830 
3846.000000	63.919067 
3845.000000	63.902115 
3844.000000	63.885688 
3843.000000	63.868856 
3842.000000	63.851332 
3841.000000	63.833785 
3840.000000	63.817811 
3839.000000	63.805341 
3838.000000	63.797760 
3837.000000	63.795423 
3836.000000	63.797688 
3835.000000	63.802099 
3834.000000	63.805127 
3833.000000	63.802242 
3832.000000	63.789248 
3831.000000	63.762712 
3830.000000	63.720870 
3829.000000	63.664197 
3828.000000	63.595151 
3827.000000	63.518905 
3826.000000	63.442397 
3825.000000	63.373327 
3824.000000	63.318586 
3823.000000	63.283276 
3822.000000	63.269853 
3821.000000	63.277029 
3820.000000	63.300466 
3819.000000	63.333535 
3818.000000	63.369274 
3817.000000	63.401508 
3816.000000	63.426613 
3815.000000	63.443613 
3814.000000	63.454985 
3813.000000	63.464975 
3812.000000	63.478708 
3811.000000	63.500618 
3810.000000	63.533234 
3809.000000	63.576745 
3808.000000	63.628602 
3807.000000	63.684582 
3806.000000	63.738965 
3805.000000	63.787031 
3804.000000	63.824057 
3803.000000	63.846802 
3802.000000	63.853001 
3801.000000	63.842010 
3800.000000	63.814210 
3799.000000	63.770961 
3798.000000	63.714599 
3797.000000	63.648676 
3796.000000	63.577365 
3795.000000	63.505125 
3794.000000	63.436603 
3793.000000	63.376021 
3792.000000	63.326525 
3791.000000	63.289952 
3790.000000	63.266420 
3789.000000	63.254666 
3788.000000	63.252162 
3787.000000	63.255739 
3786.000000	63.261699 
3785.000000	63.267087 
3784.000000	63.269495 
3783.000000	63.268160 
3782.000000	63.263177 
3781.000000	63.256597 
3780.000000	63.251256 
3779.000000	63.251066 
3778.000000	63.259840 
3777.000000	63.280510 
3776.000000	63.314390 
3775.000000	63.360548 
3774.000000	63.415670 
3773.000000	63.474583 
3772.000000	63.531208 
3771.000000	63.579487 
3770.000000	63.614559 
3769.000000	63.633203 
3768.000000	63.634228 
3767.000000	63.618898 
3766.000000	63.590455 
3765.000000	63.553285 
3764.000000	63.512349 
3763.000000	63.472819 
3762.000000	63.439536 
3761.000000	63.416671 
3760.000000	63.407397 
3759.000000	63.413524 
3758.000000	63.435435 
3757.000000	63.471841 
3756.000000	63.520026 
3755.000000	63.575649 
3754.000000	63.633823 
3753.000000	63.689923 
3752.000000	63.740110 
3751.000000	63.781785 
3750.000000	63.813233 
3749.000000	63.833808 
3748.000000	63.843441 
3747.000000	63.842582 
3746.000000	63.832497 
3745.000000	63.815307 
3744.000000	63.794255 
3743.000000	63.773727 
3742.000000	63.758659 
3741.000000	63.753867 
3740.000000	63.762474 
3739.000000	63.785076 
3738.000000	63.818979 
3737.000000	63.858389 
3736.000000	63.895153 
3735.000000	63.920402 
3734.000000	63.926410 
3733.000000	63.908505 
3732.000000	63.866162 
3731.000000	63.803052 
3730.000000	63.726019 
3729.000000	63.643932 
3728.000000	63.565278 
3727.000000	63.497495 
3726.000000	63.445734 
3725.000000	63.412594 
3724.000000	63.398408 
3723.000000	63.401699 
3722.000000	63.419866 
3721.000000	63.449788 
3720.000000	63.487482 
3719.000000	63.528943 
3718.000000	63.570165 
3717.000000	63.607335 
3716.000000	63.636875 
3715.000000	63.656091 
3714.000000	63.663268 
3713.000000	63.658070 
3712.000000	63.641762 
3711.000000	63.616657 
3710.000000	63.585734 
3709.000000	63.552474 
3708.000000	63.519859 
3707.000000	63.489985 
3706.000000	63.463544 
3705.000000	63.440465 
3704.000000	63.419890 
3703.000000	63.400816 
3702.000000	63.382649 
3701.000000	63.365077 
3700.000000	63.348793 
3699.000000	63.335108 
3698.000000	63.325834 
3697.000000	63.322401 
3696.000000	63.325786 
3695.000000	63.335776 
3694.000000	63.351297 
3693.000000	63.370275 
3692.000000	63.390421 
3691.000000	63.409733 
3690.000000	63.426828 
3689.000000	63.441109 
3688.000000	63.453149 
3687.000000	63.464450 
3686.000000	63.476991 
3685.000000	63.492894 
3684.000000	63.514423 
3683.000000	63.543415 
3682.000000	63.581299 
3681.000000	63.628363 
3680.000000	63.683557 
3679.000000	63.743758 
3678.000000	63.804507 
3677.000000	63.859415 
3676.000000	63.901662 
3675.000000	63.924360 
3674.000000	63.922429 
3673.000000	63.893413 
3672.000000	63.838601 
3671.000000	63.762831 
3670.000000	63.674354 
3669.000000	63.582801 
3668.000000	63.498091 
3667.000000	63.428068 
3666.000000	63.377642 
3665.000000	63.347721 
3664.000000	63.335824 
3663.000000	63.336753 
3662.000000	63.344383 
3661.000000	63.353061 
3660.000000	63.359022 
3659.000000	63.360667 
3658.000000	63.358664 
3657.000000	63.355779 
3656.000000	63.355469 
3655.000000	63.360667 
3654.000000	63.372302 
3653.000000	63.389229 
3652.000000	63.407802 
3651.000000	63.422703 
3650.000000	63.427853 
3649.000000	63.418245 
3648.000000	63.390922 
3647.000000	63.345813 
3646.000000	63.286066 
3645.000000	63.217139 
3644.000000	63.146328 
3643.000000	63.081049 
3642.000000	63.028216 
3641.000000	62.992739 
3640.000000	62.977385 
3639.000000	62.982606 
3638.000000	63.006830 
3637.000000	63.046550 
3636.000000	63.097071 
3635.000000	63.153100 
3634.000000	63.208746 
3633.000000	63.258147 
3632.000000	63.295984 
3631.000000	63.318061 
3630.000000	63.321924 
3629.000000	63.307523 
3628.000000	63.277316 
3627.000000	63.235759 
3626.000000	63.188719 
3625.000000	63.142609 
3624.000000	63.103270 
3623.000000	63.075280 
3622.000000	63.061451 
3621.000000	63.062572 
3620.000000	63.077998 
3619.000000	63.105607 
3618.000000	63.142633 
3617.000000	63.185644 
3616.000000	63.230919 
3615.000000	63.274288 
3614.000000	63.311409 
3613.000000	63.338065 
3612.000000	63.350582 
3611.000000	63.346314 
3610.000000	63.324141 
3609.000000	63.284850 
3608.000000	63.231539 
3607.000000	63.169169 
3606.000000	63.103961 
3605.000000	63.042235 
3604.000000	62.989473 
3603.000000	62.949848 
3602.000000	62.925767 
3601.000000	62.917423 
3600.000000	62.923407 
3599.000000	62.941122 
3598.000000	62.967753 
3597.000000	63.000082 
3596.000000	63.035202 
3595.000000	63.070154 
3594.000000	63.102364 
3593.000000	63.129377 
3592.000000	63.148999 
3591.000000	63.159251 
3590.000000	63.158941 
3589.000000	63.148188 
3588.000000	63.128423 
3587.000000	63.102602 
3586.000000	63.074350 
3585.000000	63.047838 
3584.000000	63.026094 
3583.000000	63.010954 
3582.000000	63.002109 
3581.000000	62.997388 
3580.000000	62.993359 
3579.000000	62.986421 
3578.000000	62.973809 
3577.000000	62.954211 
3576.000000	62.928009 
3575.000000	62.897253 
3574.000000	62.864947 
3573.000000	62.834525 
3572.000000	62.808728 
3571.000000	62.789392 
3570.000000	62.777304 
3569.000000	62.772560 
3568.000000	62.774896 
3567.000000	62.784147 
3566.000000	62.800002 
3565.000000	62.822413 
3564.000000	62.851190 
3563.000000	62.885856 
3562.000000	62.924933 
3561.000000	62.966346 
3560.000000	63.007521 
3559.000000	63.045525 
3558.000000	63.077783 
3557.000000	63.101816 
3556.000000	63.115763 
3555.000000	63.118267 
3554.000000	63.108801 
3553.000000	63.087511 
3552.000000	63.055586 
3551.000000	63.015270 
3550.000000	62.969923 
3549.000000	62.923932 
3548.000000	62.882018 
3547.000000	62.848901 
3546.000000	62.827992 
3545.000000	62.820982 
3544.000000	62.827134 
3543.000000	62.843275 
3542.000000	62.864470 
3541.000000	62.884807 
3540.000000	62.898731 
3539.000000	62.902092 
3538.000000	62.893223 
3537.000000	62.872791 
3536.000000	62.843894 
3535.000000	62.810873 
3534.000000	62.778639 
3533.000000	62.751483 
3532.000000	62.732267 
3531.000000	62.721800 
3530.000000	62.719035 
3529.000000	62.721610 
3528.000000	62.726354 
3527.000000	62.730097 
3526.000000	62.730622 
3525.000000	62.727212 
3524.000000	62.720489 
3523.000000	62.712216 
3522.000000	62.704610 
3521.000000	62.699675 
3520.000000	62.698698 
3519.000000	62.701797 
3518.000000	62.707638 
3517.000000	62.713742 
3516.000000	62.717461 
3515.000000	62.716507 
3514.000000	62.709355 
3513.000000	62.695789 
3512.000000	62.677168 
3511.000000	62.655949 
3510.000000	62.634897 
3509.000000	62.616682 
3508.000000	62.603116 
3507.000000	62.594819 
3506.000000	62.591242 
3505.000000	62.590670 
3504.000000	62.591123 
3503.000000	62.590718 
3502.000000	62.588024 
3501.000000	62.582731 
3500.000000	62.575316 
3499.000000	62.567138 
3498.000000	62.559914 
3497.000000	62.555336 
3496.000000	62.554717 
3495.000000	62.559008 
3494.000000	62.568831 
3493.000000	62.584185 
3492.000000	62.604856 
3491.000000	62.630248 
3490.000000	62.659740 
3489.000000	62.692332 
3488.000000	62.727046 
3487.000000	62.762618 
3486.000000	62.797689 
3485.000000	62.831020 
3484.000000	62.861084 
3483.000000	62.886714 
3482.000000	62.906575 
3481.000000	62.919855 
3480.000000	62.925815 
3479.000000	62.924146 
3478.000000	62.914919 
3477.000000	62.898969 
3476.000000	62.877655 
3475.000000	62.853097 
3474.000000	62.827730 
3473.000000	62.804102 
3472.000000	62.784337 
3471.000000	62.769842 
3470.000000	62.760925 
3469.000000	62.756681 
3468.000000	62.755370 
3467.000000	62.754774 
3466.000000	62.752628 
3465.000000	62.747406 
3464.000000	62.738370 
3463.000000	62.725973 
3462.000000	62.711286 
3461.000000	62.695908 
3460.000000	62.681698 
3459.000000	62.670254 
3458.000000	62.662506 
3457.000000	62.658643 
3456.000000	62.658500 
3455.000000	62.661075 
3454.000000	62.664985 
3453.000000	62.668418 
3452.000000	62.669467 
3451.000000	62.666058 
3450.000000	62.656188 
3449.000000	62.638640 
3448.000000	62.613296 
3447.000000	62.581419 
3446.000000	62.545680 
3445.000000	62.509918 
3444.000000	62.478542 
3443.000000	62.455773 
3442.000000	62.444782 
3441.000000	62.446808 
3440.000000	62.460875 
3439.000000	62.483716 
3438.000000	62.510585 
3437.000000	62.535977 
3436.000000	62.554788 
3435.000000	62.563180 
3434.000000	62.559461 
3433.000000	62.544083 
3432.000000	62.519693 
3431.000000	62.490391 
3430.000000	62.460756 
3429.000000	62.435150 
3428.000000	62.416720 
3427.000000	62.407231 
3426.000000	62.406444 
3425.000000	62.412476 
3424.000000	62.422060 
3423.000000	62.431383 
3422.000000	62.436819 
3421.000000	62.435650 
3420.000000	62.426567 
3419.000000	62.409901 
3418.000000	62.387585 
3417.000000	62.362718 
3416.000000	62.338995 
3415.000000	62.319946 
3414.000000	62.308168 
3413.000000	62.304735 
3412.000000	62.309193 
3411.000000	62.319803 
3410.000000	62.333583 
3409.000000	62.347364 
3408.000000	62.358164 
3407.000000	62.364077 
3406.000000	62.364292 
3405.000000	62.359380 
3404.000000	62.350797 
3403.000000	62.340712 
3402.000000	62.331318 
3401.000000	62.324547 
3400.000000	62.321686 
3399.000000	62.322974 
3398.000000	62.327694 
3397.000000	62.334251 
3396.000000	62.340950 
3395.000000	62.346029 
3394.000000	62.348341 
3393.000000	62.347483 
3392.000000	62.343835 
3391.000000	62.338590 
3390.000000	62.333440 
3389.000000	62.330055 
3388.000000	62.329721 
3387.000000	62.332940 
3386.000000	62.339353 
3385.000000	62.347865 
3384.000000	62.356853 
3383.000000	62.364506 
3382.000000	62.369084 
3381.000000	62.369489 
3380.000000	62.365221 
3379.000000	62.356376 
3378.000000	62.343716 
3377.000000	62.328267 
3376.000000	62.311744 
3375.000000	62.296032 
3374.000000	62.283396 
3373.000000	62.275958 
3372.000000	62.275242 
3371.000000	62.282204 
3370.000000	62.296319 
3369.000000	62.316036 
3368.000000	62.338161 
3367.000000	62.358593 
3366.000000	62.372970 
3365.000000	62.377667 
3364.000000	62.370395 
3363.000000	62.350749 
3362.000000	62.320470 
3361.000000	62.283182 
3360.000000	62.243628 
3359.000000	62.206816 
3358.000000	62.177038 
3357.000000	62.157154 
3356.000000	62.148427 
3355.000000	62.150216 
3354.000000	62.160587 
3353.000000	62.176251 
3352.000000	62.193560 
3351.000000	62.208724 
3350.000000	62.218189 
3349.000000	62.219285 
3348.000000	62.210273 
3347.000000	62.191128 
3346.000000	62.163019 
3345.000000	62.129282 
3344.000000	62.094449 
3343.000000	62.064146 
3342.000000	62.044000 
3341.000000	62.038755 
3340.000000	62.051081 
3339.000000	62.080955 
3338.000000	62.125444 
3337.000000	62.179136 
3336.000000	62.235212 
3335.000000	62.286472 
3334.000000	62.326717 
3333.000000	62.351536 
3332.000000	62.358999 
3331.000000	62.349534 
3330.000000	62.325668 
3329.000000	62.291216 
3328.000000	62.250399 
3327.000000	62.207579 
3326.000000	62.166404 
3325.000000	62.129855 
3324.000000	62.099695 
3323.000000	62.077116 
3322.000000	62.062454 
3321.000000	62.055492 
3320.000000	62.055468 
3319.000000	62.060809 
3318.000000	62.069892 
3317.000000	62.080836 
3316.000000	62.091970 
3315.000000	62.101578 
3314.000000	62.108302 
3313.000000	62.111067 
3312.000000	62.109303 
3311.000000	62.102913 
3310.000000	62.092518 
3309.000000	62.079429 
3308.000000	62.065625 
3307.000000	62.053465 
3306.000000	62.045454 
3305.000000	62.043786 
3304.000000	62.049698 
3303.000000	62.063074 
3302.000000	62.082862 
3301.000000	62.107086 
3300.000000	62.133049 
3299.000000	62.158036 
3298.000000	62.179923 
3297.000000	62.197208 
3296.000000	62.209439 
3295.000000	62.216353 
3294.000000	62.217974 
3293.000000	62.213897 
3292.000000	62.203574 
3291.000000	62.186264 
3290.000000	62.161564 
3289.000000	62.129998 
3288.000000	62.093210 
3287.000000	62.054276 
3286.000000	62.017345 
3285.000000	61.986660 
3284.000000	61.965942 
3283.000000	61.957502 
3282.000000	61.961770 
3281.000000	61.977100 
3280.000000	62.000060 
3279.000000	62.025976 
3278.000000	62.049603 
3277.000000	62.066388 
3276.000000	62.072944 
3275.000000	62.067413 
3274.000000	62.049746 
3273.000000	62.021350 
3272.000000	61.984872 
3271.000000	61.943531 
3270.000000	61.900663 
3269.000000	61.859464 
3268.000000	61.822485 
3267.000000	61.791539 
3266.000000	61.767244 
3265.000000	61.749482 
3264.000000	61.737108 
3263.000000	61.728358 
3262.000000	61.721181 
3261.000000	61.713266 
3260.000000	61.703205 
3259.000000	61.690330 
3258.000000	61.675357 
3257.000000	61.659979 
3256.000000	61.647033 
3255.000000	61.639571 
3254.000000	61.640572 
3253.000000	61.652135 
3252.000000	61.674785 
3251.000000	61.707186 
3250.000000	61.746406 
3249.000000	61.788296 
3248.000000	61.828279 
3247.000000	61.862254 
3246.000000	61.887121 
3245.000000	61.901497 
3244.000000	61.905956 
3243.000000	61.902880 
3242.000000	61.895608 
3241.000000	61.887812 
3240.000000	61.882734 
3239.000000	61.882042 
3238.000000	61.886405 
3237.000000	61.894464 
3236.000000	61.903452 
3235.000000	61.909890 
3234.000000	61.910724 
3233.000000	61.904048 
3232.000000	61.889672 
3231.000000	61.869525 
3230.000000	61.847233 
3229.000000	61.827421 
3228.000000	61.814785 
3227.000000	61.812686 
3226.000000	61.822271 
3225.000000	61.842513 
3224.000000	61.870002 
3223.000000	61.899542 
3222.000000	61.925411 
3221.000000	61.942458 
3220.000000	61.947298 
3219.000000	61.938619 
3218.000000	61.917567 
3217.000000	61.887335 
3216.000000	61.852669 
3215.000000	61.818432 
3214.000000	61.789345 
3213.000000	61.769270 
3212.000000	61.760711 
3211.000000	61.764788 
3210.000000	61.781072 
3209.000000	61.807751 
3208.000000	61.841988 
3207.000000	61.880183 
3206.000000	61.918449 
3205.000000	61.953067 
3204.000000	61.980652 
3203.000000	61.998581 
3202.000000	62.005114 
3201.000000	61.999535 
3200.000000	61.981892 
3199.000000	61.953115 
3198.000000	61.914634 
3197.000000	61.868381 
3196.000000	61.816978 
3195.000000	61.763381 
3194.000000	61.711049 
3193.000000	61.663103 
3192.000000	61.622619 
3191.000000	61.591649 
3190.000000	61.570930 
3189.000000	61.559963 
3188.000000	61.556506 
3187.000000	61.557960 
3186.000000	61.561250 
3185.000000	61.564207 
3184.000000	61.565566 
3183.000000	61.565423 
3182.000000	61.564731 
3181.000000	61.564898 
3180.000000	61.566781 
3179.000000	61.570167 
3178.000000	61.573791 
3177.000000	61.575436 
3176.000000	61.572504 
3175.000000	61.563253 
3174.000000	61.547636 
3173.000000	61.527442 
3172.000000	61.506199 
3171.000000	61.488389 
3170.000000	61.478471 
3169.000000	61.479783 
3168.000000	61.493778 
3167.000000	61.519694 
3166.000000	61.554813 
3165.000000	61.595702 
3164.000000	61.638426 
3163.000000	61.679410 
3162.000000	61.715579 
3161.000000	61.744999 
3160.000000	61.766171 
3159.000000	61.778044 
3158.000000	61.779928 
3157.000000	61.771464 
3156.000000	61.752748 
3155.000000	61.725020 
3154.000000	61.690163 
3153.000000	61.651396 
3152.000000	61.612010 
3151.000000	61.575317 
3150.000000	61.543583 
3149.000000	61.517882 
3148.000000	61.497879 
3147.000000	61.482262 
3146.000000	61.469411 
3145.000000	61.458110 
3144.000000	61.448311 
3143.000000	61.441206 
3142.000000	61.438751 
3141.000000	61.443042 
3140.000000	61.455488 
3139.000000	61.475944 
3138.000000	61.502337 
3137.000000	61.530804 
3136.000000	61.556529 
3135.000000	61.574792 
3134.000000	61.582064 
3133.000000	61.576771 
3132.000000	61.559700 
3131.000000	61.533951 
3130.000000	61.503744 
3129.000000	61.473870 
3128.000000	61.448526 
3127.000000	61.430740 
3126.000000	61.421990 
3125.000000	61.422157 
3124.000000	61.429953 
3123.000000	61.443519 
3122.000000	61.460924 
3121.000000	61.480093 
3120.000000	61.498999 
3119.000000	61.515736 
3118.000000	61.528587 
3117.000000	61.535596 
3116.000000	61.534881 
3115.000000	61.525106 
3114.000000	61.505842 
3113.000000	61.477661 
3112.000000	61.442494 
3111.000000	61.403322 
3110.000000	61.363816 
3109.000000	61.327886 
3108.000000	61.298942 
3107.000000	61.279439 
3106.000000	61.270165 
3105.000000	61.270713 
3104.000000	61.279201 
3103.000000	61.292791 
3102.000000	61.308240 
3101.000000	61.322379 
3100.000000	61.332726 
3099.000000	61.337614 
3098.000000	61.336684 
3097.000000	61.330366 
3096.000000	61.320471 
3095.000000	61.309361 
3094.000000	61.299943 
3093.000000	61.294960 
3092.000000	61.296844 
3091.000000	61.306929 
3090.000000	61.325216 
3089.000000	61.350226 
3088.000000	61.378931 
3087.000000	61.407518 
3086.000000	61.431765 
3085.000000	61.448025 
3084.000000	61.453795 
3083.000000	61.448407 
3082.000000	61.432981 
3081.000000	61.410427 
3080.000000	61.384677 
3079.000000	61.359786 
3078.000000	61.339211 
3077.000000	61.324906 
3076.000000	61.317467 
3075.000000	61.315917 
3074.000000	61.318349 
3073.000000	61.322474 
3072.000000	61.326289 
3071.000000	61.328601 
3070.000000	61.329174 
3069.000000	61.328625 
3068.000000	61.327838 
3067.000000	61.328005 
3066.000000	61.330032 
3065.000000	61.334276 
3064.000000	61.340498 
3063.000000	61.348080 
3062.000000	61.356019 
3061.000000	61.363196 
3060.000000	61.368560 
3059.000000	61.371278 
3058.000000	61.370778 
3057.000000	61.366581 
3056.000000	61.358714 
3055.000000	61.347341 
3054.000000	61.333060 
3053.000000	61.316609 
3052.000000	61.298799 
3051.000000	61.280465 
3050.000000	61.262106 
3049.000000	61.244320 
3048.000000	61.227345 
3047.000000	61.211085 
3046.000000	61.195492 
3045.000000	61.180663 
3044.000000	61.166882 
3043.000000	61.154532 
3042.000000	61.143970 
3041.000000	61.135387 
3040.000000	61.128735 
3039.000000	61.123633 
3038.000000	61.119341 
3037.000000	61.114931 
3036.000000	61.109519 
3035.000000	61.102581 
3034.000000	61.093974 
3033.000000	61.083936 
3032.000000	61.072969 
3031.000000	61.061906 
3030.000000	61.051273 
3029.000000	61.041617 
3028.000000	61.033415 
3027.000000	61.027383 
3026.000000	61.024403 
3025.000000	61.025643 
3024.000000	61.032462 
3023.000000	61.046028 
3022.000000	61.066961 
3021.000000	61.094832 
3020.000000	61.127948 
3019.000000	61.163163 
3018.000000	61.196494 
3017.000000	61.223626 
3016.000000	61.240768 
3015.000000	61.245489 
3014.000000	61.237168 
3013.000000	61.217021 
3012.000000	61.187648 
3011.000000	61.152577 
3010.000000	61.115479 
3009.000000	61.079382 
3008.000000	61.046242 
3007.000000	61.016798 
3006.000000	60.990929 
3005.000000	60.968112 
3004.000000	60.947704 
3003.000000	60.929417 
3002.000000	60.913300 
3001.000000	60.899758 
3000.000000	60.889410 
2999.000000	60.882353 
2998.000000	60.878348 
2997.000000	60.876679 
2996.000000	60.876035 
2995.000000	60.874986 
2994.000000	60.872268 
2993.000000	60.867047 
2992.000000	60.859251 
2991.000000	60.849213 
2990.000000	60.837960 
2989.000000	60.826563 
2988.000000	60.816311 
2987.000000	60.808062 
2986.000000	60.802578 
2985.000000	60.800313 
2984.000000	60.801315 
2983.000000	60.805034 
2982.000000	60.810279 
2981.000000	60.815095 
2980.000000	60.817027 
2979.000000	60.813403 
2978.000000	60.801863 
2977.000000	60.781049 
2976.000000	60.751390 
2975.000000	60.714936 
2974.000000	60.675263 
2973.000000	60.636544 
2972.000000	60.603141 
2971.000000	60.578560 
2970.000000	60.564565 
2969.000000	60.561108 
2968.000000	60.566329 
2967.000000	60.577201 
2966.000000	60.590434 
2965.000000	60.603237 
2964.000000	60.613632 
2963.000000	60.620951 
2962.000000	60.625505 
2961.000000	60.628223 
2960.000000	60.629844 
2959.000000	60.630655 
2958.000000	60.630273 
2957.000000	60.627865 
2956.000000	60.622286 
2955.000000	60.612607 
2954.000000	60.598635 
2953.000000	60.580992 
2952.000000	60.561394 
2951.000000	60.542488 
2950.000000	60.527229 
2949.000000	60.518479 
2948.000000	60.517907 
2947.000000	60.526227 
2946.000000	60.542273 
2945.000000	60.563564 
2944.000000	60.586333 
2943.000000	60.606169 
2942.000000	60.618829 
2941.000000	60.621023 
2940.000000	60.610795 
2939.000000	60.587978 
2938.000000	60.553884 
2937.000000	60.511350 
2936.000000	60.464000 
2935.000000	60.415649 
2934.000000	60.369777 
2933.000000	60.329151 
2932.000000	60.295891 
2931.000000	60.271191 
2930.000000	60.255670 
2929.000000	60.249328 
2928.000000	60.251307 
2927.000000	60.260009 
2926.000000	60.273146 
2925.000000	60.287737 
2924.000000	60.300469 
2923.000000	60.308098 
2922.000000	60.307979 
2921.000000	60.298824 
2920.000000	60.280847 
2919.000000	60.255908 
2918.000000	60.227131 
2917.000000	60.198426 
2916.000000	60.173749 
2915.000000	60.156273 
2914.000000	60.147786 
2913.000000	60.148572 
2912.000000	60.157394 
2911.000000	60.172057 
2910.000000	60.189771 
2909.000000	60.208177 
2908.000000	60.225605 
2907.000000	60.241436 
2906.000000	60.255908 
2905.000000	60.269904 
2904.000000	60.284233 
2903.000000	60.299777 
2902.000000	60.317087 
2901.000000	60.336208 
2900.000000	60.356688 
2899.000000	60.378193 
2898.000000	60.400009 
2897.000000	60.421395 
2896.000000	60.441160 
2895.000000	60.457825 
2894.000000	60.469555 
2893.000000	60.474467 
2892.000000	60.471034 
2891.000000	60.458469 
2890.000000	60.437178 
2889.000000	60.409188 
2888.000000	60.377335 
2887.000000	60.345458 
2886.000000	60.316610 
2885.000000	60.292792 
2884.000000	60.274124 
2883.000000	60.259127 
2882.000000	60.245275 
2881.000000	60.230064 
2880.000000	60.212039 
2879.000000	60.191488 
2878.000000	60.170888 
2877.000000	60.154175 
2876.000000	60.145759 
2875.000000	60.149002 
2874.000000	60.165238 
2873.000000	60.193181 
2872.000000	60.228991 
2871.000000	60.267186 
2870.000000	60.301947 
2869.000000	60.328221 
2868.000000	60.343074 
2867.000000	60.345721 
2866.000000	60.337543 
2865.000000	60.321140 
2864.000000	60.299587 
2863.000000	60.275578 
2862.000000	60.250926 
2861.000000	60.226607 
2860.000000	60.203313 
2859.000000	60.181140 
2858.000000	60.160470 
2857.000000	60.141658 
2856.000000	60.125160 
2855.000000	60.111331 
2854.000000	60.100054 
2853.000000	60.090970 
2852.000000	60.083413 
2851.000000	60.077047 
2850.000000	60.072016 
2849.000000	60.069203 
2848.000000	60.070109 
2847.000000	60.076498 
2846.000000	60.089826 
2845.000000	60.110569 
2844.000000	60.137915 
2843.000000	60.169672 
2842.000000	60.202646 
2841.000000	60.233354 
2840.000000	60.258674 
2839.000000	60.276603 
2838.000000	60.286641 
2837.000000	60.289525 
2836.000000	60.286998 
2835.000000	60.281372 
2834.000000	60.274624 
2833.000000	60.268187 
2832.000000	60.262441 
2831.000000	60.257172 
2830.000000	60.251688 
2829.000000	60.245537 
2828.000000	60.238695 
2827.000000	60.231757 
2826.000000	60.225820 
2825.000000	60.222196 
2824.000000	60.221791 
2823.000000	60.224819 
2822.000000	60.230708 
2821.000000	60.238051 
2820.000000	60.244774 
2819.000000	60.248565 
2818.000000	60.247611 
2817.000000	60.240840 
2816.000000	60.228466 
2815.000000	60.211825 
2814.000000	60.192918 
2813.000000	60.173916 
2812.000000	60.156559 
2811.000000	60.141754 
2810.000000	60.129141 
2809.000000	60.117626 
2808.000000	60.105872 
2807.000000	60.092782 
2806.000000	60.077786 
2805.000000	60.060954 
2804.000000	60.042953 
2803.000000	60.024738 
2802.000000	60.006952 
2801.000000	59.990429 
2800.000000	59.975862 
2799.000000	59.964179 
2798.000000	59.956431 
2797.000000	59.953975 
2796.000000	59.958028 
2795.000000	59.969353 
2794.000000	59.987783 
2793.000000	60.012006 
2792.000000	60.039734 
2791.000000	60.067605 
2790.000000	60.092067 
2789.000000	60.109996 
2788.000000	60.119295 
2787.000000	60.119462 
2786.000000	60.111403 
2785.000000	60.097074 
2784.000000	60.079169 
2783.000000	60.060429 
2782.000000	60.043072 
2781.000000	60.028314 
2780.000000	60.016274 
2779.000000	60.006594 
2778.000000	59.998297 
2777.000000	59.990358 
2776.000000	59.981822 
2775.000000	59.972214 
2774.000000	59.961366 
2773.000000	59.949612 
2772.000000	59.937596 
2771.000000	59.925866 
2770.000000	59.914827 
2769.000000	59.904408 
2768.000000	59.894180 
2767.000000	59.883356 
2766.000000	59.870934 
2765.000000	59.856152 
2764.000000	59.838581 
2763.000000	59.818506 
2762.000000	59.797048 
2761.000000	59.776329 
2760.000000	59.758710 
2759.000000	59.746718 
2758.000000	59.742569 
2757.000000	59.747529 
2756.000000	59.761571 
2755.000000	59.783196 
2754.000000	59.809708 
2753.000000	59.837508 
2752.000000	59.862852 
2751.000000	59.882402 
2750.000000	59.893703 
2749.000000	59.895658 
2748.000000	59.888696 
2747.000000	59.874534 
2746.000000	59.855818 
2745.000000	59.835505 
2744.000000	59.816408 
2743.000000	59.800529 
2742.000000	59.788751 
2741.000000	59.780907 
2740.000000	59.775972 
2739.000000	59.772300 
2738.000000	59.767913 
2737.000000	59.761095 
2736.000000	59.750747 
2735.000000	59.736204 
2734.000000	59.717464 
2733.000000	59.694790 
2732.000000	59.669137 
2731.000000	59.641551 
2730.000000	59.613442 
2729.000000	59.586215 
2728.000000	59.561395 
2727.000000	59.540629 
2726.000000	59.524917 
2725.000000	59.514975 
2724.000000	59.510731 
2723.000000	59.511113 
2722.000000	59.514379 
2721.000000	59.518027 
2720.000000	59.519600 
2719.000000	59.517121 
2718.000000	59.509706 
2717.000000	59.497570 
2716.000000	59.482645 
2715.000000	59.467792 
2714.000000	59.456610 
2713.000000	59.452152 
2712.000000	59.456706 
2711.000000	59.470796 
2710.000000	59.493136 
2709.000000	59.520649 
2708.000000	59.549260 
2707.000000	59.574627 
2706.000000	59.592962 
2705.000000	59.602069 
2704.000000	59.601402 
2703.000000	59.592294 
2702.000000	59.577751 
2701.000000	59.561395 
2700.000000	59.546852 
2699.000000	59.536838 
2698.000000	59.532904 
2697.000000	59.534978 
2696.000000	59.541559 
2695.000000	59.550356 
2694.000000	59.558796 
2693.000000	59.564757 
2692.000000	59.566998 
2691.000000	59.565114 
2690.000000	59.559488 
2689.000000	59.550952 
2688.000000	59.540319 
2687.000000	59.527897 
2686.000000	59.513449 
2685.000000	59.496164 
2684.000000	59.475255 
2683.000000	59.450316 
2682.000000	59.421873 
2681.000000	59.391498 
2680.000000	59.361672 
2679.000000	59.335279 
2678.000000	59.314966 
2677.000000	59.302377 
2676.000000	59.297871 
2675.000000	59.300041 
2674.000000	59.306383 
2673.000000	59.314012 
2672.000000	59.320425 
2671.000000	59.323954 
2670.000000	59.324240 
2669.000000	59.321928 
2668.000000	59.318304 
2667.000000	59.314680 
2666.000000	59.311795 
2665.000000	59.309554 
2664.000000	59.307098 
2663.000000	59.303212 
2662.000000	59.296846 
2661.000000	59.287714 
2660.000000	59.276366 
2659.000000	59.264183 
2658.000000	59.253025 
2657.000000	59.244585 
2656.000000	59.239864 
2655.000000	59.239029 
2654.000000	59.241318 
2653.000000	59.245181 
2652.000000	59.249186 
2651.000000	59.251880 
2650.000000	59.252405 
2649.000000	59.250569 
2648.000000	59.246492 
2647.000000	59.240722 
2646.000000	59.233784 
2645.000000	59.226489 
2644.000000	59.219312 
2643.000000	59.212899 
2642.000000	59.207749 
2641.000000	59.204292 
2640.000000	59.202909 
2639.000000	59.203505 
2638.000000	59.205555 
2637.000000	59.207963 
2636.000000	59.209084 
2635.000000	59.207057 
2634.000000	59.200215 
2633.000000	59.187388 
2632.000000	59.168505 
2631.000000	59.144806 
2630.000000	59.118723 
2629.000000	59.093332 
2628.000000	59.071707 
2627.000000	59.056234 
2626.000000	59.047913 
2625.000000	59.046125 
2624.000000	59.048628 
2623.000000	59.052062 
2622.000000	59.052681 
2621.000000	59.047341 
2620.000000	59.034299 
2619.000000	59.013628 
2618.000000	58.987355 
2617.000000	58.958745 
2616.000000	58.931660 
2615.000000	58.909678 
2614.000000	58.895373 
2613.000000	58.889770 
2612.000000	58.892440 
2611.000000	58.901667 
2610.000000	58.915090 
2609.000000	58.930182 
2608.000000	58.944630 
2607.000000	58.956503 
2606.000000	58.964323 
2605.000000	58.967137 
2604.000000	58.964586 
2603.000000	58.957052 
2602.000000	58.945512 
2601.000000	58.931732 
2600.000000	58.918046 
2599.000000	58.906793 
2598.000000	58.900165 
2597.000000	58.899545 
2596.000000	58.904933 
2595.000000	58.914852 
2594.000000	58.926868 
2593.000000	58.937621 
2592.000000	58.944034 
2591.000000	58.943581 
2590.000000	58.935236 
2589.000000	58.919620 
2588.000000	58.898591 
2587.000000	58.874726 
2586.000000	58.850884 
2585.000000	58.829402 
2584.000000	58.811688 
2583.000000	58.798146 
2582.000000	58.788442 
2581.000000	58.781743 
2580.000000	58.777022 
2579.000000	58.773422 
2578.000000	58.770418 
2577.000000	58.767890 
2576.000000	58.765959 
2575.000000	58.764648 
2574.000000	58.763742 
2573.000000	58.762764 
2572.000000	58.761119 
2571.000000	58.758115 
2570.000000	58.753347 
2569.000000	58.746886 
2568.000000	58.739280 
2567.000000	58.731484 
2566.000000	58.724832 
2565.000000	58.720541 
2564.000000	58.719635 
2563.000000	58.722376 
2562.000000	58.728528 
2561.000000	58.737111 
2560.000000	58.746695 
2559.000000	58.755850 
2558.000000	58.763122 
2557.000000	58.767557 
2556.000000	58.768606 
2555.000000	58.766317 
2554.000000	58.761048 
2553.000000	58.753442 
2552.000000	58.744120 
2551.000000	58.733606 
2550.000000	58.722400 
2549.000000	58.710837 
2548.000000	58.699107 
2547.000000	58.687543 
2546.000000	58.676552 
2545.000000	58.666539 
2544.000000	58.657741 
2543.000000	58.650231 
2542.000000	58.643460 
2541.000000	58.636355 
2540.000000	58.627533 
2539.000000	58.615756 
2538.000000	58.600211 
2537.000000	58.581161 
2536.000000	58.559799 
2535.000000	58.538246 
2534.000000	58.519124 
2533.000000	58.504796 
2532.000000	58.496856 
2531.000000	58.495497 
2530.000000	58.499455 
2529.000000	58.506059 
2528.000000	58.511662 
2527.000000	58.512639 
2526.000000	58.506035 
2525.000000	58.490133 
2524.000000	58.464956 
2523.000000	58.432173 
2522.000000	58.394956 
2521.000000	58.357262 
2520.000000	58.323454 
2519.000000	58.297777 
2518.000000	58.283472 
2517.000000	58.282661 
2516.000000	58.295702 
2515.000000	58.320784 
2514.000000	58.354520 
2513.000000	58.392000 
2512.000000	58.427977 
2511.000000	58.457589 
2510.000000	58.477258 
2509.000000	58.485460 
2508.000000	58.482599 
2507.000000	58.470654 
2506.000000	58.452391 
2505.000000	58.430767 
2504.000000	58.408117 
2503.000000	58.385825 
2502.000000	58.364391 
2501.000000	58.343911 
2500.000000	58.324432 
2499.000000	58.306455 
2498.000000	58.290934 
2497.000000	58.279275 
2496.000000	58.272600 
2495.000000	58.271312 
2494.000000	58.274626 
2493.000000	58.280634 
2492.000000	58.286643 
2491.000000	58.290004 
2490.000000	58.288788 
2489.000000	58.282351 
2488.000000	58.271479 
2487.000000	58.258008 
2486.000000	58.244347 
2485.000000	58.232808 
2484.000000	58.225226 
2483.000000	58.222484 
2482.000000	58.224201 
2481.000000	58.229255 
2480.000000	58.236169 
2479.000000	58.243465 
2478.000000	58.249950 
2477.000000	58.255147 
2476.000000	58.259010 
2475.000000	58.262109 
2474.000000	58.264994 
2473.000000	58.268046 
2472.000000	58.271050 
2471.000000	58.273577 
2470.000000	58.274793 
2469.000000	58.273839 
2468.000000	58.269858 
2467.000000	58.262515 
2466.000000	58.251810 
2465.000000	58.238244 
2464.000000	58.222484 
2463.000000	58.205461 
2462.000000	58.187794 
2461.000000	58.169770 
2460.000000	58.151245 
2459.000000	58.131742 
2458.000000	58.110618 
2457.000000	58.087801 
2456.000000	58.063769 
2455.000000	58.039259 
2454.000000	58.015871 
2453.000000	57.995700 
2452.000000	57.981228 
2451.000000	57.974386 
2450.000000	57.976627 
2449.000000	57.988452 
2448.000000	58.009409 
2447.000000	58.037710 
2446.000000	58.070755 
2445.000000	58.105397 
2444.000000	58.138155 
2443.000000	58.165478 
2442.000000	58.184409 
2441.000000	58.192992 
2440.000000	58.190631 
2439.000000	58.178329 
2438.000000	58.158969 
2437.000000	58.136320 
2436.000000	58.115291 
2435.000000	58.099675 
2434.000000	58.092021 
2433.000000	58.091831 
2432.000000	58.096218 
2431.000000	58.099746 
2430.000000	58.095765 
2429.000000	58.078002 
2428.000000	58.042407 
2427.000000	57.988548 
2426.000000	57.920026 
2425.000000	57.843708 
2424.000000	57.768511 
2423.000000	57.702898 
2422.000000	57.652950 
2421.000000	57.620859 
2420.000000	57.604527 
2419.000000	57.598638 
2418.000000	57.596516 
2417.000000	57.591915 
2416.000000	57.580947 
2415.000000	57.563114 
2414.000000	57.541108 
2413.000000	57.519435 
2412.000000	57.502961 
2411.000000	57.495307 
2410.000000	57.498097 
2409.000000	57.510328 
2408.000000	57.529115 
2407.000000	57.550978 
2406.000000	57.572770 
2405.000000	57.593083 
2404.000000	57.611870 
2403.000000	57.630109 
2402.000000	57.649040 
2401.000000	57.669281 
2400.000000	57.690334 
2399.000000	57.710361 
2398.000000	57.726836 
2397.000000	57.737612 
2396.000000	57.741141 
2395.000000	57.736921 
2394.000000	57.725858 
2393.000000	57.710123 
2392.000000	57.692289 
2391.000000	57.674455 
2390.000000	57.658314 
2389.000000	57.644748 
2388.000000	57.633948 
2387.000000	57.625508 
2386.000000	57.618808 
2385.000000	57.613229 
2384.000000	57.608270 
2383.000000	57.603764 
2382.000000	57.599234 
2381.000000	57.594347 
2380.000000	57.588601 
2379.000000	57.581949 
2378.000000	57.574295 
2377.000000	57.566189 
2376.000000	57.558345 
2375.000000	57.551980 
2374.000000	57.547974 
2373.000000	57.547235 
2372.000000	57.550382 
2371.000000	57.557749 
2370.000000	57.569169 
2369.000000	57.584095 
2368.000000	57.601642 
2367.000000	57.620620 
2366.000000	57.639646 
2365.000000	57.657074 
2364.000000	57.671189 
2363.000000	57.680201 
2362.000000	57.682609 
2361.000000	57.677125 
2360.000000	57.663035 
2359.000000	57.640457 
2358.000000	57.610177 
2357.000000	57.573938 
2356.000000	57.533907 
2355.000000	57.492613 
2354.000000	57.452440 
2353.000000	57.415604 
2352.000000	57.383680 
2351.000000	57.357478 
2350.000000	57.337045 
2349.000000	57.321810 
2348.000000	57.311010 
2347.000000	57.303476 
2346.000000	57.298564 
2345.000000	57.296204 
2344.000000	57.296919 
2343.000000	57.301354 
2342.000000	57.310295 
2341.000000	57.323980 
2340.000000	57.341933 
2339.000000	57.362675 
2338.000000	57.383799 
2337.000000	57.402420 
2336.000000	57.415604 
2335.000000	57.421064 
2334.000000	57.417535 
2333.000000	57.405042 
2332.000000	57.384777 
2331.000000	57.358741 
2330.000000	57.329225 
2329.000000	57.298350 
2328.000000	57.267832 
2327.000000	57.238769 
2326.000000	57.211875 
2325.000000	57.187366 
2324.000000	57.165622 
2323.000000	57.146883 
2322.000000	57.131195 
2321.000000	57.118225 
2320.000000	57.107067 
2319.000000	57.096529 
2318.000000	57.085108 
2317.000000	57.071518 
2316.000000	57.055163 
2315.000000	57.036280 
2314.000000	57.016134 
2313.000000	56.996846 
2312.000000	56.980848 
2311.000000	56.970119 
2310.000000	56.965589 
2309.000000	56.966805 
2308.000000	56.971979 
2307.000000	56.978464 
2306.000000	56.983518 
2305.000000	56.985044 
2304.000000	56.982183 
2303.000000	56.975507 
2302.000000	56.966948 
2301.000000	56.959199 
2300.000000	56.954693 
2299.000000	56.954932 
2298.000000	56.959915 
2297.000000	56.968235 
2296.000000	56.977319 
2295.000000	56.983804 
2294.000000	56.984829 
2293.000000	56.978487 
2292.000000	56.964659 
2291.000000	56.944727 
2290.000000	56.921744 
2289.000000	56.899189 
2288.000000	56.880569 
2287.000000	56.868624 
2286.000000	56.864738 
2285.000000	56.868672 
2284.000000	56.878733 
2283.000000	56.892251 
2282.000000	56.906104 
2281.000000	56.917500 
2280.000000	56.924176 
2279.000000	56.924819 
2278.000000	56.919240 
2277.000000	56.908178 
2276.000000	56.893062 
2275.000000	56.875872 
2274.000000	56.858634 
2273.000000	56.843304 
2272.000000	56.831693 
2271.000000	56.825065 
2270.000000	56.824135 
2269.000000	56.828737 
2268.000000	56.838154 
2267.000000	56.850719 
2266.000000	56.864213 
2265.000000	56.875967 
2264.000000	56.883358 
2263.000000	56.884241 
2262.000000	56.877136 
2261.000000	56.861877 
2260.000000	56.839561 
2259.000000	56.812500 
2258.000000	56.783795 
2257.000000	56.756925 
2256.000000	56.735062 
2255.000000	56.720519 
2254.000000	56.714224 
2253.000000	56.715703 
2252.000000	56.723093 
2251.000000	56.733584 
2250.000000	56.743884 
2249.000000	56.751012 
2248.000000	56.752943 
2247.000000	56.748843 
2246.000000	56.738877 
2245.000000	56.724262 
2244.000000	56.706643 
2243.000000	56.687545 
2242.000000	56.668257 
2241.000000	56.649422 
2240.000000	56.631064 
2239.000000	56.612944 
2238.000000	56.594729 
2237.000000	56.576418 
2236.000000	56.558203 
2235.000000	56.540632 
2234.000000	56.524610 
2233.000000	56.510758 
2232.000000	56.499552 
2231.000000	56.490898 
2230.000000	56.484317 
2229.000000	56.479072 
2228.000000	56.474399 
2227.000000	56.469774 
2226.000000	56.464767 
2225.000000	56.459164 
2224.000000	56.452870 
2223.000000	56.445646 
2222.000000	56.437301 
2221.000000	56.427597 
2220.000000	56.416058 
2219.000000	56.402611 
2218.000000	56.387472 
2217.000000	56.371498 
2216.000000	56.355977 
2215.000000	56.342530 
2214.000000	56.332921 
2213.000000	56.328678 
2212.000000	56.330466 
2211.000000	56.338095 
2210.000000	56.350207 
2209.000000	56.364440 
2208.000000	56.377887 
2207.000000	56.387805 
2206.000000	56.392049 
2205.000000	56.389927 
2204.000000	56.381940 
2203.000000	56.370091 
2202.000000	56.357121 
2201.000000	56.346035 
2200.000000	56.339263 
2199.000000	56.337881 
2198.000000	56.341266 
2197.000000	56.347346 
2196.000000	56.352972 
2195.000000	56.354784 
2194.000000	56.350111 
2193.000000	56.337594 
2192.000000	56.317663 
2191.000000	56.292319 
2190.000000	56.264710 
2189.000000	56.238317 
2188.000000	56.216144 
2187.000000	56.200122 
2186.000000	56.190729 
2185.000000	56.187200 
2184.000000	56.187510 
2183.000000	56.189227 
2182.000000	56.190085 
2181.000000	56.188225 
2180.000000	56.183028 
2179.000000	56.174874 
2178.000000	56.165051 
2177.000000	56.155109 
2176.000000	56.146764 
2175.000000	56.141352 
2174.000000	56.139612 
2173.000000	56.141638 
2172.000000	56.146764 
2171.000000	56.153917 
2170.000000	56.162047 
2169.000000	56.170201 
2168.000000	56.177687 
2167.000000	56.184196 
2166.000000	56.189608 
2165.000000	56.193923 
2164.000000	56.196904 
2163.000000	56.198120 
2162.000000	56.196928 
2161.000000	56.192398 
2160.000000	56.183934 
2159.000000	56.170940 
2158.000000	56.153488 
2157.000000	56.131982 
2156.000000	56.107139 
2155.000000	56.079792 
2154.000000	56.050634 
2153.000000	56.020283 
2152.000000	55.989193 
2151.000000	55.958056 
2150.000000	55.927634 
2149.000000	55.899333 
2148.000000	55.875134 
2147.000000	55.857419 
2146.000000	55.848455 
2145.000000	55.849909 
2144.000000	55.862355 
2143.000000	55.884623 
2142.000000	55.913949 
2141.000000	55.946278 
2140.000000	55.976939 
2139.000000	56.001472 
2138.000000	56.016445 
2137.000000	56.020236 
2136.000000	56.012964 
2135.000000	55.996561 
2134.000000	55.973863 
2133.000000	55.948114 
2132.000000	55.921912 
2131.000000	55.897116 
2130.000000	55.874252 
2129.000000	55.853009 
2128.000000	55.832409 
2127.000000	55.811762 
2126.000000	55.790662 
2125.000000	55.769538 
2124.000000	55.749392 
2123.000000	55.731654 
2122.000000	55.717706 
2121.000000	55.708384 
2120.000000	55.703902 
2119.000000	55.703663 
2118.000000	55.706501 
2117.000000	55.710935 
2116.000000	55.715465 
2115.000000	55.719065 
2114.000000	55.721116 
2113.000000	55.721402 
2112.000000	55.720019 
2111.000000	55.716896 
2110.000000	55.712080 
2109.000000	55.705451 
2108.000000	55.696630 
2107.000000	55.685281 
2106.000000	55.671501 
2105.000000	55.655765 
2104.000000	55.638933 
2103.000000	55.622196 
2102.000000	55.606961 
2101.000000	55.594658 
2100.000000	55.586266 
2099.000000	55.582332 
2098.000000	55.582499 
2097.000000	55.586171 
2096.000000	55.592417 
2095.000000	55.600357 
2094.000000	55.609226 
2093.000000	55.618882 
2092.000000	55.629515 
2091.000000	55.641412 
2090.000000	55.654621 
2089.000000	55.668878 
2088.000000	55.682873 
2087.000000	55.694913 
2086.000000	55.702495 
2085.000000	55.703210 
2084.000000	55.694556 
2083.000000	55.675244 
2082.000000	55.644679 
2081.000000	55.603718 
2080.000000	55.553960 
2079.000000	55.497980 
2078.000000	55.438494 
2077.000000	55.378460 
2076.000000	55.320858 
2075.000000	55.268359 
2074.000000	55.223703 
2073.000000	55.189180 
2072.000000	55.167078 
2071.000000	55.158972 
2070.000000	55.165743 
2069.000000	55.187034 
2068.000000	55.221366 
2067.000000	55.265688 
2066.000000	55.315685 
2065.000000	55.366206 
2064.000000	55.411767 
2063.000000	55.447173 
2062.000000	55.468297 
2061.000000	55.472493 
2060.000000	55.459070 
2059.000000	55.429196 
2058.000000	55.385899 
2057.000000	55.333471 
2056.000000	55.277204 
2055.000000	55.222320 
2054.000000	55.173778 
2053.000000	55.135273 
2052.000000	55.109167 
2051.000000	55.096125 
2050.000000	55.095148 
2049.000000	55.104041 
2048.000000	55.119538 
2047.000000	55.138349 
2046.000000	55.157375 
2045.000000	55.174374 
2044.000000	55.187678 
2043.000000	55.196928 
2042.000000	55.202436 
2041.000000	55.205059 
2040.000000	55.205750 
2039.000000	55.205249 
2038.000000	55.203914 
2037.000000	55.201554 
2036.000000	55.197548 
2035.000000	55.191016 
2034.000000	55.181002 
2033.000000	55.167150 
2032.000000	55.149722 
2031.000000	55.129623 
2030.000000	55.108141 
2029.000000	55.086827 
2028.000000	55.067014 
2027.000000	55.049729 
2026.000000	55.035066 
2025.000000	55.022406 
2024.000000	55.010962 
2023.000000	54.999637 
2022.000000	54.987955 
2021.000000	54.975938 
2020.000000	54.964494 
2019.000000	54.955101 
2018.000000	54.949617 
2017.000000	54.949450 
2016.000000	54.955291 
2015.000000	54.966640 
2014.000000	54.981899 
2013.000000	54.998636 
2012.000000	55.013847 
2011.000000	55.024647 
2010.000000	55.028748 
2009.000000	55.024886 
2008.000000	55.013012 
2007.000000	54.993987 
2006.000000	54.969716 
2005.000000	54.942631 
2004.000000	54.915285 
2003.000000	54.889822 
2002.000000	54.868078 
2001.000000	54.850769 
2000.000000	54.837989 
1999.000000	54.829120 
1998.000000	54.822921 
1997.000000	54.818153 
1996.000000	54.813599 
1995.000000	54.808664 
1994.000000	54.803085 
1993.000000	54.797291 
1992.000000	54.792070 
1991.000000	54.788327 
1990.000000	54.786753 
1989.000000	54.787516 
1988.000000	54.790163 
1987.000000	54.793524 
1986.000000	54.796075 
1985.000000	54.796242 
1984.000000	54.792737 
1983.000000	54.785013 
1982.000000	54.773283 
1981.000000	54.758548 
1980.000000	54.742383 
1979.000000	54.726409 
1978.000000	54.711985 
1977.000000	54.699873 
1976.000000	54.690051 
1975.000000	54.681801 
1974.000000	54.673886 
1973.000000	54.665160 
1972.000000	54.654932 
1971.000000	54.643058 
1970.000000	54.630041 
1969.000000	54.616975 
1968.000000	54.605221 
1967.000000	54.595685 
1966.000000	54.588866 
1965.000000	54.584407 
1964.000000	54.581308 
1963.000000	54.578137 
1962.000000	54.573345 
1961.000000	54.565811 
1960.000000	54.555106 
1959.000000	54.541635 
1958.000000	54.526400 
1957.000000	54.510712 
1956.000000	54.495811 
1955.000000	54.482603 
1954.000000	54.471421 
1953.000000	54.462027 
1952.000000	54.453945 
1951.000000	54.446625 
1950.000000	54.439735 
1949.000000	54.433298 
1948.000000	54.427504 
1947.000000	54.422640 
1946.000000	54.418730 
1945.000000	54.415678 
1944.000000	54.412841 
1943.000000	54.409575 
1942.000000	54.405522 
1941.000000	54.400658 
1940.000000	54.395747 
1939.000000	54.391837 
1938.000000	54.390287 
1937.000000	54.391813 
1936.000000	54.396319 
1935.000000	54.402303 
1934.000000	54.407119 
1933.000000	54.407715 
1932.000000	54.401326 
1931.000000	54.386472 
1930.000000	54.363512 
1929.000000	54.334807 
1928.000000	54.304385 
1927.000000	54.276847 
1926.000000	54.256415 
1925.000000	54.245567 
1924.000000	54.244637 
1923.000000	54.251575 
1922.000000	54.262661 
1921.000000	54.273343 
1920.000000	54.279780 
1919.000000	54.279446 
1918.000000	54.271960 
1917.000000	54.259085 
1916.000000	54.243993 
1915.000000	54.230213 
1914.000000	54.220628 
1913.000000	54.216718 
1912.000000	54.217958 
1911.000000	54.222083 
1910.000000	54.225707 
1909.000000	54.225468 
1908.000000	54.218602 
1907.000000	54.204010 
1906.000000	54.182410 
1905.000000	54.156303 
1904.000000	54.129290 
1903.000000	54.105067 
1902.000000	54.086899 
1901.000000	54.076623 
1900.000000	54.074597 
1899.000000	54.079556 
1898.000000	54.088997 
1897.000000	54.099941 
1896.000000	54.109311 
1895.000000	54.114675 
1894.000000	54.114460 
1893.000000	54.108166 
1892.000000	54.096007 
1891.000000	54.078960 
1890.000000	54.058551 
1889.000000	54.036331 
1888.000000	54.013824 
1887.000000	53.992176 
1886.000000	53.972458 
1885.000000	53.955173 
1884.000000	53.940558 
1883.000000	53.928637 
1882.000000	53.919124 
1881.000000	53.911638 
1880.000000	53.905725 
1879.000000	53.900909 
1878.000000	53.896594 
1877.000000	53.892326 
1876.000000	53.887629 
1875.000000	53.882193 
1874.000000	53.875803 
1873.000000	53.868317 
1872.000000	53.859853 
1871.000000	53.850483 
1870.000000	53.840494 
1869.000000	53.830027 
1868.000000	53.819060 
1867.000000	53.807640 
1866.000000	53.795623 
1865.000000	53.782868 
1864.000000	53.769326 
1863.000000	53.755259 
1862.000000	53.741097 
1861.000000	53.727531 
1860.000000	53.715276 
1859.000000	53.704714 
1858.000000	53.695940 
1857.000000	53.688693 
1856.000000	53.682589 
1855.000000	53.677248 
1854.000000	53.672742 
1853.000000	53.669428 
1852.000000	53.668117 
1851.000000	53.669762 
1850.000000	53.675007 
1849.000000	53.683710 
1848.000000	53.694748 
1847.000000	53.705835 
1846.000000	53.714013 
1845.000000	53.716182 
1844.000000	53.709745 
1843.000000	53.693485 
1842.000000	53.667831 
1841.000000	53.635025 
1840.000000	53.598546 
1839.000000	53.562736 
1838.000000	53.531718 
1837.000000	53.508687 
1836.000000	53.495430 
1835.000000	53.492140 
1834.000000	53.497529 
1833.000000	53.509235 
1832.000000	53.524422 
1831.000000	53.540325 
1830.000000	53.554511 
1829.000000	53.565454 
1828.000000	53.572511 
1827.000000	53.575921 
1826.000000	53.576350 
1825.000000	53.574919 
1824.000000	53.572630 
1823.000000	53.570246 
1822.000000	53.568029 
1821.000000	53.565859 
1820.000000	53.563237 
1819.000000	53.559374 
1818.000000	53.553509 
1817.000000	53.545117 
1816.000000	53.534150 
1815.000000	53.521037 
1814.000000	53.506660 
1813.000000	53.492474 
1812.000000	53.480052 
1811.000000	53.470802 
1810.000000	53.465771 
1809.000000	53.465270 
1808.000000	53.468537 
1807.000000	53.474307 
1806.000000	53.480410 
1805.000000	53.484392 
1804.000000	53.483867 
1803.000000	53.477025 
1802.000000	53.463053 
1801.000000	53.442454 
1800.000000	53.416919 
1799.000000	53.388929 
1798.000000	53.361606 
1797.000000	53.338050 
1796.000000	53.320813 
1795.000000	53.311157 
1794.000000	53.309154 
1793.000000	53.313660 
1792.000000	53.322505 
1791.000000	53.332996 
1790.000000	53.342580 
1789.000000	53.349113 
1788.000000	53.351259 
1787.000000	53.348588 
1786.000000	53.341507 
1785.000000	53.331136 
1784.000000	53.318834 
1783.000000	53.306221 
1782.000000	53.294777 
1781.000000	53.285646 
1780.000000	53.279733 
1779.000000	53.277349 
1778.000000	53.278470 
1777.000000	53.282165 
1776.000000	53.287053 
1775.000000	53.291058 
1774.000000	53.292012 
1773.000000	53.287649 
1772.000000	53.276228 
1771.000000	53.256940 
1770.000000	53.230261 
1769.000000	53.197956 
1768.000000	53.162765 
1767.000000	53.128004 
1766.000000	53.096818 
1765.000000	53.071618 
1764.000000	53.053855 
1763.000000	53.043770 
1762.000000	53.040599 
1761.000000	53.042936 
1760.000000	53.048968 
1759.000000	53.057050 
1758.000000	53.065705 
1757.000000	53.073763 
1756.000000	53.080201 
1755.000000	53.084111 
1754.000000	53.084516 
1753.000000	53.080606 
1752.000000	53.071737 
1751.000000	53.057575 
1750.000000	53.038215 
1749.000000	53.014564 
1748.000000	52.987694 
1747.000000	52.958989 
1746.000000	52.929759 
1745.000000	52.901077 
1744.000000	52.873992 
1743.000000	52.849531 
1742.000000	52.828693 
1741.000000	52.812457 
1740.000000	52.801394 
1739.000000	52.795672 
1738.000000	52.794837 
1737.000000	52.797627 
1736.000000	52.801990 
1735.000000	52.805376 
1734.000000	52.805519 
1733.000000	52.800750 
1732.000000	52.790069 
1731.000000	52.773761 
1730.000000	52.753257 
1729.000000	52.730965 
1728.000000	52.709722 
1727.000000	52.692437 
1726.000000	52.681303 
1725.000000	52.677774 
1724.000000	52.682566 
1723.000000	52.695250 
1722.000000	52.714443 
1721.000000	52.737808 
1720.000000	52.762269 
1719.000000	52.784538 
1718.000000	52.801537 
1717.000000	52.810931 
1716.000000	52.811789 
1715.000000	52.804875 
1714.000000	52.792549 
1713.000000	52.778434 
1712.000000	52.766466 
1711.000000	52.760291 
1710.000000	52.762365 
1709.000000	52.774024 
1708.000000	52.794957 
1707.000000	52.823710 
1706.000000	52.857565 
1705.000000	52.893829 
1704.000000	52.929091 
1703.000000	52.960205 
1702.000000	52.983736 
1701.000000	52.996754 
1700.000000	52.996444 
1699.000000	52.980709 
1698.000000	52.948641 
1697.000000	52.901315 
1696.000000	52.841925 
1695.000000	52.775764 
1694.000000	52.709531 
1693.000000	52.650523 
1692.000000	52.605223 
1691.000000	52.578020 
1690.000000	52.570152 
1689.000000	52.579545 
1688.000000	52.600979 
1687.000000	52.627396 
1686.000000	52.651023 
1685.000000	52.665138 
1684.000000	52.665257 
1683.000000	52.650022 
1682.000000	52.621126 
1681.000000	52.582716 
1680.000000	52.540326 
1679.000000	52.499270 
1678.000000	52.464079 
1677.000000	52.436804 
1676.000000	52.417588 
1675.000000	52.404022 
1674.000000	52.392888 
1673.000000	52.380394 
1672.000000	52.363181 
1671.000000	52.339172 
1670.000000	52.308058 
1669.000000	52.271509 
1668.000000	52.232074 
1667.000000	52.193760 
1666.000000	52.160668 
1665.000000	52.136921 
1664.000000	52.125763 
1663.000000	52.129840 
1662.000000	52.150583 
1661.000000	52.188372 
1660.000000	52.242040 
1659.000000	52.308821 
1658.000000	52.384328 
1657.000000	52.462744 
1656.000000	52.537512 
1655.000000	52.602148 
1654.000000	52.650904 
1653.000000	52.679872 
1652.000000	52.687001 
1651.000000	52.672648 
1650.000000	52.638554 
1649.000000	52.588534 
1648.000000	52.526879 
1647.000000	52.458357 
1646.000000	52.387309 
1645.000000	52.318048 
1644.000000	52.253890 
1643.000000	52.197670 
1642.000000	52.150821 
1641.000000	52.114033 
1640.000000	52.086424 
1639.000000	52.065920 
1638.000000	52.049684 
1637.000000	52.034282 
1636.000000	52.017021 
1635.000000	51.996088 
1634.000000	51.971364 
1633.000000	51.944184 
1632.000000	51.916956 
1631.000000	51.892518 
1630.000000	51.872992 
1629.000000	51.859402 
1628.000000	51.851582 
1627.000000	51.848244 
1626.000000	51.847410 
1625.000000	51.846981 
1624.000000	51.845502 
1623.000000	51.842141 
1622.000000	51.836657 
1621.000000	51.828908 
1620.000000	51.818728 
1619.000000	51.805806 
1618.000000	51.789379 
1617.000000	51.768827 
1616.000000	51.743841 
1615.000000	51.715087 
1614.000000	51.684594 
1613.000000	51.655125 
1612.000000	51.629543 
1611.000000	51.610326 
1610.000000	51.599049 
1609.000000	51.595687 
1608.000000	51.598620 
1607.000000	51.605272 
1606.000000	51.612782 
1605.000000	51.618623 
1604.000000	51.621270 
1603.000000	51.620388 
1602.000000	51.616597 
1601.000000	51.610994 
1600.000000	51.604676 
1599.000000	51.598215 
1598.000000	51.591587 
1597.000000	51.584196 
1596.000000	51.575064 
1595.000000	51.563477 
1594.000000	51.549243 
1593.000000	51.532530 
1592.000000	51.514101 
1591.000000	51.495122 
1590.000000	51.477241 
1589.000000	51.461768 
1588.000000	51.450347 
1587.000000	51.444244 
1586.000000	51.444745 
1585.000000	51.452875 
1584.000000	51.468920 
1583.000000	51.492357 
1582.000000	51.521348 
1581.000000	51.552605 
1580.000000	51.581764 
1579.000000	51.604151 
1578.000000	51.615571 
1577.000000	51.613378 
1576.000000	51.597237 
1575.000000	51.569199 
1574.000000	51.532959 
1573.000000	51.493191 
1572.000000	51.454567 
1571.000000	51.421427 
1570.000000	51.396870 
1569.000000	51.382923 
1568.000000	51.380515 
1567.000000	51.389551 
1566.000000	51.409268 
1565.000000	51.437878 
1564.000000	51.472592 
1563.000000	51.509523 
1562.000000	51.544022 
1561.000000	51.571416 
1560.000000	51.587247 
1559.000000	51.588726 
1558.000000	51.575183 
1557.000000	51.548552 
1556.000000	51.512956 
1555.000000	51.473736 
1554.000000	51.436352 
1553.000000	51.405167 
1552.000000	51.383018 
1551.000000	51.371479 
1550.000000	51.370954 
1549.000000	51.381206 
1548.000000	51.401424 
1547.000000	51.430392 
1546.000000	51.466083 
1545.000000	51.505160 
1544.000000	51.542925 
1543.000000	51.573634 
1542.000000	51.591634 
1541.000000	51.592302 
1540.000000	51.572990 
1539.000000	51.533746 
1538.000000	51.477360 
1537.000000	51.409411 
1536.000000	51.336860 
1535.000000	51.267099 
1534.000000	51.206612 
1533.000000	51.159739 
1532.000000	51.128602 
1531.000000	51.113319 
1530.000000	51.112174 
1529.000000	51.122355 
1528.000000	51.140356 
1527.000000	51.162767 
1526.000000	51.185941 
1525.000000	51.206278 
1524.000000	51.220464 
1523.000000	51.225852 
1522.000000	51.220512 
1521.000000	51.203823 
1520.000000	51.176619 
1519.000000	51.141309 
1518.000000	51.101732 
1517.000000	51.062464 
1516.000000	51.028823 
1515.000000	51.005387 
1514.000000	50.995445 
1513.000000	50.999951 
1512.000000	51.017475 
1511.000000	51.044106 
1510.000000	51.074242 
1509.000000	51.101517 
1508.000000	51.120209 
1507.000000	51.126360 
1506.000000	51.118445 
1505.000000	51.097440 
1504.000000	51.065993 
1503.000000	51.027941 
1502.000000	50.987577 
1501.000000	50.948572 
1500.000000	50.913548 
1499.000000	50.883841 
1498.000000	50.859737 
1497.000000	50.840854 
1496.000000	50.826287 
1495.000000	50.814819 
1494.000000	50.805258 
1493.000000	50.796175 
1492.000000	50.785970 
1491.000000	50.773096 
1490.000000	50.756263 
1489.000000	50.734543 
1488.000000	50.707769 
1487.000000	50.676751 
1486.000000	50.643491 
1485.000000	50.610470 
1484.000000	50.580811 
1483.000000	50.557255 
1482.000000	50.542378 
1481.000000	50.537919 
1480.000000	50.544762 
1479.000000	50.562596 
1478.000000	50.589799 
1477.000000	50.623631 
1476.000000	50.660252 
1475.000000	50.694966 
1474.000000	50.723099 
1473.000000	50.740671 
1472.000000	50.745058 
1471.000000	50.735640 
1470.000000	50.713753 
1469.000000	50.682663 
1468.000000	50.647306 
1467.000000	50.613331 
1466.000000	50.586438 
1465.000000	50.571012 
1464.000000	50.569796 
1463.000000	50.582647 
1462.000000	50.606894 
1461.000000	50.637149 
1460.000000	50.666666 
1459.000000	50.688242 
1458.000000	50.695991 
1457.000000	50.686264 
1456.000000	50.658702 
1455.000000	50.616145 
1454.000000	50.563955 
1453.000000	50.508785 
1452.000000	50.457453 
1451.000000	50.414848 
1450.000000	50.383234 
1449.000000	50.361800 
1448.000000	50.347542 
1447.000000	50.336313 
1446.000000	50.324559 
1445.000000	50.310111 
1444.000000	50.292849 
1443.000000	50.274562 
1442.000000	50.258111 
1441.000000	50.246191 
1440.000000	50.240206 
1439.000000	50.240063 
1438.000000	50.243973 
1437.000000	50.249075 
1436.000000	50.252175 
1435.000000	50.250363 
1434.000000	50.241971 
1433.000000	50.226593 
1432.000000	50.205874 
1431.000000	50.182437 
1430.000000	50.160050 
1429.000000	50.142359 
1428.000000	50.132489 
1427.000000	50.132417 
1426.000000	50.142359 
1425.000000	50.160884 
1424.000000	50.184869 
1423.000000	50.210046 
1422.000000	50.231552 
1421.000000	50.245261 
1420.000000	50.247907 
1419.000000	50.237631 
1418.000000	50.214433 
1417.000000	50.179886 
1416.000000	50.136661 
1415.000000	50.087690 
1414.000000	50.035858 
1413.000000	49.983620 
1412.000000	49.933242 
1411.000000	49.886608 
1410.000000	49.845576 
1409.000000	49.812006 
1408.000000	49.787473 
1407.000000	49.773049 
1406.000000	49.768686 
1405.000000	49.773240 
1404.000000	49.784255 
1403.000000	49.798631 
1402.000000	49.812507 
1401.000000	49.822735 
1400.000000	49.827051 
1399.000000	49.825119 
1398.000000	49.817919 
1397.000000	49.808025 
1396.000000	49.798488 
1395.000000	49.792313 
1394.000000	49.791431 
1393.000000	49.796438 
1392.000000	49.806523 
1391.000000	49.819493 
1390.000000	49.832558 
1389.000000	49.842834 
1388.000000	49.847912 
1387.000000	49.846172 
1386.000000	49.837279 
1385.000000	49.821805 
1384.000000	49.801087 
1383.000000	49.777078 
1382.000000	49.751996 
1381.000000	49.727773 
1380.000000	49.705934 
1379.000000	49.687576 
1378.000000	49.673032 
1377.000000	49.661922 
1376.000000	49.653005 
1375.000000	49.644851 
1374.000000	49.635672 
1373.000000	49.623751 
1372.000000	49.607896 
1371.000000	49.587607 
1370.000000	49.563598 
1369.000000	49.537634 
1368.000000	49.512314 
1367.000000	49.490451 
1366.000000	49.474740 
1365.000000	49.466848 
1364.000000	49.467182 
1363.000000	49.474763 
1362.000000	49.487352 
1361.000000	49.502062 
1360.000000	49.515771 
1359.000000	49.525713 
1358.000000	49.529767 
1357.000000	49.526929 
1356.000000	49.516916 
1355.000000	49.500513 
1354.000000	49.479269 
1353.000000	49.455189 
1352.000000	49.430847 
1351.000000	49.408674 
1350.000000	49.390769 
1349.000000	49.378657 
1348.000000	49.373292 
1347.000000	49.374413 
1346.000000	49.380898 
1345.000000	49.390769 
1344.000000	49.401497 
1343.000000	49.410533 
1342.000000	49.415779 
1341.000000	49.415802 
1340.000000	49.410104 
1339.000000	49.399018 
1338.000000	49.383687 
1337.000000	49.365639 
1336.000000	49.346446 
1335.000000	49.327707 
1334.000000	49.310588 
1333.000000	49.295926 
1332.000000	49.284029 
1331.000000	49.274659 
1330.000000	49.267220 
1329.000000	49.260544 
1328.000000	49.253582 
1327.000000	49.245762 
1326.000000	49.237275 
1325.000000	49.228906 
1324.000000	49.221992 
1323.000000	49.217939 
1322.000000	49.217581 
1321.000000	49.220967 
1320.000000	49.226903 
1319.000000	49.233150 
1318.000000	49.236583 
1317.000000	49.234294 
1316.000000	49.223923 
1315.000000	49.204421 
1314.000000	49.176192 
1313.000000	49.141120 
1312.000000	49.102330 
1311.000000	49.063730 
1310.000000	49.028968 
1309.000000	49.000883 
1308.000000	48.981142 
1307.000000	48.969936 
1306.000000	48.966193 
1305.000000	48.967933 
1304.000000	48.972463 
1303.000000	48.977303 
1302.000000	48.980331 
1301.000000	48.980164 
1300.000000	48.975992 
1299.000000	48.968029 
1298.000000	48.956918 
1297.000000	48.943996 
1296.000000	48.931026 
1295.000000	48.919796 
1294.000000	48.912191 
1293.000000	48.909258 
1292.000000	48.911356 
1291.000000	48.917412 
1290.000000	48.925399 
1289.000000	48.932266 
1288.000000	48.934793 
1287.000000	48.929977 
1286.000000	48.915743 
1285.000000	48.891377 
1284.000000	48.857641 
1283.000000	48.816657 
1282.000000	48.771429 
1281.000000	48.725366 
1280.000000	48.681688 
1279.000000	48.643183 
1278.000000	48.611831 
1277.000000	48.588776 
1276.000000	48.574137 
1275.000000	48.567438 
1274.000000	48.567724 
1273.000000	48.573613 
1272.000000	48.583698 
1271.000000	48.596143 
1270.000000	48.609519 
1269.000000	48.622107 
1268.000000	48.632740 
1267.000000	48.640394 
1266.000000	48.644423 
1265.000000	48.644518 
1264.000000	48.640680 
1263.000000	48.633217 
1262.000000	48.622536 
1261.000000	48.609137 
1260.000000	48.593473 
1259.000000	48.575997 
1258.000000	48.557114 
1257.000000	48.537397 
1256.000000	48.517441 
1255.000000	48.498058 
1254.000000	48.480176 
1253.000000	48.464822 
1252.000000	48.453044 
1251.000000	48.445653 
1250.000000	48.443031 
1249.000000	48.444962 
1248.000000	48.450708 
1247.000000	48.458862 
1246.000000	48.467683 
1245.000000	48.475337 
1244.000000	48.480010 
1243.000000	48.480463 
1242.000000	48.476099 
1241.000000	48.467254 
1240.000000	48.454904 
1239.000000	48.440384 
1238.000000	48.425269 
1237.000000	48.410844 
1236.000000	48.398017 
1235.000000	48.387050 
1234.000000	48.377680 
1233.000000	48.369288 
1232.000000	48.361325 
1231.000000	48.353242 
1230.000000	48.344826 
1229.000000	48.336172 
1228.000000	48.327589 
1227.000000	48.319435 
1226.000000	48.311829 
1225.000000	48.304533 
1224.000000	48.297095 
1223.000000	48.288655 
1222.000000	48.278474 
1221.000000	48.265838 
1220.000000	48.250627 
1219.000000	48.233151 
1218.000000	48.214387 
1217.000000	48.195576 
1216.000000	48.178148 
1215.000000	48.163700 
1214.000000	48.153495 
1213.000000	48.148202 
1212.000000	48.147988 
1211.000000	48.152470 
1210.000000	48.160791 
1209.000000	48.171520 
1208.000000	48.183274 
1207.000000	48.194694 
1206.000000	48.204493 
1205.000000	48.211574 
1204.000000	48.215222 
1203.000000	48.215079 
1202.000000	48.211050 
1201.000000	48.203301 
1200.000000	48.192191 
1199.000000	48.178505 
1198.000000	48.163151 
1197.000000	48.147201 
1196.000000	48.131799 
1195.000000	48.117852 
1194.000000	48.106050 
1193.000000	48.096752 
1192.000000	48.089647 
1191.000000	48.083901 
1190.000000	48.078489 
1189.000000	48.072075 
1188.000000	48.063564 
1187.000000	48.052048 
1186.000000	48.037171 
1185.000000	48.019051 
1184.000000	47.998237 
1183.000000	47.975325 
1182.000000	47.950959 
1181.000000	47.925448 
1180.000000	47.898864 
1179.000000	47.870874 
1178.000000	47.841167 
1177.000000	47.809576 
1176.000000	47.776532 
1175.000000	47.743010 
1174.000000	47.710466 
1173.000000	47.681021 
1172.000000	47.656822 
1171.000000	47.639846 
1170.000000	47.631287 
1169.000000	47.631430 
1168.000000	47.639632 
1167.000000	47.654056 
1166.000000	47.672319 
1165.000000	47.691845 
1164.000000	47.710108 
1163.000000	47.725057 
1162.000000	47.735404 
1161.000000	47.740507 
1160.000000	47.740364 
1159.000000	47.735524 
1158.000000	47.726869 
1157.000000	47.715783 
1156.000000	47.703337 
1155.000000	47.690868 
1154.000000	47.678947 
1153.000000	47.667646 
1152.000000	47.656130 
1151.000000	47.643208 
1150.000000	47.627472 
1149.000000	47.607612 
1148.000000	47.583222 
1147.000000	47.555041 
1146.000000	47.524785 
1145.000000	47.495079 
1144.000000	47.468662 
1143.000000	47.448134 
1142.000000	47.435188 
1141.000000	47.430300 
1140.000000	47.432565 
1139.000000	47.440147 
1138.000000	47.450613 
1137.000000	47.461867 
1136.000000	47.472047 
1135.000000	47.480082 
1134.000000	47.485756 
1133.000000	47.489261 
1132.000000	47.490787 
1131.000000	47.490167 
1130.000000	47.486853 
1129.000000	47.479891 
1128.000000	47.468328 
1127.000000	47.451686 
1126.000000	47.430443 
1125.000000	47.406268 
1124.000000	47.381997 
1123.000000	47.360825 
1122.000000	47.345495 
1121.000000	47.337794 
1120.000000	47.337889 
1119.000000	47.344303 
1118.000000	47.354054 
1117.000000	47.363567 
1116.000000	47.369003 
1115.000000	47.367310 
1114.000000	47.356367 
1113.000000	47.335624 
1112.000000	47.305893 
1111.000000	47.269272 
1110.000000	47.228550 
1109.000000	47.186803 
1108.000000	47.146749 
1107.000000	47.110462 
1106.000000	47.079038 
1105.000000	47.052550 
1104.000000	47.030448 
1103.000000	47.011780 
1102.000000	46.996021 
1101.000000	46.982884 
1100.000000	46.973133 
1099.000000	46.968126 
1098.000000	46.969628 
1097.000000	46.979236 
1096.000000	46.997332 
1095.000000	47.022461 
1094.000000	47.051644 
1093.000000	47.080612 
1092.000000	47.104740 
1091.000000	47.120070 
1090.000000	47.124528 
1089.000000	47.118067 
1088.000000	47.102904 
1087.000000	47.082495 
1086.000000	47.060656 
1085.000000	47.040128 
1084.000000	47.022342 
1083.000000	47.006630 
1082.000000	46.991086 
1081.000000	46.972942 
1080.000000	46.949768 
1079.000000	46.920299 
1078.000000	46.885228 
1077.000000	46.846866 
1076.000000	46.808338 
1075.000000	46.773409 
1074.000000	46.744894 
1073.000000	46.725273 
1072.000000	46.715807 
1071.000000	46.717143 
1070.000000	46.728968 
1069.000000	46.750664 
1068.000000	46.780991 
1067.000000	46.817946 
1066.000000	46.858572 
1065.000000	46.899175 
1064.000000	46.935558 
1063.000000	46.963262 
1062.000000	46.978163 
1061.000000	46.977090 
1060.000000	46.958541 
1059.000000	46.923041 
1058.000000	46.873569 
1057.000000	46.815133 
1056.000000	46.754574 
1055.000000	46.699476 
1054.000000	46.657109 
1053.000000	46.632862 
1052.000000	46.629333 
1051.000000	46.646070 
1050.000000	46.679234 
1049.000000	46.722555 
1048.000000	46.768260 
1047.000000	46.808600 
1046.000000	46.837019 
1045.000000	46.849107 
1044.000000	46.843385 
1043.000000	46.821141 
1042.000000	46.785473 
1041.000000	46.740388 
1040.000000	46.689963 
1039.000000	46.637821 
1038.000000	46.586894 
1037.000000	46.539735 
1036.000000	46.498227 
1035.000000	46.464276 
1034.000000	46.439743 
1033.000000	46.426630 
1032.000000	46.426033 
1031.000000	46.438336 
1030.000000	46.462678 
1029.000000	46.496653 
1028.000000	46.536540 
1027.000000	46.577286 
1026.000000	46.613168 
1025.000000	46.638536 
1024.000000	46.648621 
1023.000000	46.640419 
1022.000000	46.613049 
1021.000000	46.568679 
1020.000000	46.512126 
1019.000000	46.450519 
1018.000000	46.392035 
1017.000000	46.344590 
1016.000000	46.314644 
1015.000000	46.305179 
1014.000000	46.315360 
1013.000000	46.340227 
1012.000000	46.371936 
1011.000000	46.401023 
1010.000000	46.418690 
1009.000000	46.418809 
1008.000000	46.399354 
1007.000000	46.362471 
1006.000000	46.313977 
1005.000000	46.261644 
1004.000000	46.213221 
1003.000000	46.174931 
1002.000000	46.149659 
1001.000000	46.136617 
1000.000000	46.131944 
999.000000	 46.130394 
998.000000	 46.127223 
997.000000	 46.118736 
996.000000	 46.104478 
995.000000	 46.087169 
994.000000	 46.072077 
993.000000	 46.064949 
992.000000	 46.071028 
991.000000	 46.092867 
990.000000	 46.130204 
989.000000	 46.179771 
988.000000	 46.236205 
987.000000	 46.293210 
986.000000	 46.345591 
985.000000	 46.389961 
984.000000	 46.425294 
983.000000	 46.452403 
982.000000	 46.473121 
981.000000	 46.488595 
980.000000	 46.498990 
979.000000	 46.502351 
978.000000	 46.495485 
977.000000	 46.473979 
976.000000	 46.434736 
975.000000	 46.375775 
974.000000	 46.298408 
973.000000	 46.205949 
972.000000	 46.103644 
971.000000	 45.997810 
970.000000	 45.894455 
969.000000	 45.799469 
968.000000	 45.717406 
967.000000	 45.652318 
966.000000	 45.607161 
965.000000	 45.584154 
964.000000	 45.584344 
963.000000	 45.607137 
962.000000	 45.649504 
961.000000	 45.705652 
960.000000	 45.767092 
959.000000	 45.823693 
958.000000	 45.864963 
957.000000	 45.882010 
956.000000	 45.869255 
955.000000	 45.825457 
954.000000	 45.753908 
953.000000	 45.661783 
952.000000	 45.558428 
951.000000	 45.453691 
950.000000	 45.356106 
949.000000	 45.272231 
948.000000	 45.205831 
947.000000	 45.158386 
946.000000	 45.129466 
945.000000	 45.117306 
944.000000	 45.119476 
943.000000	 45.132780 
942.000000	 45.153999 
941.000000	 45.179295 
940.000000	 45.205569 
939.000000	 45.229291 
938.000000	 45.248389 
937.000000	 45.261597 
936.000000	 45.269584 
935.000000	 45.274496 
934.000000	 45.279717 
933.000000	 45.288896 
932.000000	 45.304989 
931.000000	 45.329332 
930.000000	 45.361375 
929.000000	 45.398426 
928.000000	 45.436358 
927.000000	 45.470333 
926.000000	 45.495915 
925.000000	 45.509862 
924.000000	 45.511078 
923.000000	 45.500254 
922.000000	 45.479989 
921.000000	 45.453238 
920.000000	 45.423626 
919.000000	 45.393514 
918.000000	 45.363736 
917.000000	 45.333123 
916.000000	 45.299959 
915.000000	 45.261812 
914.000000	 45.216965 
913.000000	 45.164942 
912.000000	 45.107126 
911.000000	 45.046377 
910.000000	 44.986581 
909.000000	 44.931530 
908.000000	 44.883799 
907.000000	 44.844579 
906.000000	 44.813323 
905.000000	 44.788312 
904.000000	 44.767141 
903.000000	 44.748449 
902.000000	 44.732284 
901.000000	 44.720220 
900.000000	 44.715046 
899.000000	 44.719505 
898.000000	 44.735479 
897.000000	 44.762372 
896.000000	 44.797253 
895.000000	 44.835162 
894.000000	 44.870066 
893.000000	 44.896292 
892.000000	 44.909715 
891.000000	 44.908761 
890.000000	 44.894456 
889.000000	 44.870209 
888.000000	 44.840669 
887.000000	 44.810843 
886.000000	 44.784712 
885.000000	 44.765067 
884.000000	 44.752645 
883.000000	 44.746494 
882.000000	 44.744515 
881.000000	 44.744539 
880.000000	 44.744396 
879.000000	 44.742608 
878.000000	 44.738531 
877.000000	 44.732165 
876.000000	 44.723892 
875.000000	 44.714069 
874.000000	 44.702768 
873.000000	 44.689750 
872.000000	 44.674706 
871.000000	 44.657135 
870.000000	 44.636964 
869.000000	 44.614219 
868.000000	 44.589400 
867.000000	 44.563436 
866.000000	 44.537019 
865.000000	 44.511103 
864.000000	 44.486570 
863.000000	 44.464254 
862.000000	 44.444584 
861.000000	 44.427967 
860.000000	 44.414734 
859.000000	 44.405174 
858.000000	 44.399380 
857.000000	 44.397354 
856.000000	 44.398760 
855.000000	 44.402933 
854.000000	 44.408845 
853.000000	 44.414806 
852.000000	 44.418621 
851.000000	 44.417858 
850.000000	 44.410347 
849.000000	 44.394659 
848.000000	 44.370651 
847.000000	 44.339585 
846.000000	 44.303917 
845.000000	 44.267058 
844.000000	 44.232463 
843.000000	 44.202852 
842.000000	 44.179344 
841.000000	 44.161248 
840.000000	 44.146227 
839.000000	 44.131088 
838.000000	 44.112730 
837.000000	 44.089245 
836.000000	 44.060802 
835.000000	 44.029736 
834.000000	 44.000434 
833.000000	 43.977761 
832.000000	 43.966388 
831.000000	 43.968915 
830.000000	 43.985438 
829.000000	 44.013166 
828.000000	 44.046974 
827.000000	 44.080376 
826.000000	 44.106888 
825.000000	 44.121575 
824.000000	 44.121694 
823.000000	 44.107151 
822.000000	 44.079637 
821.000000	 44.042038 
820.000000	 43.997621 
819.000000	 43.949484 
818.000000	 43.900108 
817.000000	 43.851327 
816.000000	 43.805050 
815.000000	 43.763136 
814.000000	 43.727159 
813.000000	 43.698501 
812.000000	 43.678188 
811.000000	 43.666863 
810.000000	 43.664288 
809.000000	 43.669581 
808.000000	 43.681120 
807.000000	 43.696546 
806.000000	 43.712806 
805.000000	 43.726444 
804.000000	 43.733763 
803.000000	 43.731737 
802.000000	 43.718528 
801.000000	 43.694043 
800.000000	 43.660044 
799.000000	 43.620324 
798.000000	 43.579840 
797.000000	 43.544173 
796.000000	 43.518304 
795.000000	 43.506193 
794.000000	 43.509936 
793.000000	 43.529415 
792.000000	 43.562388 
791.000000	 43.605351 
790.000000	 43.654227 
789.000000	 43.704652 
788.000000	 43.752789 
787.000000	 43.795680 
786.000000	 43.831276 
785.000000	 43.858313 
784.000000	 43.875813 
783.000000	 43.883299 
782.000000	 43.880295 
781.000000	 43.867015 
780.000000	 43.843555 
779.000000	 43.810772 
778.000000	 43.769741 
777.000000	 43.722462 
776.000000	 43.671369 
775.000000	 43.619418 
774.000000	 43.569707 
773.000000	 43.525075 
772.000000	 43.488001 
771.000000	 43.460536 
770.000000	 43.443322 
769.000000	 43.435502 
768.000000	 43.434643 
767.000000	 43.436789 
766.000000	 43.436837 
765.000000	 43.429517 
764.000000	 43.409824 
763.000000	 43.374371 
762.000000	 43.321919 
761.000000	 43.253922 
760.000000	 43.174362 
759.000000	 43.089294 
758.000000	 43.005394 
757.000000	 42.929458 
756.000000	 42.866873 
755.000000	 42.821168 
754.000000	 42.793297 
753.000000	 42.781925 
752.000000	 42.784190 
751.000000	 42.795777 
750.000000	 42.811727 
749.000000	 42.826485 
748.000000	 42.834162 
747.000000	 42.829442 
746.000000	 42.807888 
745.000000	 42.767286 
744.000000	 42.708110 
743.000000	 42.634177 
742.000000	 42.552232 
741.000000	 42.470884 
740.000000	 42.399120 
739.000000	 42.344427 
738.000000	 42.311501 
737.000000	 42.301535 
736.000000	 42.312312 
735.000000	 42.338895 
734.000000	 42.374897 
733.000000	 42.414069 
732.000000	 42.451214 
731.000000	 42.482590 
730.000000	 42.506217 
729.000000	 42.520332 
728.000000	 42.524266 
727.000000	 42.517161 
726.000000	 42.498993 
725.000000	 42.470765 
724.000000	 42.434597 
723.000000	 42.394804 
722.000000	 42.355823 
721.000000	 42.322325 
720.000000	 42.297148 
719.000000	 42.281007 
718.000000	 42.271995 
717.000000	 42.266225 
716.000000	 42.258954 
715.000000	 42.245841 
714.000000	 42.224049 
713.000000	 42.192649 
712.000000	 42.152762 
711.000000	 42.107248 
710.000000	 42.059278 
709.000000	 42.011976 
708.000000	 41.967630 
707.000000	 41.927623 
706.000000	 41.892433 
705.000000	 41.862154 
704.000000	 41.836953 
703.000000	 41.816687 
702.000000	 41.801166 
701.000000	 41.789579 
700.000000	 41.779804 
699.000000	 41.769194 
698.000000	 41.754531 
697.000000	 41.733336 
696.000000	 41.704154 
695.000000	 41.667771 
694.000000	 41.626954 
693.000000	 41.586399 
692.000000	 41.551470 
691.000000	 41.527557 
690.000000	 41.518640 
689.000000	 41.526246 
688.000000	 41.549110 
687.000000	 41.582918 
686.000000	 41.621184 
685.000000	 41.656637 
684.000000	 41.682672 
683.000000	 41.694450 
682.000000	 41.689729 
681.000000	 41.669225 
680.000000	 41.636085 
679.000000	 41.594862 
678.000000	 41.550540 
677.000000	 41.507601 
676.000000	 41.469192 
675.000000	 41.437101 
674.000000	 41.411733 
673.000000	 41.392779 
672.000000	 41.379237 
671.000000	 41.370630 
670.000000	 41.366147 
669.000000	 41.364693 
668.000000	 41.364264 
667.000000	 41.362023 
666.000000	 41.354513 
665.000000	 41.337847 
664.000000	 41.309738 
663.000000	 41.270232 
662.000000	 41.222500 
661.000000	 41.172504 
660.000000	 41.127848 
659.000000	 41.096043 
658.000000	 41.082835 
657.000000	 41.090655 
656.000000	 41.118001 
655.000000	 41.159558 
654.000000	 41.207575 
653.000000	 41.253137 
652.000000	 41.288352 
651.000000	 41.306972 
650.000000	 41.305565 
649.000000	 41.283059 
648.000000	 41.240310 
647.000000	 41.179442 
646.000000	 41.103458 
645.000000	 41.015958 
644.000000	 40.921258 
643.000000	 40.823817 
642.000000	 40.729069 
641.000000	 40.641903 
640.000000	 40.566706 
639.000000	 40.506196 
638.000000	 40.460824 
637.000000	 40.429925 
636.000000	 40.411806 
635.000000	 40.404701 
634.000000	 40.406990 
633.000000	 40.418148 
632.000000	 40.438532 
631.000000	 40.468168 
630.000000	 40.506100 
629.000000	 40.549635 
628.000000	 40.594244 
627.000000	 40.633893 
626.000000	 40.662503 
625.000000	 40.675354 
624.000000	 40.670442 
623.000000	 40.649390 
622.000000	 40.616750 
621.000000	 40.579319 
620.000000	 40.543699 
619.000000	 40.515255 
618.000000	 40.496158 
617.000000	 40.485620 
616.000000	 40.479660 
615.000000	 40.473151 
614.000000	 40.460181 
613.000000	 40.435791 
612.000000	 40.396595 
611.000000	 40.341544 
610.000000	 40.271401 
609.000000	 40.188431 
608.000000	 40.095925 
607.000000	 39.997768 
606.000000	 39.897847 
605.000000	 39.800047 
604.000000	 39.708018 
603.000000	 39.625334 
602.000000	 39.555215 
601.000000	 39.500713 
600.000000	 39.463210 
599.000000	 39.443039 
598.000000	 39.439296 
597.000000	 39.450383 
596.000000	 39.472961 
595.000000	 39.503335 
594.000000	 39.537405 
593.000000	 39.571237 
592.000000	 39.601159 
591.000000	 39.623856 
590.000000	 39.636492 
589.000000	 39.636731 
588.000000	 39.623141 
587.000000	 39.595103 
586.000000	 39.553093 
585.000000	 39.498782 
584.000000	 39.435029 
583.000000	 39.366126 
582.000000	 39.297533 
581.000000	 39.234828 
580.000000	 39.182662 
579.000000	 39.143896 
578.000000	 39.118742 
577.000000	 39.104628 
576.000000	 39.096426 
575.000000	 39.086341 
574.000000	 39.065957 
573.000000	 39.027881 
572.000000	 38.968324 
571.000000	 38.887691 
570.000000	 38.791775 
569.000000	 38.690257 
568.000000	 38.595747 
567.000000	 38.520598 
566.000000	 38.474488 
565.000000	 38.462090 
564.000000	 38.481974 
563.000000	 38.527584 
562.000000	 38.587260 
561.000000	 38.647508 
560.000000	 38.693571 
559.000000	 38.712382 
558.000000	 38.693881 
557.000000	 38.632416 
556.000000	 38.528537 
555.000000	 38.388919 
554.000000	 38.226079 
553.000000	 38.056087 
552.000000	 37.897181 
551.000000	 37.766456 
550.000000	 37.677240 
549.000000	 37.636399 
548.000000	 37.643408 
547.000000	 37.690067 
546.000000	 37.762236 
545.000000	 37.842583 
544.000000	 37.913155 
543.000000	 37.959456 
542.000000	 37.972044 
541.000000	 37.948608 
540.000000	 37.892198 
539.000000	 37.811779 
538.000000	 37.718820 
537.000000	 37.626385 
536.000000	 37.547302 
535.000000	 37.491011 
534.000000	 37.464070 
533.000000	 37.465953 
532.000000	 37.490320 
531.000000	 37.524628 
530.000000	 37.553429 
529.000000	 37.560343 
528.000000	 37.532067 
527.000000	 37.461113 
526.000000	 37.347865 
525.000000	 37.200021 
524.000000	 37.031102 
523.000000	 36.857175 
522.000000	 36.694288 
521.000000	 36.556077 
520.000000	 36.452317 
519.000000	 36.388087 
518.000000	 36.364006 
517.000000	 36.377811 
516.000000	 36.424112 
515.000000	 36.495542 
514.000000	 36.582469 
513.000000	 36.672377 
512.000000	 36.752033 
511.000000	 36.806869 
510.000000	 36.826324 
509.000000	 36.804056 
508.000000	 36.742663 
507.000000	 36.653327 
506.000000	 36.554956 
505.000000	 36.470174 
504.000000	 36.420750 
503.000000	 36.422872 
502.000000	 36.482501 
501.000000	 36.593914 
500.000000	 36.739420 
499.000000	 36.893010 
498.000000	 37.024307 
497.000000	 37.104964 
496.000000	 37.113261 
495.000000	 37.039065 
494.000000	 36.884617 
493.000000	 36.665177 
492.000000	 36.405205 
491.000000	 36.135149 
490.000000	 35.885787 
489.000000	 35.683751 
488.000000	 35.548853 
487.000000	 35.490775 
486.000000	 35.508823 
485.000000	 35.593271 
484.000000	 35.726690 
483.000000	 35.889196 
482.000000	 36.062240 
481.000000	 36.229848 
480.000000	 36.378192 
479.000000	 36.496806 
478.000000	 36.577606 
477.000000	 36.614441 
476.000000	 36.602711 
475.000000	 36.540865 
474.000000	 36.431193 
473.000000	 36.282205 
472.000000	 36.108589 
471.000000	 35.928320 
470.000000	 35.759902 
469.000000	 35.617089 
468.000000	 35.506749 
467.000000	 35.428786 
466.000000	 35.377764 
465.000000	 35.342907 
464.000000	 35.314130 
463.000000	 35.287070 
462.000000	 35.263204 
461.000000	 35.250854 
460.000000	 35.257363 
459.000000	 35.284638 
458.000000	 35.323882 
457.000000	 35.355782 
456.000000	 35.352993 
455.000000	 35.284781 
454.000000	 35.129690 
453.000000	 34.882307 
452.000000	 34.560370 
451.000000	 34.202384 
450.000000	 33.862566 
449.000000	 33.597683 
448.000000	 33.455610 
447.000000	 33.463025 
446.000000	 33.615589 
445.000000	 33.877110 
444.000000	 34.185099 
443.000000	 34.463810 
442.000000	 34.638619 
441.000000	 34.653043 
440.000000	 34.479022 
439.000000	 34.124898 
438.000000	 33.630013 
437.000000	 33.059597 
436.000000	 32.490658 
435.000000	 31.998229 
434.000000	 31.638455 
433.000000	 31.442642 
432.000000	 31.417703 
431.000000	 31.546998 
430.000000	 31.795120 
429.000000	 32.120323 
428.000000	 32.480311 
427.000000	 32.842254 
426.000000	 33.189702 
425.000000	 33.509612 
424.000000	 33.780455 
423.000000	 33.980417 
422.000000	 34.089374 
421.000000	 34.086251 
420.000000	 33.952450 
419.000000	 33.689355 
418.000000	 33.322381 
417.000000	 32.889103 
416.000000	 32.434463 
415.000000	 31.999278 
414.000000	 31.612014 
413.000000	 31.302666 
412.000000	 31.084847 
411.000000	 30.955481 
410.000000	 30.881357 
409.000000	 30.803537 
408.000000	 30.647325 
407.000000	 30.315709 
406.000000	 29.745745 
405.000000	 28.923034 
404.000000	 27.918934 
403.000000	 26.861381 
402.000000	 25.949883 
401.000000	 25.392556 
400.000000	 25.393342 
399.000000	 26.092195 
398.000000	 27.546477 
397.000000	 29.693365 
396.000000	 32.390785 
395.000000	 35.435652 
394.000000	 38.608026 
393.000000	 41.703176 
392.000000	 44.529414 
391.000000	 46.915364 
390.000000	 48.688316 
389.000000	 49.682044 
388.000000	 49.755191 
387.000000	 48.819661 
386.000000	 46.897053 
385.000000	 44.115757 
384.000000	 40.763616 
383.000000	 37.189722 
382.000000	 33.758735 
381.000000	 30.740880 
380.000000	 28.275299 
379.000000	 26.350736 
378.000000	 24.769878 
377.000000	 23.334026 
376.000000	 21.865582 
375.000000	 20.408916 
374.000000	 19.227743 
373.000000	 18.781399 
372.000000	 19.631290 
371.000000	 22.149491 
370.000000	 26.328754 

