PE IR       SPECTRUM    SPECTRUM    ASCII       PEDS        1.60        
  -1
C-1B65~1.ASC
17/03/27
17:34:40.00
17/03/27
17:34:40.00
tln
$C-4040-8_t0038$<tbV0>[2.6,-5.2,8.0,0.0,27,1,0]
370.000000
64









2002,4.07    
MIRTGS : RIGHTBACK : INTERNAL 2
MIR : ON : INTERNAL 2
OPTKBR

0.200000
8
8.000000
FILLER
RATIO
SPECTRUM
UNLOCKED 256

DOUBLE
64
COMBINED
1
0
0


1.000000
RATIO


1
0
TRUE
51149
0
LEFT NOT FITTED RIGHT NOT FITTED 0
NONE
NONE
15600
12.000000
4.427000
51148
TRUE
1 0 8 72 0 0 0 0 

15798.010000






#HDR
-1
-1
#GR
CM-1
%T
0.00002384185791015625
0.0
5000.000000
-1.000000
4631
8
76.200962
4.040956
#DATA
5000.000000	63.836717 
4999.000000	63.748407 
4998.000000	63.655209 
4997.000000	63.564467 
4996.000000	63.481783 
4995.000000	63.411021 
4994.000000	63.353133 
4993.000000	63.307046 
4992.000000	63.269901 
4991.000000	63.238143 
4990.000000	63.208794 
4989.000000	63.179659 
4988.000000	63.150668 
4987.000000	63.123130 
4986.000000	63.099932 
4985.000000	63.084316 
4984.000000	63.079285 
4983.000000	63.086485 
4982.000000	63.105416 
4981.000000	63.133287 
4980.000000	63.165354 
4979.000000	63.196182 
4978.000000	63.220405 
4977.000000	63.234424 
4976.000000	63.237476 
4975.000000	63.231825 
4974.000000	63.222479 
4973.000000	63.215065 
4972.000000	63.214063 
4971.000000	63.221263 
4970.000000	63.234925 
4969.000000	63.250494 
4968.000000	63.261342 
4967.000000	63.261699 
4966.000000	63.248634 
4965.000000	63.223457 
4964.000000	63.191628 
4963.000000	63.161897 
4962.000000	63.144278 
4961.000000	63.147115 
4960.000000	63.174438 
4959.000000	63.224840 
4958.000000	63.291382 
4957.000000	63.362789 
4956.000000	63.426089 
4955.000000	63.469195 
4954.000000	63.483905 
4953.000000	63.467097 
4952.000000	63.421463 
4951.000000	63.354539 
4950.000000	63.277101 
4949.000000	63.200759 
4948.000000	63.135933 
4947.000000	63.090348 
4946.000000	63.067603 
4945.000000	63.067436 
4944.000000	63.085865 
4943.000000	63.116621 
4942.000000	63.152623 
4941.000000	63.186717 
4940.000000	63.214015 
4939.000000	63.231587 
4938.000000	63.239550 
4937.000000	63.240003 
4936.000000	63.236784 
4935.000000	63.233947 
4934.000000	63.234639 
4933.000000	63.240313 
4932.000000	63.250017 
4931.000000	63.261175 
4930.000000	63.269805 
4929.000000	63.272023 
4928.000000	63.265204 
4927.000000	63.249278 
4926.000000	63.227224 
4925.000000	63.204765 
4924.000000	63.188624 
4923.000000	63.184976 
4922.000000	63.197875 
4921.000000	63.228225 
4920.000000	63.273215 
4919.000000	63.327097 
4918.000000	63.382768 
4917.000000	63.433551 
4916.000000	63.475203 
4915.000000	63.506221 
4914.000000	63.527798 
4913.000000	63.542962 
4912.000000	63.554716 
4911.000000	63.565540 
4910.000000	63.576245 
4909.000000	63.586211 
4908.000000	63.593769 
4907.000000	63.597631 
4906.000000	63.598084 
4905.000000	63.596844 
4904.000000	63.597059 
4903.000000	63.601565 
4902.000000	63.611578 
4901.000000	63.625669 
4900.000000	63.639760 
4899.000000	63.647532 
4898.000000	63.642239 
4897.000000	63.619017 
4896.000000	63.576483 
4895.000000	63.517808 
4894.000000	63.450169 
4893.000000	63.383030 
4892.000000	63.325881 
4891.000000	63.286066 
4890.000000	63.266968 
4889.000000	63.266849 
4888.000000	63.279914 
4887.000000	63.298130 
4886.000000	63.313007 
4885.000000	63.317704 
4884.000000	63.308334 
4883.000000	63.284373 
4882.000000	63.248276 
4881.000000	63.203811 
4880.000000	63.155579 
4879.000000	63.107466 
4878.000000	63.063120 
4877.000000	63.025355 
4876.000000	62.997221 
4875.000000	62.981772 
4874.000000	62.982296 
4873.000000	63.001465 
4872.000000	63.040161 
4871.000000	63.096475 
4870.000000	63.165187 
4869.000000	63.237786 
4868.000000	63.303995 
4867.000000	63.353180 
4866.000000	63.376688 
4865.000000	63.369655 
4864.000000	63.331961 
4863.000000	63.268136 
4862.000000	63.186788 
4861.000000	63.098478 
4860.000000	63.013172 
4859.000000	62.938857 
4858.000000	62.880873 
4857.000000	62.841248 
4856.000000	62.819409 
4855.000000	62.812948 
4854.000000	62.818956 
4853.000000	62.834858 
4852.000000	62.858700 
4851.000000	62.889194 
4850.000000	62.925076 
4849.000000	62.965154 
4848.000000	63.007664 
4847.000000	63.050532 
4846.000000	63.091206 
4845.000000	63.126873 
4844.000000	63.154602 
4843.000000	63.171553 
4842.000000	63.175630 
4841.000000	63.165760 
4840.000000	63.142514 
4839.000000	63.107728 
4838.000000	63.065433 
4837.000000	63.021683 
4836.000000	62.983965 
4835.000000	62.959837 
4834.000000	62.955594 
4833.000000	62.975168 
4832.000000	63.018751 
4831.000000	63.082218 
4830.000000	63.157820 
4829.000000	63.235282 
4828.000000	63.304018 
4827.000000	63.355255 
4826.000000	63.383793 
4825.000000	63.388752 
4824.000000	63.373947 
4823.000000	63.346457 
4822.000000	63.315343 
4821.000000	63.288974 
4820.000000	63.273406 
4819.000000	63.271021 
4818.000000	63.280248 
4817.000000	63.295865 
4816.000000	63.310718 
4815.000000	63.317298 
4814.000000	63.309597 
4813.000000	63.284230 
4812.000000	63.241267 
4811.000000	63.183903 
4810.000000	63.117766 
4809.000000	63.049507 
4808.000000	62.985634 
4807.000000	62.930846 
4806.000000	62.887549 
4805.000000	62.855505 
4804.000000	62.832593 
4803.000000	62.815666 
4802.000000	62.801837 
4801.000000	62.789320 
4800.000000	62.777876 
4799.000000	62.768912 
4798.000000	62.764525 
4797.000000	62.766861 
4796.000000	62.776923 
4795.000000	62.794733 
4794.000000	62.818980 
4793.000000	62.847518 
4792.000000	62.877798 
4791.000000	62.907481 
4790.000000	62.934994 
4789.000000	62.959933 
4788.000000	62.982797 
4787.000000	63.004493 
4786.000000	63.025736 
4785.000000	63.047027 
4784.000000	63.067984 
4783.000000	63.087463 
4782.000000	63.103294 
4781.000000	63.113641 
4780.000000	63.116598 
4779.000000	63.110566 
4778.000000	63.095235 
4777.000000	63.071775 
4776.000000	63.043022 
4775.000000	63.013029 
4774.000000	62.986803 
4773.000000	62.969565 
4772.000000	62.965488 
4771.000000	62.976694 
4770.000000	63.002490 
4769.000000	63.039565 
4768.000000	63.082456 
4767.000000	63.124966 
4766.000000	63.161230 
4765.000000	63.187265 
4764.000000	63.201713 
4763.000000	63.206219 
4762.000000	63.204455 
4761.000000	63.201260 
4760.000000	63.201498 
4759.000000	63.208818 
4758.000000	63.224911 
4757.000000	63.249111 
4756.000000	63.279604 
4755.000000	63.313388 
4754.000000	63.348054 
4753.000000	63.381576 
4752.000000	63.413095 
4751.000000	63.442373 
4750.000000	63.469576 
4749.000000	63.494658 
4748.000000	63.516926 
4747.000000	63.535046 
4746.000000	63.547277 
4745.000000	63.551735 
4744.000000	63.547158 
4743.000000	63.533091 
4742.000000	63.510632 
4741.000000	63.481664 
4740.000000	63.448786 
4739.000000	63.414645 
4738.000000	63.381433 
4737.000000	63.350391 
4736.000000	63.321971 
4735.000000	63.295483 
4734.000000	63.269805 
4733.000000	63.244009 
4732.000000	63.217997 
4731.000000	63.192224 
4730.000000	63.168334 
4729.000000	63.148498 
4728.000000	63.135600 
4727.000000	63.132119 
4726.000000	63.139724 
4725.000000	63.158392 
4724.000000	63.186478 
4723.000000	63.220620 
4722.000000	63.256764 
4721.000000	63.290643 
4720.000000	63.318657 
4719.000000	63.338112 
4718.000000	63.347911 
4717.000000	63.348650 
4716.000000	63.342237 
4715.000000	63.331198 
4714.000000	63.318586 
4713.000000	63.307213 
4712.000000	63.299298 
4711.000000	63.295793 
4710.000000	63.296127 
4709.000000	63.298225 
4708.000000	63.298892 
4707.000000	63.294863 
4706.000000	63.283038 
4705.000000	63.262510 
4704.000000	63.234329 
4703.000000	63.202524 
4702.000000	63.173651 
4701.000000	63.155317 
4700.000000	63.154673 
4699.000000	63.175988 
4698.000000	63.219499 
4697.000000	63.280439 
4696.000000	63.349795 
4695.000000	63.415670 
4694.000000	63.466072 
4693.000000	63.491249 
4692.000000	63.486337 
4691.000000	63.451743 
4690.000000	63.392996 
4689.000000	63.319373 
4688.000000	63.241767 
4687.000000	63.170313 
4686.000000	63.112616 
4685.000000	63.072991 
4684.000000	63.052368 
4683.000000	63.049173 
4682.000000	63.059997 
4681.000000	63.080906 
4680.000000	63.107824 
4679.000000	63.136386 
4678.000000	63.162541 
4677.000000	63.181757 
4676.000000	63.189840 
4675.000000	63.183069 
4674.000000	63.159537 
4673.000000	63.119482 
4672.000000	63.066029 
4671.000000	63.004708 
4670.000000	62.943196 
4669.000000	62.889719 
4668.000000	62.852072 
4667.000000	62.835764 
4666.000000	62.843894 
4665.000000	62.876296 
4664.000000	62.930345 
4663.000000	63.001561 
4662.000000	63.084197 
4661.000000	63.172006 
4660.000000	63.258242 
4659.000000	63.336229 
4658.000000	63.399624 
4657.000000	63.443040 
4656.000000	63.463139 
4655.000000	63.459062 
4654.000000	63.433289 
4653.000000	63.391017 
4652.000000	63.339948 
4651.000000	63.288021 
4650.000000	63.242697 
4649.000000	63.208961 
4648.000000	63.188838 
4647.000000	63.181424 
4646.000000	63.183569 
4645.000000	63.191628 
4644.000000	63.202548 
4643.000000	63.215017 
4642.000000	63.229560 
4641.000000	63.248085 
4640.000000	63.272333 
4639.000000	63.303518 
4638.000000	63.340854 
4637.000000	63.382434 
4636.000000	63.425350 
4635.000000	63.466501 
4634.000000	63.503432 
4633.000000	63.533902 
4632.000000	63.555836 
4631.000000	63.566565 
4630.000000	63.562917 
4629.000000	63.541555 
4628.000000	63.500308 
4627.000000	63.438653 
4626.000000	63.359117 
4625.000000	63.268184 
4624.000000	63.175487 
4623.000000	63.092613 
4622.000000	63.030743 
4621.000000	62.998318 
4620.000000	62.999367 
4619.000000	63.032078 
4618.000000	63.089942 
4617.000000	63.162899 
4616.000000	63.239741 
4615.000000	63.310432 
4614.000000	63.367676 
4613.000000	63.407468 
4612.000000	63.429427 
4611.000000	63.435173 
4610.000000	63.428068 
4609.000000	63.412046 
4608.000000	63.390779 
4607.000000	63.367533 
4606.000000	63.344645 
4605.000000	63.323664 
4604.000000	63.305068 
4603.000000	63.288521 
4602.000000	63.273048 
4601.000000	63.257431 
4600.000000	63.240218 
4599.000000	63.220286 
4598.000000	63.197302 
4597.000000	63.171911 
4596.000000	63.146066 
4595.000000	63.122272 
4594.000000	63.102626 
4593.000000	63.088369 
4592.000000	63.079643 
4591.000000	63.075637 
4590.000000	63.074278 
4589.000000	63.073563 
4588.000000	63.071727 
4587.000000	63.068127 
4586.000000	63.063549 
4585.000000	63.059520 
4584.000000	63.057613 
4583.000000	63.059329 
4582.000000	63.065671 
4581.000000	63.076329 
4580.000000	63.089585 
4579.000000	63.102555 
4578.000000	63.111734 
4577.000000	63.113784 
4576.000000	63.106417 
4575.000000	63.088893 
4574.000000	63.062858 
4573.000000	63.031935 
4572.000000	63.002014 
4571.000000	62.980532 
4570.000000	62.975144 
4569.000000	62.992095 
4568.000000	63.034296 
4567.000000	63.100934 
4566.000000	63.186025 
4565.000000	63.279700 
4564.000000	63.368988 
4563.000000	63.440608 
4562.000000	63.483071 
4561.000000	63.489317 
4560.000000	63.457465 
4559.000000	63.391041 
4558.000000	63.298439 
4557.000000	63.191056 
4556.000000	63.081479 
4555.000000	62.981390 
4554.000000	62.900114 
4553.000000	62.843751 
4552.000000	62.814760 
4551.000000	62.812209 
4550.000000	62.832021 
4549.000000	62.867712 
4548.000000	62.910962 
4547.000000	62.952566 
4546.000000	62.982726 
4545.000000	62.992429 
4544.000000	62.974739 
4543.000000	62.926125 
4542.000000	62.847018 
4541.000000	62.742519 
4540.000000	62.621402 
4539.000000	62.495613 
4538.000000	62.378334 
4537.000000	62.281894 
4536.000000	62.215971 
4535.000000	62.186050 
4534.000000	62.192630 
4533.000000	62.231373 
4532.000000	62.293815 
4531.000000	62.369322 
4530.000000	62.446355 
4529.000000	62.515187 
4528.000000	62.568759 
4527.000000	62.604022 
4526.000000	62.621331 
4525.000000	62.623333 
4524.000000	62.613129 
4523.000000	62.593913 
4522.000000	62.567782 
4521.000000	62.535214 
4520.000000	62.495374 
4519.000000	62.447524 
4518.000000	62.392044 
4517.000000	62.331223 
4516.000000	62.269735 
4515.000000	62.213683 
4514.000000	62.170147 
4513.000000	62.145376 
4512.000000	62.143683 
4511.000000	62.166047 
4510.000000	62.210416 
4509.000000	62.271356 
4508.000000	62.341809 
4507.000000	62.414050 
4506.000000	62.481307 
4505.000000	62.538194 
4504.000000	62.582087 
4503.000000	62.612485 
4502.000000	62.631726 
4501.000000	62.643814 
4500.000000	62.653923 
4499.000000	62.666893 
4498.000000	62.686657 
4497.000000	62.715435 
4496.000000	62.753129 
4495.000000	62.797260 
4494.000000	62.843656 
4493.000000	62.887048 
4492.000000	62.922573 
4491.000000	62.946248 
4490.000000	62.955355 
4489.000000	62.948989 
4488.000000	62.928557 
4487.000000	62.897133 
4486.000000	62.858963 
4485.000000	62.818455 
4484.000000	62.780213 
4483.000000	62.747097 
4482.000000	62.720561 
4481.000000	62.699747 
4480.000000	62.682271 
4479.000000	62.664771 
4478.000000	62.644076 
4477.000000	62.617945 
4476.000000	62.585401 
4475.000000	62.547373 
4474.000000	62.506318 
4473.000000	62.465453 
4472.000000	62.427401 
4471.000000	62.394380 
4470.000000	62.367939 
4469.000000	62.348842 
4468.000000	62.337374 
4467.000000	62.334036 
4466.000000	62.339949 
4465.000000	62.356615 
4464.000000	62.385559 
4463.000000	62.427902 
4462.000000	62.483143 
4461.000000	62.548398 
4460.000000	62.618470 
4459.000000	62.686109 
4458.000000	62.743473 
4457.000000	62.783193 
4456.000000	62.800359 
4455.000000	62.793755 
4454.000000	62.766098 
4453.000000	62.723708 
4452.000000	62.674570 
4451.000000	62.627077 
4450.000000	62.587165 
4449.000000	62.557744 
4448.000000	62.537717 
4447.000000	62.523174 
4446.000000	62.508678 
4445.000000	62.489438 
4444.000000	62.462663 
4443.000000	62.428641 
4442.000000	62.390995 
4441.000000	62.355518 
4440.000000	62.328147 
4439.000000	62.312889 
4438.000000	62.311100 
4437.000000	62.320566 
4436.000000	62.335753 
4435.000000	62.349486 
4434.000000	62.355136 
4433.000000	62.348031 
4432.000000	62.326192 
4431.000000	62.290477 
4430.000000	62.244176 
4429.000000	62.191772 
4428.000000	62.138152 
4427.000000	62.086629 
4426.000000	62.039422 
4425.000000	61.996054 
4424.000000	61.953949 
4423.000000	61.909627 
4422.000000	61.859846 
4421.000000	61.804580 
4420.000000	61.747574 
4419.000000	61.696887 
4418.000000	61.663126 
4417.000000	61.655187 
4416.000000	61.677670 
4415.000000	61.728549 
4414.000000	61.799764 
4413.000000	61.883187 
4412.000000	61.972451 
4411.000000	62.064075 
4410.000000	62.157750 
4409.000000	62.253737 
4408.000000	62.352085 
4407.000000	62.451362 
4406.000000	62.548327 
4405.000000	62.636089 
4404.000000	62.707805 
4403.000000	62.760710 
4402.000000	62.795257 
4401.000000	62.818169 
4400.000000	62.836861 
4399.000000	62.859678 
4398.000000	62.889409 
4397.000000	62.919235 
4396.000000	62.939906 
4395.000000	62.940979 
4394.000000	62.921786 
4393.000000	62.895131 
4392.000000	62.882065 
4391.000000	62.908196 
4390.000000	62.980818 
4389.000000	63.083505 
4388.000000	63.170075 
4387.000000	63.178181 
4386.000000	63.045024 
4385.000000	62.733483 
4384.000000	62.257671 
4383.000000	61.686968 
4382.000000	61.131310 
4381.000000	60.716128 
4380.000000	60.553216 
4379.000000	60.706830 
4378.000000	61.169099 
4377.000000	61.864566 
4376.000000	62.660837 
4375.000000	63.412380 
4374.000000	64.001822 
4373.000000	64.364695 
4372.000000	64.503908 
4371.000000	64.476847 
4370.000000	64.371347 
4369.000000	64.271306 
4368.000000	64.222145 
4367.000000	64.230322 
4366.000000	64.267015 
4365.000000	64.287018 
4364.000000	64.253997 
4363.000000	64.158701 
4362.000000	64.033484 
4361.000000	63.942742 
4360.000000	63.973569 
4359.000000	64.221405 
4358.000000	64.767980 
4357.000000	65.663385 
4356.000000	66.906499 
4355.000000	68.447422 
4354.000000	70.177602 
4353.000000	71.954607 
4352.000000	73.605179 
4351.000000	74.957299 
4350.000000	75.857067 
4349.000000	76.200962 
4348.000000	75.946831 
4347.000000	75.130867 
4346.000000	73.853015 
4345.000000	72.276854 
4344.000000	70.581269 
4343.000000	68.945574 
4342.000000	67.501807 
4341.000000	66.328287 
4340.000000	65.437078 
4339.000000	64.794540 
4338.000000	64.333581 
4337.000000	63.982772 
4336.000000	63.680315 
4335.000000	63.389229 
4334.000000	63.094735 
4333.000000	62.802743 
4332.000000	62.533283 
4331.000000	62.312936 
4330.000000	62.161445 
4329.000000	62.088584 
4328.000000	62.093210 
4327.000000	62.163591 
4326.000000	62.278771 
4325.000000	62.413215 
4324.000000	62.543344 
4323.000000	62.649488 
4322.000000	62.712383 
4321.000000	62.720704 
4320.000000	62.673354 
4319.000000	62.577438 
4318.000000	62.444949 
4317.000000	62.291288 
4316.000000	62.132000 
4315.000000	61.980915 
4314.000000	61.850452 
4313.000000	61.747503 
4312.000000	61.671566 
4311.000000	61.622738 
4310.000000	61.604952 
4309.000000	61.618542 
4308.000000	61.659288 
4307.000000	61.721372 
4306.000000	61.797642 
4305.000000	61.878204 
4304.000000	61.952710 
4303.000000	62.013363 
4302.000000	62.056398 
4301.000000	62.081551 
4300.000000	62.092447 
4299.000000	62.096023 
4298.000000	62.100076 
4297.000000	62.110900 
4296.000000	62.131285 
4295.000000	62.161254 
4294.000000	62.196660 
4293.000000	62.231707 
4292.000000	62.259125 
4291.000000	62.272858 
4290.000000	62.268996 
4289.000000	62.246918 
4288.000000	62.209439 
4287.000000	62.161755 
4286.000000	62.110972 
4285.000000	62.064385 
4284.000000	62.028980 
4283.000000	62.010169 
4282.000000	62.011027 
4281.000000	62.032008 
4280.000000	62.070846 
4279.000000	62.123060 
4278.000000	62.182331 
4277.000000	62.241697 
4276.000000	62.294435 
4275.000000	62.335824 
4274.000000	62.363910 
4273.000000	62.380027 
4272.000000	62.388014 
4271.000000	62.393116 
4270.000000	62.401270 
4269.000000	62.416481 
4268.000000	62.440276 
4267.000000	62.470650 
4266.000000	62.503194 
4265.000000	62.531352 
4264.000000	62.549209 
4263.000000	62.551498 
4262.000000	62.535810 
4261.000000	62.501716 
4260.000000	62.451386 
4259.000000	62.387967 
4258.000000	62.314796 
4257.000000	62.234878 
4256.000000	62.150907 
4255.000000	62.065911 
4254.000000	61.983633 
4253.000000	61.909508 
4252.000000	61.850047 
4251.000000	61.811661 
4250.000000	61.798977 
4249.000000	61.813068 
4248.000000	61.850786 
4247.000000	61.904716 
4246.000000	61.964488 
4245.000000	62.018275 
4244.000000	62.055635 
4243.000000	62.069392 
4242.000000	62.057662 
4241.000000	62.023329 
4240.000000	61.974048 
4239.000000	61.920213 
4238.000000	61.873149 
4237.000000	61.842274 
4236.000000	61.833357 
4235.000000	61.848020 
4234.000000	61.883306 
4233.000000	61.933016 
4232.000000	61.989092 
4231.000000	62.043786 
4230.000000	62.091159 
4229.000000	62.127923 
4228.000000	62.153863 
4227.000000	62.171006 
4226.000000	62.182974 
4225.000000	62.193465 
4224.000000	62.204766 
4223.000000	62.216901 
4222.000000	62.228536 
4221.000000	62.237238 
4220.000000	62.240552 
4219.000000	62.236928 
4218.000000	62.226986 
4217.000000	62.212777 
4216.000000	62.197995 
4215.000000	62.186264 
4214.000000	62.179422 
4213.000000	62.177205 
4212.000000	62.177753 
4211.000000	62.177443 
4210.000000	62.171792 
4209.000000	62.157154 
4208.000000	62.132048 
4207.000000	62.097620 
4206.000000	62.057662 
4205.000000	62.017226 
4204.000000	61.981225 
4203.000000	61.953616 
4202.000000	61.936497 
4201.000000	61.929702 
4200.000000	61.931395 
4199.000000	61.939287 
4198.000000	61.951541 
4197.000000	61.967873 
4196.000000	61.989164 
4195.000000	62.017226 
4194.000000	62.053012 
4193.000000	62.095785 
4192.000000	62.141156 
4191.000000	62.181901 
4190.000000	62.207984 
4189.000000	62.209153 
4188.000000	62.176179 
4187.000000	62.104129 
4186.000000	61.992979 
4185.000000	61.848378 
4184.000000	61.681604 
4183.000000	61.507511 
4182.000000	61.343598 
4181.000000	61.206078 
4180.000000	61.109495 
4179.000000	61.063814 
4178.000000	61.073827 
4177.000000	61.138081 
4176.000000	61.249685 
4175.000000	61.396980 
4174.000000	61.565685 
4173.000000	61.740756 
4172.000000	61.908197 
4171.000000	62.056660 
4170.000000	62.178802 
4169.000000	62.271189 
4168.000000	62.334179 
4167.000000	62.370133 
4166.000000	62.382984 
4165.000000	62.376070 
4164.000000	62.352442 
4163.000000	62.313985 
4162.000000	62.262821 
4161.000000	62.201428 
4160.000000	62.134075 
4159.000000	62.067151 
4158.000000	62.008857 
4157.000000	61.968612 
4156.000000	61.954975 
4155.000000	61.974096 
4154.000000	62.027788 
4153.000000	62.112832 
4152.000000	62.221288 
4151.000000	62.341070 
4150.000000	62.457823 
4149.000000	62.557530 
4148.000000	62.628841 
4147.000000	62.664365 
4146.000000	62.661623 
4145.000000	62.622976 
4144.000000	62.554764 
4143.000000	62.466597 
4142.000000	62.369418 
4141.000000	62.273597 
4140.000000	62.187099 
4139.000000	62.115883 
4138.000000	62.062191 
4137.000000	62.025070 
4136.000000	62.000918 
4135.000000	61.984896 
4134.000000	61.972594 
4133.000000	61.959981 
4132.000000	61.945462 
4131.000000	61.929154 
4130.000000	61.913347 
4129.000000	61.900973 
4128.000000	61.894989 
4127.000000	61.896562 
4126.000000	61.905407 
4125.000000	61.919474 
4124.000000	61.935734 
4123.000000	61.951136 
4122.000000	61.963415 
4121.000000	61.971855 
4120.000000	61.977291 
4119.000000	61.981606 
4118.000000	61.986446 
4117.000000	61.992430 
4116.000000	61.998891 
4115.000000	62.003755 
4114.000000	62.004375 
4113.000000	61.998033 
4112.000000	61.982798 
4111.000000	61.958098 
4110.000000	61.925315 
4109.000000	61.887097 
4108.000000	61.846494 
4107.000000	61.806583 
4106.000000	61.769819 
4105.000000	61.738252 
4104.000000	61.713218 
4103.000000	61.696124 
4102.000000	61.688637 
4101.000000	61.692690 
4100.000000	61.709928 
4099.000000	61.740970 
4098.000000	61.784768 
4097.000000	61.837625 
4096.000000	61.893129 
4095.000000	61.943364 
4094.000000	61.980080 
4093.000000	61.997079 
4092.000000	61.991715 
4091.000000	61.965727 
4090.000000	61.925077 
4089.000000	61.878514 
4088.000000	61.835622 
4087.000000	61.804246 
4086.000000	61.789107 
4085.000000	61.790776 
4084.000000	61.806201 
4083.000000	61.830282 
4082.000000	61.856961 
4081.000000	61.881303 
4080.000000	61.900568 
4079.000000	61.914181 
4078.000000	61.923861 
4077.000000	61.931753 
4076.000000	61.940264 
4075.000000	61.950850 
4074.000000	61.963844 
4073.000000	61.978697 
4072.000000	61.994242 
4071.000000	62.009596 
4070.000000	62.023925 
4069.000000	62.036800 
4068.000000	62.047719 
4067.000000	62.056088 
4066.000000	62.061285 
4065.000000	62.062931 
4064.000000	62.060976 
4063.000000	62.055921 
4062.000000	62.048983 
4061.000000	62.041521 
4060.000000	62.035131 
4059.000000	62.030887 
4058.000000	62.029075 
4057.000000	62.029194 
4056.000000	62.030029 
4055.000000	62.030172 
4054.000000	62.028384 
4053.000000	62.024307 
4052.000000	62.018465 
4051.000000	62.012243 
4050.000000	62.007498 
4049.000000	62.005972 
4048.000000	62.008571 
4047.000000	62.015104 
4046.000000	62.024593 
4045.000000	62.035226 
4044.000000	62.044692 
4043.000000	62.050962 
4042.000000	62.052726 
4041.000000	62.049722 
4040.000000	62.042427 
4039.000000	62.032890 
4038.000000	62.024235 
4037.000000	62.019944 
4036.000000	62.023115 
4035.000000	62.035703 
4034.000000	62.057781 
4033.000000	62.087130 
4032.000000	62.119388 
4031.000000	62.148690 
4030.000000	62.168836 
4029.000000	62.174630 
4028.000000	62.163352 
4027.000000	62.135553 
4026.000000	62.094974 
4025.000000	62.048363 
4024.000000	62.003445 
4023.000000	61.967396 
4022.000000	61.944699 
4021.000000	61.936640 
4020.000000	61.940455 
4019.000000	61.950421 
4018.000000	61.958885 
4017.000000	61.958622 
4016.000000	61.944007 
4015.000000	61.912536 
4014.000000	61.865139 
4013.000000	61.805677 
4012.000000	61.740326 
4011.000000	61.675977 
4010.000000	61.619138 
4009.000000	61.574578 
4008.000000	61.545014 
4007.000000	61.530661 
4006.000000	61.529612 
4005.000000	61.538600 
4004.000000	61.553621 
4003.000000	61.571073 
4002.000000	61.587667 
4001.000000	61.601567 
4000.000000	61.612224 
3999.000000	61.620783 
3998.000000	61.629056 
3997.000000	61.639308 
3996.000000	61.653327 
3995.000000	61.671805 
3994.000000	61.694264 
3993.000000	61.718678 
3992.000000	61.742019 
3991.000000	61.761045 
3990.000000	61.773109 
3989.000000	61.776924 
3988.000000	61.773061 
3987.000000	61.763787 
3986.000000	61.752605 
3985.000000	61.743569 
3984.000000	61.740183 
3983.000000	61.744499 
3982.000000	61.756324 
3981.000000	61.773085 
3980.000000	61.790323 
3979.000000	61.802792 
3978.000000	61.805605 
3977.000000	61.795282 
3976.000000	61.770868 
3975.000000	61.734247 
3974.000000	61.690044 
3973.000000	61.644411 
3972.000000	61.604022 
3971.000000	61.574602 
3970.000000	61.559724 
3969.000000	61.560297 
3968.000000	61.574077 
3967.000000	61.596632 
3966.000000	61.621642 
3965.000000	61.642718 
3964.000000	61.653780 
3963.000000	61.650633 
3962.000000	61.631321 
3961.000000	61.596369 
3960.000000	61.548495 
3959.000000	61.491680 
3958.000000	61.430597 
3957.000000	61.369848 
3956.000000	61.313271 
3955.000000	61.263656 
3954.000000	61.222529 
3953.000000	61.190700 
3952.000000	61.168098 
3951.000000	61.154675 
3950.000000	61.150240 
3949.000000	61.155056 
3948.000000	61.168956 
3947.000000	61.191892 
3946.000000	61.223101 
3945.000000	61.261343 
3944.000000	61.304497 
3943.000000	61.349773 
3942.000000	61.394190 
3941.000000	61.434435 
3940.000000	61.467766 
3939.000000	61.491703 
3938.000000	61.504101 
3937.000000	61.503529 
3936.000000	61.489605 
3935.000000	61.463022 
3934.000000	61.425733 
3933.000000	61.380958 
3932.000000	61.333203 
3931.000000	61.287450 
3930.000000	61.248564 
3929.000000	61.220502 
3928.000000	61.205697 
3927.000000	61.204457 
3926.000000	61.215186 
3925.000000	61.234807 
3924.000000	61.259579 
3923.000000	61.285567 
3922.000000	61.309409 
3921.000000	61.328840 
3920.000000	61.342644 
3919.000000	61.350226 
3918.000000	61.351442 
3917.000000	61.345982 
3916.000000	61.333942 
3915.000000	61.315989 
3914.000000	61.293792 
3913.000000	61.270165 
3912.000000	61.248707 
3911.000000	61.233592 
3910.000000	61.228370 
3909.000000	61.235165 
3908.000000	61.253619 
3907.000000	61.280941 
3906.000000	61.311936 
3905.000000	61.340069 
3904.000000	61.358928 
3903.000000	61.363649 
3902.000000	61.352252 
3901.000000	61.326193 
3900.000000	61.290073 
3899.000000	61.250829 
3898.000000	61.216068 
3897.000000	61.192440 
3896.000000	61.184239 
3895.000000	61.192250 
3894.000000	61.214208 
3893.000000	61.244845 
3892.000000	61.277627 
3891.000000	61.306142 
3890.000000	61.325359 
3889.000000	61.333107 
3888.000000	61.330342 
3887.000000	61.320924 
3886.000000	61.310338 
3885.000000	61.304330 
3884.000000	61.307001 
3883.000000	61.319851 
3882.000000	61.341524 
3881.000000	61.367654 
3880.000000	61.392402 
3879.000000	61.409640 
3878.000000	61.414933 
3877.000000	61.406111 
3876.000000	61.383843 
3875.000000	61.351442 
3874.000000	61.313939 
3873.000000	61.276841 
3872.000000	61.244940 
3871.000000	61.221241 
3870.000000	61.206483 
3869.000000	61.199474 
3868.000000	61.197543 
3867.000000	61.197328 
3866.000000	61.195921 
3865.000000	61.191368 
3864.000000	61.183261 
3863.000000	61.172127 
3862.000000	61.159729 
3861.000000	61.148214 
3860.000000	61.139941 
3859.000000	61.136436 
3858.000000	61.138343 
3857.000000	61.145353 
3856.000000	61.156582 
3855.000000	61.170792 
3854.000000	61.187076 
3853.000000	61.205101 
3852.000000	61.225175 
3851.000000	61.247920 
3850.000000	61.273741 
3849.000000	61.302304 
3848.000000	61.331915 
3847.000000	61.359691 
3846.000000	61.382055 
3845.000000	61.395382 
3844.000000	61.396956 
3843.000000	61.385369 
3842.000000	61.360812 
3841.000000	61.324644 
3840.000000	61.279416 
3839.000000	61.227965 
3838.000000	61.172771 
3837.000000	61.115932 
3836.000000	61.059093 
3835.000000	61.004233 
3834.000000	60.953688 
3833.000000	60.910797 
3832.000000	60.879230 
3831.000000	60.862731 
3830.000000	60.863924 
3829.000000	60.883569 
3828.000000	60.919737 
3827.000000	60.967898 
3826.000000	61.021399 
3825.000000	61.072611 
3824.000000	61.114263 
3823.000000	61.140751 
3822.000000	61.149072 
3821.000000	61.139035 
3820.000000	61.113071 
3819.000000	61.075544 
3818.000000	61.031723 
3817.000000	60.986804 
3816.000000	60.944843 
3815.000000	60.908913 
3814.000000	60.880398 
3813.000000	60.859656 
3812.000000	60.845875 
3811.000000	60.837602 
3810.000000	60.833024 
3809.000000	60.830211 
3808.000000	60.827708 
3807.000000	60.824179 
3806.000000	60.819339 
3805.000000	60.813570 
3804.000000	60.808134 
3803.000000	60.804653 
3802.000000	60.804963 
3801.000000	60.810613 
3800.000000	60.822510 
3799.000000	60.840630 
3798.000000	60.864090 
3797.000000	60.891294 
3796.000000	60.919904 
3795.000000	60.947346 
3794.000000	60.970854 
3793.000000	60.987925 
3792.000000	60.996270 
3791.000000	60.994029 
3790.000000	60.980224 
3789.000000	60.954785 
3788.000000	60.918903 
3787.000000	60.875225 
3786.000000	60.827827 
3785.000000	60.781788 
3784.000000	60.742092 
3783.000000	60.712909 
3782.000000	60.696840 
3781.000000	60.694265 
3780.000000	60.703086 
3779.000000	60.719370 
3778.000000	60.737919 
3777.000000	60.754060 
3776.000000	60.764169 
3775.000000	60.767221 
3774.000000	60.764098 
3773.000000	60.757994 
3772.000000	60.753130 
3771.000000	60.753965 
3770.000000	60.763645 
3769.000000	60.783696 
3768.000000	60.813546 
3767.000000	60.850787 
3766.000000	60.891699 
3765.000000	60.932230 
3764.000000	60.968613 
3763.000000	60.997962 
3762.000000	61.018633 
3761.000000	61.030268 
3760.000000	61.033439 
3759.000000	61.029744 
3758.000000	61.020874 
3757.000000	61.008834 
3756.000000	60.994863 
3755.000000	60.980463 
3754.000000	60.965776 
3753.000000	60.950493 
3752.000000	60.933279 
3751.000000	60.912585 
3750.000000	60.886907 
3749.000000	60.855460 
3748.000000	60.818672 
3747.000000	60.778093 
3746.000000	60.736536 
3745.000000	60.697507 
3744.000000	60.664415 
3743.000000	60.639691 
3742.000000	60.624504 
3741.000000	60.618662 
3740.000000	60.620546 
3739.000000	60.627698 
3738.000000	60.637712 
3737.000000	60.648655 
3736.000000	60.659432 
3735.000000	60.669994 
3734.000000	60.680890 
3733.000000	60.692811 
3732.000000	60.706090 
3731.000000	60.720276 
3730.000000	60.734272 
3729.000000	60.746335 
3728.000000	60.754823 
3727.000000	60.758113 
3726.000000	60.755372 
3725.000000	60.746145 
3724.000000	60.731005 
3723.000000	60.710859 
3722.000000	60.686898 
3721.000000	60.660171 
3720.000000	60.631918 
3719.000000	60.603022 
3718.000000	60.574245 
3717.000000	60.546207 
3716.000000	60.519599 
3715.000000	60.494899 
3714.000000	60.472512 
3713.000000	60.452795 
3712.000000	60.435962 
3711.000000	60.422563 
3710.000000	60.413455 
3709.000000	60.409450 
3708.000000	60.411572 
3707.000000	60.420680 
3706.000000	60.437154 
3705.000000	60.460424 
3704.000000	60.488939 
3703.000000	60.520410 
3702.000000	60.552287 
3701.000000	60.581874 
3700.000000	60.606741 
3699.000000	60.625386 
3698.000000	60.636973 
3697.000000	60.641694 
3696.000000	60.640215 
3695.000000	60.633444 
3694.000000	60.622215 
3693.000000	60.607409 
3692.000000	60.589456 
3691.000000	60.568761 
3690.000000	60.545587 
3689.000000	60.520672 
3688.000000	60.494589 
3687.000000	60.467958 
3686.000000	60.441279 
3685.000000	60.414838 
3684.000000	60.388779 
3683.000000	60.362935 
3682.000000	60.337162 
3681.000000	60.311484 
3680.000000	60.285830 
3679.000000	60.260486 
3678.000000	60.235810 
3677.000000	60.212731 
3676.000000	60.192346 
3675.000000	60.176181 
3674.000000	60.165667 
3673.000000	60.162162 
3672.000000	60.166525 
3671.000000	60.179090 
3670.000000	60.198950 
3669.000000	60.224437 
3668.000000	60.253381 
3667.000000	60.283279 
3666.000000	60.311484 
3665.000000	60.335874 
3664.000000	60.354995 
3663.000000	60.368108 
3662.000000	60.375213 
3661.000000	60.376834 
3660.000000	60.373806 
3659.000000	60.367226 
3658.000000	60.358381 
3657.000000	60.348677 
3656.000000	60.339713 
3655.000000	60.333418 
3654.000000	60.331678 
3653.000000	60.335993 
3652.000000	60.346889 
3651.000000	60.364103 
3650.000000	60.385966 
3649.000000	60.409712 
3648.000000	60.431647 
3647.000000	60.447978 
3646.000000	60.455203 
3645.000000	60.450673 
3644.000000	60.433220 
3643.000000	60.403156 
3642.000000	60.362482 
3641.000000	60.314536 
3640.000000	60.263371 
3639.000000	60.213351 
3638.000000	60.168099 
3637.000000	60.130310 
3636.000000	60.101103 
3635.000000	60.080242 
3634.000000	60.066366 
3633.000000	60.057735 
3632.000000	60.052442 
3631.000000	60.049152 
3630.000000	60.047411 
3629.000000	60.047841 
3628.000000	60.051536 
3627.000000	60.059690 
3626.000000	60.073089 
3625.000000	60.091638 
3624.000000	60.114097 
3623.000000	60.137939 
3622.000000	60.160326 
3621.000000	60.178089 
3620.000000	60.188698 
3619.000000	60.190558 
3618.000000	60.183358 
3617.000000	60.168099 
3616.000000	60.146808 
3615.000000	60.122346 
3614.000000	60.098123 
3613.000000	60.077333 
3612.000000	60.062789 
3611.000000	60.056257 
3610.000000	60.058212 
3609.000000	60.067725 
3608.000000	60.082864 
3607.000000	60.100603 
3606.000000	60.117435 
3605.000000	60.130047 
3604.000000	60.135912 
3603.000000	60.133552 
3602.000000	60.122656 
3601.000000	60.104084 
3600.000000	60.079669 
3599.000000	60.051631 
3598.000000	60.022330 
3597.000000	59.993839 
3596.000000	59.967660 
3595.000000	59.944915 
3594.000000	59.926152 
3593.000000	59.911584 
3592.000000	59.901213 
3591.000000	59.894967 
3590.000000	59.892773 
3589.000000	59.894108 
3588.000000	59.898400 
3587.000000	59.904694 
3586.000000	59.911894 
3585.000000	59.918713 
3584.000000	59.924197 
3583.000000	59.927749 
3582.000000	59.929251 
3581.000000	59.929108 
3580.000000	59.928154 
3579.000000	59.927535 
3578.000000	59.928226 
3577.000000	59.930634 
3576.000000	59.934806 
3575.000000	59.940218 
3574.000000	59.945869 
3573.000000	59.950494 
3572.000000	59.953141 
3571.000000	59.953308 
3570.000000	59.951138 
3569.000000	59.947061 
3568.000000	59.941601 
3567.000000	59.935355 
3566.000000	59.928822 
3565.000000	59.922432 
3564.000000	59.916687 
3563.000000	59.912180 
3562.000000	59.909820 
3561.000000	59.910488 
3560.000000	59.914731 
3559.000000	59.922266 
3558.000000	59.931850 
3557.000000	59.941339 
3556.000000	59.948110 
3555.000000	59.949469 
3554.000000	59.943199 
3553.000000	59.928059 
3552.000000	59.904193 
3551.000000	59.872817 
3550.000000	59.836125 
3549.000000	59.796500 
3548.000000	59.756207 
3547.000000	59.717106 
3546.000000	59.680652 
3545.000000	59.647989 
3544.000000	59.620285 
3543.000000	59.598970 
3542.000000	59.585762 
3541.000000	59.582495 
3540.000000	59.590482 
3539.000000	59.609937 
3538.000000	59.639644 
3537.000000	59.676718 
3536.000000	59.716844 
3535.000000	59.754753 
3534.000000	59.784889 
3533.000000	59.802603 
3532.000000	59.804534 
3531.000000	59.789323 
3530.000000	59.757566 
3529.000000	59.711647 
3528.000000	59.655308 
3527.000000	59.593152 
3526.000000	59.530353 
3525.000000	59.472131 
3524.000000	59.423398 
3523.000000	59.388256 
3522.000000	59.369564 
3521.000000	59.368395 
3520.000000	59.383964 
3519.000000	59.413695 
3518.000000	59.453582 
3517.000000	59.498882 
3516.000000	59.544825 
3515.000000	59.587144 
3514.000000	59.622526 
3513.000000	59.648704 
3512.000000	59.664630 
3511.000000	59.670066 
3510.000000	59.665799 
3509.000000	59.653067 
3508.000000	59.633564 
3507.000000	59.608936 
3506.000000	59.581255 
3505.000000	59.552216 
3504.000000	59.523630 
3503.000000	59.497189 
3502.000000	59.474515 
3501.000000	59.456968 
3500.000000	59.445548 
3499.000000	59.440541 
3498.000000	59.441375 
3497.000000	59.446883 
3496.000000	59.455537 
3495.000000	59.465312 
3494.000000	59.474134 
3493.000000	59.480476 
3492.000000	59.483551 
3491.000000	59.483265 
3490.000000	59.480071 
3489.000000	59.474754 
3488.000000	59.467840 
3487.000000	59.459376 
3486.000000	59.448742 
3485.000000	59.434795 
3484.000000	59.416294 
3483.000000	59.392642 
3482.000000	59.364128 
3481.000000	59.332227 
3480.000000	59.299373 
3479.000000	59.268283 
3478.000000	59.241580 
3477.000000	59.221100 
3476.000000	59.208035 
3475.000000	59.202742 
3474.000000	59.205150 
3473.000000	59.215021 
3472.000000	59.232163 
3471.000000	59.256291 
3470.000000	59.286952 
3469.000000	59.323239 
3468.000000	59.363317 
3467.000000	59.404444 
3466.000000	59.443116 
3465.000000	59.475564 
3464.000000	59.498476 
3463.000000	59.509468 
3462.000000	59.507751 
3461.000000	59.494113 
3460.000000	59.470772 
3459.000000	59.441065 
3458.000000	59.408450 
3457.000000	59.376406 
3456.000000	59.348082 
3455.000000	59.325528 
3454.000000	59.310221 
3453.000000	59.302401 
3452.000000	59.301447 
3451.000000	59.305715 
3450.000000	59.312796 
3449.000000	59.320211 
3448.000000	59.325504 
3447.000000	59.327006 
3446.000000	59.323954 
3445.000000	59.316611 
3444.000000	59.306025 
3443.000000	59.293770 
3442.000000	59.281516 
3441.000000	59.270572 
3440.000000	59.261727 
3439.000000	59.254813 
3438.000000	59.248876 
3437.000000	59.242725 
3436.000000	59.234857 
3435.000000	59.223961 
3434.000000	59.209012 
3433.000000	59.189438 
3432.000000	59.165143 
3431.000000	59.136509 
3430.000000	59.104180 
3429.000000	59.069108 
3428.000000	59.032440 
3427.000000	58.995580 
3426.000000	58.959889 
3425.000000	58.926248 
3424.000000	58.895277 
3423.000000	58.867168 
3422.000000	58.842134 
3421.000000	58.820486 
3420.000000	58.802676 
3419.000000	58.789348 
3418.000000	58.781099 
3417.000000	58.778309 
3416.000000	58.780503 
3415.000000	58.786249 
3414.000000	58.793115 
3413.000000	58.798217 
3412.000000	58.798527 
3411.000000	58.791828 
3410.000000	58.777427 
3409.000000	58.756589 
3408.000000	58.732223 
3407.000000	58.708810 
3406.000000	58.690977 
3405.000000	58.682894 
3404.000000	58.687305 
3403.000000	58.704543 
3402.000000	58.733034 
3401.000000	58.768987 
3400.000000	58.807730 
3399.000000	58.843851 
3398.000000	58.872246 
3397.000000	58.888816 
3396.000000	58.890986 
3395.000000	58.877897 
3394.000000	58.850502 
3393.000000	58.811426 
3392.000000	58.764553 
3391.000000	58.714628 
3390.000000	58.666419 
3389.000000	58.624053 
3388.000000	58.590459 
3387.000000	58.566617 
3386.000000	58.551526 
3385.000000	58.542585 
3384.000000	58.536601 
3383.000000	58.530449 
3382.000000	58.522462 
3381.000000	58.512473 
3380.000000	58.502316 
3379.000000	58.494853 
3378.000000	58.493638 
3377.000000	58.501100 
3376.000000	58.518052 
3375.000000	58.543395 
3374.000000	58.573770 
3373.000000	58.604788 
3372.000000	58.631277 
3371.000000	58.648753 
3370.000000	58.653950 
3369.000000	58.645343 
3368.000000	58.623194 
3367.000000	58.589482 
3366.000000	58.547234 
3365.000000	58.500099 
3364.000000	58.452510 
3363.000000	58.409237 
3362.000000	58.375096 
3361.000000	58.354377 
3360.000000	58.350157 
3359.000000	58.363795 
3358.000000	58.394289 
3357.000000	58.438277 
3356.000000	58.490371 
3355.000000	58.543872 
3354.000000	58.592128 
3353.000000	58.629441 
3352.000000	58.651947 
3351.000000	58.658027 
3350.000000	58.648610 
3349.000000	58.626580 
3348.000000	58.596301 
3347.000000	58.562707 
3346.000000	58.530545 
3345.000000	58.503413 
3344.000000	58.483600 
3343.000000	58.471441 
3342.000000	58.465909 
3341.000000	58.464407 
3340.000000	58.463478 
3339.000000	58.459401 
3338.000000	58.448815 
3337.000000	58.429360 
3336.000000	58.400058 
3335.000000	58.361649 
3334.000000	58.316493 
3333.000000	58.268213 
3332.000000	58.221125 
3331.000000	58.179402 
3330.000000	58.146691 
3329.000000	58.125424 
3328.000000	58.116626 
3327.000000	58.119726 
3326.000000	58.132719 
3325.000000	58.152890 
3324.000000	58.177042 
3323.000000	58.201742 
3322.000000	58.223843 
3321.000000	58.240818 
3320.000000	58.251070 
3319.000000	58.253717 
3318.000000	58.249282 
3317.000000	58.239364 
3316.000000	58.226799 
3315.000000	58.215165 
3314.000000	58.208227 
3313.000000	58.209133 
3312.000000	58.219790 
3311.000000	58.240437 
3310.000000	58.269381 
3309.000000	58.303284 
3308.000000	58.337712 
3307.000000	58.368110 
3306.000000	58.390331 
3305.000000	58.401727 
3304.000000	58.401441 
3303.000000	58.390378 
3302.000000	58.370733 
3301.000000	58.345484 
3300.000000	58.317828 
3299.000000	58.290457 
3298.000000	58.265471 
3297.000000	58.243846 
3296.000000	58.226013 
3295.000000	58.211565 
3294.000000	58.200073 
3293.000000	58.190846 
3292.000000	58.183121 
3291.000000	58.176159 
3290.000000	58.169317 
3289.000000	58.162140 
3288.000000	58.153963 
3287.000000	58.144140 
3286.000000	58.132314 
3285.000000	58.118224 
3284.000000	58.101963 
3283.000000	58.083748 
3282.000000	58.063960 
3281.000000	58.043313 
3280.000000	58.022403 
3279.000000	58.002209 
3278.000000	57.983732 
3277.000000	57.967734 
3276.000000	57.954478 
3275.000000	57.943463 
3274.000000	57.933354 
3273.000000	57.922244 
3272.000000	57.907962 
3271.000000	57.888960 
3270.000000	57.864713 
3269.000000	57.836031 
3268.000000	57.804894 
3267.000000	57.774138 
3266.000000	57.746458 
3265.000000	57.723712 
3264.000000	57.706618 
3263.000000	57.694149 
3262.000000	57.684612 
3261.000000	57.675743 
3260.000000	57.666158 
3259.000000	57.655668 
3258.000000	57.645630 
3257.000000	57.638454 
3256.000000	57.636690 
3255.000000	57.641863 
3254.000000	57.653927 
3253.000000	57.671093 
3252.000000	57.690429 
3251.000000	57.708692 
3250.000000	57.723712 
3249.000000	57.734417 
3248.000000	57.741332 
3247.000000	57.745647 
3246.000000	57.748675 
3245.000000	57.750892 
3244.000000	57.751464 
3243.000000	57.748341 
3242.000000	57.738924 
3241.000000	57.721114 
3240.000000	57.694101 
3239.000000	57.659125 
3238.000000	57.619309 
3237.000000	57.579135 
3236.000000	57.543134 
3235.000000	57.515096 
3234.000000	57.496881 
3233.000000	57.488751 
3232.000000	57.489252 
3231.000000	57.496452 
3230.000000	57.508397 
3229.000000	57.523941 
3228.000000	57.542610 
3227.000000	57.564353 
3226.000000	57.589054 
3225.000000	57.615876 
3224.000000	57.643079 
3223.000000	57.668018 
3222.000000	57.687282 
3221.000000	57.697653 
3220.000000	57.696461 
3219.000000	57.682347 
3218.000000	57.655477 
3217.000000	57.617902 
3216.000000	57.572627 
3215.000000	57.523608 
3214.000000	57.474565 
3213.000000	57.429003 
3212.000000	57.389378 
3211.000000	57.357239 
3210.000000	57.333135 
3209.000000	57.316827 
3208.000000	57.307767 
3207.000000	57.304811 
3206.000000	57.306981 
3205.000000	57.313156 
3204.000000	57.322621 
3203.000000	57.334494 
3202.000000	57.348060 
3201.000000	57.362437 
3200.000000	57.376670 
3199.000000	57.389688 
3198.000000	57.400631 
3197.000000	57.408690 
3196.000000	57.413196 
3195.000000	57.413578 
3194.000000	57.409477 
3193.000000	57.400679 
3192.000000	57.387089 
3191.000000	57.368779 
3190.000000	57.346081 
3189.000000	57.319641 
3188.000000	57.290577 
3187.000000	57.260060 
3186.000000	57.229638 
3185.000000	57.200336 
3184.000000	57.173180 
3183.000000	57.148313 
3182.000000	57.124972 
3181.000000	57.102131 
3180.000000	57.078504 
3179.000000	57.053589 
3178.000000	57.027697 
3177.000000	57.002329 
3176.000000	56.979942 
3175.000000	56.963157 
3174.000000	56.954073 
3173.000000	56.953406 
3172.000000	56.960010 
3171.000000	56.971001 
3170.000000	56.982398 
3169.000000	56.990027 
3168.000000	56.990766 
3167.000000	56.983137 
3166.000000	56.967806 
3165.000000	56.947255 
3164.000000	56.925153 
3163.000000	56.905007 
3162.000000	56.889438 
3161.000000	56.879305 
3160.000000	56.873941 
3159.000000	56.871557 
3158.000000	56.870031 
3157.000000	56.867933 
3156.000000	56.864643 
3155.000000	56.860303 
3154.000000	56.855630 
3153.000000	56.851363 
3152.000000	56.848120 
3151.000000	56.845760 
3150.000000	56.843805 
3149.000000	56.841540 
3148.000000	56.838583 
3147.000000	56.834721 
3146.000000	56.830716 
3145.000000	56.827902 
3144.000000	56.827688 
3143.000000	56.831097 
3142.000000	56.838536 
3141.000000	56.849312 
3140.000000	56.861448 
3139.000000	56.871962 
3138.000000	56.877255 
3137.000000	56.873965 
3136.000000	56.859612 
3135.000000	56.833314 
3134.000000	56.795740 
3133.000000	56.749749 
3132.000000	56.699585 
3131.000000	56.650376 
3130.000000	56.607294 
3129.000000	56.574368 
3128.000000	56.553721 
3127.000000	56.545114 
3126.000000	56.546068 
3125.000000	56.552863 
3124.000000	56.561446 
3123.000000	56.568908 
3122.000000	56.573724 
3121.000000	56.576776 
3120.000000	56.580781 
3119.000000	56.589555 
3118.000000	56.606578 
3117.000000	56.634116 
3116.000000	56.672120 
3115.000000	56.718158 
3114.000000	56.767344 
3113.000000	56.813549 
3112.000000	56.850171 
3111.000000	56.871986 
3110.000000	56.875419 
3109.000000	56.859469 
3108.000000	56.825709 
3107.000000	56.777739 
3106.000000	56.720566 
3105.000000	56.659841 
3104.000000	56.600666 
3103.000000	56.547737 
3102.000000	56.503868 
3101.000000	56.470441 
3100.000000	56.447076 
3099.000000	56.432151 
3098.000000	56.423306 
3097.000000	56.417870 
3096.000000	56.413435 
3095.000000	56.408143 
3094.000000	56.401181 
3093.000000	56.392621 
3092.000000	56.383180 
3091.000000	56.373929 
3090.000000	56.366229 
3089.000000	56.361246 
3088.000000	56.359791 
3087.000000	56.362128 
3086.000000	56.367921 
3085.000000	56.376504 
3084.000000	56.386709 
3083.000000	56.397390 
3082.000000	56.407690 
3081.000000	56.417369 
3080.000000	56.426215 
3079.000000	56.434416 
3078.000000	56.442236 
3077.000000	56.449866 
3076.000000	56.457090 
3075.000000	56.463098 
3074.000000	56.466627 
3073.000000	56.465959 
3072.000000	56.459856 
3071.000000	56.447386 
3070.000000	56.428337 
3069.000000	56.403326 
3068.000000	56.374096 
3067.000000	56.342864 
3066.000000	56.311988 
3065.000000	56.283593 
3064.000000	56.259179 
3063.000000	56.239509 
3062.000000	56.224417 
3061.000000	56.213068 
3060.000000	56.204009 
3059.000000	56.195330 
3058.000000	56.185007 
3057.000000	56.171011 
3056.000000	56.151938 
3055.000000	56.127023 
3054.000000	56.096625 
3053.000000	56.061840 
3052.000000	56.024837 
3051.000000	55.988121 
3050.000000	55.954408 
3049.000000	55.926036 
3048.000000	55.904579 
3047.000000	55.890583 
3046.000000	55.883717 
3045.000000	55.882763 
3044.000000	55.885910 
3043.000000	55.891180 
3042.000000	55.896759 
3041.000000	55.901098 
3040.000000	55.903148 
3039.000000	55.902266 
3038.000000	55.898332 
3037.000000	55.891489 
3036.000000	55.882191 
3035.000000	55.871009 
3034.000000	55.858922 
3033.000000	55.846810 
3032.000000	55.835247 
3031.000000	55.824327 
3030.000000	55.813789 
3029.000000	55.803179 
3028.000000	55.791854 
3027.000000	55.779314 
3026.000000	55.765676 
3025.000000	55.751514 
3024.000000	55.737686 
3023.000000	55.725312 
3022.000000	55.715274 
3021.000000	55.708265 
3020.000000	55.704522 
3019.000000	55.703759 
3018.000000	55.705285 
3017.000000	55.708003 
3016.000000	55.710649 
3015.000000	55.711746 
3014.000000	55.709981 
3013.000000	55.704355 
3012.000000	55.694270 
3011.000000	55.679845 
3010.000000	55.661964 
3009.000000	55.642294 
3008.000000	55.623102 
3007.000000	55.606961 
3006.000000	55.596256 
3005.000000	55.592465 
3004.000000	55.596041 
3003.000000	55.606031 
3002.000000	55.620598 
3001.000000	55.637121 
3000.000000	55.652904 
2999.000000	55.665755 
2998.000000	55.674219 
2997.000000	55.677700 
2996.000000	55.676198 
2995.000000	55.670022 
2994.000000	55.659508 
2993.000000	55.644989 
2992.000000	55.626583 
2991.000000	55.604434 
2990.000000	55.578994 
2989.000000	55.551433 
2988.000000	55.523443 
2987.000000	55.497312 
2986.000000	55.475544 
2985.000000	55.460476 
2984.000000	55.453634 
2983.000000	55.455470 
2982.000000	55.464982 
2981.000000	55.480122 
2980.000000	55.498003 
2979.000000	55.515408 
2978.000000	55.529451 
2977.000000	55.537819 
2976.000000	55.539298 
2975.000000	55.533742 
2974.000000	55.521798 
2973.000000	55.504584 
2972.000000	55.483460 
2971.000000	55.459547 
2970.000000	55.433678 
2969.000000	55.406093 
2968.000000	55.376911 
2967.000000	55.346107 
2966.000000	55.313944 
2965.000000	55.281019 
2964.000000	55.248355 
2963.000000	55.217266 
2962.000000	55.189132 
2961.000000	55.165076 
2960.000000	55.145549 
2959.000000	55.130481 
2958.000000	55.119347 
2957.000000	55.111265 
2956.000000	55.105137 
2955.000000	55.100250 
2954.000000	55.096244 
2953.000000	55.093336 
2952.000000	55.091714 
2951.000000	55.091810 
2950.000000	55.093669 
2949.000000	55.096745 
2948.000000	55.099630 
2947.000000	55.100417 
2946.000000	55.096983 
2945.000000	55.087471 
2944.000000	55.070972 
2943.000000	55.047702 
2942.000000	55.019450 
2941.000000	54.989242 
2940.000000	54.960441 
2939.000000	54.935979 
2938.000000	54.917311 
2937.000000	54.904556 
2936.000000	54.895782 
2935.000000	54.887723 
2934.000000	54.876446 
2933.000000	54.858613 
2932.000000	54.832053 
2931.000000	54.796266 
2930.000000	54.752635 
2929.000000	54.704070 
2928.000000	54.654192 
2927.000000	54.606556 
2926.000000	54.563999 
2925.000000	54.528188 
2924.000000	54.499673 
2923.000000	54.478192 
2922.000000	54.462718 
2921.000000	54.452276 
2920.000000	54.445934 
2919.000000	54.443573 
2918.000000	54.444813 
2917.000000	54.450035 
2916.000000	54.459500 
2915.000000	54.473757 
2914.000000	54.492735 
2913.000000	54.516100 
2912.000000	54.542827 
2911.000000	54.571437 
2910.000000	54.599976 
2909.000000	54.626417 
2908.000000	54.648780 
2907.000000	54.665803 
2906.000000	54.677295 
2905.000000	54.683780 
2904.000000	54.686212 
2903.000000	54.685926 
2902.000000	54.684114 
2901.000000	54.681515 
2900.000000	54.678153 
2899.000000	54.673409 
2898.000000	54.666328 
2897.000000	54.655981 
2896.000000	54.641699 
2895.000000	54.623866 
2894.000000	54.603385 
2893.000000	54.581809 
2892.000000	54.560637 
2891.000000	54.541158 
2890.000000	54.523825 
2889.000000	54.508495 
2888.000000	54.494357 
2887.000000	54.480147 
2886.000000	54.465031 
2885.000000	54.448914 
2884.000000	54.432988 
2883.000000	54.419159 
2882.000000	54.410290 
2881.000000	54.409384 
2880.000000	54.418754 
2879.000000	54.439067 
2878.000000	54.469037 
2877.000000	54.505300 
2876.000000	54.542756 
2875.000000	54.575467 
2874.000000	54.597663 
2873.000000	54.604959 
2872.000000	54.595303 
2871.000000	54.569339 
2870.000000	54.530334 
2869.000000	54.483175 
2868.000000	54.433894 
2867.000000	54.387807 
2866.000000	54.348778 
2865.000000	54.318094 
2864.000000	54.295015 
2863.000000	54.276823 
2862.000000	54.259896 
2861.000000	54.240441 
2860.000000	54.215812 
2859.000000	54.184985 
2858.000000	54.148292 
2857.000000	54.107928 
2856.000000	54.066586 
2855.000000	54.027748 
2854.000000	53.994512 
2853.000000	53.969621 
2852.000000	53.954982 
2851.000000	53.951525 
2850.000000	53.959178 
2849.000000	53.976845 
2848.000000	54.002714 
2847.000000	54.034376 
2846.000000	54.069328 
2845.000000	54.104852 
2844.000000	54.138565 
2843.000000	54.168558 
2842.000000	54.193544 
2841.000000	54.212880 
2840.000000	54.226350 
2839.000000	54.234194 
2838.000000	54.236698 
2837.000000	54.234743 
2836.000000	54.228854 
2835.000000	54.219770 
2834.000000	54.207992 
2833.000000	54.194355 
2832.000000	54.179477 
2831.000000	54.163956 
2830.000000	54.148244 
2829.000000	54.132795 
2828.000000	54.117965 
2827.000000	54.104304 
2826.000000	54.092431 
2825.000000	54.083037 
2824.000000	54.076576 
2823.000000	54.073095 
2822.000000	54.071974 
2821.000000	54.072093 
2820.000000	54.071831 
2819.000000	54.069423 
2818.000000	54.063344 
2817.000000	54.052710 
2816.000000	54.037833 
2815.000000	54.020214 
2814.000000	54.001927 
2813.000000	53.985404 
2812.000000	53.972935 
2811.000000	53.965759 
2810.000000	53.963971 
2809.000000	53.966140 
2808.000000	53.970026 
2807.000000	53.972792 
2806.000000	53.971934 
2805.000000	53.965377 
2804.000000	53.952193 
2803.000000	53.932452 
2802.000000	53.907132 
2801.000000	53.877782 
2800.000000	53.846168 
2799.000000	53.814244 
2798.000000	53.783845 
2797.000000	53.756642 
2796.000000	53.733897 
2795.000000	53.716635 
2794.000000	53.705286 
2793.000000	53.699660 
2792.000000	53.698730 
2791.000000	53.700542 
2790.000000	53.702497 
2789.000000	53.701567 
2788.000000	53.695058 
2787.000000	53.681063 
2786.000000	53.659129 
2785.000000	53.630614 
2784.000000	53.598189 
2783.000000	53.565716 
2782.000000	53.536748 
2781.000000	53.513789 
2780.000000	53.497576 
2779.000000	53.486847 
2778.000000	53.479051 
2777.000000	53.471302 
2776.000000	53.461480 
2775.000000	53.448820 
2774.000000	53.434467 
2773.000000	53.420972 
2772.000000	53.411507 
2771.000000	53.408575 
2770.000000	53.413391 
2769.000000	53.425240 
2768.000000	53.441739 
2767.000000	53.459358 
2766.000000	53.474283 
2765.000000	53.483533 
2764.000000	53.485655 
2763.000000	53.480839 
2762.000000	53.470802 
2761.000000	53.458094 
2760.000000	53.445291 
2759.000000	53.434371 
2758.000000	53.426170 
2757.000000	53.419995 
2756.000000	53.414630 
2755.000000	53.408074 
2754.000000	53.398585 
2753.000000	53.384661 
2752.000000	53.365731 
2751.000000	53.341937 
2750.000000	53.313970 
2749.000000	53.283071 
2748.000000	53.250479 
2747.000000	53.217577 
2746.000000	53.185415 
2745.000000	53.154778 
2744.000000	53.126072 
2743.000000	53.099536 
2742.000000	53.075289 
2741.000000	53.053283 
2740.000000	53.033304 
2739.000000	53.015279 
2738.000000	52.999281 
2737.000000	52.985453 
2736.000000	52.974271 
2735.000000	52.966427 
2734.000000	52.962756 
2733.000000	52.963876 
2732.000000	52.969908 
2731.000000	52.980303 
2730.000000	52.993798 
2729.000000	53.008341 
2728.000000	53.021597 
2727.000000	53.031301 
2726.000000	53.035616 
2725.000000	53.033685 
2724.000000	53.025674 
2723.000000	53.012585 
2722.000000	52.995800 
2721.000000	52.976965 
2720.000000	52.957344 
2719.000000	52.937555 
2718.000000	52.917647 
2717.000000	52.897310 
2716.000000	52.876281 
2715.000000	52.854585 
2714.000000	52.832937 
2713.000000	52.812647 
2712.000000	52.795267 
2711.000000	52.782177 
2710.000000	52.774143 
2709.000000	52.771019 
2708.000000	52.771830 
2707.000000	52.774930 
2706.000000	52.778291 
2705.000000	52.780127 
2704.000000	52.779006 
2703.000000	52.774453 
2702.000000	52.766728 
2701.000000	52.757000 
2700.000000	52.746987 
2699.000000	52.738451 
2698.000000	52.733063 
2697.000000	52.731490 
2696.000000	52.733588 
2695.000000	52.737808 
2694.000000	52.741765 
2693.000000	52.742362 
2692.000000	52.736520 
2691.000000	52.721762 
2690.000000	52.696990 
2689.000000	52.662730 
2688.000000	52.621293 
2687.000000	52.576231 
2686.000000	52.531743 
2685.000000	52.491593 
2684.000000	52.458333 
2683.000000	52.432870 
2682.000000	52.414584 
2681.000000	52.401590 
2680.000000	52.391815 
2679.000000	52.383351 
2678.000000	52.375292 
2677.000000	52.367544 
2676.000000	52.360796 
2675.000000	52.355718 
2674.000000	52.352809 
2673.000000	52.351808 
2672.000000	52.351856 
2671.000000	52.351522 
2670.000000	52.349376 
2669.000000	52.344489 
2668.000000	52.336597 
2667.000000	52.326393 
2666.000000	52.314949 
2665.000000	52.303457 
2664.000000	52.292585 
2663.000000	52.282476 
2662.000000	52.272629 
2661.000000	52.262425 
2660.000000	52.251386 
2659.000000	52.239441 
2658.000000	52.227091 
2657.000000	52.215480 
2656.000000	52.205681 
2655.000000	52.198553 
2654.000000	52.194190 
2653.000000	52.191972 
2652.000000	52.190637 
2651.000000	52.188634 
2650.000000	52.184438 
2649.000000	52.177309 
2648.000000	52.167129 
2647.000000	52.154827 
2646.000000	52.141737 
2645.000000	52.129507 
2644.000000	52.119469 
2643.000000	52.112483 
2642.000000	52.108788 
2641.000000	52.107858 
2640.000000	52.108788 
2639.000000	52.109980 
2638.000000	52.109718 
2637.000000	52.105879 
2636.000000	52.096700 
2635.000000	52.080726 
2634.000000	52.057194 
2633.000000	52.026295 
2632.000000	51.989293 
2631.000000	51.948428 
2630.000000	51.906752 
2629.000000	51.867437 
2628.000000	51.833415 
2627.000000	51.806879 
2626.000000	51.788759 
2625.000000	51.778674 
2624.000000	51.775169 
2623.000000	51.775741 
2622.000000	51.777648 
2621.000000	51.778340 
2620.000000	51.775979 
2619.000000	51.769328 
2618.000000	51.758456 
2617.000000	51.743936 
2616.000000	51.727223 
2615.000000	51.710128 
2614.000000	51.694607 
2613.000000	51.682448 
2612.000000	51.674747 
2611.000000	51.671910 
2610.000000	51.673126 
2609.000000	51.676821 
2608.000000	51.680469 
2607.000000	51.681280 
2606.000000	51.676487 
2605.000000	51.663970 
2604.000000	51.642656 
2603.000000	51.612782 
2602.000000	51.575994 
2601.000000	51.535058 
2600.000000	51.493358 
2599.000000	51.454544 
2598.000000	51.421785 
2597.000000	51.397418 
2596.000000	51.382493 
2595.000000	51.376724 
2594.000000	51.378750 
2593.000000	51.386356 
2592.000000	51.396822 
2591.000000	51.407694 
2590.000000	51.416325 
2589.000000	51.420903 
2588.000000	51.420283 
2587.000000	51.414060 
2586.000000	51.402473 
2585.000000	51.386189 
2584.000000	51.366043 
2583.000000	51.343154 
2582.000000	51.318740 
2581.000000	51.294207 
2580.000000	51.270818 
2579.000000	51.249933 
2578.000000	51.232576 
2577.000000	51.219105 
2576.000000	51.209068 
2575.000000	51.201248 
2574.000000	51.194071 
2573.000000	51.186060 
2572.000000	51.176357 
2571.000000	51.165056 
2570.000000	51.153063 
2569.000000	51.141548 
2568.000000	51.131558 
2567.000000	51.123690 
2566.000000	51.117515 
2565.000000	51.112103 
2564.000000	51.105999 
2563.000000	51.097989 
2562.000000	51.087260 
2561.000000	51.073837 
2560.000000	51.058411 
2559.000000	51.042079 
2558.000000	51.026320 
2557.000000	51.012563 
2556.000000	51.001930 
2555.000000	50.995063 
2554.000000	50.992178 
2553.000000	50.992989 
2552.000000	50.997018 
2551.000000	51.003408 
2550.000000	51.010966 
2549.000000	51.018404 
2548.000000	51.024103 
2547.000000	51.026463 
2546.000000	51.024198 
2545.000000	51.016426 
2544.000000	51.003170 
2543.000000	50.985193 
2542.000000	50.964069 
2541.000000	50.941801 
2540.000000	50.920510 
2539.000000	50.901603 
2538.000000	50.885915 
2537.000000	50.873064 
2536.000000	50.861978 
2535.000000	50.850987 
2534.000000	50.838637 
2533.000000	50.823903 
2532.000000	50.806689 
2531.000000	50.787973 
2530.000000	50.769376 
2529.000000	50.752854 
2528.000000	50.739908 
2527.000000	50.731182 
2526.000000	50.726222 
2525.000000	50.723433 
2524.000000	50.720381 
2523.000000	50.714230 
2522.000000	50.702476 
2521.000000	50.683569 
2520.000000	50.657296 
2519.000000	50.625038 
2518.000000	50.589656 
2517.000000	50.554633 
2516.000000	50.523471 
2515.000000	50.499129 
2514.000000	50.483179 
2513.000000	50.475621 
2512.000000	50.474953 
2511.000000	50.478744 
2510.000000	50.484085 
2509.000000	50.488400 
2508.000000	50.489830 
2507.000000	50.487375 
2506.000000	50.480818 
2505.000000	50.470495 
2504.000000	50.456881 
2503.000000	50.440216 
2502.000000	50.420594 
2501.000000	50.398015 
2500.000000	50.372695 
2499.000000	50.345325 
2498.000000	50.317406 
2497.000000	50.291156 
2496.000000	50.269055 
2495.000000	50.252985 
2494.000000	50.243949 
2493.000000	50.241494 
2492.000000	50.243377 
2491.000000	50.246095 
2490.000000	50.245308 
2489.000000	50.237011 
2488.000000	50.218272 
2487.000000	50.188255 
2486.000000	50.148129 
2485.000000	50.101351 
2484.000000	50.052595 
2483.000000	50.006985 
2482.000000	49.969005 
2481.000000	49.941563 
2480.000000	49.925637 
2479.000000	49.919915 
2478.000000	49.921560 
2477.000000	49.926829 
2476.000000	49.932026 
2475.000000	49.934411 
2474.000000	49.932599 
2473.000000	49.927043 
2472.000000	49.919486 
2471.000000	49.912524 
2470.000000	49.908757 
2469.000000	49.910211 
2468.000000	49.917483 
2467.000000	49.929690 
2466.000000	49.944400 
2465.000000	49.958133 
2464.000000	49.967169 
2463.000000	49.968385 
2462.000000	49.959897 
2461.000000	49.941635 
2460.000000	49.915051 
2459.000000	49.883198 
2458.000000	49.849820 
2457.000000	49.818634 
2456.000000	49.792551 
2455.000000	49.773025 
2454.000000	49.760174 
2453.000000	49.752783 
2452.000000	49.748992 
2451.000000	49.746942 
2450.000000	49.745106 
2449.000000	49.742484 
2448.000000	49.738740 
2447.000000	49.733901 
2446.000000	49.727964 
2445.000000	49.720549 
2444.000000	49.710559 
2443.000000	49.696493 
2442.000000	49.676895 
2441.000000	49.651122 
2440.000000	49.619555 
2439.000000	49.584150 
2438.000000	49.548316 
2437.000000	49.516439 
2436.000000	49.493002 
2435.000000	49.481344 
2434.000000	49.483084 
2433.000000	49.497318 
2432.000000	49.520587 
2431.000000	49.547529 
2430.000000	49.571800 
2429.000000	49.587583 
2428.000000	49.590587 
2427.000000	49.579524 
2426.000000	49.555921 
2425.000000	49.524331 
2424.000000	49.491071 
2423.000000	49.462676 
2422.000000	49.444293 
2421.000000	49.438261 
2420.000000	49.443864 
2419.000000	49.457001 
2418.000000	49.471426 
2417.000000	49.479937 
2416.000000	49.476170 
2415.000000	49.456000 
2414.000000	49.418497 
2413.000000	49.365782 
2412.000000	49.302792 
2411.000000	49.236130 
2410.000000	49.172711 
2409.000000	49.118471 
2408.000000	49.077534 
2407.000000	49.051737 
2406.000000	49.040532 
2405.000000	49.041652 
2404.000000	49.051475 
2403.000000	49.065613 
2402.000000	49.080061 
2401.000000	49.091029 
2400.000000	49.096417 
2399.000000	49.095535 
2398.000000	49.089598 
2397.000000	49.080777 
2396.000000	49.071979 
2395.000000	49.065971 
2394.000000	49.064612 
2393.000000	49.068427 
2392.000000	49.076294 
2391.000000	49.085855 
2390.000000	49.093961 
2389.000000	49.097514 
2388.000000	49.094295 
2387.000000	49.083161 
2386.000000	49.064278 
2385.000000	49.039220 
2384.000000	49.010229 
2383.000000	48.980116 
2382.000000	48.951411 
2381.000000	48.926186 
2380.000000	48.905682 
2379.000000	48.890447 
2378.000000	48.880457 
2377.000000	48.875236 
2376.000000	48.873567 
2375.000000	48.873972 
2374.000000	48.874545 
2373.000000	48.873472 
2372.000000	48.869156 
2371.000000	48.860621 
2370.000000	48.847436 
2369.000000	48.830080 
2368.000000	48.809790 
2367.000000	48.788309 
2366.000000	48.767471 
2365.000000	48.748755 
2364.000000	48.732995 
2363.000000	48.720097 
2362.000000	48.709273 
2361.000000	48.699259 
2360.000000	48.688697 
2359.000000	48.676371 
2358.000000	48.661804 
2357.000000	48.645234 
2356.000000	48.627448 
2355.000000	48.609614 
2354.000000	48.592972 
2353.000000	48.578453 
2352.000000	48.566675 
2351.000000	48.557615 
2350.000000	48.550891 
2349.000000	48.545694 
2348.000000	48.541045 
2347.000000	48.536038 
2346.000000	48.530030 
2345.000000	48.522758 
2344.000000	48.514533 
2343.000000	48.505735 
2342.000000	48.497009 
2341.000000	48.489046 
2340.000000	48.482394 
2339.000000	48.477196 
2338.000000	48.473262 
2337.000000	48.470020 
2336.000000	48.466563 
2335.000000	48.461914 
2334.000000	48.454904 
2333.000000	48.444676 
2332.000000	48.430585 
2331.000000	48.412513 
2330.000000	48.390650 
2329.000000	48.365688 
2328.000000	48.338651 
2327.000000	48.310899 
2326.000000	48.283958 
2325.000000	48.259329 
2324.000000	48.238301 
2323.000000	48.221564 
2322.000000	48.208808 
2321.000000	48.198723 
2320.000000	48.189234 
2319.000000	48.177695 
2318.000000	48.161530 
2317.000000	48.138976 
2316.000000	48.109531 
2315.000000	48.074221 
2314.000000	48.035502 
2313.000000	47.996640 
2312.000000	47.961044 
2311.000000	47.931313 
2310.000000	47.908735 
2309.000000	47.892737 
2308.000000	47.881197 
2307.000000	47.871136 
2306.000000	47.859811 
2305.000000	47.845244 
2304.000000	47.826933 
2303.000000	47.806048 
2302.000000	47.785067 
2301.000000	47.767066 
2300.000000	47.754740 
2299.000000	47.749853 
2298.000000	47.752666 
2297.000000	47.761869 
2296.000000	47.774958 
2295.000000	47.788834 
2294.000000	47.800493 
2293.000000	47.807765 
2292.000000	47.809696 
2291.000000	47.806453 
2290.000000	47.799324 
2289.000000	47.790145 
2288.000000	47.780632 
2287.000000	47.771883 
2286.000000	47.764158 
2285.000000	47.756886 
2284.000000	47.748541 
2283.000000	47.737240 
2282.000000	47.721314 
2281.000000	47.699904 
2280.000000	47.673177 
2279.000000	47.642397 
2278.000000	47.609877 
2277.000000	47.578430 
2276.000000	47.550821 
2275.000000	47.529029 
2274.000000	47.513842 
2273.000000	47.504639 
2272.000000	47.499537 
2271.000000	47.495818 
2270.000000	47.490477 
2269.000000	47.481107 
2268.000000	47.466373 
2267.000000	47.446346 
2266.000000	47.422337 
2265.000000	47.396826 
2264.000000	47.372555 
2263.000000	47.352075 
2262.000000	47.337102 
2261.000000	47.328376 
2260.000000	47.325515 
2259.000000	47.327256 
2258.000000	47.331666 
2257.000000	47.336721 
2256.000000	47.340655 
2255.000000	47.342014 
2254.000000	47.339797 
2253.000000	47.333502 
2252.000000	47.323107 
2251.000000	47.308921 
2250.000000	47.291493 
2249.000000	47.271847 
2248.000000	47.251057 
2247.000000	47.230434 
2246.000000	47.211050 
2245.000000	47.193670 
2244.000000	47.178578 
2243.000000	47.165465 
2242.000000	47.153663 
2241.000000	47.142410 
2240.000000	47.131156 
2239.000000	47.119712 
2238.000000	47.108364 
2237.000000	47.097754 
2236.000000	47.088408 
2235.000000	47.080659 
2234.000000	47.073864 
2233.000000	47.066855 
2232.000000	47.057628 
2231.000000	47.044086 
2230.000000	47.024416 
2229.000000	46.997880 
2228.000000	46.964931 
2227.000000	46.927404 
2226.000000	46.888208 
2225.000000	46.850919 
2224.000000	46.818685 
2223.000000	46.793866 
2222.000000	46.777534 
2221.000000	46.769237 
2220.000000	46.767354 
2219.000000	46.769380 
2218.000000	46.772432 
2217.000000	46.773982 
2216.000000	46.772074 
2215.000000	46.766066 
2214.000000	46.756076 
2213.000000	46.743202 
2212.000000	46.729183 
2211.000000	46.715641 
2210.000000	46.703839 
2209.000000	46.694040 
2208.000000	46.685814 
2207.000000	46.677780 
2206.000000	46.668148 
2205.000000	46.655106 
2204.000000	46.637320 
2203.000000	46.614456 
2202.000000	46.587300 
2201.000000	46.557712 
2200.000000	46.528267 
2199.000000	46.501803 
2198.000000	46.480727 
2197.000000	46.466493 
2196.000000	46.459293 
2195.000000	46.457982 
2194.000000	46.460485 
2193.000000	46.464276 
2192.000000	46.467161 
2191.000000	46.467590 
2190.000000	46.465229 
2189.000000	46.460795 
2188.000000	46.455907 
2187.000000	46.452546 
2186.000000	46.452403 
2185.000000	46.456193 
2184.000000	46.463251 
2183.000000	46.471667 
2182.000000	46.478319 
2181.000000	46.480059 
2180.000000	46.474027 
2179.000000	46.458745 
2178.000000	46.434426 
2177.000000	46.402907 
2176.000000	46.367073 
2175.000000	46.330165 
2174.000000	46.295022 
2173.000000	46.263504 
2172.000000	46.236252 
2171.000000	46.213006 
2170.000000	46.193099 
2169.000000	46.175885 
2168.000000	46.161055 
2167.000000	46.148824 
2166.000000	46.139645 
2165.000000	46.133852 
2164.000000	46.130871 
2163.000000	46.129393 
2162.000000	46.127104 
2161.000000	46.121311 
2160.000000	46.110033 
2159.000000	46.092152 
2158.000000	46.068120 
2157.000000	46.039748 
2156.000000	46.010088 
2155.000000	45.982408 
2154.000000	45.959401 
2153.000000	45.942664 
2152.000000	45.932388 
2151.000000	45.927619 
2150.000000	45.926618 
2149.000000	45.927381 
2148.000000	45.928144 
2147.000000	45.927739 
2146.000000	45.925664 
2145.000000	45.921683 
2144.000000	45.915675 
2143.000000	45.907449 
2142.000000	45.896744 
2141.000000	45.883417 
2140.000000	45.867323 
2139.000000	45.848965 
2138.000000	45.829200 
2137.000000	45.809197 
2136.000000	45.790147 
2135.000000	45.772695 
2134.000000	45.756888 
2133.000000	45.742034 
2132.000000	45.727062 
2131.000000	45.710611 
2130.000000	45.691680 
2129.000000	45.670032 
2128.000000	45.646333 
2127.000000	45.621967 
2126.000000	45.598936 
2125.000000	45.579218 
2124.000000	45.564365 
2123.000000	45.555067 
2122.000000	45.551085 
2121.000000	45.550966 
2120.000000	45.552778 
2119.000000	45.554399 
2118.000000	45.553851 
2117.000000	45.549798 
2116.000000	45.541620 
2115.000000	45.529484 
2114.000000	45.513963 
2113.000000	45.495891 
2112.000000	45.476198 
2111.000000	45.455503 
2110.000000	45.434284 
2109.000000	45.412778 
2108.000000	45.391106 
2107.000000	45.369195 
2106.000000	45.347213 
2105.000000	45.325231 
2104.000000	45.303440 
2103.000000	45.282101 
2102.000000	45.261383 
2101.000000	45.241570 
2100.000000	45.222949 
2099.000000	45.205998 
2098.000000	45.191383 
2097.000000	45.179986 
2096.000000	45.172643 
2095.000000	45.170140 
2094.000000	45.172834 
2093.000000	45.180678 
2092.000000	45.193266 
2091.000000	45.209860 
2090.000000	45.229220 
2089.000000	45.250034 
2088.000000	45.270705 
2087.000000	45.289397 
2086.000000	45.303893 
2085.000000	45.311903 
2084.000000	45.311141 
2083.000000	45.300030 
2082.000000	45.277881 
2081.000000	45.245480 
2080.000000	45.204854 
2079.000000	45.159387 
2078.000000	45.112729 
2077.000000	45.068621 
2076.000000	45.029735 
2075.000000	44.997310 
2074.000000	44.970774 
2073.000000	44.948267 
2072.000000	44.927501 
2071.000000	44.906687 
2070.000000	44.885206 
2069.000000	44.863963 
2068.000000	44.845366 
2067.000000	44.832611 
2066.000000	44.828701 
2065.000000	44.835257 
2064.000000	44.852042 
2063.000000	44.876599 
2062.000000	44.904756 
2061.000000	44.931173 
2060.000000	44.950747 
2059.000000	44.959235 
2058.000000	44.954228 
2057.000000	44.935441 
2056.000000	44.904661 
2055.000000	44.865226 
2054.000000	44.821095 
2053.000000	44.776296 
2052.000000	44.734501 
2051.000000	44.698023 
2050.000000	44.668412 
2049.000000	44.645619 
2048.000000	44.628620 
2047.000000	44.615435 
2046.000000	44.603753 
2045.000000	44.591450 
2044.000000	44.576811 
2043.000000	44.559121 
2042.000000	44.538664 
2041.000000	44.516730 
2040.000000	44.495129 
2039.000000	44.475793 
2038.000000	44.460368 
2037.000000	44.449687 
2036.000000	44.443607 
2035.000000	44.441103 
2034.000000	44.440388 
2033.000000	44.439458 
2032.000000	44.436335 
2031.000000	44.429564 
2030.000000	44.418263 
2029.000000	44.402503 
2028.000000	44.382929 
2027.000000	44.360518 
2026.000000	44.336318 
2025.000000	44.311356 
2024.000000	44.286322 
2023.000000	44.261813 
2022.000000	44.237828 
2021.000000	44.214034 
2020.000000	44.189858 
2019.000000	44.164872 
2018.000000	44.138908 
2017.000000	44.112038 
2016.000000	44.085097 
2015.000000	44.059348 
2014.000000	44.036293 
2013.000000	44.017505 
2012.000000	44.004321 
2011.000000	43.997335 
2010.000000	43.996405 
2009.000000	44.000625 
2008.000000	44.008421 
2007.000000	44.017791 
2006.000000	44.026637 
2005.000000	44.033098 
2004.000000	44.035530 
2003.000000	44.032788 
2002.000000	44.024229 
2001.000000	44.009804 
2000.000000	43.989753 
1999.000000	43.964767 
1998.000000	43.936181 
1997.000000	43.905568 
1996.000000	43.874955 
1995.000000	43.846368 
1994.000000	43.821573 
1993.000000	43.801784 
1992.000000	43.787431 
1991.000000	43.777966 
1990.000000	43.772029 
1989.000000	43.767714 
1988.000000	43.762898 
1987.000000	43.755650 
1986.000000	43.744611 
1985.000000	43.729281 
1984.000000	43.710064 
1983.000000	43.688154 
1982.000000	43.665313 
1981.000000	43.643307 
1980.000000	43.623614 
1979.000000	43.607044 
1978.000000	43.593478 
1977.000000	43.582057 
1976.000000	43.571090 
1975.000000	43.558835 
1974.000000	43.543887 
1973.000000	43.525385 
1972.000000	43.503332 
1971.000000	43.478703 
1970.000000	43.453311 
1969.000000	43.429207 
1968.000000	43.408656 
1967.000000	43.393492 
1966.000000	43.384838 
1965.000000	43.383073 
1964.000000	43.387675 
1963.000000	43.397140 
1962.000000	43.409490 
1961.000000	43.422436 
1960.000000	43.433690 
1959.000000	43.441271 
1958.000000	43.443775 
1957.000000	43.440365 
1956.000000	43.430852 
1955.000000	43.415546 
1954.000000	43.395328 
1953.000000	43.371248 
1952.000000	43.344402 
1951.000000	43.315839 
1950.000000	43.286633 
1949.000000	43.257594 
1948.000000	43.229532 
1947.000000	43.203091 
1946.000000	43.178701 
1945.000000	43.156838 
1944.000000	43.137598 
1943.000000	43.121075 
1942.000000	43.106985 
1941.000000	43.095040 
1940.000000	43.085098 
1939.000000	43.076968 
1938.000000	43.070578 
1937.000000	43.065786 
1936.000000	43.062448 
1935.000000	43.060135 
1934.000000	43.057966 
1933.000000	43.055057 
1932.000000	43.050456 
1931.000000	43.043351 
1930.000000	43.033432 
1929.000000	43.020796 
1928.000000	43.006253 
1927.000000	42.990970 
1926.000000	42.976260 
1925.000000	42.963290 
1924.000000	42.952823 
1923.000000	42.945122 
1922.000000	42.939662 
1921.000000	42.935562 
1920.000000	42.931389 
1919.000000	42.925977 
1918.000000	42.918062 
1917.000000	42.906713 
1916.000000	42.891097 
1915.000000	42.870879 
1914.000000	42.845964 
1913.000000	42.816686 
1912.000000	42.783594 
1911.000000	42.747664 
1910.000000	42.709946 
1909.000000	42.671728 
1908.000000	42.634177 
1907.000000	42.598199 
1906.000000	42.564511 
1905.000000	42.533516 
1904.000000	42.505264 
1903.000000	42.479586 
1902.000000	42.456293 
1901.000000	42.435145 
1900.000000	42.415976 
1899.000000	42.398643 
1898.000000	42.382884 
1897.000000	42.368435 
1896.000000	42.354822 
1895.000000	42.341756 
1894.000000	42.329049 
1893.000000	42.316818 
1892.000000	42.305636 
1891.000000	42.296099 
1890.000000	42.288804 
1889.000000	42.283940 
1888.000000	42.281150 
1887.000000	42.279481 
1886.000000	42.277550 
1885.000000	42.273688 
1884.000000	42.266583 
1883.000000	42.255377 
1882.000000	42.239856 
1881.000000	42.220711 
1880.000000	42.199254 
1879.000000	42.177200 
1878.000000	42.156314 
1877.000000	42.138147 
1876.000000	42.123770 
1875.000000	42.113780 
1874.000000	42.108011 
1873.000000	42.105960 
1872.000000	42.106795 
1871.000000	42.109537 
1870.000000	42.113041 
1869.000000	42.116284 
1868.000000	42.118382 
1867.000000	42.118573 
1866.000000	42.116355 
1865.000000	42.111444 
1864.000000	42.103624 
1863.000000	42.092800 
1862.000000	42.078900 
1861.000000	42.061853 
1860.000000	42.041873 
1859.000000	42.019557 
1858.000000	41.995811 
1857.000000	41.971969 
1856.000000	41.949486 
1855.000000	41.929841 
1854.000000	41.913890 
1853.000000	41.902017 
1852.000000	41.893839 
1851.000000	41.888475 
1850.000000	41.884660 
1849.000000	41.880989 
1848.000000	41.876268 
1847.000000	41.869640 
1846.000000	41.860651 
1845.000000	41.849350 
1844.000000	41.835856 
1843.000000	41.820597 
1842.000000	41.804003 
1841.000000	41.786360 
1840.000000	41.767954 
1839.000000	41.749143 
1838.000000	41.730237 
1837.000000	41.711544 
1836.000000	41.693520 
1835.000000	41.676640 
1834.000000	41.661381 
1833.000000	41.648101 
1832.000000	41.636800 
1831.000000	41.627383 
1830.000000	41.619539 
1829.000000	41.612577 
1828.000000	41.605806 
1827.000000	41.598463 
1826.000000	41.589903 
1825.000000	41.579556 
1824.000000	41.567206 
1823.000000	41.552948 
1822.000000	41.537165 
1821.000000	41.520476 
1820.000000	41.503691 
1819.000000	41.487622 
1818.000000	41.472697 
1817.000000	41.459131 
1816.000000	41.446661 
1815.000000	41.434574 
1814.000000	41.421842 
1813.000000	41.407465 
1812.000000	41.390752 
1811.000000	41.371512 
1810.000000	41.350436 
1809.000000	41.329002 
1808.000000	41.309070 
1807.000000	41.292691 
1806.000000	41.281342 
1805.000000	41.275429 
1804.000000	41.274070 
1803.000000	41.275286 
1802.000000	41.276431 
1801.000000	41.274690 
1800.000000	41.268014 
1799.000000	41.255378 
1798.000000	41.237139 
1797.000000	41.214776 
1796.000000	41.190195 
1795.000000	41.165447 
1794.000000	41.141819 
1793.000000	41.119813 
1792.000000	41.099023 
1791.000000	41.078472 
1790.000000	41.057109 
1789.000000	41.034173 
1788.000000	41.009521 
1787.000000	40.983772 
1786.000000	40.957856 
1785.000000	40.932965 
1784.000000	40.909886 
1783.000000	40.889263 
1782.000000	40.871357 
1781.000000	40.856504 
1780.000000	40.844845 
1779.000000	40.836644 
1778.000000	40.832281 
1777.000000	40.831899 
1776.000000	40.835022 
1775.000000	40.840649 
1774.000000	40.847206 
1773.000000	40.852570 
1772.000000	40.854597 
1771.000000	40.851521 
1770.000000	40.842390 
1769.000000	40.827250 
1768.000000	40.807366 
1767.000000	40.784764 
1766.000000	40.761899 
1765.000000	40.741252 
1764.000000	40.724754 
1763.000000	40.713334 
1762.000000	40.706610 
1761.000000	40.703487 
1760.000000	40.701842 
1759.000000	40.699195 
1758.000000	40.693116 
1757.000000	40.681552 
1756.000000	40.663194 
1755.000000	40.637731 
1754.000000	40.605592 
1753.000000	40.568137 
1752.000000	40.527081 
1751.000000	40.484428 
1750.000000	40.441942 
1749.000000	40.401053 
1748.000000	40.362644 
1747.000000	40.326976 
1746.000000	40.293788 
1745.000000	40.262699 
1744.000000	40.233421 
1743.000000	40.206027 
1742.000000	40.181136 
1741.000000	40.159702 
1740.000000	40.143036 
1739.000000	40.132355 
1738.000000	40.128302 
1737.000000	40.130734 
1736.000000	40.138387 
1735.000000	40.148997 
1734.000000	40.159654 
1733.000000	40.167236 
1732.000000	40.168929 
1731.000000	40.162825 
1730.000000	40.148282 
1729.000000	40.125918 
1728.000000	40.097451 
1727.000000	40.065455 
1726.000000	40.032935 
1725.000000	40.002775 
1724.000000	39.977645 
1723.000000	39.959526 
1722.000000	39.949822 
1721.000000	39.948892 
1720.000000	39.956021 
1719.000000	39.969444 
1718.000000	39.986824 
1717.000000	40.005183 
1716.000000	40.021324 
1715.000000	40.032482 
1714.000000	40.036535 
1713.000000	40.032339 
1712.000000	40.019631 
1711.000000	39.999270 
1710.000000	39.972901 
1709.000000	39.942550 
1708.000000	39.910531 
1707.000000	39.878892 
1706.000000	39.849376 
1705.000000	39.823508 
1704.000000	39.802384 
1703.000000	39.786505 
1702.000000	39.775991 
1701.000000	39.770555 
1700.000000	39.769530 
1699.000000	39.771723 
1698.000000	39.775729 
1697.000000	39.780092 
1696.000000	39.783430 
1695.000000	39.784717 
1694.000000	39.783143 
1693.000000	39.778280 
1692.000000	39.769935 
1691.000000	39.758181 
1690.000000	39.743161 
1689.000000	39.725232 
1688.000000	39.704942 
1687.000000	39.682960 
1686.000000	39.660334 
1685.000000	39.638066 
1684.000000	39.617156 
1683.000000	39.598178 
1682.000000	39.581179 
1681.000000	39.565610 
1680.000000	39.550232 
1679.000000	39.533710 
1678.000000	39.514470 
1677.000000	39.491677 
1676.000000	39.465284 
1675.000000	39.436316 
1674.000000	39.406561 
1673.000000	39.378213 
1672.000000	39.353275 
1671.000000	39.333128 
1670.000000	39.317917 
1669.000000	39.306807 
1668.000000	39.298105 
1667.000000	39.289879 
1666.000000	39.280581 
1665.000000	39.269518 
1664.000000	39.257025 
1663.000000	39.244246 
1662.000000	39.232683 
1661.000000	39.223432 
1660.000000	39.216804 
1659.000000	39.212059 
1658.000000	39.207506 
1657.000000	39.201045 
1656.000000	39.190673 
1655.000000	39.175367 
1654.000000	39.155244 
1653.000000	39.131712 
1652.000000	39.106917 
1651.000000	39.083194 
1650.000000	39.062190 
1649.000000	39.044594 
1648.000000	39.029741 
1647.000000	39.016246 
1646.000000	39.002418 
1645.000000	38.986897 
1644.000000	38.969445 
1643.000000	38.950753 
1642.000000	38.932704 
1641.000000	38.917517 
1640.000000	38.907408 
1639.000000	38.903737 
1638.000000	38.906669 
1637.000000	38.915038 
1636.000000	38.926672 
1635.000000	38.938784 
1634.000000	38.948535 
1633.000000	38.953375 
1632.000000	38.951683 
1631.000000	38.942718 
1630.000000	38.926601 
1629.000000	38.904047 
1628.000000	38.876271 
1627.000000	38.844466 
1626.000000	38.810014 
1625.000000	38.774275 
1624.000000	38.738489 
1623.000000	38.704013 
1622.000000	38.671946 
1621.000000	38.643264 
1620.000000	38.618707 
1619.000000	38.598632 
1618.000000	38.582825 
1617.000000	38.570976 
1616.000000	38.562250 
1615.000000	38.555788 
1614.000000	38.550639 
1613.000000	38.546085 
1612.000000	38.541483 
1611.000000	38.536357 
1610.000000	38.530158 
1609.000000	38.522171 
1608.000000	38.511538 
1607.000000	38.497376 
1606.000000	38.479042 
1605.000000	38.456511 
1604.000000	38.430571 
1603.000000	38.402843 
1602.000000	38.375544 
1601.000000	38.351011 
1600.000000	38.331294 
1599.000000	38.317394 
1598.000000	38.309121 
1597.000000	38.305163 
1596.000000	38.303208 
1595.000000	38.300800 
1594.000000	38.295841 
1593.000000	38.286900 
1592.000000	38.273859 
1591.000000	38.257551 
1590.000000	38.239765 
1589.000000	38.222455 
1588.000000	38.207459 
1587.000000	38.195896 
1586.000000	38.188076 
1585.000000	38.183426 
1584.000000	38.180732 
1583.000000	38.178420 
1582.000000	38.175034 
1581.000000	38.169503 
1580.000000	38.161039 
1579.000000	38.149333 
1578.000000	38.134241 
1577.000000	38.115715 
1576.000000	38.093972 
1575.000000	38.069176 
1574.000000	38.041949 
1573.000000	38.013148 
1572.000000	37.984275 
1571.000000	37.957024 
1570.000000	37.933325 
1569.000000	37.914967 
1568.000000	37.902879 
1567.000000	37.897253 
1566.000000	37.897324 
1565.000000	37.901449 
1564.000000	37.907338 
1563.000000	37.912344 
1562.000000	37.914156 
1561.000000	37.910890 
1560.000000	37.901306 
1559.000000	37.884902 
1558.000000	37.861633 
1557.000000	37.832093 
1556.000000	37.797355 
1555.000000	37.759113 
1554.000000	37.719345 
1553.000000	37.680482 
1552.000000	37.645053 
1551.000000	37.615323 
1550.000000	37.592935 
1549.000000	37.578344 
1548.000000	37.570619 
1547.000000	37.567663 
1546.000000	37.566447 
1545.000000	37.563586 
1544.000000	37.556004 
1543.000000	37.541437 
1542.000000	37.519049 
1541.000000	37.489461 
1540.000000	37.454724 
1539.000000	37.417697 
1538.000000	37.381553 
1537.000000	37.349224 
1536.000000	37.323117 
1535.000000	37.304687 
1534.000000	37.294483 
1533.000000	37.292146 
1532.000000	37.296628 
1531.000000	37.306523 
1530.000000	37.319970 
1529.000000	37.334895 
1528.000000	37.349271 
1527.000000	37.361097 
1526.000000	37.368655 
1525.000000	37.370514 
1524.000000	37.365579 
1523.000000	37.353324 
1522.000000	37.333989 
1521.000000	37.308478 
1520.000000	37.278580 
1519.000000	37.246727 
1518.000000	37.215948 
1517.000000	37.189292 
1516.000000	37.169241 
1515.000000	37.157320 
1514.000000	37.153863 
1513.000000	37.157630 
1512.000000	37.166309 
1511.000000	37.176489 
1510.000000	37.184643 
1509.000000	37.187457 
1508.000000	37.182450 
1507.000000	37.168407 
1506.000000	37.145471 
1505.000000	37.115335 
1504.000000	37.080645 
1503.000000	37.044596 
1502.000000	37.010335 
1501.000000	36.980295 
1500.000000	36.955809 
1499.000000	36.936736 
1498.000000	36.921668 
1497.000000	36.908173 
1496.000000	36.893606 
1495.000000	36.875581 
1494.000000	36.852788 
1493.000000	36.825537 
1492.000000	36.795735 
1491.000000	36.766505 
1490.000000	36.741352 
1489.000000	36.723256 
1488.000000	36.713695 
1487.000000	36.712479 
1486.000000	36.717319 
1485.000000	36.724734 
1484.000000	36.730670 
1483.000000	36.731481 
1482.000000	36.724591 
1481.000000	36.709117 
1480.000000	36.685824 
1479.000000	36.656618 
1478.000000	36.624145 
1477.000000	36.591243 
1476.000000	36.560440 
1475.000000	36.533641 
1474.000000	36.512017 
1473.000000	36.495995 
1472.000000	36.485528 
1471.000000	36.480164 
1470.000000	36.478948 
1469.000000	36.480545 
1468.000000	36.483120 
1467.000000	36.484932 
1466.000000	36.484193 
1465.000000	36.479806 
1464.000000	36.471199 
1463.000000	36.458849 
1462.000000	36.443829 
1461.000000	36.427569 
1460.000000	36.411690 
1459.000000	36.396884 
1458.000000	36.382961 
1457.000000	36.368727 
1456.000000	36.352372 
1455.000000	36.332130 
1454.000000	36.306977 
1453.000000	36.277079 
1452.000000	36.244058 
1451.000000	36.210417 
1450.000000	36.178827 
1449.000000	36.151552 
1448.000000	36.129760 
1447.000000	36.113500 
1446.000000	36.101698 
1445.000000	36.092686 
1444.000000	36.084914 
1443.000000	36.076998 
1442.000000	36.068201 
1441.000000	36.058092 
1440.000000	36.046743 
1439.000000	36.034369 
1438.000000	36.021590 
1437.000000	36.008858 
1436.000000	35.996675 
1435.000000	35.985517 
1434.000000	35.975813 
1433.000000	35.967731 
1432.000000	35.961151 
1431.000000	35.955381 
1430.000000	35.949420 
1429.000000	35.942029 
1428.000000	35.932302 
1427.000000	35.919928 
1426.000000	35.905432 
1425.000000	35.890388 
1424.000000	35.876941 
1423.000000	35.867309 
1422.000000	35.862994 
1421.000000	35.864377 
1420.000000	35.870218 
1419.000000	35.877990 
1418.000000	35.884332 
1417.000000	35.885739 
1416.000000	35.879206 
1415.000000	35.862946 
1414.000000	35.836863 
1413.000000	35.802507 
1412.000000	35.762953 
1411.000000	35.722017 
1410.000000	35.683751 
1409.000000	35.651564 
1408.000000	35.627841 
1407.000000	35.613536 
1406.000000	35.608124 
1405.000000	35.609698 
1404.000000	35.615587 
1403.000000	35.622763 
1402.000000	35.627961 
1401.000000	35.628581 
1400.000000	35.622882 
1399.000000	35.610461 
1398.000000	35.591697 
1397.000000	35.568046 
1396.000000	35.541582 
1395.000000	35.514593 
1394.000000	35.489296 
1393.000000	35.467600 
1392.000000	35.450744 
1391.000000	35.439252 
1390.000000	35.432958 
1389.000000	35.431003 
1388.000000	35.432076 
1387.000000	35.434675 
1386.000000	35.437226 
1385.000000	35.438656 
1384.000000	35.438370 
1383.000000	35.436344 
1382.000000	35.432720 
1381.000000	35.427546 
1380.000000	35.420250 
1379.000000	35.410046 
1378.000000	35.395383 
1377.000000	35.374498 
1376.000000	35.345697 
1375.000000	35.308337 
1374.000000	35.263085 
1373.000000	35.212039 
1372.000000	35.158801 
1371.000000	35.107707 
1370.000000	35.063362 
1369.000000	35.029578 
1368.000000	35.008525 
1367.000000	35.000419 
1366.000000	35.003256 
1365.000000	35.013437 
1364.000000	35.026264 
1363.000000	35.037136 
1362.000000	35.042095 
1361.000000	35.038805 
1360.000000	35.026621 
1359.000000	35.006570 
1358.000000	34.981012 
1357.000000	34.953069 
1356.000000	34.925842 
1355.000000	34.901833 
1354.000000	34.882855 
1353.000000	34.869527 
1352.000000	34.861588 
1351.000000	34.857892 
1350.000000	34.857130 
1349.000000	34.857869 
1348.000000	34.858918 
1347.000000	34.859442 
1346.000000	34.858870 
1345.000000	34.856939 
1344.000000	34.853625 
1343.000000	34.849047 
1342.000000	34.843325 
1341.000000	34.836530 
1340.000000	34.828758 
1339.000000	34.819817 
1338.000000	34.809184 
1337.000000	34.796071 
1336.000000	34.779644 
1335.000000	34.759140 
1334.000000	34.734177 
1333.000000	34.704828 
1332.000000	34.671831 
1331.000000	34.636449 
1330.000000	34.600353 
1329.000000	34.565210 
1328.000000	34.532666 
1327.000000	34.503626 
1326.000000	34.478592 
1325.000000	34.457421 
1324.000000	34.439730 
1323.000000	34.424948 
1322.000000	34.412574 
1321.000000	34.402322 
1320.000000	34.394001 
1319.000000	34.387350 
1318.000000	34.382057 
1317.000000	34.377431 
1316.000000	34.372758 
1315.000000	34.367275 
1314.000000	34.360504 
1313.000000	34.352207 
1312.000000	34.342741 
1311.000000	34.332680 
1310.000000	34.322810 
1309.000000	34.313797 
1308.000000	34.306097 
1307.000000	34.299874 
1306.000000	34.294986 
1305.000000	34.290909 
1304.000000	34.287118 
1303.000000	34.283041 
1302.000000	34.278225 
1301.000000	34.272074 
1300.000000	34.263992 
1299.000000	34.253287 
1298.000000	34.239172 
1297.000000	34.221148 
1296.000000	34.199190 
1295.000000	34.173870 
1294.000000	34.146690 
1293.000000	34.119653 
1292.000000	34.095120 
1291.000000	34.075117 
1290.000000	34.061145 
1289.000000	34.053683 
1288.000000	34.052085 
1287.000000	34.054899 
1286.000000	34.059953 
1285.000000	34.064960 
1284.000000	34.067964 
1283.000000	34.067487 
1282.000000	34.062528 
1281.000000	34.052586 
1280.000000	34.037494 
1279.000000	34.017348 
1278.000000	33.992266 
1277.000000	33.962798 
1276.000000	33.929944 
1275.000000	33.895277 
1274.000000	33.860731 
1273.000000	33.828425 
1272.000000	33.800244 
1271.000000	33.777403 
1270.000000	33.760380 
1269.000000	33.748865 
1268.000000	33.741927 
1267.000000	33.738255 
1266.000000	33.736515 
1265.000000	33.735537 
1264.000000	33.734655 
1263.000000	33.733415 
1262.000000	33.731770 
1261.000000	33.729553 
1260.000000	33.726525 
1259.000000	33.722162 
1258.000000	33.715629 
1257.000000	33.706164 
1256.000000	33.692812 
1255.000000	33.675003 
1254.000000	33.652639 
1253.000000	33.626270 
1252.000000	33.596897 
1251.000000	33.565950 
1250.000000	33.535170 
1249.000000	33.506417 
1248.000000	33.481335 
1247.000000	33.461022 
1246.000000	33.445763 
1245.000000	33.435010 
1244.000000	33.427500 
1243.000000	33.421492 
1242.000000	33.415126 
1241.000000	33.406996 
1240.000000	33.396339 
1239.000000	33.383083 
1238.000000	33.367776 
1237.000000	33.351349 
1236.000000	33.334660 
1235.000000	33.318233 
1234.000000	33.302116 
1233.000000	33.285665 
1232.000000	33.267855 
1231.000000	33.247089 
1230.000000	33.221888 
1229.000000	33.191013 
1228.000000	33.154082 
1227.000000	33.111572 
1226.000000	33.065223 
1225.000000	33.017730 
1224.000000	32.972502 
1223.000000	32.933187 
1222.000000	32.903075 
1221.000000	32.884335 
1220.000000	32.877826 
1219.000000	32.882571 
1218.000000	32.896161 
1217.000000	32.914900 
1216.000000	32.934498 
1215.000000	32.950472 
1214.000000	32.959270 
1213.000000	32.958531 
1212.000000	32.947611 
1211.000000	32.927203 
1210.000000	32.899665 
1209.000000	32.868194 
1208.000000	32.836723 
1207.000000	32.808971 
1206.000000	32.788181 
1205.000000	32.776570 
1204.000000	32.774877 
1203.000000	32.782340 
1202.000000	32.796669 
1201.000000	32.814455 
1200.000000	32.831788 
1199.000000	32.844829 
1198.000000	32.850265 
1197.000000	32.845854 
1196.000000	32.830333 
1195.000000	32.803821 
1194.000000	32.767391 
1193.000000	32.723259 
1192.000000	32.674217 
1191.000000	32.623839 
1190.000000	32.575964 
1189.000000	32.534670 
1188.000000	32.503795 
1187.000000	32.486319 
1186.000000	32.483887 
1185.000000	32.496285 
1184.000000	32.521080 
1183.000000	32.554054 
1182.000000	32.589387 
1181.000000	32.621312 
1180.000000	32.644724 
1179.000000	32.656407 
1178.000000	32.655477 
1177.000000	32.642769 
1176.000000	32.620620 
1175.000000	32.591629 
1174.000000	32.558107 
1173.000000	32.521772 
1172.000000	32.483482 
1171.000000	32.443737 
1170.000000	32.402777 
1169.000000	32.361221 
1168.000000	32.320141 
1167.000000	32.280778 
1166.000000	32.244586 
1165.000000	32.212400 
1164.000000	32.184910 
1163.000000	32.161879 
1162.000000	32.143282 
1161.000000	32.128596 
1160.000000	32.117915 
1159.000000	32.111644 
1158.000000	32.110548 
1157.000000	32.115030 
1156.000000	32.124972 
1155.000000	32.139110 
1154.000000	32.155323 
1153.000000	32.171106 
1152.000000	32.183670 
1151.000000	32.190394 
1150.000000	32.189035 
1149.000000	32.178044 
1148.000000	32.156276 
1147.000000	32.123088 
1146.000000	32.078599 
1145.000000	32.024049 
1144.000000	31.961750 
1143.000000	31.895518 
1142.000000	31.830048 
1141.000000	31.770801 
1140.000000	31.723332 
1139.000000	31.692457 
1138.000000	31.681013 
1137.000000	31.689620 
1136.000000	31.716561 
1135.000000	31.757521 
1134.000000	31.806325 
1133.000000	31.855511 
1132.000000	31.897902 
1131.000000	31.926918 
1130.000000	31.937479 
1129.000000	31.926321 
1128.000000	31.892585 
1127.000000	31.837868 
1126.000000	31.766128 
1125.000000	31.683015 
1124.000000	31.595325 
1123.000000	31.510114 
1122.000000	31.434178 
1121.000000	31.372642 
1120.000000	31.328320 
1119.000000	31.301665 
1118.000000	31.290960 
1117.000000	31.292533 
1116.000000	31.302332 
1115.000000	31.316351 
1114.000000	31.332421 
1113.000000	31.349372 
1112.000000	31.368255 
1111.000000	31.390762 
1110.000000	31.419229 
1109.000000	31.455326 
1108.000000	31.499528 
1107.000000	31.551003 
1106.000000	31.607007 
1105.000000	31.664419 
1104.000000	31.718659 
1103.000000	31.765556 
1102.000000	31.800365 
1101.000000	31.819200 
1100.000000	31.818389 
1099.000000	31.795501 
1098.000000	31.749272 
1097.000000	31.680631 
1096.000000	31.592822 
1095.000000	31.491518 
1094.000000	31.384825 
1093.000000	31.282138 
1092.000000	31.192064 
1091.000000	31.120967 
1090.000000	31.071734 
1089.000000	31.043457 
1088.000000	31.031656 
1087.000000	31.029677 
1086.000000	31.029868 
1085.000000	31.025958 
1084.000000	31.014037 
1083.000000	30.993580 
1082.000000	30.966353 
1081.000000	30.936455 
1080.000000	30.908465 
1079.000000	30.886745 
1078.000000	30.873775 
1077.000000	30.870008 
1076.000000	30.873990 
1075.000000	30.882596 
1074.000000	30.891990 
1073.000000	30.898475 
1072.000000	30.899596 
1071.000000	30.894374 
1070.000000	30.883264 
1069.000000	30.868554 
1068.000000	30.853557 
1067.000000	30.842113 
1066.000000	30.837416 
1065.000000	30.840754 
1064.000000	30.851030 
1063.000000	30.864930 
1062.000000	30.877494 
1061.000000	30.882692 
1060.000000	30.875301 
1059.000000	30.852174 
1058.000000	30.813670 
1057.000000	30.763244 
1056.000000	30.707406 
1055.000000	30.653977 
1054.000000	30.610728 
1053.000000	30.583691 
1052.000000	30.575513 
1051.000000	30.585360 
1050.000000	30.608773 
1049.000000	30.639195 
1048.000000	30.669021 
1047.000000	30.691432 
1046.000000	30.701160 
1045.000000	30.695295 
1044.000000	30.673360 
1043.000000	30.636906 
1042.000000	30.589675 
1041.000000	30.536484 
1040.000000	30.482935 
1039.000000	30.434489 
1038.000000	30.395627 
1037.000000	30.369424 
1036.000000	30.356907 
1035.000000	30.356931 
1034.000000	30.366373 
1033.000000	30.380773 
1032.000000	30.394935 
1031.000000	30.403995 
1030.000000	30.404400 
1029.000000	30.394482 
1028.000000	30.374193 
1027.000000	30.345368 
1026.000000	30.310869 
1025.000000	30.273890 
1024.000000	30.237388 
1023.000000	30.203437 
1022.000000	30.173158 
1021.000000	30.146622 
1020.000000	30.123567 
1019.000000	30.103349 
1018.000000	30.085086 
1017.000000	30.068087 
1016.000000	30.051732 
1015.000000	30.035781 
1014.000000	30.019927 
1013.000000	30.004215 
1012.000000	29.988884 
1011.000000	29.973983 
1010.000000	29.959368 
1009.000000	29.945015 
1008.000000	29.930639 
1007.000000	29.915809 
1006.000000	29.899859 
1005.000000	29.882121 
1004.000000	29.861903 
1003.000000	29.838585 
1002.000000	29.811692 
1001.000000	29.780960 
1000.000000	29.746437 
999.000000	 29.708337 
998.000000	 29.667353 
997.000000	 29.624342 
996.000000	 29.581117 
995.000000	 29.539990 
994.000000	 29.504036 
993.000000	 29.476308 
992.000000	 29.459834 
991.000000	 29.456472 
990.000000	 29.466772 
989.000000	 29.489374 
988.000000	 29.521536 
987.000000	 29.559278 
986.000000	 29.598259 
985.000000	 29.634332 
984.000000	 29.664134 
983.000000	 29.685282 
982.000000	 29.696726 
981.000000	 29.698538 
980.000000	 29.691505 
979.000000	 29.676914 
978.000000	 29.656577 
977.000000	 29.632401 
976.000000	 29.606533 
975.000000	 29.580712 
974.000000	 29.556918 
973.000000	 29.536104 
972.000000	 29.518556 
971.000000	 29.503321 
970.000000	 29.488396 
969.000000	 29.471087 
968.000000	 29.448628 
967.000000	 29.418873 
966.000000	 29.380941 
965.000000	 29.335284 
964.000000	 29.283642 
963.000000	 29.228639 
962.000000	 29.173398 
961.000000	 29.121112 
960.000000	 29.074573 
959.000000	 29.035854 
958.000000	 29.006075 
957.000000	 28.985404 
956.000000	 28.973317 
955.000000	 28.968358 
954.000000	 28.968667 
953.000000	 28.972434 
952.000000	 28.978061 
951.000000	 28.984093 
950.000000	 28.989219 
949.000000	 28.992247 
948.000000	 28.992009 
947.000000	 28.986930 
946.000000	 28.975629 
945.000000	 28.956937 
944.000000	 28.930425 
943.000000	 28.896617 
942.000000	 28.857469 
941.000000	 28.816294 
940.000000	 28.777289 
939.000000	 28.744745 
938.000000	 28.721833 
937.000000	 28.709626 
936.000000	 28.706789 
935.000000	 28.709745 
934.000000	 28.713560 
933.000000	 28.713059 
932.000000	 28.704428 
931.000000	 28.686094 
930.000000	 28.658890 
929.000000	 28.626060 
928.000000	 28.592133 
927.000000	 28.561973 
926.000000	 28.539609 
925.000000	 28.527164 
924.000000	 28.524780 
923.000000	 28.530383 
922.000000	 28.540539 
921.000000	 28.550648 
920.000000	 28.556060 
919.000000	 28.552699 
918.000000	 28.537631 
917.000000	 28.509831 
916.000000	 28.469800 
915.000000	 28.420042 
914.000000	 28.364634 
913.000000	 28.308868 
912.000000	 28.258514 
911.000000	 28.218555 
910.000000	 28.192424 
909.000000	 28.181171 
908.000000	 28.183460 
907.000000	 28.195524 
906.000000	 28.212070 
905.000000	 28.227615 
904.000000	 28.237605 
903.000000	 28.239369 
902.000000	 28.232550 
901.000000	 28.218913 
900.000000	 28.201460 
899.000000	 28.183603 
898.000000	 28.168058 
897.000000	 28.155970 
896.000000	 28.146457 
895.000000	 28.137063 
894.000000	 28.124451 
893.000000	 28.105521 
892.000000	 28.078413 
891.000000	 28.043079 
890.000000	 28.001499 
889.000000	 27.957081 
888.000000	 27.914285 
887.000000	 27.877473 
886.000000	 27.850365 
885.000000	 27.834677 
884.000000	 27.830862 
883.000000	 27.837920 
882.000000	 27.854132 
881.000000	 27.877211 
880.000000	 27.904820 
879.000000	 27.934551 
878.000000	 27.963972 
877.000000	 27.990531 
876.000000	 28.011202 
875.000000	 28.022694 
874.000000	 28.021717 
873.000000	 28.005623 
872.000000	 27.973175 
871.000000	 27.924966 
870.000000	 27.864027 
869.000000	 27.795243 
868.000000	 27.724885 
867.000000	 27.659082 
866.000000	 27.603483 
865.000000	 27.561211 
864.000000	 27.533102 
863.000000	 27.516555 
862.000000	 27.506875 
861.000000	 27.497625 
860.000000	 27.482032 
859.000000	 27.454614 
858.000000	 27.411890 
857.000000	 27.354145 
856.000000	 27.284979 
855.000000	 27.211332 
854.000000	 27.141571 
853.000000	 27.084422 
852.000000	 27.046656 
851.000000	 27.031970 
850.000000	 27.040100 
849.000000	 27.067017 
848.000000	 27.106142 
847.000000	 27.149486 
846.000000	 27.189421 
845.000000	 27.220129 
844.000000	 27.238631 
843.000000	 27.244663 
842.000000	 27.240157 
841.000000	 27.228116 
840.000000	 27.211570 
839.000000	 27.192878 
838.000000	 27.173185 
837.000000	 27.152729 
836.000000	 27.130508 
835.000000	 27.106165 
834.000000	 27.078914 
833.000000	 27.048206 
832.000000	 27.013826 
831.000000	 26.975798 
830.000000	 26.934957 
829.000000	 26.892828 
828.000000	 26.851701 
827.000000	 26.814365 
826.000000	 26.783490 
825.000000	 26.761054 
824.000000	 26.747822 
823.000000	 26.742982 
822.000000	 26.744246 
821.000000	 26.748347 
820.000000	 26.752090 
819.000000	 26.753139 
818.000000	 26.750469 
817.000000	 26.744627 
816.000000	 26.737070 
815.000000	 26.729512 
814.000000	 26.722955 
813.000000	 26.717209 
812.000000	 26.710391 
811.000000	 26.699566 
810.000000	 26.682281 
809.000000	 26.656866 
808.000000	 26.623773 
807.000000	 26.585054 
806.000000	 26.544332 
805.000000	 26.505374 
804.000000	 26.470899 
803.000000	 26.442193 
802.000000	 26.418685 
801.000000	 26.398420 
800.000000	 26.378774 
799.000000	 26.357793 
798.000000	 26.334953 
797.000000	 26.311564 
796.000000	 26.290321 
795.000000	 26.274633 
794.000000	 26.267361 
793.000000	 26.269817 
792.000000	 26.281237 
791.000000	 26.298761 
790.000000	 26.318168 
789.000000	 26.334738 
788.000000	 26.344156 
787.000000	 26.343536 
786.000000	 26.331377 
785.000000	 26.307654 
784.000000	 26.273536 
783.000000	 26.231336 
782.000000	 26.183366 
781.000000	 26.132273 
780.000000	 26.079797 
779.000000	 26.027154 
778.000000	 25.974607 
777.000000	 25.922155 
776.000000	 25.869345 
775.000000	 25.815963 
774.000000	 25.762176 
773.000000	 25.708580 
772.000000	 25.656175 
771.000000	 25.606107 
770.000000	 25.559449 
769.000000	 25.517177 
768.000000	 25.480079 
767.000000	 25.448846 
766.000000	 25.424122 
765.000000	 25.406455 
764.000000	 25.395917 
763.000000	 25.391936 
762.000000	 25.393056 
761.000000	 25.396728 
760.000000	 25.399494 
759.000000	 25.397396 
758.000000	 25.386357 
757.000000	 25.363588 
756.000000	 25.328278 
755.000000	 25.282263 
754.000000	 25.229763 
753.000000	 25.176572 
752.000000	 25.128579 
751.000000	 25.090670 
750.000000	 25.065779 
749.000000	 25.053834 
748.000000	 25.051736 
747.000000	 25.054430 
746.000000	 25.056385 
745.000000	 25.052738 
744.000000	 25.040340 
743.000000	 25.019097 
742.000000	 24.991655 
741.000000	 24.963164 
740.000000	 24.939846 
739.000000	 24.927711 
738.000000	 24.930620 
737.000000	 24.949550 
736.000000	 24.981617 
735.000000	 25.020527 
734.000000	 25.057363 
733.000000	 25.082349 
732.000000	 25.087118 
731.000000	 25.065732 
730.000000	 25.017380 
729.000000	 24.946165 
728.000000	 24.861311 
727.000000	 24.774718 
726.000000	 24.699330 
725.000000	 24.646306 
724.000000	 24.622988 
723.000000	 24.631285 
722.000000	 24.667739 
721.000000	 24.724841 
720.000000	 24.792242 
719.000000	 24.859166 
718.000000	 24.916172 
717.000000	 24.956417 
716.000000	 24.975824 
715.000000	 24.973011 
714.000000	 24.948811 
713.000000	 24.905514 
712.000000	 24.846243 
711.000000	 24.774384 
710.000000	 24.693775 
709.000000	 24.608135 
708.000000	 24.521827 
707.000000	 24.438643 
706.000000	 24.361753 
705.000000	 24.293208 
704.000000	 24.233388 
703.000000	 24.181365 
702.000000	 24.135327 
701.000000	 24.093246 
700.000000	 24.053192 
699.000000	 24.013996 
698.000000	 23.975086 
697.000000	 23.936462 
696.000000	 23.898148 
695.000000	 23.859691 
694.000000	 23.819780 
693.000000	 23.776412 
692.000000	 23.727250 
691.000000	 23.670673 
690.000000	 23.606538 
689.000000	 23.536348 
688.000000	 23.463249 
687.000000	 23.391938 
686.000000	 23.327612 
685.000000	 23.274707 
684.000000	 23.235917 
683.000000	 23.211503 
682.000000	 23.199343 
681.000000	 23.195528 
680.000000	 23.195219 
679.000000	 23.193240 
678.000000	 23.185801 
677.000000	 23.170828 
676.000000	 23.148989 
675.000000	 23.122596 
674.000000	 23.095798 
673.000000	 23.073363 
672.000000	 23.059248 
671.000000	 23.055577 
670.000000	 23.061633 
669.000000	 23.074507 
668.000000	 23.088455 
667.000000	 23.096752 
666.000000	 23.092436 
665.000000	 23.070406 
664.000000	 23.028254 
663.000000	 22.967052 
662.000000	 22.891211 
661.000000	 22.807812 
660.000000	 22.725605 
659.000000	 22.653222 
658.000000	 22.597718 
657.000000	 22.563338 
656.000000	 22.550773 
655.000000	 22.557306 
654.000000	 22.577643 
653.000000	 22.605061 
652.000000	 22.632575 
651.000000	 22.654318 
650.000000	 22.666025 
649.000000	 22.665929 
648.000000	 22.654104 
647.000000	 22.632813 
646.000000	 22.604799 
645.000000	 22.573494 
644.000000	 22.542572 
643.000000	 22.515130 
642.000000	 22.493743 
641.000000	 22.479391 
640.000000	 22.472047 
639.000000	 22.469615 
638.000000	 22.468590 
637.000000	 22.463989 
636.000000	 22.450518 
635.000000	 22.423219 
634.000000	 22.378730 
633.000000	 22.316384 
632.000000	 22.238922 
631.000000	 22.152161 
630.000000	 22.064256 
629.000000	 21.984076 
628.000000	 21.919226 
627.000000	 21.874880 
626.000000	 21.852254 
625.000000	 21.848297 
624.000000	 21.856284 
623.000000	 21.867489 
622.000000	 21.872901 
621.000000	 21.864891 
620.000000	 21.838784 
619.000000	 21.793293 
618.000000	 21.730995 
617.000000	 21.657395 
616.000000	 21.579408 
615.000000	 21.503686 
614.000000	 21.435189 
613.000000	 21.376538 
612.000000	 21.327352 
611.000000	 21.284961 
610.000000	 21.245431 
609.000000	 21.204972 
608.000000	 21.160554 
607.000000	 21.110796 
606.000000	 21.056127 
605.000000	 20.998620 
604.000000	 20.940828 
603.000000	 20.885705 
602.000000	 20.835995 
601.000000	 20.794439 
600.000000	 20.763540 
599.000000	 20.745754 
598.000000	 20.743274 
597.000000	 20.757579 
596.000000	 20.789122 
595.000000	 20.835900 
594.000000	 20.893168 
593.000000	 20.953106 
592.000000	 21.006107 
591.000000	 21.041679 
590.000000	 21.050477 
589.000000	 21.026015 
588.000000	 20.966911 
587.000000	 20.876550 
586.000000	 20.762705 
585.000000	 20.635604 
584.000000	 20.506477 
583.000000	 20.384597 
582.000000	 20.275998 
581.000000	 20.182776 
580.000000	 20.103812 
579.000000	 20.035433 
578.000000	 19.973254 
577.000000	 19.913744 
576.000000	 19.855570 
575.000000	 19.799709 
574.000000	 19.749355 
573.000000	 19.707489 
572.000000	 19.676685 
571.000000	 19.657564 
570.000000	 19.649410 
569.000000	 19.648623 
568.000000	 19.651603 
567.000000	 19.655823 
566.000000	 19.660925 
565.000000	 19.668412 
564.000000	 19.681000 
563.000000	 19.701361 
562.000000	 19.730210 
561.000000	 19.765305 
560.000000	 19.801282 
559.000000	 19.830441 
558.000000	 19.845223 
557.000000	 19.840192 
556.000000	 19.814252 
555.000000	 19.770956 
554.000000	 19.718909 
553.000000	 19.669461 
552.000000	 19.632792 
551.000000	 19.614672 
550.000000	 19.615340 
549.000000	 19.628190 
548.000000	 19.641447 
547.000000	 19.639873 
546.000000	 19.609212 
545.000000	 19.538998 
544.000000	 19.424819 
543.000000	 19.270014 
542.000000	 19.083952 
541.000000	 18.881916 
540.000000	 18.681430 
539.000000	 18.500685 
538.000000	 18.354964 
537.000000	 18.254995 
536.000000	 18.205308 
535.000000	 18.203997 
534.000000	 18.242645 
533.000000	 18.309068 
532.000000	 18.388938 
531.000000	 18.469238 
530.000000	 18.538904 
529.000000	 18.592953 
528.000000	 18.631744 
527.000000	 18.660640 
526.000000	 18.686819 
525.000000	 18.717432 
524.000000	 18.756008 
523.000000	 18.800997 
522.000000	 18.844842 
521.000000	 18.875980 
520.000000	 18.881106 
519.000000	 18.849372 
518.000000	 18.775320 
517.000000	 18.660879 
516.000000	 18.515586 
515.000000	 18.355059 
514.000000	 18.197631 
513.000000	 18.060493 
512.000000	 17.956185 
511.000000	 17.890834 
510.000000	 17.862820 
509.000000	 17.864513 
508.000000	 17.883682 
507.000000	 17.907285 
506.000000	 17.923092 
505.000000	 17.921876 
504.000000	 17.898249 
503.000000	 17.850279 
502.000000	 17.779803 
501.000000	 17.691135 
500.000000	 17.590188 
499.000000	 17.483019 
498.000000	 17.375516 
497.000000	 17.272567 
496.000000	 17.177033 
495.000000	 17.089891 
494.000000	 17.010879 
493.000000	 16.939330 
492.000000	 16.873717 
491.000000	 16.813325 
490.000000	 16.759037 
489.000000	 16.712856 
488.000000	 16.677093 
487.000000	 16.652941 
486.000000	 16.639637 
485.000000	 16.632986 
484.000000	 16.626143 
483.000000	 16.609859 
482.000000	 16.573619 
481.000000	 16.509318 
480.000000	 16.413354 
479.000000	 16.288757 
478.000000	 16.144967 
477.000000	 15.996813 
476.000000	 15.861558 
475.000000	 15.755224 
474.000000	 15.688657 
473.000000	 15.665173 
472.000000	 15.679454 
471.000000	 15.718555 
470.000000	 15.764570 
469.000000	 15.798640 
468.000000	 15.804481 
467.000000	 15.770125 
466.000000	 15.690588 
465.000000	 15.568566 
464.000000	 15.414214 
463.000000	 15.239453 
462.000000	 15.058875 
461.000000	 14.889097 
460.000000	 14.745640 
459.000000	 14.640164 
458.000000	 14.579296 
457.000000	 14.564681 
456.000000	 14.591765 
455.000000	 14.651441 
454.000000	 14.730286 
453.000000	 14.810705 
452.000000	 14.876914 
451.000000	 14.917278 
450.000000	 14.926218 
449.000000	 14.903712 
448.000000	 14.856100 
447.000000	 14.793753 
446.000000	 14.727830 
445.000000	 14.668011 
444.000000	 14.617848 
443.000000	 14.576983 
442.000000	 14.541959 
441.000000	 14.512991 
440.000000	 14.498829 
439.000000	 14.520478 
438.000000	 14.605116 
437.000000	 14.782071 
436.000000	 15.079712 
435.000000	 15.510201 
434.000000	 16.058611 
433.000000	 16.680431 
432.000000	 17.313718 
431.000000	 17.879891 
430.000000	 18.305706 
429.000000	 18.527126 
428.000000	 18.501639 
427.000000	 18.217778 
426.000000	 17.704701 
425.000000	 17.018938 
424.000000	 16.231465 
423.000000	 15.424513 
422.000000	 14.682364 
421.000000	 14.074420 
420.000000	 13.647127 
419.000000	 13.422012 
418.000000	 13.395309 
417.000000	 13.542580 
416.000000	 13.820862 
415.000000	 14.175271 
414.000000	 14.538288 
413.000000	 14.833164 
412.000000	 14.975452 
411.000000	 14.883708 
410.000000	 14.489650 
409.000000	 13.740539 
408.000000	 12.626385 
407.000000	 11.186695 
406.000000	 9.527683  
405.000000	 7.795691  
404.000000	 6.188678  
403.000000	 4.900646  
402.000000	 4.129362  
401.000000	 4.040956  
400.000000	 4.738712  
399.000000	 6.224203  
398.000000	 8.401966  
397.000000	 11.086559 
396.000000	 14.019155 
395.000000	 16.896653 
394.000000	 19.436478 
393.000000	 21.418881 
392.000000	 22.713756 
391.000000	 23.296308 
390.000000	 23.215866 
389.000000	 22.575044 
388.000000	 21.570920 
387.000000	 20.451068 
386.000000	 19.400596 
385.000000	 18.551874 
384.000000	 18.030571 
383.000000	 17.941498 
382.000000	 18.374752 
381.000000	 19.358110 
380.000000	 20.982050 
379.000000	 23.194766 
378.000000	 25.683522 
377.000000	 27.979183 
376.000000	 29.499650 
375.000000	 29.760932 
374.000000	 28.558111 
373.000000	 25.979232 
372.000000	 22.522759 
371.000000	 18.735241 
370.000000	 15.034604 

