PE IR       SPECTRUM    SPECTRUM    ASCII       PEDS        1.60        
  -1
C-9A6E~1.ASC
17/03/27
16:38:40.00
17/03/27
16:38:40.00
tln
$C-4040-8_t0026$<tbV0>[5.2,-7.8,8.0,0.0,27,1,0]
370.000000
64









2002,4.07    
MIRTGS : RIGHTBACK : INTERNAL 2
MIR : ON : INTERNAL 2
OPTKBR

0.200000
8
8.000000
FILLER
RATIO
SPECTRUM
UNLOCKED 256

DOUBLE
64
COMBINED
1
0
0


1.000000
RATIO


1
0
TRUE
51149
0
LEFT NOT FITTED RIGHT NOT FITTED 0
NONE
NONE
15600
12.000000
4.427000
51148
TRUE
1 0 8 72 0 0 0 0 

15798.010000






#HDR
-1
-1
#GR
CM-1
%T
0.00002384185791015625
0.0
5000.000000
-1.000000
4631
8
74.595355
-5.959939
#DATA
5000.000000	63.196897 
4999.000000	63.205909 
4998.000000	63.209295 
4997.000000	63.203215 
4996.000000	63.188028 
4995.000000	63.167405 
4994.000000	63.147664 
4993.000000	63.135313 
4992.000000	63.135337 
4991.000000	63.149333 
4990.000000	63.175106 
4989.000000	63.207364 
4988.000000	63.238549 
4987.000000	63.261008 
4986.000000	63.268756 
4985.000000	63.259220 
4984.000000	63.234400 
4983.000000	63.200521 
4982.000000	63.167095 
4981.000000	63.144421 
4980.000000	63.141489 
4979.000000	63.163495 
4978.000000	63.210177 
4977.000000	63.275718 
4976.000000	63.350725 
4975.000000	63.424086 
4974.000000	63.485288 
4973.000000	63.527274 
4972.000000	63.546776 
4971.000000	63.545727 
4970.000000	63.529706 
4969.000000	63.506841 
4968.000000	63.485193 
4967.000000	63.471317 
4966.000000	63.469147 
4965.000000	63.479256 
4964.000000	63.499855 
4963.000000	63.527393 
4962.000000	63.558316 
4961.000000	63.589549 
4960.000000	63.619327 
4959.000000	63.647031 
4958.000000	63.672661 
4957.000000	63.696002 
4956.000000	63.715767 
4955.000000	63.729238 
4954.000000	63.732266 
4953.000000	63.719797 
4952.000000	63.687300 
4951.000000	63.631820 
4950.000000	63.553833 
4949.000000	63.457441 
4948.000000	63.350915 
4947.000000	63.245391 
4946.000000	63.153147 
4945.000000	63.085508 
4944.000000	63.050460 
4943.000000	63.050460 
4942.000000	63.082385 
4941.000000	63.138341 
4940.000000	63.207459 
4939.000000	63.277268 
4938.000000	63.337230 
4937.000000	63.380074 
4936.000000	63.403439 
4935.000000	63.409209 
4934.000000	63.402891 
4933.000000	63.391208 
4932.000000	63.380646 
4931.000000	63.375687 
4930.000000	63.377737 
4929.000000	63.385033 
4928.000000	63.393974 
4927.000000	63.400459 
4926.000000	63.401365 
4925.000000	63.395619 
4924.000000	63.384532 
4923.000000	63.371396 
4922.000000	63.360404 
4921.000000	63.355088 
4920.000000	63.357305 
4919.000000	63.366055 
4918.000000	63.378214 
4917.000000	63.388633 
4916.000000	63.392305 
4915.000000	63.385128 
4914.000000	63.365149 
4913.000000	63.333249 
4912.000000	63.292741 
4911.000000	63.249278 
4910.000000	63.209295 
4909.000000	63.179278 
4908.000000	63.163638 
4907.000000	63.165378 
4906.000000	63.185667 
4905.000000	63.223743 
4904.000000	63.277149 
4903.000000	63.342356 
4902.000000	63.414907 
4901.000000	63.489675 
4900.000000	63.560986 
4899.000000	63.622736 
4898.000000	63.668799 
4897.000000	63.694381 
4896.000000	63.696479 
4895.000000	63.674330 
4894.000000	63.629746 
4893.000000	63.567948 
4892.000000	63.495898 
4891.000000	63.421940 
4890.000000	63.352942 
4889.000000	63.294672 
4888.000000	63.249182 
4887.000000	63.215351 
4886.000000	63.188886 
4885.000000	63.163924 
4884.000000	63.134551 
4883.000000	63.096714 
4882.000000	63.049387 
4881.000000	62.994503 
4880.000000	62.936782 
4879.000000	62.881970 
4878.000000	62.835574 
4877.000000	62.801265 
4876.000000	62.780642 
4875.000000	62.773108 
4874.000000	62.777042 
4873.000000	62.790822 
4872.000000	62.814569 
4871.000000	62.850499 
4870.000000	62.901902 
4869.000000	62.972092 
4868.000000	63.062644 
4867.000000	63.171815 
4866.000000	63.293480 
4865.000000	63.417506 
4864.000000	63.531231 
4863.000000	63.621640 
4862.000000	63.679099 
4861.000000	63.698244 
4860.000000	63.679671 
4859.000000	63.629412 
4858.000000	63.558363 
4857.000000	63.479161 
4856.000000	63.403677 
4855.000000	63.341045 
4854.000000	63.296818 
4853.000000	63.272428 
4852.000000	63.266134 
4851.000000	63.273906 
4850.000000	63.291430 
4849.000000	63.314151 
4848.000000	63.338279 
4847.000000	63.360500 
4846.000000	63.377928 
4845.000000	63.388276 
4844.000000	63.389992 
4843.000000	63.382077 
4842.000000	63.364911 
4841.000000	63.341045 
4840.000000	63.314628 
4839.000000	63.290596 
4838.000000	63.273835 
4837.000000	63.268709 
4836.000000	63.277506 
4835.000000	63.299775 
4834.000000	63.332509 
4833.000000	63.371348 
4832.000000	63.410854 
4831.000000	63.445830 
4830.000000	63.472247 
4829.000000	63.487696 
4828.000000	63.491749 
4827.000000	63.485360 
4826.000000	63.470554 
4825.000000	63.449788 
4824.000000	63.425707 
4823.000000	63.401055 
4822.000000	63.377499 
4821.000000	63.355469 
4820.000000	63.334250 
4819.000000	63.312149 
4818.000000	63.286447 
4817.000000	63.254165 
4816.000000	63.212466 
4815.000000	63.159489 
4814.000000	63.094735 
4813.000000	63.019800 
4812.000000	62.937974 
4811.000000	62.854552 
4810.000000	62.775659 
4809.000000	62.707734 
4808.000000	62.655806 
4807.000000	62.622880 
4806.000000	62.609219 
4805.000000	62.612414 
4804.000000	62.627363 
4803.000000	62.648272 
4802.000000	62.669205 
4801.000000	62.686157 
4800.000000	62.697148 
4799.000000	62.703561 
4798.000000	62.708973 
4797.000000	62.718176 
4796.000000	62.735486 
4795.000000	62.762975 
4794.000000	62.799620 
4793.000000	62.841343 
4792.000000	62.882161 
4791.000000	62.915849 
4790.000000	62.937712 
4789.000000	62.946629 
4788.000000	62.944650 
4787.000000	62.936091 
4786.000000	62.925672 
4785.000000	62.917375 
4784.000000	62.912631 
4783.000000	62.909841 
4782.000000	62.905216 
4781.000000	62.894415 
4780.000000	62.874245 
4779.000000	62.843871 
4778.000000	62.805700 
4777.000000	62.765336 
4776.000000	62.730073 
4775.000000	62.706732 
4774.000000	62.700152 
4773.000000	62.711572 
4772.000000	62.738633 
4771.000000	62.775897 
4770.000000	62.816166 
4769.000000	62.852311 
4768.000000	62.878823 
4767.000000	62.892985 
4766.000000	62.895107 
4765.000000	62.888121 
4764.000000	62.877297 
4763.000000	62.868571 
4762.000000	62.867498 
4761.000000	62.877702 
4760.000000	62.900519 
4759.000000	62.934279 
4758.000000	62.974786 
4757.000000	63.016295 
4756.000000	63.052535 
4755.000000	63.078737 
4754.000000	63.092136 
4753.000000	63.092994 
4752.000000	63.083767 
4751.000000	63.068985 
4750.000000	63.053870 
4749.000000	63.043117 
4748.000000	63.039922 
4747.000000	63.045263 
4746.000000	63.058066 
4745.000000	63.075542 
4744.000000	63.094425 
4743.000000	63.111519 
4742.000000	63.124895 
4741.000000	63.133716 
4740.000000	63.138365 
4739.000000	63.139438 
4738.000000	63.137388 
4737.000000	63.132047 
4736.000000	63.122653 
4735.000000	63.107919 
4734.000000	63.086652 
4733.000000	63.058781 
4732.000000	63.025760 
4731.000000	62.990713 
4730.000000	62.958192 
4729.000000	62.933540 
4728.000000	62.921547 
4727.000000	62.925243 
4726.000000	62.944936 
4725.000000	62.977814 
4724.000000	63.018250 
4723.000000	63.058805 
4722.000000	63.091897 
4721.000000	63.111591 
4720.000000	63.114643 
4719.000000	63.101220 
4718.000000	63.074445 
4717.000000	63.039493 
4716.000000	63.002181 
4715.000000	62.967824 
4714.000000	62.940073 
4713.000000	62.920498 
4712.000000	62.908911 
4711.000000	62.903547 
4710.000000	62.902045 
4709.000000	62.901878 
4708.000000	62.900900 
4707.000000	62.897706 
4706.000000	62.890934 
4705.000000	62.880086 
4704.000000	62.864828 
4703.000000	62.845826 
4702.000000	62.824416 
4701.000000	62.802791 
4700.000000	62.783932 
4699.000000	62.770342 
4698.000000	62.763476 
4697.000000	62.762975 
4696.000000	62.766981 
4695.000000	62.772321 
4694.000000	62.775349 
4693.000000	62.773394 
4692.000000	62.765383 
4691.000000	62.752246 
4690.000000	62.736558 
4689.000000	62.721395 
4688.000000	62.709617 
4687.000000	62.702631 
4686.000000	62.700200 
4685.000000	62.700557 
4684.000000	62.701320 
4683.000000	62.700915 
4682.000000	62.699294 
4681.000000	62.698030 
4680.000000	62.699937 
4679.000000	62.707948 
4678.000000	62.723970 
4677.000000	62.747383 
4676.000000	62.775540 
4675.000000	62.804198 
4674.000000	62.829089 
4673.000000	62.847447 
4672.000000	62.858819 
4671.000000	62.865161 
4670.000000	62.870264 
4669.000000	62.878799 
4668.000000	62.894749 
4667.000000	62.920069 
4666.000000	62.954282 
4665.000000	62.994647 
4664.000000	63.036894 
4663.000000	63.076353 
4662.000000	63.108968 
4661.000000	63.132309 
4660.000000	63.145065 
4659.000000	63.146662 
4658.000000	63.136744 
4657.000000	63.114690 
4656.000000	63.079667 
4655.000000	63.030815 
4654.000000	62.968134 
4653.000000	62.892889 
4652.000000	62.808585 
4651.000000	62.720870 
4650.000000	62.636756 
4649.000000	62.564015 
4648.000000	62.509727 
4647.000000	62.479710 
4646.000000	62.476730 
4645.000000	62.500524 
4644.000000	62.547326 
4643.000000	62.610673 
4642.000000	62.682008 
4641.000000	62.752580 
4640.000000	62.814283 
4639.000000	62.861680 
4638.000000	62.891888 
4637.000000	62.906169 
4636.000000	62.908816 
4635.000000	62.906551 
4634.000000	62.906432 
4633.000000	62.914299 
4632.000000	62.933135 
4631.000000	62.961959 
4630.000000	62.995958 
4629.000000	63.027381 
4628.000000	63.047385 
4627.000000	63.048315 
4626.000000	63.025665 
4625.000000	62.978982 
4624.000000	62.912654 
4623.000000	62.835121 
4622.000000	62.757325 
4621.000000	62.690162 
4620.000000	62.642741 
4619.000000	62.620830 
4618.000000	62.626242 
4617.000000	62.656736 
4616.000000	62.706708 
4615.000000	62.768578 
4614.000000	62.834000 
4613.000000	62.895321 
4612.000000	62.946343 
4611.000000	62.982368 
4610.000000	63.001227 
4609.000000	63.003158 
4608.000000	62.990331 
4607.000000	62.966251 
4606.000000	62.934970 
4605.000000	62.900567 
4604.000000	62.866497 
4603.000000	62.835526 
4602.000000	62.809562 
4601.000000	62.790036 
4600.000000	62.778162 
4599.000000	62.775206 
4598.000000	62.782740 
4597.000000	62.802147 
4596.000000	62.834262 
4595.000000	62.878155 
4594.000000	62.931060 
4593.000000	62.987613 
4592.000000	63.040804 
4591.000000	63.082480 
4590.000000	63.104963 
4589.000000	63.102507 
4588.000000	63.073039 
4587.000000	63.018465 
4586.000000	62.944412 
4585.000000	62.859725 
4584.000000	62.774872 
4583.000000	62.700629 
4582.000000	62.646341 
4581.000000	62.618446 
4580.000000	62.619662 
4579.000000	62.648487 
4578.000000	62.699627 
4577.000000	62.764668 
4576.000000	62.833690 
4575.000000	62.896752 
4574.000000	62.945961 
4573.000000	62.976121 
4572.000000	62.985968 
4571.000000	62.977743 
4570.000000	62.956476 
4569.000000	62.928652 
4568.000000	62.900543 
4567.000000	62.877106 
4566.000000	62.860774 
4565.000000	62.851595 
4564.000000	62.847709 
4563.000000	62.846875 
4562.000000	62.847280 
4561.000000	62.848210 
4560.000000	62.850689 
4559.000000	62.856721 
4558.000000	62.868905 
4557.000000	62.889075 
4556.000000	62.917590 
4555.000000	62.952566 
4554.000000	62.990641 
4553.000000	63.027691 
4552.000000	63.059353 
4551.000000	63.081789 
4550.000000	63.092756 
4549.000000	63.091874 
4548.000000	63.080382 
4547.000000	63.060569 
4546.000000	63.035297 
4545.000000	63.007068 
4544.000000	62.978363 
4543.000000	62.950897 
4542.000000	62.925577 
4541.000000	62.902331 
4540.000000	62.880587 
4539.000000	62.859487 
4538.000000	62.837409 
4537.000000	62.813687 
4536.000000	62.788033 
4535.000000	62.762308 
4534.000000	62.739348 
4533.000000	62.724208 
4532.000000	62.722444 
4531.000000	62.739706 
4530.000000	62.779784 
4529.000000	62.843751 
4528.000000	62.928771 
4527.000000	63.028240 
4526.000000	63.132786 
4525.000000	63.231372 
4524.000000	63.313293 
4523.000000	63.370347 
4522.000000	63.398051 
4521.000000	63.396525 
4520.000000	63.369727 
4519.000000	63.324737 
4518.000000	63.269352 
4517.000000	63.210749 
4516.000000	63.153147 
4515.000000	63.098812 
4514.000000	63.047146 
4513.000000	62.996530 
4512.000000	62.944936 
4511.000000	62.891554 
4510.000000	62.837553 
4509.000000	62.785649 
4508.000000	62.740445 
4507.000000	62.706041 
4506.000000	62.686800 
4505.000000	62.685346 
4504.000000	62.703108 
4503.000000	62.739086 
4502.000000	62.791299 
4501.000000	62.856984 
4500.000000	62.932276 
4499.000000	63.012456 
4498.000000	63.092041 
4497.000000	63.165163 
4496.000000	63.225936 
4495.000000	63.269686 
4494.000000	63.294768 
4493.000000	63.303089 
4492.000000	63.300585 
4491.000000	63.295221 
4490.000000	63.295054 
4489.000000	63.305425 
4488.000000	63.328051 
4487.000000	63.359832 
4486.000000	63.393974 
4485.000000	63.421511 
4484.000000	63.435268 
4483.000000	63.430523 
4482.000000	63.406896 
4481.000000	63.367557 
4480.000000	63.319039 
4479.000000	63.268041 
4478.000000	63.219738 
4477.000000	63.176250 
4476.000000	63.136529 
4475.000000	63.097333 
4474.000000	63.055133 
4473.000000	63.007473 
4472.000000	62.954425 
4471.000000	62.898302 
4470.000000	62.843513 
4469.000000	62.794780 
4468.000000	62.756681 
4467.000000	62.733697 
4466.000000	62.729716 
4465.000000	62.747859 
4464.000000	62.789630 
4463.000000	62.854552 
4462.000000	62.939214 
4461.000000	63.036775 
4460.000000	63.138079 
4459.000000	63.232803 
4458.000000	63.311791 
4457.000000	63.368821 
4456.000000	63.401603 
4455.000000	63.412427 
4454.000000	63.406348 
4453.000000	63.390493 
4452.000000	63.370966 
4451.000000	63.352108 
4450.000000	63.334798 
4449.000000	63.317775 
4448.000000	63.297843 
4447.000000	63.272118 
4446.000000	63.239574 
4445.000000	63.202619 
4444.000000	63.166356 
4443.000000	63.137626 
4442.000000	63.122820 
4441.000000	63.125681 
4440.000000	63.146042 
4439.000000	63.179492 
4438.000000	63.218712 
4437.000000	63.255262 
4436.000000	63.281679 
4435.000000	63.293433 
4434.000000	63.290381 
4433.000000	63.275766 
4432.000000	63.254833 
4431.000000	63.232707 
4430.000000	63.212609 
4429.000000	63.195180 
4428.000000	63.178253 
4427.000000	63.158774 
4426.000000	63.134908 
4425.000000	63.106942 
4424.000000	63.077902 
4423.000000	63.052868 
4422.000000	63.037490 
4421.000000	63.035964 
4420.000000	63.050127 
4419.000000	63.076567 
4418.000000	63.107061 
4417.000000	63.130807 
4416.000000	63.137817 
4415.000000	63.120436 
4414.000000	63.075780 
4413.000000	63.011932 
4412.000000	62.945914 
4411.000000	62.893414 
4410.000000	62.866616 
4409.000000	62.878060 
4408.000000	62.934136 
4407.000000	63.028240 
4406.000000	63.145732 
4405.000000	63.267135 
4404.000000	63.375735 
4403.000000	63.461828 
4402.000000	63.527321 
4401.000000	63.582062 
4400.000000	63.642454 
4399.000000	63.737916 
4398.000000	63.882589 
4397.000000	64.062023 
4396.000000	64.242005 
4395.000000	64.377689 
4394.000000	64.425420 
4393.000000	64.356493 
4392.000000	64.168810 
4391.000000	63.890814 
4390.000000	63.560318 
4389.000000	63.210201 
4388.000000	62.845373 
4387.000000	62.434053 
4386.000000	61.911010 
4385.000000	61.192512 
4384.000000	60.203194 
4383.000000	58.902978 
4382.000000	57.299971 
4381.000000	55.472850 
4380.000000	53.541588 
4379.000000	51.685166 
4378.000000	50.091195 
4377.000000	48.964333 
4376.000000	48.460292 
4375.000000	48.703002 
4374.000000	49.742913 
4373.000000	51.570296 
4372.000000	54.091811 
4371.000000	57.154321 
4370.000000	60.552787 
4369.000000	64.045548 
4368.000000	67.374873 
4367.000000	70.286870 
4366.000000	72.556161 
4365.000000	74.018907 
4364.000000	74.595355 
4363.000000	74.315094 
4362.000000	73.312687 
4361.000000	71.818470 
4360.000000	70.112681 
4359.000000	68.465495 
4358.000000	67.082357 
4357.000000	66.077661 
4356.000000	65.460014 
4355.000000	65.157222 
4354.000000	65.045976 
4353.000000	65.008807 
4352.000000	64.959430 
4351.000000	64.852070 
4350.000000	64.692544 
4349.000000	64.503240 
4348.000000	64.327120 
4347.000000	64.189076 
4346.000000	64.103746 
4345.000000	64.065766 
4344.000000	64.056658 
4343.000000	64.055442 
4342.000000	64.041209 
4341.000000	63.998699 
4340.000000	63.925051 
4339.000000	63.833904 
4338.000000	63.738608 
4337.000000	63.643097 
4336.000000	63.552355 
4335.000000	63.471746 
4334.000000	63.401269 
4333.000000	63.337612 
4332.000000	63.281369 
4331.000000	63.236522 
4330.000000	63.209319 
4329.000000	63.206386 
4328.000000	63.226222 
4327.000000	63.261914 
4326.000000	63.306975 
4325.000000	63.354516 
4324.000000	63.394975 
4323.000000	63.420796 
4322.000000	63.429450 
4321.000000	63.421893 
4320.000000	63.402009 
4319.000000	63.373994 
4318.000000	63.341379 
4317.000000	63.304471 
4316.000000	63.260269 
4315.000000	63.203835 
4314.000000	63.131666 
4313.000000	63.042068 
4312.000000	62.936878 
4311.000000	62.821865 
4310.000000	62.706041 
4309.000000	62.600135 
4308.000000	62.514352 
4307.000000	62.456583 
4306.000000	62.430810 
4305.000000	62.436413 
4304.000000	62.468409 
4303.000000	62.518477 
4302.000000	62.577033 
4301.000000	62.633609 
4300.000000	62.679934 
4299.000000	62.709760 
4298.000000	62.721443 
4297.000000	62.716889 
4296.000000	62.702178 
4295.000000	62.685799 
4294.000000	62.676763 
4293.000000	62.682795 
4292.000000	62.707972 
4291.000000	62.751889 
4290.000000	62.809658 
4289.000000	62.873721 
4288.000000	62.935256 
4287.000000	62.986612 
4286.000000	63.022780 
4285.000000	63.042473 
4284.000000	63.047742 
4283.000000	63.043045 
4282.000000	63.033390 
4281.000000	63.022637 
4280.000000	63.012647 
4279.000000	63.003087 
4278.000000	62.991833 
4277.000000	62.976074 
4276.000000	62.954258 
4275.000000	62.927198 
4274.000000	62.897825 
4273.000000	62.871003 
4272.000000	62.851929 
4271.000000	62.845134 
4270.000000	62.853002 
4269.000000	62.874770 
4268.000000	62.906599 
4267.000000	62.941789 
4266.000000	62.972736 
4265.000000	62.991762 
4264.000000	62.993216 
4263.000000	62.974095 
4262.000000	62.934494 
4261.000000	62.877607 
4260.000000	62.808918 
4259.000000	62.734770 
4258.000000	62.661504 
4257.000000	62.594175 
4256.000000	62.536096 
4255.000000	62.488889 
4254.000000	62.453031 
4253.000000	62.427997 
4252.000000	62.413215 
4251.000000	62.408041 
4250.000000	62.412071 
4249.000000	62.424874 
4248.000000	62.445759 
4247.000000	62.473082 
4246.000000	62.504363 
4245.000000	62.535977 
4244.000000	62.563991 
4243.000000	62.584424 
4242.000000	62.594628 
4241.000000	62.593173 
4240.000000	62.581443 
4239.000000	62.562656 
4238.000000	62.541961 
4237.000000	62.525343 
4236.000000	62.518167 
4235.000000	62.524342 
4234.000000	62.545108 
4233.000000	62.578845 
4232.000000	62.621378 
4231.000000	62.667107 
4230.000000	62.710118 
4229.000000	62.745499 
4228.000000	62.770199 
4227.000000	62.783503 
4226.000000	62.786960 
4225.000000	62.783622 
4224.000000	62.777090 
4223.000000	62.770295 
4222.000000	62.765121 
4221.000000	62.761473 
4220.000000	62.758255 
4219.000000	62.753057 
4218.000000	62.743711 
4217.000000	62.728476 
4216.000000	62.706804 
4215.000000	62.679266 
4214.000000	62.647652 
4213.000000	62.614417 
4212.000000	62.582397 
4211.000000	62.553739 
4210.000000	62.530112 
4209.000000	62.511348 
4208.000000	62.496161 
4207.000000	62.481880 
4206.000000	62.465476 
4205.000000	62.443995 
4204.000000	62.415432 
4203.000000	62.379240 
4202.000000	62.336397 
4201.000000	62.289333 
4200.000000	62.241172 
4199.000000	62.195038 
4198.000000	62.153053 
4197.000000	62.116456 
4196.000000	62.085318 
4195.000000	62.058520 
4194.000000	62.034749 
4193.000000	62.013244 
4192.000000	61.994194 
4191.000000	61.978411 
4190.000000	61.967587 
4189.000000	61.963009 
4188.000000	61.965870 
4187.000000	61.975741 
4186.000000	61.991667 
4185.000000	62.011885 
4184.000000	62.034726 
4183.000000	62.059164 
4182.000000	62.084770 
4181.000000	62.111377 
4180.000000	62.139129 
4179.000000	62.168264 
4178.000000	62.198138 
4177.000000	62.226939 
4176.000000	62.252473 
4175.000000	62.272620 
4174.000000	62.285685 
4173.000000	62.290740 
4172.000000	62.288022 
4171.000000	62.278437 
4170.000000	62.262463 
4169.000000	62.239646 
4168.000000	62.208580 
4167.000000	62.167501 
4166.000000	62.115025 
4165.000000	62.051177 
4164.000000	61.978363 
4163.000000	61.901283 
4162.000000	61.826229 
4161.000000	61.760187 
4160.000000	61.708450 
4159.000000	61.675047 
4158.000000	61.661434 
4157.000000	61.667442 
4156.000000	61.690902 
4155.000000	61.729311 
4154.000000	61.779880 
4153.000000	61.840343 
4152.000000	61.908221 
4151.000000	61.981248 
4150.000000	62.056422 
4149.000000	62.130212 
4148.000000	62.198233 
4147.000000	62.256097 
4146.000000	62.299990 
4145.000000	62.327551 
4144.000000	62.338256 
4143.000000	62.333774 
4142.000000	62.317013 
4141.000000	62.292027 
4140.000000	62.262463 
4139.000000	62.230944 
4138.000000	62.198209 
4137.000000	62.163949 
4136.000000	62.126636 
4135.000000	62.084722 
4134.000000	62.037253 
4133.000000	61.984658 
4132.000000	61.929345 
4131.000000	61.874628 
4130.000000	61.825132 
4129.000000	61.784934 
4128.000000	61.757922 
4127.000000	61.746239 
4126.000000	61.750745 
4125.000000	61.770272 
4124.000000	61.802411 
4123.000000	61.843848 
4122.000000	61.890435 
4121.000000	61.937570 
4120.000000	61.981058 
4119.000000	62.017512 
4118.000000	62.044262 
4117.000000	62.059187 
4116.000000	62.061667 
4115.000000	62.052178 
4114.000000	62.032270 
4113.000000	62.004399 
4112.000000	61.971855 
4111.000000	61.938071 
4110.000000	61.906719 
4109.000000	61.880230 
4108.000000	61.860132 
4107.000000	61.846137 
4106.000000	61.836838 
4105.000000	61.829686 
4104.000000	61.821532 
4103.000000	61.809873 
4102.000000	61.793279 
4101.000000	61.772465 
4100.000000	61.749768 
4099.000000	61.728882 
4098.000000	61.713933 
4097.000000	61.707758 
4096.000000	61.710691 
4095.000000	61.720395 
4094.000000	61.732149 
4093.000000	61.740040 
4092.000000	61.738491 
4091.000000	61.723995 
4090.000000	61.696004 
4089.000000	61.657309 
4088.000000	61.613202 
4087.000000	61.569929 
4086.000000	61.533021 
4085.000000	61.506080 
4084.000000	61.490249 
4083.000000	61.484026 
4082.000000	61.484646 
4081.000000	61.489200 
4080.000000	61.495614 
4079.000000	61.503458 
4078.000000	61.513733 
4077.000000	61.527562 
4076.000000	61.546230 
4075.000000	61.569213 
4074.000000	61.595129 
4073.000000	61.621260 
4072.000000	61.645197 
4071.000000	61.665344 
4070.000000	61.681723 
4069.000000	61.695909 
4068.000000	61.710453 
4067.000000	61.727952 
4066.000000	61.749768 
4065.000000	61.775350 
4064.000000	61.802053 
4063.000000	61.825823 
4062.000000	61.842393 
4061.000000	61.848282 
4060.000000	61.842155 
4059.000000	61.825060 
4058.000000	61.800074 
4057.000000	61.771178 
4056.000000	61.742377 
4055.000000	61.716580 
4054.000000	61.694765 
4053.000000	61.676144 
4052.000000	61.659049 
4051.000000	61.641788 
4050.000000	61.623549 
4049.000000	61.604881 
4048.000000	61.587548 
4047.000000	61.574172 
4046.000000	61.567282 
4045.000000	61.568403 
4044.000000	61.577200 
4043.000000	61.591815 
4042.000000	61.609196 
4041.000000	61.625862 
4040.000000	61.638498 
4039.000000	61.644911 
4038.000000	61.644530 
4037.000000	61.637830 
4036.000000	61.626172 
4035.000000	61.611437 
4034.000000	61.595344 
4033.000000	61.579418 
4032.000000	61.564755 
4031.000000	61.552143 
4030.000000	61.542344 
4029.000000	61.536240 
4028.000000	61.534500 
4027.000000	61.537313 
4026.000000	61.544513 
4025.000000	61.555385 
4024.000000	61.568927 
4023.000000	61.583781 
4022.000000	61.598467 
4021.000000	61.612200 
4020.000000	61.624002 
4019.000000	61.633014 
4018.000000	61.637616 
4017.000000	61.636066 
4016.000000	61.626219 
4015.000000	61.605978 
4014.000000	61.574149 
4013.000000	61.530947 
4012.000000	61.478352 
4011.000000	61.420154 
4010.000000	61.361479 
4009.000000	61.308193 
4008.000000	61.265563 
4007.000000	61.237525 
4006.000000	61.225843 
4005.000000	61.230230 
4004.000000	61.248421 
4003.000000	61.277413 
4002.000000	61.313772 
4001.000000	61.354684 
4000.000000	61.397957 
3999.000000	61.442613 
3998.000000	61.487770 
3997.000000	61.532783 
3996.000000	61.576890 
3995.000000	61.618804 
3994.000000	61.656641 
3993.000000	61.688113 
3992.000000	61.711025 
3991.000000	61.723589 
3990.000000	61.724996 
3989.000000	61.715960 
3988.000000	61.698794 
3987.000000	61.677312 
3986.000000	61.656403 
3985.000000	61.641192 
3984.000000	61.636185 
3983.000000	61.644268 
3982.000000	61.666131 
3981.000000	61.699843 
3980.000000	61.741018 
3979.000000	61.783504 
3978.000000	61.820602 
3977.000000	61.846327 
3976.000000	61.856341 
3975.000000	61.849045 
3974.000000	61.825370 
3973.000000	61.788463 
3972.000000	61.742591 
3971.000000	61.692261 
3970.000000	61.641263 
3969.000000	61.592650 
3968.000000	61.548209 
3967.000000	61.508750 
3966.000000	61.474418 
3965.000000	61.445307 
3964.000000	61.421632 
3963.000000	61.403560 
3962.000000	61.391544 
3961.000000	61.386013 
3960.000000	61.387062 
3959.000000	61.393833 
3958.000000	61.404705 
3957.000000	61.417341 
3956.000000	61.428928 
3955.000000	61.436748 
3954.000000	61.438703 
3953.000000	61.433792 
3952.000000	61.422371 
3951.000000	61.406135 
3950.000000	61.387896 
3949.000000	61.370706 
3948.000000	61.357283 
3947.000000	61.349034 
3946.000000	61.346101 
3945.000000	61.347007 
3944.000000	61.349320 
3943.000000	61.350512 
3942.000000	61.348748 
3941.000000	61.343550 
3940.000000	61.336183 
3939.000000	61.328673 
3938.000000	61.322975 
3937.000000	61.320328 
3936.000000	61.320662 
3935.000000	61.322331 
3934.000000	61.322712 
3933.000000	61.319160 
3932.000000	61.309957 
3931.000000	61.294984 
3930.000000	61.275768 
3929.000000	61.255264 
3928.000000	61.236834 
3927.000000	61.223149 
3926.000000	61.215424 
3925.000000	61.213016 
3924.000000	61.213612 
3923.000000	61.214113 
3922.000000	61.211442 
3921.000000	61.203861 
3920.000000	61.191034 
3919.000000	61.174178 
3918.000000	61.155843 
3917.000000	61.138510 
3916.000000	61.124849 
3915.000000	61.116433 
3914.000000	61.114239 
3913.000000	61.118221 
3912.000000	61.127948 
3911.000000	61.142635 
3910.000000	61.161470 
3909.000000	61.183524 
3908.000000	61.207771 
3907.000000	61.232757 
3906.000000	61.256861 
3905.000000	61.278152 
3904.000000	61.295008 
3903.000000	61.306309 
3902.000000	61.311721 
3901.000000	61.311841 
3900.000000	61.308288 
3899.000000	61.303520 
3898.000000	61.299967 
3897.000000	61.299562 
3896.000000	61.303520 
3895.000000	61.311769 
3894.000000	61.323475 
3893.000000	61.336946 
3892.000000	61.350154 
3891.000000	61.361336 
3890.000000	61.369132 
3889.000000	61.373209 
3888.000000	61.374092 
3887.000000	61.373376 
3886.000000	61.373090 
3885.000000	61.375689 
3884.000000	61.383414 
3883.000000	61.397838 
3882.000000	61.419439 
3881.000000	61.447143 
3880.000000	61.478590 
3879.000000	61.509656 
3878.000000	61.535310 
3877.000000	61.550068 
3876.000000	61.549019 
3875.000000	61.528706 
3874.000000	61.488175 
3873.000000	61.429452 
3872.000000	61.357569 
3871.000000	61.279845 
3870.000000	61.204767 
3869.000000	61.140537 
3868.000000	61.093568 
3867.000000	61.067271 
3866.000000	61.061644 
3865.000000	61.073589 
3864.000000	61.097764 
3863.000000	61.127567 
3862.000000	61.156940 
3861.000000	61.180853 
3860.000000	61.196494 
3859.000000	61.202645 
3858.000000	61.199736 
3857.000000	61.188769 
3856.000000	61.171221 
3855.000000	61.148428 
3854.000000	61.121726 
3853.000000	61.092686 
3852.000000	61.063385 
3851.000000	61.036634 
3850.000000	61.015534 
3849.000000	61.003065 
3848.000000	61.001253 
3847.000000	61.010599 
3846.000000	61.029624 
3845.000000	61.054992 
3844.000000	61.081957 
3843.000000	61.105465 
3842.000000	61.121106 
3841.000000	61.126089 
3840.000000	61.119723 
3839.000000	61.103796 
3838.000000	61.081743 
3837.000000	61.058378 
3836.000000	61.038589 
3835.000000	61.026716 
3834.000000	61.025953 
3833.000000	61.037778 
3832.000000	61.062169 
3831.000000	61.097264 
3830.000000	61.139941 
3829.000000	61.186027 
3828.000000	61.230874 
3827.000000	61.269998 
3826.000000	61.299490 
3825.000000	61.316776 
3824.000000	61.320924 
3823.000000	61.312842 
3822.000000	61.294746 
3821.000000	61.270260 
3820.000000	61.243271 
3819.000000	61.217474 
3818.000000	61.195182 
3817.000000	61.177372 
3816.000000	61.163187 
3815.000000	61.150598 
3814.000000	61.136674 
3813.000000	61.118412 
3812.000000	61.093616 
3811.000000	61.061358 
3810.000000	61.022496 
3809.000000	60.979175 
3808.000000	60.935115 
3807.000000	60.894846 
3806.000000	60.862970 
3805.000000	60.843276 
3804.000000	60.837841 
3803.000000	60.846734 
3802.000000	60.867834 
3801.000000	60.896944 
3800.000000	60.929083 
3799.000000	60.959267 
3798.000000	60.983681 
3797.000000	60.999941 
3796.000000	61.007833 
3795.000000	61.008596 
3794.000000	61.004471 
3793.000000	60.997939 
3792.000000	60.990858 
3791.000000	60.984182 
3790.000000	60.978007 
3789.000000	60.971927 
3788.000000	60.965561 
3787.000000	60.958814 
3786.000000	60.952520 
3785.000000	60.948038 
3784.000000	60.946846 
3783.000000	60.949778 
3782.000000	60.956740 
3781.000000	60.966157 
3780.000000	60.975384 
3779.000000	60.980868 
3778.000000	60.979413 
3777.000000	60.968351 
3776.000000	60.946536 
3775.000000	60.914540 
3774.000000	60.874748 
3773.000000	60.830926 
3772.000000	60.787391 
3771.000000	60.748577 
3770.000000	60.718083 
3769.000000	60.698795 
3768.000000	60.692358 
3767.000000	60.698914 
3766.000000	60.717010 
3765.000000	60.743975 
3764.000000	60.776424 
3763.000000	60.810184 
3762.000000	60.841202 
3761.000000	60.865974 
3760.000000	60.882186 
3759.000000	60.889124 
3758.000000	60.887622 
3757.000000	60.879778 
3756.000000	60.868120 
3755.000000	60.855293 
3754.000000	60.843300 
3753.000000	60.833287 
3752.000000	60.825371 
3751.000000	60.819292 
3750.000000	60.814380 
3749.000000	60.810518 
3748.000000	60.807728 
3747.000000	60.806393 
3746.000000	60.806369 
3745.000000	60.806703 
3744.000000	60.805225 
3743.000000	60.798835 
3742.000000	60.784149 
3741.000000	60.758495 
3740.000000	60.721087 
3739.000000	60.673785 
3738.000000	60.621094 
3737.000000	60.569691 
3736.000000	60.526967 
3735.000000	60.499644 
3734.000000	60.492110 
3733.000000	60.505485 
3732.000000	60.537195 
3731.000000	60.581684 
3730.000000	60.631942 
3729.000000	60.680413 
3728.000000	60.720968 
3727.000000	60.749411 
3726.000000	60.764050 
3725.000000	60.765624 
3724.000000	60.756254 
3723.000000	60.738968 
3722.000000	60.716724 
3721.000000	60.691905 
3720.000000	60.666561 
3719.000000	60.641765 
3718.000000	60.618162 
3717.000000	60.595750 
3716.000000	60.574769 
3715.000000	60.555100 
3714.000000	60.536670 
3713.000000	60.519599 
3712.000000	60.504388 
3711.000000	60.491847 
3710.000000	60.483169 
3709.000000	60.479688 
3708.000000	60.482549 
3707.000000	60.492157 
3706.000000	60.507822 
3705.000000	60.527443 
3704.000000	60.547780 
3703.000000	60.564827 
3702.000000	60.575032 
3701.000000	60.575675 
3700.000000	60.566210 
3699.000000	60.548305 
3698.000000	60.525703 
3697.000000	60.503077 
3696.000000	60.485148 
3695.000000	60.475754 
3694.000000	60.476541 
3693.000000	60.486793 
3692.000000	60.503697 
3691.000000	60.523033 
3690.000000	60.540556 
3689.000000	60.553050 
3688.000000	60.558915 
3687.000000	60.558223 
3686.000000	60.552549 
3685.000000	60.543918 
3684.000000	60.534143 
3683.000000	60.523843 
3682.000000	60.512542 
3681.000000	60.498857 
3680.000000	60.481071 
3679.000000	60.457849 
3678.000000	60.429263 
3677.000000	60.396695 
3676.000000	60.362887 
3675.000000	60.331082 
3674.000000	60.303997 
3673.000000	60.283279 
3672.000000	60.269069 
3671.000000	60.260057 
3670.000000	60.253691 
3669.000000	60.247516 
3668.000000	60.239934 
3667.000000	60.230851 
3666.000000	60.221600 
3665.000000	60.214710 
3664.000000	60.212874 
3663.000000	60.218095 
3662.000000	60.230708 
3661.000000	60.249447 
3660.000000	60.271453 
3659.000000	60.293102 
3658.000000	60.310769 
3657.000000	60.322070 
3656.000000	60.326433 
3655.000000	60.324954 
3654.000000	60.320043 
3653.000000	60.314607 
3652.000000	60.311055 
3651.000000	60.310912 
3650.000000	60.313963 
3649.000000	60.318636 
3648.000000	60.322093 
3647.000000	60.321450 
3646.000000	60.314154 
3645.000000	60.298538 
3644.000000	60.274314 
3643.000000	60.242605 
3642.000000	60.205841 
3641.000000	60.167193 
3640.000000	60.130119 
3639.000000	60.098004 
3638.000000	60.073304 
3637.000000	60.057330 
3636.000000	60.049819 
3635.000000	60.049223 
3634.000000	60.052704 
3633.000000	60.056972 
3632.000000	60.058593 
3631.000000	60.054874 
3630.000000	60.044550 
3629.000000	60.028028 
3628.000000	60.007143 
3627.000000	59.984898 
3626.000000	59.964704 
3625.000000	59.949803 
3624.000000	59.942364 
3623.000000	59.943222 
3622.000000	59.951829 
3621.000000	59.966301 
3620.000000	59.984111 
3619.000000	60.002589 
3618.000000	60.019111 
3617.000000	60.031652 
3616.000000	60.038876 
3615.000000	60.040473 
3614.000000	60.036611 
3613.000000	60.028362 
3612.000000	60.017323 
3611.000000	60.005450 
3610.000000	59.994578 
3609.000000	59.986114 
3608.000000	59.981036 
3607.000000	59.979057 
3606.000000	59.978699 
3605.000000	59.977531 
3604.000000	59.972715 
3603.000000	59.961605 
3602.000000	59.942793 
3601.000000	59.916329 
3600.000000	59.884047 
3599.000000	59.849166 
3598.000000	59.815788 
3597.000000	59.787678 
3596.000000	59.767937 
3595.000000	59.757852 
3594.000000	59.757494 
3593.000000	59.765386 
3592.000000	59.779524 
3591.000000	59.797787 
3590.000000	59.818553 
3589.000000	59.840941 
3588.000000	59.864258 
3587.000000	59.887790 
3586.000000	59.910297 
3585.000000	59.929656 
3584.000000	59.943199 
3583.000000	59.948301 
3582.000000	59.942889 
3581.000000	59.926366 
3580.000000	59.899735 
3579.000000	59.865689 
3578.000000	59.827947 
3577.000000	59.790825 
3576.000000	59.758138 
3575.000000	59.732580 
3574.000000	59.715342 
3573.000000	59.705996 
3572.000000	59.702801 
3571.000000	59.703111 
3570.000000	59.704184 
3569.000000	59.703826 
3568.000000	59.700560 
3567.000000	59.694457 
3566.000000	59.686374 
3565.000000	59.678626 
3564.000000	59.673738 
3563.000000	59.674501 
3562.000000	59.682941 
3561.000000	59.699726 
3560.000000	59.723949 
3559.000000	59.752798 
3558.000000	59.782099 
3557.000000	59.807085 
3556.000000	59.823513 
3555.000000	59.828495 
3554.000000	59.821033 
3553.000000	59.802460 
3552.000000	59.775900 
3551.000000	59.745454 
3550.000000	59.715366 
3549.000000	59.689044 
3548.000000	59.668493 
3547.000000	59.654378 
3546.000000	59.645915 
3545.000000	59.641551 
3544.000000	59.639549 
3543.000000	59.638476 
3542.000000	59.637713 
3541.000000	59.636998 
3540.000000	59.636783 
3539.000000	59.637308 
3538.000000	59.638667 
3537.000000	59.640789 
3536.000000	59.643363 
3535.000000	59.646010 
3534.000000	59.648323 
3533.000000	59.650158 
3532.000000	59.651446 
3531.000000	59.652233 
3530.000000	59.652400 
3529.000000	59.651565 
3528.000000	59.649038 
3527.000000	59.643912 
3526.000000	59.635400 
3525.000000	59.623146 
3524.000000	59.607434 
3523.000000	59.589362 
3522.000000	59.570670 
3521.000000	59.553575 
3520.000000	59.540343 
3519.000000	59.532594 
3518.000000	59.530806 
3517.000000	59.534144 
3516.000000	59.540653 
3515.000000	59.547638 
3514.000000	59.552311 
3513.000000	59.552407 
3512.000000	59.546613 
3511.000000	59.534883 
3510.000000	59.518218 
3509.000000	59.498476 
3508.000000	59.477734 
3507.000000	59.458017 
3506.000000	59.440898 
3505.000000	59.427261 
3504.000000	59.417533 
3503.000000	59.411525 
3502.000000	59.408807 
3501.000000	59.408712 
3500.000000	59.410381 
3499.000000	59.412956 
3498.000000	59.415578 
3497.000000	59.417366 
3496.000000	59.417748 
3495.000000	59.416723 
3494.000000	59.414529 
3493.000000	59.412074 
3492.000000	59.410500 
3491.000000	59.410643 
3490.000000	59.412789 
3489.000000	59.416484 
3488.000000	59.420442 
3487.000000	59.422659 
3486.000000	59.421038 
3485.000000	59.413933 
3484.000000	59.400796 
3483.000000	59.382200 
3482.000000	59.359717 
3481.000000	59.335899 
3480.000000	59.313344 
3479.000000	59.294390 
3478.000000	59.280204 
3477.000000	59.270977 
3476.000000	59.265780 
3475.000000	59.263014 
3474.000000	59.260940 
3473.000000	59.258079 
3472.000000	59.253859 
3471.000000	59.248518 
3470.000000	59.242892 
3469.000000	59.238147 
3468.000000	59.235429 
3467.000000	59.235453 
3466.000000	59.238362 
3465.000000	59.243631 
3464.000000	59.250450 
3463.000000	59.257912 
3462.000000	59.265232 
3461.000000	59.272050 
3460.000000	59.278535 
3459.000000	59.285187 
3458.000000	59.292745 
3457.000000	59.301853 
3456.000000	59.312891 
3455.000000	59.325766 
3454.000000	59.339857 
3453.000000	59.353995 
3452.000000	59.366893 
3451.000000	59.377002 
3450.000000	59.383153 
3449.000000	59.384202 
3448.000000	59.379434 
3447.000000	59.368634 
3446.000000	59.352016 
3445.000000	59.330534 
3444.000000	59.305644 
3443.000000	59.279108 
3442.000000	59.252691 
3441.000000	59.228062 
3440.000000	59.206366 
3439.000000	59.188032 
3438.000000	59.172868 
3437.000000	59.160280 
3436.000000	59.149408 
3435.000000	59.139513 
3434.000000	59.130263 
3433.000000	59.121513 
3432.000000	59.113430 
3431.000000	59.106111 
3430.000000	59.099555 
3429.000000	59.093427 
3428.000000	59.087443 
3427.000000	59.081149 
3426.000000	59.074306 
3425.000000	59.067249 
3424.000000	59.060716 
3423.000000	59.055900 
3422.000000	59.053540 
3421.000000	59.053897 
3420.000000	59.055900 
3419.000000	59.057426 
3418.000000	59.055328 
3417.000000	59.046244 
3416.000000	59.027409 
3415.000000	58.997726 
3414.000000	58.957934 
3413.000000	58.911013 
3412.000000	58.861756 
3411.000000	58.816051 
3410.000000	58.779692 
3409.000000	58.757138 
3408.000000	58.750772 
3407.000000	58.760261 
3406.000000	58.782696 
3405.000000	58.813261 
3404.000000	58.846044 
3403.000000	58.875656 
3402.000000	58.897972 
3401.000000	58.911204 
3400.000000	58.915448 
3399.000000	58.912754 
3398.000000	58.905816 
3397.000000	58.897471 
3396.000000	58.889651 
3395.000000	58.882904 
3394.000000	58.876824 
3393.000000	58.870410 
3392.000000	58.862757 
3391.000000	58.853745 
3390.000000	58.844423 
3389.000000	58.836746 
3388.000000	58.833146 
3387.000000	58.835554 
3386.000000	58.844685 
3385.000000	58.859705 
3384.000000	58.878016 
3383.000000	58.895802 
3382.000000	58.908915 
3381.000000	58.913993 
3380.000000	58.909034 
3379.000000	58.893918 
3378.000000	58.870029 
3377.000000	58.840036 
3376.000000	58.807039 
3375.000000	58.773684 
3374.000000	58.741927 
3373.000000	58.712577 
3372.000000	58.685541 
3371.000000	58.660578 
3370.000000	58.637094 
3369.000000	58.614850 
3368.000000	58.593654 
3367.000000	58.573508 
3366.000000	58.554315 
3365.000000	58.535695 
3364.000000	58.517360 
3363.000000	58.499193 
3362.000000	58.481717 
3361.000000	58.466172 
3360.000000	58.454608 
3359.000000	58.449435 
3358.000000	58.452725 
3357.000000	58.465623 
3356.000000	58.487629 
3355.000000	58.516478 
3354.000000	58.548355 
3353.000000	58.578562 
3352.000000	58.602333 
3351.000000	58.615899 
3350.000000	58.617210 
3349.000000	58.606314 
3348.000000	58.585119 
3347.000000	58.556962 
3346.000000	58.525753 
3345.000000	58.495306 
3344.000000	58.468508 
3343.000000	58.447408 
3342.000000	58.433175 
3341.000000	58.426141 
3340.000000	58.426356 
3339.000000	58.433508 
3338.000000	58.447074 
3337.000000	58.465886 
3336.000000	58.487939 
3335.000000	58.510422 
3334.000000	58.529901 
3333.000000	58.543062 
3332.000000	58.547401 
3331.000000	58.541893 
3330.000000	58.527398 
3329.000000	58.506178 
3328.000000	58.481502 
3327.000000	58.456778 
3326.000000	58.434414 
3325.000000	58.415746 
3324.000000	58.400368 
3323.000000	58.386635 
3322.000000	58.371925 
3321.000000	58.353877 
3320.000000	58.330631 
3319.000000	58.301472 
3318.000000	58.267283 
3317.000000	58.230066 
3316.000000	58.192777 
3315.000000	58.158493 
3314.000000	58.129882 
3313.000000	58.108544 
3312.000000	58.095049 
3311.000000	58.088827 
3310.000000	58.088684 
3309.000000	58.093094 
3308.000000	58.100485 
3307.000000	58.109498 
3306.000000	58.119201 
3305.000000	58.128881 
3304.000000	58.137822 
3303.000000	58.145141 
3302.000000	58.149552 
3301.000000	58.149671 
3300.000000	58.143949 
3299.000000	58.131289 
3298.000000	58.111262 
3297.000000	58.084583 
3296.000000	58.053159 
3295.000000	58.019924 
3294.000000	57.988333 
3293.000000	57.961916 
3292.000000	57.943582 
3291.000000	57.935166 
3290.000000	57.937049 
3289.000000	57.948112 
3288.000000	57.966065 
3287.000000	57.987809 
3286.000000	58.009958 
3285.000000	58.029484 
3284.000000	58.044242 
3283.000000	58.053040 
3282.000000	58.055686 
3281.000000	58.053040 
3280.000000	58.046555 
3279.000000	58.037829 
3278.000000	58.028197 
3277.000000	58.018445 
3276.000000	58.008885 
3275.000000	57.999324 
3274.000000	57.989287 
3273.000000	57.978367 
3272.000000	57.966423 
3271.000000	57.953739 
3270.000000	57.940983 
3269.000000	57.929062 
3268.000000	57.918787 
3267.000000	57.910656 
3266.000000	57.904744 
3265.000000	57.900524 
3264.000000	57.897090 
3263.000000	57.893371 
3262.000000	57.888555 
3261.000000	57.882356 
3260.000000	57.875418 
3259.000000	57.869172 
3258.000000	57.865524 
3257.000000	57.866406 
3256.000000	57.872867 
3255.000000	57.884931 
3254.000000	57.900977 
3253.000000	57.918190 
3252.000000	57.933259 
3251.000000	57.943081 
3250.000000	57.945513 
3249.000000	57.939839 
3248.000000	57.926988 
3247.000000	57.909035 
3246.000000	57.888722 
3245.000000	57.868456 
3244.000000	57.850146 
3243.000000	57.834458 
3242.000000	57.821106 
3241.000000	57.808947 
3240.000000	57.796931 
3239.000000	57.784128 
3238.000000	57.770109 
3237.000000	57.754945 
3236.000000	57.738780 
3235.000000	57.721972 
3234.000000	57.704544 
3233.000000	57.686805 
3232.000000	57.669162 
3231.000000	57.652544 
3230.000000	57.638454 
3229.000000	57.628369 
3228.000000	57.623529 
3227.000000	57.624197 
3226.000000	57.629489 
3225.000000	57.637071 
3224.000000	57.643771 
3223.000000	57.646131 
3222.000000	57.641267 
3221.000000	57.627701 
3220.000000	57.605862 
3219.000000	57.577848 
3218.000000	57.547116 
3217.000000	57.517504 
3216.000000	57.491993 
3215.000000	57.472395 
3214.000000	57.458829 
3213.000000	57.449793 
3212.000000	57.442855 
3211.000000	57.435560 
3210.000000	57.425951 
3209.000000	57.413196 
3208.000000	57.397699 
3207.000000	57.380723 
3206.000000	57.364344 
3205.000000	57.350707 
3204.000000	57.341527 
3203.000000	57.337689 
3202.000000	57.339072 
3201.000000	57.344698 
3200.000000	57.352948 
3199.000000	57.362198 
3198.000000	57.371139 
3197.000000	57.379221 
3196.000000	57.386517 
3195.000000	57.393765 
3194.000000	57.401776 
3193.000000	57.411122 
3192.000000	57.421898 
3191.000000	57.433247 
3190.000000	57.443928 
3189.000000	57.452416 
3188.000000	57.457256 
3187.000000	57.457399 
3186.000000	57.452750 
3185.000000	57.443571 
3184.000000	57.431006 
3183.000000	57.416200 
3182.000000	57.400202 
3181.000000	57.383680 
3180.000000	57.366728 
3179.000000	57.349157 
3178.000000	57.330727 
3177.000000	57.311367 
3176.000000	57.291531 
3175.000000	57.271981 
3174.000000	57.253718 
3173.000000	57.237768 
3172.000000	57.224917 
3171.000000	57.215595 
3170.000000	57.209658 
3169.000000	57.206535 
3168.000000	57.205033 
3167.000000	57.203888 
3166.000000	57.201528 
3165.000000	57.196450 
3164.000000	57.187128 
3163.000000	57.172703 
3162.000000	57.152819 
3161.000000	57.127571 
3160.000000	57.097673 
3159.000000	57.064509 
3158.000000	57.029914 
3157.000000	56.995677 
3156.000000	56.963539 
3155.000000	56.934976 
3154.000000	56.911110 
3153.000000	56.892466 
3152.000000	56.879401 
3151.000000	56.871962 
3150.000000	56.870388 
3149.000000	56.874752 
3148.000000	56.884956 
3147.000000	56.900191 
3146.000000	56.919503 
3145.000000	56.941366 
3144.000000	56.963801 
3143.000000	56.984472 
3142.000000	57.001328 
3141.000000	57.012486 
3140.000000	57.016515 
3139.000000	57.012224 
3138.000000	56.998872 
3137.000000	56.976103 
3136.000000	56.943917 
3135.000000	56.903028 
3134.000000	56.854891 
3133.000000	56.801795 
3132.000000	56.746959 
3131.000000	56.694054 
3130.000000	56.646943 
3129.000000	56.608963 
3128.000000	56.582164 
3127.000000	56.567454 
3126.000000	56.563925 
3125.000000	56.569981 
3124.000000	56.583428 
3123.000000	56.602668 
3122.000000	56.626629 
3121.000000	56.655573 
3120.000000	56.690359 
3119.000000	56.731867 
3118.000000	56.780099 
3117.000000	56.833529 
3116.000000	56.888699 
3115.000000	56.940555 
3114.000000	56.983232 
3113.000000	57.011342 
3112.000000	57.021212 
3111.000000	57.011723 
3110.000000	56.984710 
3109.000000	56.944537 
3108.000000	56.897330 
3107.000000	56.849598 
3106.000000	56.807112 
3105.000000	56.774139 
3104.000000	56.752824 
3103.000000	56.743478 
3102.000000	56.744623 
3101.000000	56.753683 
3100.000000	56.767368 
3099.000000	56.782650 
3098.000000	56.796956 
3097.000000	56.808209 
3096.000000	56.815171 
3095.000000	56.817078 
3094.000000	56.813812 
3093.000000	56.805634 
3092.000000	56.792950 
3091.000000	56.776142 
3090.000000	56.755757 
3089.000000	56.732511 
3088.000000	56.706857 
3087.000000	56.679153 
3086.000000	56.649827 
3085.000000	56.619644 
3084.000000	56.589245 
3083.000000	56.559443 
3082.000000	56.531286 
3081.000000	56.506109 
3080.000000	56.484961 
3079.000000	56.468868 
3078.000000	56.458520 
3077.000000	56.454515 
3076.000000	56.456971 
3075.000000	56.465578 
3074.000000	56.479263 
3073.000000	56.496477 
3072.000000	56.515192 
3071.000000	56.533074 
3070.000000	56.547546 
3069.000000	56.556320 
3068.000000	56.557345 
3067.000000	56.549215 
3066.000000	56.531500 
3065.000000	56.504678 
3064.000000	56.470203 
3063.000000	56.430482 
3062.000000	56.388497 
3061.000000	56.347584 
3060.000000	56.310725 
3059.000000	56.280136 
3058.000000	56.257033 
3057.000000	56.241393 
3056.000000	56.232094 
3055.000000	56.227326 
3054.000000	56.224966 
3053.000000	56.223011 
3052.000000	56.220245 
3051.000000	56.216144 
3050.000000	56.211018 
3049.000000	56.205630 
3048.000000	56.201148 
3047.000000	56.198287 
3046.000000	56.197547 
3045.000000	56.198692 
3044.000000	56.201100 
3043.000000	56.204009 
3042.000000	56.206560 
3041.000000	56.208229 
3040.000000	56.208443 
3039.000000	56.206965 
3038.000000	56.203436 
3037.000000	56.197476 
3036.000000	56.188869 
3035.000000	56.177377 
3034.000000	56.163167 
3033.000000	56.146621 
3032.000000	56.128144 
3031.000000	56.108260 
3030.000000	56.087541 
3029.000000	56.066632 
3028.000000	56.046152 
3027.000000	56.026721 
3026.000000	56.009149 
3025.000000	55.994248 
3024.000000	55.982756 
3023.000000	55.974793 
3022.000000	55.970072 
3021.000000	55.967640 
3020.000000	55.966067 
3019.000000	55.963754 
3018.000000	55.959248 
3017.000000	55.951786 
3016.000000	55.941700 
3015.000000	55.930256 
3014.000000	55.919384 
3013.000000	55.911159 
3012.000000	55.907034 
3011.000000	55.907416 
3010.000000	55.911445 
3009.000000	55.917310 
3008.000000	55.922889 
3007.000000	55.926179 
3006.000000	55.925893 
3005.000000	55.921912 
3004.000000	55.914926 
3003.000000	55.906176 
3002.000000	55.896997 
3001.000000	55.888152 
3000.000000	55.879712 
2999.000000	55.871033 
2998.000000	55.861020 
2997.000000	55.848789 
2996.000000	55.833745 
2995.000000	55.816102 
2994.000000	55.796766 
2993.000000	55.777359 
2992.000000	55.759572 
2991.000000	55.744624 
2990.000000	55.733489 
2989.000000	55.726480 
2988.000000	55.723261 
2987.000000	55.723237 
2986.000000	55.725455 
2985.000000	55.728888 
2984.000000	55.732369 
2983.000000	55.734658 
2982.000000	55.734276 
2981.000000	55.729651 
2980.000000	55.719518 
2979.000000	55.703163 
2978.000000	55.680727 
2977.000000	55.653214 
2976.000000	55.622768 
2975.000000	55.592012 
2974.000000	55.563497 
2973.000000	55.539011 
2972.000000	55.519080 
2971.000000	55.502939 
2970.000000	55.488681 
2969.000000	55.473732 
2968.000000	55.455541 
2967.000000	55.432248 
2966.000000	55.403017 
2965.000000	55.368375 
2964.000000	55.329895 
2963.000000	55.290174 
2962.000000	55.252003 
2961.000000	55.218172 
2960.000000	55.190825 
2959.000000	55.171322 
2958.000000	55.160093 
2957.000000	55.156660 
2956.000000	55.159902 
2955.000000	55.168342 
2954.000000	55.180597 
2953.000000	55.195331 
2952.000000	55.211567 
2951.000000	55.228638 
2950.000000	55.245995 
2949.000000	55.263209 
2948.000000	55.279660 
2947.000000	55.294179 
2946.000000	55.305099 
2945.000000	55.310845 
2944.000000	55.309748 
2943.000000	55.300855 
2942.000000	55.283856 
2941.000000	55.259990 
2940.000000	55.231308 
2939.000000	55.200505 
2938.000000	55.170273 
2937.000000	55.142998 
2936.000000	55.119729 
2935.000000	55.100512 
2934.000000	55.083942 
2933.000000	55.068016 
2932.000000	55.050373 
2931.000000	55.029082 
2930.000000	55.003166 
2929.000000	54.972958 
2928.000000	54.939985 
2927.000000	54.906654 
2926.000000	54.875850 
2925.000000	54.850316 
2924.000000	54.832124 
2923.000000	54.822516 
2922.000000	54.821300 
2921.000000	54.827499 
2920.000000	54.839277 
2919.000000	54.854702 
2918.000000	54.871606 
2917.000000	54.888391 
2916.000000	54.903960 
2915.000000	54.917764 
2914.000000	54.929709 
2913.000000	54.939842 
2912.000000	54.948210 
2911.000000	54.954504 
2910.000000	54.958224 
2909.000000	54.958558 
2908.000000	54.954576 
2907.000000	54.945588 
2906.000000	54.931592 
2905.000000	54.913353 
2904.000000	54.892301 
2903.000000	54.870533 
2902.000000	54.850387 
2901.000000	54.833960 
2900.000000	54.822540 
2899.000000	54.816365 
2898.000000	54.814553 
2897.000000	54.815125 
2896.000000	54.815626 
2895.000000	54.813551 
2894.000000	54.806971 
2893.000000	54.795074 
2892.000000	54.778170 
2891.000000	54.757618 
2890.000000	54.735350 
2889.000000	54.713582 
2888.000000	54.694247 
2887.000000	54.678416 
2886.000000	54.666447 
2885.000000	54.658412 
2884.000000	54.653882 
2883.000000	54.652523 
2882.000000	54.653930 
2881.000000	54.657912 
2880.000000	54.664158 
2879.000000	54.672098 
2878.000000	54.680752 
2877.000000	54.688668 
2876.000000	54.694294 
2875.000000	54.696178 
2874.000000	54.693341 
2873.000000	54.685425 
2872.000000	54.673027 
2871.000000	54.657340 
2870.000000	54.639840 
2869.000000	54.621744 
2868.000000	54.603767 
2867.000000	54.585886 
2866.000000	54.567408 
2865.000000	54.547286 
2864.000000	54.524517 
2863.000000	54.498410 
2862.000000	54.468989 
2861.000000	54.436850 
2860.000000	54.403281 
2859.000000	54.369950 
2858.000000	54.338550 
2857.000000	54.310727 
2856.000000	54.287672 
2855.000000	54.270219 
2854.000000	54.258656 
2853.000000	54.253077 
2852.000000	54.253220 
2851.000000	54.258799 
2850.000000	54.269480 
2849.000000	54.284811 
2848.000000	54.304051 
2847.000000	54.326224 
2846.000000	54.349875 
2845.000000	54.373145 
2844.000000	54.393768 
2843.000000	54.409480 
2842.000000	54.418301 
2841.000000	54.418969 
2840.000000	54.411244 
2839.000000	54.396271 
2838.000000	54.376339 
2837.000000	54.354667 
2836.000000	54.334425 
2835.000000	54.318284 
2834.000000	54.307627 
2833.000000	54.302430 
2832.000000	54.301118 
2831.000000	54.301357 
2830.000000	54.300642 
2829.000000	54.297041 
2828.000000	54.289770 
2827.000000	54.279279 
2826.000000	54.267334 
2825.000000	54.256129 
2824.000000	54.247999 
2823.000000	54.244327 
2822.000000	54.245543 
2821.000000	54.250812 
2820.000000	54.258227 
2819.000000	54.265546 
2818.000000	54.270696 
2817.000000	54.271912 
2816.000000	54.268431 
2815.000000	54.260230 
2814.000000	54.247665 
2813.000000	54.231286 
2812.000000	54.211783 
2811.000000	54.189395 
2810.000000	54.164361 
2809.000000	54.136538 
2808.000000	54.105973 
2807.000000	54.072809 
2806.000000	54.037690 
2805.000000	54.001617 
2804.000000	53.966093 
2803.000000	53.932857 
2802.000000	53.903508 
2801.000000	53.879427 
2800.000000	53.861308 
2799.000000	53.849029 
2798.000000	53.841757 
2797.000000	53.838038 
2796.000000	53.836202 
2795.000000	53.834581 
2794.000000	53.831887 
2793.000000	53.827142 
2792.000000	53.820037 
2791.000000	53.810644 
2790.000000	53.799438 
2789.000000	53.786897 
2788.000000	53.773379 
2787.000000	53.759098 
2786.000000	53.744149 
2785.000000	53.728771 
2784.000000	53.713226 
2783.000000	53.698110 
2782.000000	53.683853 
2781.000000	53.670978 
2780.000000	53.659558 
2779.000000	53.649449 
2778.000000	53.640079 
2777.000000	53.630542 
2776.000000	53.620171 
2775.000000	53.608369 
2774.000000	53.595161 
2773.000000	53.580975 
2772.000000	53.566741 
2771.000000	53.553485 
2770.000000	53.542327 
2769.000000	53.534054 
2768.000000	53.529095 
2767.000000	53.527426 
2766.000000	53.528881 
2765.000000	53.533101 
2764.000000	53.539586 
2763.000000	53.547787 
2762.000000	53.556966 
2761.000000	53.566265 
2760.000000	53.574514 
2759.000000	53.580188 
2758.000000	53.582119 
2757.000000	53.579258 
2756.000000	53.571224 
2755.000000	53.558206 
2754.000000	53.541231 
2753.000000	53.521537 
2752.000000	53.500747 
2751.000000	53.480124 
2750.000000	53.460526 
2749.000000	53.441882 
2748.000000	53.423810 
2747.000000	53.405404 
2746.000000	53.385663 
2745.000000	53.363943 
2744.000000	53.340029 
2743.000000	53.314471 
2742.000000	53.288292 
2741.000000	53.262948 
2740.000000	53.239798 
2739.000000	53.219938 
2738.000000	53.203868 
2737.000000	53.191471 
2736.000000	53.181838 
2735.000000	53.173708 
2734.000000	53.165721 
2733.000000	53.156471 
2732.000000	53.145265 
2731.000000	53.132128 
2730.000000	53.117966 
2729.000000	53.104352 
2728.000000	53.093290 
2727.000000	53.086709 
2726.000000	53.086256 
2725.000000	53.092694 
2724.000000	53.105545 
2723.000000	53.123307 
2722.000000	53.143310 
2721.000000	53.162288 
2720.000000	53.176856 
2719.000000	53.183984 
2718.000000	53.181576 
2717.000000	53.168964 
2716.000000	53.146791 
2715.000000	53.117132 
2714.000000	53.083109 
2713.000000	53.048276 
2712.000000	53.016042 
2711.000000	52.988910 
2710.000000	52.968335 
2709.000000	52.954435 
2708.000000	52.945947 
2707.000000	52.940773 
2706.000000	52.936482 
2705.000000	52.930951 
2704.000000	52.922558 
2703.000000	52.910923 
2702.000000	52.896618 
2701.000000	52.881145 
2700.000000	52.866291 
2699.000000	52.853775 
2698.000000	52.844595 
2697.000000	52.838611 
2696.000000	52.834725 
2695.000000	52.830982 
2694.000000	52.824926 
2693.000000	52.814435 
2692.000000	52.798271 
2691.000000	52.776312 
2690.000000	52.749776 
2689.000000	52.721071 
2688.000000	52.693367 
2687.000000	52.669763 
2686.000000	52.652549 
2685.000000	52.642774 
2684.000000	52.640032 
2683.000000	52.642703 
2682.000000	52.648401 
2681.000000	52.654671 
2680.000000	52.659678 
2679.000000	52.662825 
2678.000000	52.664494 
2677.000000	52.665853 
2676.000000	52.668237 
2675.000000	52.672505 
2674.000000	52.678322 
2673.000000	52.684354 
2672.000000	52.688121 
2671.000000	52.686953 
2670.000000	52.678298 
2669.000000	52.660870 
2668.000000	52.634763 
2667.000000	52.601671 
2666.000000	52.564382 
2665.000000	52.526092 
2664.000000	52.489638 
2663.000000	52.456831 
2662.000000	52.428483 
2661.000000	52.404332 
2660.000000	52.383494 
2659.000000	52.364921 
2658.000000	52.347707 
2657.000000	52.331590 
2656.000000	52.316570 
2655.000000	52.303123 
2654.000000	52.291488 
2653.000000	52.281832 
2652.000000	52.273845 
2651.000000	52.266979 
2650.000000	52.260470 
2649.000000	52.253794 
2648.000000	52.246594 
2647.000000	52.238774 
2646.000000	52.230572 
2645.000000	52.222156 
2644.000000	52.213644 
2643.000000	52.204942 
2642.000000	52.195787 
2641.000000	52.185845 
2640.000000	52.174639 
2639.000000	52.161717 
2638.000000	52.146768 
2637.000000	52.129507 
2636.000000	52.109861 
2635.000000	52.087855 
2634.000000	52.063846 
2633.000000	52.038669 
2632.000000	52.013754 
2631.000000	51.990795 
2630.000000	51.971530 
2629.000000	51.957678 
2628.000000	51.950240 
2627.000000	51.949310 
2626.000000	51.953792 
2625.000000	51.961612 
2624.000000	51.970052 
2623.000000	51.976323 
2622.000000	51.978039 
2621.000000	51.973843 
2620.000000	51.963615 
2619.000000	51.948094 
2618.000000	51.928639 
2617.000000	51.906895 
2616.000000	51.884055 
2615.000000	51.860809 
2614.000000	51.837253 
2613.000000	51.813173 
2612.000000	51.788425 
2611.000000	51.763153 
2610.000000	51.738142 
2609.000000	51.714849 
2608.000000	51.695299 
2607.000000	51.681423 
2606.000000	51.674747 
2605.000000	51.675963 
2604.000000	51.684665 
2603.000000	51.699519 
2602.000000	51.718354 
2601.000000	51.738715 
2600.000000	51.758170 
2599.000000	51.774954 
2598.000000	51.787900 
2597.000000	51.796531 
2596.000000	51.801013 
2595.000000	51.801800 
2594.000000	51.799392 
2593.000000	51.793980 
2592.000000	51.785969 
2591.000000	51.775503 
2590.000000	51.763010 
2589.000000	51.749157 
2588.000000	51.735019 
2587.000000	51.722025 
2586.000000	51.711797 
2585.000000	51.705622 
2584.000000	51.704287 
2583.000000	51.707601 
2582.000000	51.714468 
2581.000000	51.722908 
2580.000000	51.730275 
2579.000000	51.733875 
2578.000000	51.731324 
2577.000000	51.720976 
2576.000000	51.702189 
2575.000000	51.675534 
2574.000000	51.642465 
2573.000000	51.605224 
2572.000000	51.566100 
2571.000000	51.527547 
2570.000000	51.491451 
2569.000000	51.459074 
2568.000000	51.430797 
2567.000000	51.406550 
2566.000000	51.385855 
2565.000000	51.368117 
2564.000000	51.352977 
2563.000000	51.340055 
2562.000000	51.329374 
2561.000000	51.321053 
2560.000000	51.315140 
2559.000000	51.311278 
2558.000000	51.308655 
2557.000000	51.306080 
2556.000000	51.302075 
2555.000000	51.295232 
2554.000000	51.284527 
2553.000000	51.269555 
2552.000000	51.250743 
2551.000000	51.229286 
2550.000000	51.206803 
2549.000000	51.185226 
2548.000000	51.166224 
2547.000000	51.150965 
2546.000000	51.140069 
2545.000000	51.133871 
2544.000000	51.132273 
2543.000000	51.134991 
2542.000000	51.141381 
2541.000000	51.150369 
2540.000000	51.160812 
2539.000000	51.170945 
2538.000000	51.178574 
2537.000000	51.181244 
2536.000000	51.176786 
2535.000000	51.163697 
2534.000000	51.141405 
2533.000000	51.110863 
2532.000000	51.074361 
2531.000000	51.035499 
2530.000000	50.998497 
2529.000000	50.967288 
2528.000000	50.944852 
2527.000000	50.932264 
2526.000000	50.928664 
2525.000000	50.931048 
2524.000000	50.935101 
2523.000000	50.935864 
2522.000000	50.928950 
2521.000000	50.911545 
2520.000000	50.882959 
2519.000000	50.844788 
2518.000000	50.800776 
2517.000000	50.755882 
2516.000000	50.715398 
2515.000000	50.683975 
2514.000000	50.664710 
2513.000000	50.658726 
2512.000000	50.665283 
2511.000000	50.682044 
2510.000000	50.705766 
2509.000000	50.732541 
2508.000000	50.758767 
2507.000000	50.781202 
2506.000000	50.797414 
2505.000000	50.805616 
2504.000000	50.804710 
2503.000000	50.794458 
2502.000000	50.775194 
2501.000000	50.748014 
2500.000000	50.714373 
2499.000000	50.675916 
2498.000000	50.634670 
2497.000000	50.592827 
2496.000000	50.552606 
2495.000000	50.516080 
2494.000000	50.485229 
2493.000000	50.461626 
2492.000000	50.446367 
2491.000000	50.439786 
2490.000000	50.441384 
2489.000000	50.449752 
2488.000000	50.462675 
2487.000000	50.477528 
2486.000000	50.491476 
2485.000000	50.501966 
2484.000000	50.507044 
2483.000000	50.505757 
2482.000000	50.497961 
2481.000000	50.484418 
2480.000000	50.466442 
2479.000000	50.445604 
2478.000000	50.423336 
2477.000000	50.400924 
2476.000000	50.379443 
2475.000000	50.359821 
2474.000000	50.342702 
2473.000000	50.328588 
2472.000000	50.317931 
2471.000000	50.310873 
2470.000000	50.307297 
2469.000000	50.306844 
2468.000000	50.308966 
2467.000000	50.312924 
2466.000000	50.318002 
2465.000000	50.323390 
2464.000000	50.328397 
2463.000000	50.332593 
2462.000000	50.335478 
2461.000000	50.336647 
2460.000000	50.335502 
2459.000000	50.331521 
2458.000000	50.324130 
2457.000000	50.312924 
2456.000000	50.297594 
2455.000000	50.278329 
2454.000000	50.255656 
2453.000000	50.230669 
2452.000000	50.204610 
2451.000000	50.179195 
2450.000000	50.155687 
2449.000000	50.135135 
2448.000000	50.117897 
2447.000000	50.103569 
2446.000000	50.091075 
2445.000000	50.078868 
2444.000000	50.065159 
2443.000000	50.048279 
2442.000000	50.027203 
2441.000000	50.002026 
2440.000000	49.973702 
2439.000000	49.944281 
2438.000000	49.916577 
2437.000000	49.893784 
2436.000000	49.878668 
2435.000000	49.873065 
2434.000000	49.877262 
2433.000000	49.889850 
2432.000000	49.907827 
2431.000000	49.927282 
2430.000000	49.944019 
2429.000000	49.954795 
2428.000000	49.957585 
2427.000000	49.952435 
2426.000000	49.941253 
2425.000000	49.927234 
2424.000000	49.914145 
2423.000000	49.904847 
2422.000000	49.900722 
2421.000000	49.900794 
2420.000000	49.902343 
2419.000000	49.900889 
2418.000000	49.891686 
2417.000000	49.870562 
2416.000000	49.835491 
2415.000000	49.786686 
2414.000000	49.726986 
2413.000000	49.661183 
2412.000000	49.595212 
2411.000000	49.535155 
2410.000000	49.486231 
2409.000000	49.451899 
2408.000000	49.433374 
2407.000000	49.429726 
2406.000000	49.438095 
2405.000000	49.454402 
2404.000000	49.474096 
2403.000000	49.492883 
2402.000000	49.507617 
2401.000000	49.515986 
2400.000000	49.517226 
2399.000000	49.511647 
2398.000000	49.500489 
2397.000000	49.485325 
2396.000000	49.467849 
2395.000000	49.449539 
2394.000000	49.431514 
2393.000000	49.414587 
2392.000000	49.399042 
2391.000000	49.384760 
2390.000000	49.371266 
2389.000000	49.357914 
2388.000000	49.343705 
2387.000000	49.327540 
2386.000000	49.308347 
2385.000000	49.285459 
2384.000000	49.258732 
2383.000000	49.229049 
2382.000000	49.198079 
2381.000000	49.168205 
2380.000000	49.141645 
2379.000000	49.120283 
2378.000000	49.105048 
2377.000000	49.096131 
2376.000000	49.092531 
2375.000000	49.092841 
2374.000000	49.095320 
2373.000000	49.098491 
2372.000000	49.101400 
2371.000000	49.103760 
2370.000000	49.105572 
2369.000000	49.107122 
2368.000000	49.108839 
2367.000000	49.110865 
2366.000000	49.113011 
2365.000000	49.114632 
2364.000000	49.114799 
2363.000000	49.112629 
2362.000000	49.107408 
2361.000000	49.098634 
2360.000000	49.086260 
2359.000000	49.070739 
2358.000000	49.052858 
2357.000000	49.033737 
2356.000000	49.014592 
2355.000000	48.996496 
2354.000000	48.980188 
2353.000000	48.965954 
2352.000000	48.953437 
2351.000000	48.941826 
2350.000000	48.930335 
2349.000000	48.918247 
2348.000000	48.905372 
2347.000000	48.892116 
2346.000000	48.879432 
2345.000000	48.868393 
2344.000000	48.859882 
2343.000000	48.854279 
2342.000000	48.851108 
2341.000000	48.849248 
2340.000000	48.847198 
2339.000000	48.843336 
2338.000000	48.836541 
2337.000000	48.826193 
2336.000000	48.812627 
2335.000000	48.796677 
2334.000000	48.779463 
2333.000000	48.761844 
2332.000000	48.744153 
2331.000000	48.725843 
2330.000000	48.706030 
2329.000000	48.683476 
2328.000000	48.657178 
2327.000000	48.626852 
2326.000000	48.592925 
2325.000000	48.556971 
2324.000000	48.520922 
2323.000000	48.487329 
2322.000000	48.458290 
2321.000000	48.435473 
2320.000000	48.419570 
2319.000000	48.410177 
2318.000000	48.405885 
2317.000000	48.404622 
2316.000000	48.404073 
2315.000000	48.402285 
2314.000000	48.398017 
2313.000000	48.390984 
2312.000000	48.381829 
2311.000000	48.371839 
2310.000000	48.362541 
2309.000000	48.354887 
2308.000000	48.349070 
2307.000000	48.344397 
2306.000000	48.339009 
2305.000000	48.330640 
2304.000000	48.316955 
2303.000000	48.296284 
2302.000000	48.268175 
2301.000000	48.233532 
2300.000000	48.194646 
2299.000000	48.154449 
2298.000000	48.116135 
2297.000000	48.082447 
2296.000000	48.055529 
2295.000000	48.036503 
2294.000000	48.025703 
2293.000000	48.022747 
2292.000000	48.026847 
2291.000000	48.036646 
2290.000000	48.050665 
2289.000000	48.066997 
2288.000000	48.083758 
2287.000000	48.098707 
2286.000000	48.109841 
2285.000000	48.115301 
2284.000000	48.113965 
2283.000000	48.105287 
2282.000000	48.089623 
2281.000000	48.068022 
2280.000000	48.041892 
2279.000000	48.012971 
2278.000000	47.982978 
2277.000000	47.953271 
2276.000000	47.925043 
2275.000000	47.899198 
2274.000000	47.876381 
2273.000000	47.857189 
2272.000000	47.841882 
2271.000000	47.830724 
2270.000000	47.823500 
2269.000000	47.819972 
2268.000000	47.819447 
2267.000000	47.821164 
2266.000000	47.824335 
2265.000000	47.828054 
2264.000000	47.831273 
2263.000000	47.832870 
2262.000000	47.831845 
2261.000000	47.827267 
2260.000000	47.818636 
2259.000000	47.805738 
2258.000000	47.788715 
2257.000000	47.768068 
2256.000000	47.744536 
2255.000000	47.718858 
2254.000000	47.691726 
2253.000000	47.663640 
2252.000000	47.635102 
2251.000000	47.606468 
2250.000000	47.578215 
2249.000000	47.550988 
2248.000000	47.525525 
2247.000000	47.502684 
2246.000000	47.483158 
2245.000000	47.467279 
2244.000000	47.455024 
2243.000000	47.445702 
2242.000000	47.438406 
2241.000000	47.432041 
2240.000000	47.425651 
2239.000000	47.418642 
2238.000000	47.410941 
2237.000000	47.402715 
2236.000000	47.394299 
2235.000000	47.386026 
2234.000000	47.377896 
2233.000000	47.369670 
2232.000000	47.360825 
2231.000000	47.350740 
2230.000000	47.338867 
2229.000000	47.324943 
2228.000000	47.309064 
2227.000000	47.291684 
2226.000000	47.273421 
2225.000000	47.254896 
2224.000000	47.236490 
2223.000000	47.218251 
2222.000000	47.199630 
2221.000000	47.179841 
2220.000000	47.157931 
2219.000000	47.133469 
2218.000000	47.106623 
2217.000000	47.078466 
2216.000000	47.050833 
2215.000000	47.026062 
2214.000000	47.006607 
2213.000000	46.994447 
2212.000000	46.990489 
2211.000000	46.994400 
2210.000000	47.004342 
2209.000000	47.017502 
2208.000000	47.030472 
2207.000000	47.040176 
2206.000000	47.044396 
2205.000000	47.042465 
2204.000000	47.034907 
2203.000000	47.023487 
2202.000000	47.010588 
2201.000000	46.998643 
2200.000000	46.989417 
2199.000000	46.983933 
2198.000000	46.982145 
2197.000000	46.983313 
2196.000000	46.985983 
2195.000000	46.988463 
2194.000000	46.988773 
2193.000000	46.985268 
2192.000000	46.976399 
2191.000000	46.961140 
2190.000000	46.939015 
2189.000000	46.910333 
2188.000000	46.876358 
2187.000000	46.839284 
2186.000000	46.802043 
2185.000000	46.767973 
2184.000000	46.740007 
2183.000000	46.720194 
2182.000000	46.709322 
2181.000000	46.706485 
2180.000000	46.709537 
2179.000000	46.715641 
2178.000000	46.721816 
2177.000000	46.725630 
2176.000000	46.725749 
2175.000000	46.722030 
2174.000000	46.715235 
2173.000000	46.706628 
2172.000000	46.697545 
2171.000000	46.688914 
2170.000000	46.681046 
2169.000000	46.673464 
2168.000000	46.665239 
2167.000000	46.655035 
2166.000000	46.641635 
2165.000000	46.624135 
2164.000000	46.602082 
2163.000000	46.575379 
2162.000000	46.544528 
2161.000000	46.510386 
2160.000000	46.474242 
2159.000000	46.437835 
2158.000000	46.403098 
2157.000000	46.372056 
2156.000000	46.346402 
2155.000000	46.327233 
2154.000000	46.314954 
2153.000000	46.309185 
2152.000000	46.308827 
2151.000000	46.312189 
2150.000000	46.317219 
2149.000000	46.321988 
2148.000000	46.324825 
2147.000000	46.324372 
2146.000000	46.319580 
2145.000000	46.309900 
2144.000000	46.295332 
2143.000000	46.276283 
2142.000000	46.253490 
2141.000000	46.228456 
2140.000000	46.202993 
2139.000000	46.179389 
2138.000000	46.159815 
2137.000000	46.146154 
2136.000000	46.139430 
2135.000000	46.139621 
2134.000000	46.145558 
2133.000000	46.155142 
2132.000000	46.165633 
2131.000000	46.174359 
2130.000000	46.178865 
2129.000000	46.177411 
2128.000000	46.168947 
2127.000000	46.153545 
2126.000000	46.131753 
2125.000000	46.104526 
2124.000000	46.073126 
2123.000000	46.039009 
2122.000000	46.003484 
2121.000000	45.967912 
2120.000000	45.933675 
2119.000000	45.902109 
2118.000000	45.874309 
2117.000000	45.851087 
2116.000000	45.832705 
2115.000000	45.818924 
2114.000000	45.808863 
2113.000000	45.801281 
2112.000000	45.794701 
2111.000000	45.787835 
2110.000000	45.779895 
2109.000000	45.770645 
2108.000000	45.760273 
2107.000000	45.749378 
2106.000000	45.738434 
2105.000000	45.727872 
2104.000000	45.717668 
2103.000000	45.707464 
2102.000000	45.696854 
2101.000000	45.685553 
2100.000000	45.673608 
2099.000000	45.661258 
2098.000000	45.649099 
2097.000000	45.637679 
2096.000000	45.627450 
2095.000000	45.618700 
2094.000000	45.611667 
2093.000000	45.606517 
2092.000000	45.603489 
2091.000000	45.602679 
2090.000000	45.604038 
2089.000000	45.607328 
2088.000000	45.611882 
2087.000000	45.616436 
2086.000000	45.619249 
2085.000000	45.618128 
2084.000000	45.610857 
2083.000000	45.595622 
2082.000000	45.571637 
2081.000000	45.539069 
2080.000000	45.499706 
2079.000000	45.456361 
2078.000000	45.413017 
2077.000000	45.373797 
2076.000000	45.342445 
2075.000000	45.321893 
2074.000000	45.313286 
2073.000000	45.316171 
2072.000000	45.327949 
2071.000000	45.344424 
2070.000000	45.360445 
2069.000000	45.370936 
2068.000000	45.371890 
2067.000000	45.361351 
2066.000000	45.339870 
2065.000000	45.310044 
2064.000000	45.275926 
2063.000000	45.241904 
2062.000000	45.211744 
2061.000000	45.187520 
2060.000000	45.169377 
2059.000000	45.155763 
2058.000000	45.144081 
2057.000000	45.131564 
2056.000000	45.116114 
2055.000000	45.096945 
2054.000000	45.074462 
2053.000000	45.050263 
2052.000000	45.026493 
2051.000000	45.005202 
2050.000000	44.987797 
2049.000000	44.974660 
2048.000000	44.965481 
2047.000000	44.959187 
2046.000000	44.954514 
2045.000000	44.950079 
2044.000000	44.944524 
2043.000000	44.936800 
2042.000000	44.926238 
2041.000000	44.912648 
2040.000000	44.896364 
2039.000000	44.878292 
2038.000000	44.859814 
2037.000000	44.842696 
2036.000000	44.828534 
2035.000000	44.818615 
2034.000000	44.813394 
2033.000000	44.812369 
2032.000000	44.814085 
2031.000000	44.816374 
2030.000000	44.816756 
2029.000000	44.812822 
2028.000000	44.802689 
2027.000000	44.785690 
2026.000000	44.761967 
2025.000000	44.732785 
2024.000000	44.699978 
2023.000000	44.665861 
2022.000000	44.632673 
2021.000000	44.602537 
2020.000000	44.577002 
2019.000000	44.557237 
2018.000000	44.543695 
2017.000000	44.536280 
2016.000000	44.534420 
2015.000000	44.537067 
2014.000000	44.542837 
2013.000000	44.550299 
2012.000000	44.557929 
2011.000000	44.564366 
2010.000000	44.568610 
2009.000000	44.569921 
2008.000000	44.567799 
2007.000000	44.561958 
2006.000000	44.552206 
2005.000000	44.538497 
2004.000000	44.521045 
2003.000000	44.500184 
2002.000000	44.476652 
2001.000000	44.451522 
2000.000000	44.426178 
1999.000000	44.401979 
1998.000000	44.379997 
1997.000000	44.360709 
1996.000000	44.343996 
1995.000000	44.328904 
1994.000000	44.314026 
1993.000000	44.298171 
1992.000000	44.280409 
1991.000000	44.260811 
1990.000000	44.240164 
1989.000000	44.219946 
1988.000000	44.201874 
1987.000000	44.187498 
1986.000000	44.177532 
1985.000000	44.171595 
1984.000000	44.168257 
1983.000000	44.165301 
1982.000000	44.160461 
1981.000000	44.151854 
1980.000000	44.138431 
1979.000000	44.120240 
1978.000000	44.098424 
1977.000000	44.074583 
1976.000000	44.050550 
1975.000000	44.027900 
1974.000000	44.007611 
1973.000000	43.990015 
1972.000000	43.974709 
1971.000000	43.960928 
1970.000000	43.947696 
1969.000000	43.934369 
1968.000000	43.920683 
1967.000000	43.906641 
1966.000000	43.892526 
1965.000000	43.878722 
1964.000000	43.865418 
1963.000000	43.852400 
1962.000000	43.839097 
1961.000000	43.824648 
1960.000000	43.808174 
1959.000000	43.789172 
1958.000000	43.767666 
1957.000000	43.744277 
1956.000000	43.720054 
1955.000000	43.696236 
1954.000000	43.673825 
1953.000000	43.653464 
1952.000000	43.635082 
1951.000000	43.618321 
1950.000000	43.602275 
1949.000000	43.586421 
1948.000000	43.570542 
1947.000000	43.555474 
1946.000000	43.542504 
1945.000000	43.533492 
1944.000000	43.530130 
1943.000000	43.533444 
1942.000000	43.543481 
1941.000000	43.558740 
1940.000000	43.576812 
1939.000000	43.594241 
1938.000000	43.607616 
1937.000000	43.613886 
1936.000000	43.611121 
1935.000000	43.598723 
1934.000000	43.577432 
1933.000000	43.549084 
1932.000000	43.516254 
1931.000000	43.481779 
1930.000000	43.448281 
1929.000000	43.417930 
1928.000000	43.392252 
1927.000000	43.372058 
1926.000000	43.357515 
1925.000000	43.348312 
1924.000000	43.343472 
1923.000000	43.341565 
1922.000000	43.341016 
1921.000000	43.339967 
1920.000000	43.336725 
1919.000000	43.329739 
1918.000000	43.317866 
1917.000000	43.300604 
1916.000000	43.277645 
1915.000000	43.249392 
1914.000000	43.216586 
1913.000000	43.180418 
1912.000000	43.142199 
1911.000000	43.103456 
1910.000000	43.065667 
1909.000000	43.030309 
1908.000000	42.998766 
1907.000000	42.972159 
1906.000000	42.951321 
1905.000000	42.936992 
1904.000000	42.929410 
1903.000000	42.928314 
1902.000000	42.932987 
1901.000000	42.942214 
1900.000000	42.954301 
1899.000000	42.967295 
1898.000000	42.979097 
1897.000000	42.987751 
1896.000000	42.991662 
1895.000000	42.989969 
1894.000000	42.982411 
1893.000000	42.969512 
1892.000000	42.952418 
1891.000000	42.932581 
1890.000000	42.911624 
1889.000000	42.890787 
1888.000000	42.871117 
1887.000000	42.853045 
1886.000000	42.836594 
1885.000000	42.821574 
1884.000000	42.807674 
1883.000000	42.794537 
1882.000000	42.781734 
1881.000000	42.769050 
1880.000000	42.756414 
1879.000000	42.743825 
1878.000000	42.731261 
1877.000000	42.718720 
1876.000000	42.706251 
1875.000000	42.693805 
1874.000000	42.681288 
1873.000000	42.668485 
1872.000000	42.655324 
1871.000000	42.641592 
1870.000000	42.627334 
1869.000000	42.612695 
1868.000000	42.597818 
1867.000000	42.583060 
1866.000000	42.568755 
1865.000000	42.555046 
1864.000000	42.541885 
1863.000000	42.528986 
1862.000000	42.515921 
1861.000000	42.502021 
1860.000000	42.486786 
1859.000000	42.469859 
1858.000000	42.451238 
1857.000000	42.431378 
1856.000000	42.411088 
1855.000000	42.391300 
1854.000000	42.372989 
1853.000000	42.356801 
1852.000000	42.343139 
1851.000000	42.332124 
1850.000000	42.323446 
1849.000000	42.316555 
1848.000000	42.310905 
1847.000000	42.305898 
1846.000000	42.300963 
1845.000000	42.295551 
1844.000000	42.289090 
1843.000000	42.281031 
1842.000000	42.270755 
1841.000000	42.257714 
1840.000000	42.241430 
1839.000000	42.221903 
1838.000000	42.199349 
1837.000000	42.174696 
1836.000000	42.149353 
1835.000000	42.124986 
1834.000000	42.103385 
1833.000000	42.085742 
1832.000000	42.072606 
1831.000000	42.063450 
1830.000000	42.056870 
1829.000000	42.050838 
1828.000000	42.042970 
1827.000000	42.031216 
1826.000000	42.014288 
1825.000000	41.991925 
1824.000000	41.964673 
1823.000000	41.933870 
1822.000000	41.901350 
1821.000000	41.869020 
1820.000000	41.838550 
1819.000000	41.811227 
1818.000000	41.787815 
1817.000000	41.768693 
1816.000000	41.753745 
1815.000000	41.742587 
1814.000000	41.734361 
1813.000000	41.727995 
1812.000000	41.722130 
1811.000000	41.715121 
1810.000000	41.705703 
1809.000000	41.692876 
1808.000000	41.676616 
1807.000000	41.657614 
1806.000000	41.637611 
1805.000000	41.618847 
1804.000000	41.603612 
1803.000000	41.593933 
1802.000000	41.590738 
1801.000000	41.593885 
1800.000000	41.601896 
1799.000000	41.612505 
1798.000000	41.622972 
1797.000000	41.630768 
1796.000000	41.634035 
1795.000000	41.631984 
1794.000000	41.624569 
1793.000000	41.612553 
1792.000000	41.597104 
1791.000000	41.579341 
1790.000000	41.560196 
1789.000000	41.540193 
1788.000000	41.519713 
1787.000000	41.498947 
1786.000000	41.478252 
1785.000000	41.457867 
1784.000000	41.438198 
1783.000000	41.419577 
1782.000000	41.402029 
1781.000000	41.385436 
1780.000000	41.369199 
1779.000000	41.352796 
1778.000000	41.335654 
1777.000000	41.317677 
1776.000000	41.299271 
1775.000000	41.281318 
1774.000000	41.265058 
1773.000000	41.251683 
1772.000000	41.242122 
1771.000000	41.236615 
1770.000000	41.234683 
1769.000000	41.234993 
1768.000000	41.235709 
1767.000000	41.234827 
1766.000000	41.230654 
1765.000000	41.221928 
1764.000000	41.208100 
1763.000000	41.189432 
1762.000000	41.166925 
1761.000000	41.141891 
1760.000000	41.115736 
1759.000000	41.089868 
1758.000000	41.065335 
1757.000000	41.042804 
1756.000000	41.022419 
1755.000000	41.003870 
1754.000000	40.986657 
1753.000000	40.970110 
1752.000000	40.953755 
1751.000000	40.937352 
1750.000000	40.921282 
1749.000000	40.906238 
1748.000000	40.893054 
1747.000000	40.882301 
1746.000000	40.874195 
1745.000000	40.868306 
1744.000000	40.863537 
1743.000000	40.858292 
1742.000000	40.850877 
1741.000000	40.839886 
1740.000000	40.824413 
1739.000000	40.804219 
1738.000000	40.779876 
1737.000000	40.752339 
1736.000000	40.722846 
1735.000000	40.692496 
1734.000000	40.662050 
1733.000000	40.631866 
1732.000000	40.601992 
1731.000000	40.572595 
1730.000000	40.543937 
1729.000000	40.516853 
1728.000000	40.492582 
1727.000000	40.472769 
1726.000000	40.458965 
1725.000000	40.452432 
1724.000000	40.453577 
1723.000000	40.462017 
1722.000000	40.476202 
1721.000000	40.493726 
1720.000000	40.511536 
1719.000000	40.526580 
1718.000000	40.536332 
1717.000000	40.539193 
1716.000000	40.534830 
1715.000000	40.524125 
1714.000000	40.508794 
1713.000000	40.490984 
1712.000000	40.472674 
1711.000000	40.455222 
1710.000000	40.439224 
1709.000000	40.424537 
1708.000000	40.410327 
1707.000000	40.395855 
1706.000000	40.380477 
1705.000000	40.363860 
1704.000000	40.346026 
1703.000000	40.327167 
1702.000000	40.307593 
1701.000000	40.287446 
1700.000000	40.266466 
1699.000000	40.244269 
1698.000000	40.220689 
1697.000000	40.195727 
1696.000000	40.170097 
1695.000000	40.145015 
1694.000000	40.122175 
1693.000000	40.103220 
1692.000000	40.089368 
1691.000000	40.080833 
1690.000000	40.076780 
1689.000000	40.075373 
1688.000000	40.073990 
1687.000000	40.069794 
1686.000000	40.060544 
1685.000000	40.045309 
1684.000000	40.024375 
1683.000000	39.999461 
1682.000000	39.973211 
1681.000000	39.948749 
1680.000000	39.928865 
1679.000000	39.915490 
1678.000000	39.909076 
1677.000000	39.909005 
1676.000000	39.913439 
1675.000000	39.920234 
1674.000000	39.927053 
1673.000000	39.932131 
1672.000000	39.934444 
1671.000000	39.933657 
1670.000000	39.929842 
1669.000000	39.923429 
1668.000000	39.914798 
1667.000000	39.904308 
1666.000000	39.892125 
1665.000000	39.878273 
1664.000000	39.862847 
1663.000000	39.845681 
1662.000000	39.826536 
1661.000000	39.804911 
1660.000000	39.780259 
1659.000000	39.751982 
1658.000000	39.719772 
1657.000000	39.683938 
1656.000000	39.645481 
1655.000000	39.606451 
1654.000000	39.569664 
1653.000000	39.538192 
1652.000000	39.514899 
1651.000000	39.501476 
1650.000000	39.498424 
1649.000000	39.504432 
1648.000000	39.516925 
1647.000000	39.532446 
1646.000000	39.547395 
1645.000000	39.558744 
1644.000000	39.564538 
1643.000000	39.563822 
1642.000000	39.556837 
1641.000000	39.544296 
1640.000000	39.527344 
1639.000000	39.507174 
1638.000000	39.484786 
1637.000000	39.461159 
1636.000000	39.436888 
1635.000000	39.412689 
1634.000000	39.389133 
1633.000000	39.366865 
1632.000000	39.346408 
1631.000000	39.328098 
1630.000000	39.312005 
1629.000000	39.297962 
1628.000000	39.285588 
1627.000000	39.274382 
1626.000000	39.263796 
1625.000000	39.253616 
1624.000000	39.243650 
1623.000000	39.234066 
1622.000000	39.225149 
1621.000000	39.217209 
1620.000000	39.210414 
1619.000000	39.204645 
1618.000000	39.199590 
1617.000000	39.194560 
1616.000000	39.188718 
1615.000000	39.181137 
1614.000000	39.170908 
1613.000000	39.157295 
1612.000000	39.140200 
1611.000000	39.119911 
1610.000000	39.097237 
1609.000000	39.073324 
1608.000000	39.049482 
1607.000000	39.027118 
1606.000000	39.007234 
1605.000000	38.990545 
1604.000000	38.977289 
1603.000000	38.967108 
1602.000000	38.959360 
1601.000000	38.953208 
1600.000000	38.947677 
1599.000000	38.941836 
1598.000000	38.934922 
1597.000000	38.926506 
1596.000000	38.916540 
1595.000000	38.905310 
1594.000000	38.893222 
1593.000000	38.880944 
1592.000000	38.869118 
1591.000000	38.858294 
1590.000000	38.848638 
1589.000000	38.840270 
1588.000000	38.832688 
1587.000000	38.825106 
1586.000000	38.816523 
1585.000000	38.806104 
1584.000000	38.793015 
1583.000000	38.776898 
1582.000000	38.757967 
1581.000000	38.737225 
1580.000000	38.716149 
1579.000000	38.696336 
1578.000000	38.679242 
1577.000000	38.665771 
1576.000000	38.656044 
1575.000000	38.649153 
1574.000000	38.643527 
1573.000000	38.637137 
1572.000000	38.628053 
1571.000000	38.614964 
1570.000000	38.597512 
1569.000000	38.576173 
1568.000000	38.552379 
1567.000000	38.527965 
1566.000000	38.504886 
1565.000000	38.484621 
1564.000000	38.467931 
1563.000000	38.454556 
1562.000000	38.443684 
1561.000000	38.433885 
1560.000000	38.423800 
1559.000000	38.412070 
1558.000000	38.397955 
1557.000000	38.381028 
1556.000000	38.361382 
1555.000000	38.339304 
1554.000000	38.315129 
1553.000000	38.289141 
1552.000000	38.261675 
1551.000000	38.233089 
1550.000000	38.203883 
1549.000000	38.174772 
1548.000000	38.146972 
1547.000000	38.121962 
1546.000000	38.101196 
1545.000000	38.085985 
1544.000000	38.077068 
1543.000000	38.074088 
1542.000000	38.075852 
1541.000000	38.080167 
1540.000000	38.084554 
1539.000000	38.086485 
1538.000000	38.084268 
1537.000000	38.077139 
1536.000000	38.065600 
1535.000000	38.051033 
1534.000000	38.035464 
1533.000000	38.020873 
1532.000000	38.008832 
1531.000000	38.000035 
1530.000000	37.994170 
1529.000000	37.990260 
1528.000000	37.986612 
1527.000000	37.981367 
1526.000000	37.972998 
1525.000000	37.960505 
1524.000000	37.943530 
1523.000000	37.922501 
1522.000000	37.898325 
1521.000000	37.872385 
1520.000000	37.846279 
1519.000000	37.821507 
1518.000000	37.799215 
1517.000000	37.780356 
1516.000000	37.765121 
1515.000000	37.753367 
1514.000000	37.744498 
1513.000000	37.737751 
1512.000000	37.732362 
1511.000000	37.727808 
1510.000000	37.723779 
1509.000000	37.720131 
1508.000000	37.716722 
1507.000000	37.713336 
1506.000000	37.709569 
1505.000000	37.704634 
1504.000000	37.697720 
1503.000000	37.688136 
1502.000000	37.675547 
1501.000000	37.660145 
1500.000000	37.642598 
1499.000000	37.623882 
1498.000000	37.605166 
1497.000000	37.586998 
1496.000000	37.569260 
1495.000000	37.550973 
1494.000000	37.530827 
1493.000000	37.507557 
1492.000000	37.480545 
1491.000000	37.450337 
1490.000000	37.418508 
1489.000000	37.387204 
1488.000000	37.358832 
1487.000000	37.335157 
1486.000000	37.317228 
1485.000000	37.304711 
1484.000000	37.296628 
1483.000000	37.291336 
1482.000000	37.287235 
1481.000000	37.282943 
1480.000000	37.277722 
1479.000000	37.271356 
1478.000000	37.264347 
1477.000000	37.257242 
1476.000000	37.250900 
1475.000000	37.245702 
1474.000000	37.241959 
1473.000000	37.239670 
1472.000000	37.238550 
1471.000000	37.238216 
1470.000000	37.238216 
1469.000000	37.238025 
1468.000000	37.236928 
1467.000000	37.234306 
1466.000000	37.229394 
1465.000000	37.221598 
1464.000000	37.210464 
1463.000000	37.196063 
1462.000000	37.179183 
1461.000000	37.161159 
1460.000000	37.143707 
1459.000000	37.128520 
1458.000000	37.117099 
1457.000000	37.110161 
1456.000000	37.107586 
1455.000000	37.108492 
1454.000000	37.111330 
1453.000000	37.114262 
1452.000000	37.115740 
1451.000000	37.114620 
1450.000000	37.110233 
1449.000000	37.102508 
1448.000000	37.091732 
1447.000000	37.078237 
1446.000000	37.062335 
1445.000000	37.044239 
1444.000000	37.024068 
1443.000000	37.001943 
1442.000000	36.977982 
1441.000000	36.952519 
1440.000000	36.925601 
1439.000000	36.897373 
1438.000000	36.867380 
1437.000000	36.834812 
1436.000000	36.798691 
1435.000000	36.758112 
1434.000000	36.712694 
1433.000000	36.662888 
1432.000000	36.610293 
1431.000000	36.557626 
1430.000000	36.508488 
1429.000000	36.466407 
1428.000000	36.434650 
1427.000000	36.415123 
1426.000000	36.408376 
1425.000000	36.413121 
1424.000000	36.426782 
1423.000000	36.445736 
1422.000000	36.466145 
1421.000000	36.484527 
1420.000000	36.498188 
1419.000000	36.505556 
1418.000000	36.506152 
1417.000000	36.500263 
1416.000000	36.488628 
1415.000000	36.472129 
1414.000000	36.451768 
1413.000000	36.428380 
1412.000000	36.402797 
1411.000000	36.375856 
1410.000000	36.348605 
1409.000000	36.321949 
1408.000000	36.296653 
1407.000000	36.273145 
1406.000000	36.251378 
1405.000000	36.231255 
1404.000000	36.212396 
1403.000000	36.194944 
1402.000000	36.179471 
1401.000000	36.167001 
1400.000000	36.158561 
1399.000000	36.155033 
1398.000000	36.156821 
1397.000000	36.163449 
1396.000000	36.173415 
1395.000000	36.184453 
1394.000000	36.193966 
1393.000000	36.199593 
1392.000000	36.199545 
1391.000000	36.192822 
1390.000000	36.179232 
1389.000000	36.159253 
1388.000000	36.133742 
1387.000000	36.103677 
1386.000000	36.069774 
1385.000000	36.032795 
1384.000000	35.993337 
1383.000000	35.952377 
1382.000000	35.911202 
1381.000000	35.871481 
1380.000000	35.834908 
1379.000000	35.803055 
1378.000000	35.777115 
1377.000000	35.757637 
1376.000000	35.744667 
1375.000000	35.737514 
1374.000000	35.735297 
1373.000000	35.736918 
1372.000000	35.741496 
1371.000000	35.748100 
1370.000000	35.756182 
1369.000000	35.765171 
1368.000000	35.774517 
1367.000000	35.783314 
1366.000000	35.790443 
1365.000000	35.794711 
1364.000000	35.794973 
1363.000000	35.790419 
1362.000000	35.780882 
1361.000000	35.766887 
1360.000000	35.749650 
1359.000000	35.730624 
1358.000000	35.711240 
1357.000000	35.692405 
1356.000000	35.674476 
1355.000000	35.657119 
1354.000000	35.639476 
1353.000000	35.620617 
1352.000000	35.599946 
1351.000000	35.577440 
1350.000000	35.553956 
1349.000000	35.530972 
1348.000000	35.510158 
1347.000000	35.493040 
1346.000000	35.480451 
1345.000000	35.472297 
1344.000000	35.467314 
1343.000000	35.463452 
1342.000000	35.458445 
1341.000000	35.449934 
1340.000000	35.436296 
1339.000000	35.416626 
1338.000000	35.391092 
1337.000000	35.360479 
1336.000000	35.326337 
1335.000000	35.290598 
1334.000000	35.255479 
1333.000000	35.223126 
1332.000000	35.195326 
1331.000000	35.173416 
1330.000000	35.158014 
1329.000000	35.148978 
1328.000000	35.145211 
1327.000000	35.144996 
1326.000000	35.146212 
1325.000000	35.146617 
1324.000000	35.144233 
1323.000000	35.137629 
1322.000000	35.126113 
1321.000000	35.109782 
1320.000000	35.089468 
1319.000000	35.066246 
1318.000000	35.041427 
1317.000000	35.016274 
1316.000000	34.992146 
1315.000000	34.970140 
1314.000000	34.951281 
1313.000000	34.936547 
1312.000000	34.926509 
1311.000000	34.921407 
1310.000000	34.920811 
1309.000000	34.923672 
1308.000000	34.928512 
1307.000000	34.933590 
1306.000000	34.937262 
1305.000000	34.938216 
1304.000000	34.935641 
1303.000000	34.929251 
1302.000000	34.919404 
1301.000000	34.906959 
1300.000000	34.892868 
1299.000000	34.878373 
1298.000000	34.864425 
1297.000000	34.851813 
1296.000000	34.841275 
1295.000000	34.833192 
1294.000000	34.827709 
1293.000000	34.824681 
1292.000000	34.823632 
1291.000000	34.823775 
1290.000000	34.824061 
1289.000000	34.823322 
1288.000000	34.820389 
1287.000000	34.814405 
1286.000000	34.804892 
1285.000000	34.791636 
1284.000000	34.774684 
1283.000000	34.754395 
1282.000000	34.731292 
1281.000000	34.706211 
1280.000000	34.680104 
1279.000000	34.654140 
1278.000000	34.629464 
1277.000000	34.607243 
1276.000000	34.588122 
1275.000000	34.572339 
1274.000000	34.559392 
1273.000000	34.548258 
1272.000000	34.537553 
1271.000000	34.525680 
1270.000000	34.511327 
1269.000000	34.493780 
1268.000000	34.473133 
1267.000000	34.450078 
1266.000000	34.425830 
1265.000000	34.401750 
1264.000000	34.379124 
1263.000000	34.358835 
1262.000000	34.341406 
1261.000000	34.327173 
1260.000000	34.316301 
1259.000000	34.308815 
1258.000000	34.304690 
1257.000000	34.303617 
1256.000000	34.304881 
1255.000000	34.307312 
1254.000000	34.309315 
1253.000000	34.309220 
1252.000000	34.305453 
1251.000000	34.296870 
1250.000000	34.282970 
1249.000000	34.264016 
1248.000000	34.240913 
1247.000000	34.214758 
1246.000000	34.186840 
1245.000000	34.157991 
1244.000000	34.128689 
1243.000000	34.098815 
1242.000000	34.068155 
1241.000000	34.036254 
1240.000000	34.003162 
1239.000000	33.969521 
1238.000000	33.936476 
1237.000000	33.905673 
1236.000000	33.878731 
1235.000000	33.857154 
1234.000000	33.841824 
1233.000000	33.832931 
1232.000000	33.829593 
1231.000000	33.830356 
1230.000000	33.833146 
1229.000000	33.835887 
1228.000000	33.836722 
1227.000000	33.834314 
1226.000000	33.828186 
1225.000000	33.818435 
1224.000000	33.805704 
1223.000000	33.790850 
1222.000000	33.774924 
1221.000000	33.758711 
1220.000000	33.742928 
1219.000000	33.728313 
1218.000000	33.715820 
1217.000000	33.706521 
1216.000000	33.701395 
1215.000000	33.701395 
1214.000000	33.706903 
1213.000000	33.717417 
1212.000000	33.731555 
1211.000000	33.746957 
1210.000000	33.760714 
1209.000000	33.769989 
1208.000000	33.772325 
1207.000000	33.766150 
1206.000000	33.751273 
1205.000000	33.728837 
1204.000000	33.701086 
1203.000000	33.670639 
1202.000000	33.640217 
1201.000000	33.611989 
1200.000000	33.587217 
1199.000000	33.566236 
1198.000000	33.548450 
1197.000000	33.532571 
1196.000000	33.516979 
1195.000000	33.500027 
1194.000000	33.480262 
1193.000000	33.456587 
1192.000000	33.428573 
1191.000000	33.396172 
1190.000000	33.359861 
1189.000000	33.320641 
1188.000000	33.279585 
1187.000000	33.238387 
1186.000000	33.198499 
1185.000000	33.161902 
1184.000000	33.130502 
1183.000000	33.106231 
1182.000000	33.090305 
1181.000000	33.083295 
1180.000000	33.084678 
1179.000000	33.092713 
1178.000000	33.104395 
1177.000000	33.116126 
1176.000000	33.124184 
1175.000000	33.125448 
1174.000000	33.118200 
1173.000000	33.102416 
1172.000000	33.079838 
1171.000000	33.053612 
1170.000000	33.027648 
1169.000000	33.005571 
1168.000000	32.989907 
1167.000000	32.981801 
1166.000000	32.980632 
1165.000000	32.984519 
1164.000000	32.990503 
1163.000000	32.995796 
1162.000000	32.997798 
1161.000000	32.994771 
1160.000000	32.986021 
1159.000000	32.971572 
1158.000000	32.952022 
1157.000000	32.928180 
1156.000000	32.900857 
1155.000000	32.871055 
1154.000000	32.839965 
1153.000000	32.809138 
1152.000000	32.780361 
1151.000000	32.755517 
1150.000000	32.736110 
1149.000000	32.723116 
1148.000000	32.716393 
1147.000000	32.714581 
1146.000000	32.715654 
1145.000000	32.717347 
1144.000000	32.717776 
1143.000000	32.715773 
1142.000000	32.711195 
1141.000000	32.704567 
1140.000000	32.697153 
1139.000000	32.690310 
1138.000000	32.684826 
1137.000000	32.680869 
1136.000000	32.678031 
1135.000000	32.675313 
1134.000000	32.671785 
1133.000000	32.666563 
1132.000000	32.659125 
1131.000000	32.649159 
1130.000000	32.636690 
1129.000000	32.621669 
1128.000000	32.603788 
1127.000000	32.582497 
1126.000000	32.557201 
1125.000000	32.527446 
1124.000000	32.493376 
1123.000000	32.455873 
1122.000000	32.416653 
1121.000000	32.378268 
1120.000000	32.343769 
1119.000000	32.316350 
1118.000000	32.298779 
1117.000000	32.293057 
1116.000000	32.300138 
1115.000000	32.319569 
1114.000000	32.349324 
1113.000000	32.386159 
1112.000000	32.425475 
1111.000000	32.462096 
1110.000000	32.490634 
1109.000000	32.506084 
1108.000000	32.504701 
1107.000000	32.484936 
1106.000000	32.447600 
1105.000000	32.395911 
1104.000000	32.334852 
1103.000000	32.270598 
1102.000000	32.209348 
1101.000000	32.156372 
1100.000000	32.115221 
1099.000000	32.087349 
1098.000000	32.072162 
1097.000000	32.067751 
1096.000000	32.071161 
1095.000000	32.079195 
1094.000000	32.089161 
1093.000000	32.099151 
1092.000000	32.108306 
1091.000000	32.116341 
1090.000000	32.123565 
1089.000000	32.130146 
1088.000000	32.135963 
1087.000000	32.139801 
1086.000000	32.139921 
1085.000000	32.133674 
1084.000000	32.117986 
1083.000000	32.090115 
1082.000000	32.047867 
1081.000000	31.991124 
1080.000000	31.922125 
1079.000000	31.845617 
1078.000000	31.768202 
1077.000000	31.697583 
1076.000000	31.641221 
1075.000000	31.605029 
1074.000000	31.592202 
1073.000000	31.602668 
1072.000000	31.632971 
1071.000000	31.677412 
1070.000000	31.729006 
1069.000000	31.781077 
1068.000000	31.828165 
1067.000000	31.866979 
1066.000000	31.896257 
1065.000000	31.916546 
1064.000000	31.929421 
1063.000000	31.936645 
1062.000000	31.939435 
1061.000000	31.938862 
1060.000000	31.934928 
1059.000000	31.927657 
1058.000000	31.916189 
1057.000000	31.899595 
1056.000000	31.876540 
1055.000000	31.845641 
1054.000000	31.805944 
1053.000000	31.757497 
1052.000000	31.701993 
1051.000000	31.643009 
1050.000000	31.585836 
1049.000000	31.536388 
1048.000000	31.500172 
1047.000000	31.481409 
1046.000000	31.481361 
1045.000000	31.497955 
1044.000000	31.525731 
1043.000000	31.556844 
1042.000000	31.582832 
1041.000000	31.596183 
1040.000000	31.591868 
1039.000000	31.568288 
1038.000000	31.527519 
1037.000000	31.474494 
1036.000000	31.415462 
1035.000000	31.355929 
1034.000000	31.300020 
1033.000000	31.249117 
1032.000000	31.201958 
1031.000000	31.155872 
1030.000000	31.108140 
1029.000000	31.057929 
1028.000000	31.006193 
1027.000000	30.957198 
1026.000000	30.917143 
1025.000000	30.893397 
1024.000000	30.891776 
1023.000000	30.914974 
1022.000000	30.961084 
1021.000000	31.023693 
1020.000000	31.092691 
1019.000000	31.156063 
1018.000000	31.201910 
1017.000000	31.221485 
1016.000000	31.210947 
1015.000000	31.171941 
1014.000000	31.110811 
1013.000000	31.037640 
1012.000000	30.963563 
1011.000000	30.898571 
1010.000000	30.849242 
1009.000000	30.817914 
1008.000000	30.801963 
1007.000000	30.795192 
1006.000000	30.788969 
1005.000000	30.774450 
1004.000000	30.744338 
1003.000000	30.693936 
1002.000000	30.622625 
1001.000000	30.532956 
1000.000000	30.431461 
999.000000	 30.326533 
998.000000	 30.228209 
997.000000	 30.145668 
996.000000	 30.086946 
995.000000	 30.057096 
994.000000	 30.058407 
993.000000	 30.089402 
992.000000	 30.145859 
991.000000	 30.221176 
990.000000	 30.307722 
989.000000	 30.397439 
988.000000	 30.483245 
987.000000	 30.559515 
986.000000	 30.622315 
985.000000	 30.669045 
984.000000	 30.698418 
983.000000	 30.710077 
982.000000	 30.704569 
981.000000	 30.683231 
980.000000	 30.648279 
979.000000	 30.602383 
978.000000	 30.549883 
977.000000	 30.494999 
976.000000	 30.441951 
975.000000	 30.393648 
974.000000	 30.351543 
973.000000	 30.315494 
972.000000	 30.283832 
971.000000	 30.254387 
970.000000	 30.225133 
969.000000	 30.195283 
968.000000	 30.165386 
967.000000	 30.137705 
966.000000	 30.115151 
965.000000	 30.100369 
964.000000	 30.094361 
963.000000	 30.095958 
962.000000	 30.101585 
961.000000	 30.106258 
960.000000	 30.104780 
959.000000	 30.092811 
958.000000	 30.067992 
957.000000	 30.030703 
956.000000	 29.984116 
955.000000	 29.932856 
954.000000	 29.881834 
953.000000	 29.835605 
952.000000	 29.797363 
951.000000	 29.768586 
950.000000	 29.748940 
949.000000	 29.736995 
948.000000	 29.730367 
947.000000	 29.726791 
946.000000	 29.724121 
945.000000	 29.720377 
944.000000	 29.714012 
943.000000	 29.703831 
942.000000	 29.689240 
941.000000	 29.670095 
940.000000	 29.647111 
939.000000	 29.621839 
938.000000	 29.596185 
937.000000	 29.572343 
936.000000	 29.551863 
935.000000	 29.535412 
934.000000	 29.522204 
933.000000	 29.510045 
932.000000	 29.495978 
931.000000	 29.477119 
930.000000	 29.451489 
929.000000	 29.418897 
928.000000	 29.381132 
927.000000	 29.341602 
926.000000	 29.304790 
925.000000	 29.274868 
924.000000	 29.254865 
923.000000	 29.245662 
922.000000	 29.246044 
921.000000	 29.252719 
920.000000	 29.261469 
919.000000	 29.268097 
918.000000	 29.269075 
917.000000	 29.262280 
916.000000	 29.247164 
915.000000	 29.224562 
914.000000	 29.196095 
913.000000	 29.163789 
912.000000	 29.129600 
911.000000	 29.095387 
910.000000	 29.062747 
909.000000	 29.033374 
908.000000	 29.008984 
907.000000	 28.991079 
906.000000	 28.980565 
905.000000	 28.977394 
904.000000	 28.980350 
903.000000	 28.987121 
902.000000	 28.994321 
901.000000	 28.998112 
900.000000	 28.994870 
899.000000	 28.982138 
898.000000	 28.959178 
897.000000	 28.926944 
896.000000	 28.887939 
895.000000	 28.845715 
894.000000	 28.804302 
893.000000	 28.767347 
892.000000	 28.737568 
891.000000	 28.716921 
890.000000	 28.705930 
889.000000	 28.704047 
888.000000	 28.709745 
887.000000	 28.720617 
886.000000	 28.734159 
885.000000	 28.747272 
884.000000	 28.757905 
883.000000	 28.764653 
882.000000	 28.767490 
881.000000	 28.767442 
880.000000	 28.765988 
879.000000	 28.764176 
878.000000	 28.762149 
877.000000	 28.758764 
876.000000	 28.751373 
875.000000	 28.736376 
874.000000	 28.710389 
873.000000	 28.671360 
872.000000	 28.619265 
871.000000	 28.556609 
870.000000	 28.488230 
869.000000	 28.420281 
868.000000	 28.359055 
867.000000	 28.309297 
866.000000	 28.273320 
865.000000	 28.250432 
864.000000	 28.237366 
863.000000	 28.229165 
862.000000	 28.220629 
861.000000	 28.207564 
860.000000	 28.187394 
859.000000	 28.159952 
858.000000	 28.126573 
857.000000	 28.090262 
856.000000	 28.054404 
855.000000	 28.022241 
854.000000	 27.995920 
853.000000	 27.976632 
852.000000	 27.964639 
851.000000	 27.959680 
850.000000	 27.961063 
849.000000	 27.968263 
848.000000	 27.980875 
847.000000	 27.998232 
846.000000	 28.018951 
845.000000	 28.040742 
844.000000	 28.060364 
843.000000	 28.074169 
842.000000	 28.078532 
841.000000	 28.070807 
840.000000	 28.049826 
839.000000	 28.016996 
838.000000	 27.975463 
837.000000	 27.929592 
836.000000	 27.883720 
835.000000	 27.841663 
834.000000	 27.805042 
833.000000	 27.772998 
832.000000	 27.742552 
831.000000	 27.709555 
830.000000	 27.670717 
829.000000	 27.624630 
828.000000	 27.572488 
827.000000	 27.518105 
826.000000	 27.466392 
825.000000	 27.421975 
824.000000	 27.387499 
823.000000	 27.362990 
822.000000	 27.345681 
821.000000	 27.331018 
820.000000	 27.314257 
819.000000	 27.292060 
818.000000	 27.263283 
817.000000	 27.229595 
816.000000	 27.194285 
815.000000	 27.161788 
814.000000	 27.136731 
813.000000	 27.122569 
812.000000	 27.120614 
811.000000	 27.129745 
810.000000	 27.146840 
809.000000	 27.167153 
808.000000	 27.185487 
807.000000	 27.196788 
806.000000	 27.197217 
805.000000	 27.184581 
804.000000	 27.158403 
803.000000	 27.120089 
802.000000	 27.072334 
801.000000	 27.019238 
800.000000	 26.965546 
799.000000	 26.916503 
798.000000	 26.876926 
797.000000	 26.851224 
796.000000	 26.842308 
795.000000	 26.850867 
794.000000	 26.874804 
793.000000	 26.909446 
792.000000	 26.947808 
791.000000	 26.981115 
790.000000	 27.000355 
789.000000	 26.997971 
788.000000	 26.969552 
787.000000	 26.915431 
786.000000	 26.840305 
785.000000	 26.752758 
784.000000	 26.663041 
783.000000	 26.581740 
782.000000	 26.516509 
781.000000	 26.470899 
780.000000	 26.443219 
779.000000	 26.427865 
778.000000	 26.416707 
777.000000	 26.401448 
776.000000	 26.376128 
775.000000	 26.338720 
774.000000	 26.291775 
773.000000	 26.241230 
772.000000	 26.195216 
771.000000	 26.161432 
770.000000	 26.145625 
769.000000	 26.149892 
768.000000	 26.172876 
767.000000	 26.209926 
766.000000	 26.255083 
765.000000	 26.301670 
764.000000	 26.343441 
763.000000	 26.374602 
762.000000	 26.390290 
761.000000	 26.386141 
760.000000	 26.358485 
759.000000	 26.304268 
758.000000	 26.222157 
757.000000	 26.112985 
756.000000	 25.981235 
755.000000	 25.834822 
754.000000	 25.684905 
753.000000	 25.544166 
752.000000	 25.425219 
751.000000	 25.338125 
750.000000	 25.288629 
749.000000	 25.276970 
748.000000	 25.297760 
747.000000	 25.341320 
746.000000	 25.395536 
745.000000	 25.448679 
744.000000	 25.491189 
743.000000	 25.517654 
742.000000	 25.527048 
741.000000	 25.522589 
740.000000	 25.510239 
739.000000	 25.497341 
738.000000	 25.490164 
737.000000	 25.493073 
736.000000	 25.506520 
735.000000	 25.528216 
734.000000	 25.552296 
733.000000	 25.571703 
732.000000	 25.578355 
731.000000	 25.565600 
730.000000	 25.528860 
729.000000	 25.466799 
728.000000	 25.381755 
727.000000	 25.279283 
726.000000	 25.167775 
725.000000	 25.056910 
724.000000	 24.956464 
723.000000	 24.875211 
722.000000	 24.818944 
721.000000	 24.789714 
720.000000	 24.785757 
719.000000	 24.802207 
718.000000	 24.832153 
717.000000	 24.867820 
716.000000	 24.901890 
715.000000	 24.928617 
714.000000	 24.944949 
713.000000	 24.950695 
712.000000	 24.947476 
711.000000	 24.937915 
710.000000	 24.925017 
709.000000	 24.911046 
708.000000	 24.897480 
707.000000	 24.884200 
706.000000	 24.870443 
705.000000	 24.854421 
704.000000	 24.834489 
703.000000	 24.809026 
702.000000	 24.777007 
701.000000	 24.738216 
700.000000	 24.693274 
699.000000	 24.644136 
698.000000	 24.593949 
697.000000	 24.546813 
696.000000	 24.507498 
695.000000	 24.479794 
694.000000	 24.465870 
693.000000	 24.464821 
692.000000	 24.472928 
691.000000	 24.483299 
690.000000	 24.487137 
689.000000	 24.475741 
688.000000	 24.442601 
687.000000	 24.385571 
686.000000	 24.307775 
685.000000	 24.217224 
684.000000	 24.124836 
683.000000	 24.042248 
682.000000	 23.978972 
681.000000	 23.939657 
680.000000	 23.923468 
679.000000	 23.924827 
678.000000	 23.935246 
677.000000	 23.945641 
676.000000	 23.948717 
675.000000	 23.940610 
674.000000	 23.921537 
673.000000	 23.894357 
672.000000	 23.863863 
671.000000	 23.834705 
670.000000	 23.810076 
669.000000	 23.790621 
668.000000	 23.774671 
667.000000	 23.759460 
666.000000	 23.741507 
665.000000	 23.718357 
664.000000	 23.688769 
663.000000	 23.653507 
662.000000	 23.614335 
661.000000	 23.573565 
660.000000	 23.533010 
659.000000	 23.493623 
658.000000	 23.455286 
657.000000	 23.417067 
656.000000	 23.377656 
655.000000	 23.335671 
654.000000	 23.290777 
653.000000	 23.243141 
652.000000	 23.193144 
651.000000	 23.141360 
650.000000	 23.088645 
649.000000	 23.036003 
648.000000	 22.984147 
647.000000	 22.933578 
646.000000	 22.885251 
645.000000	 22.839307 
644.000000	 22.795414 
643.000000	 22.751832 
642.000000	 22.705912 
641.000000	 22.654223 
640.000000	 22.593379 
639.000000	 22.521376 
638.000000	 22.438001 
637.000000	 22.346234 
636.000000	 22.251701 
635.000000	 22.162318 
634.000000	 22.086572 
633.000000	 22.031784 
632.000000	 22.002768 
631.000000	 22.000384 
630.000000	 22.021818 
629.000000	 22.061204 
628.000000	 22.111535 
627.000000	 22.165584 
626.000000	 22.218012 
625.000000	 22.265553 
624.000000	 22.307729 
623.000000	 22.345471 
622.000000	 22.380852 
621.000000	 22.415757 
620.000000	 22.450804 
619.000000	 22.485756 
618.000000	 22.518038 
617.000000	 22.544240 
616.000000	 22.559499 
615.000000	 22.559833 
614.000000	 22.541713 
613.000000	 22.503399 
612.000000	 22.445297 
611.000000	 22.370409 
610.000000	 22.284102 
609.000000	 22.193431 
608.000000	 22.106194 
607.000000	 22.029709 
606.000000	 21.968603 
605.000000	 21.924281 
604.000000	 21.894574 
603.000000	 21.874547 
602.000000	 21.857714 
601.000000	 21.837997 
600.000000	 21.810889 
599.000000	 21.774649 
598.000000	 21.730756 
597.000000	 21.683001 
596.000000	 21.635270 
595.000000	 21.591305 
594.000000	 21.553516 
593.000000	 21.522831 
592.000000	 21.497964 
591.000000	 21.476507 
590.000000	 21.456003 
589.000000	 21.434068 
588.000000	 21.408772 
587.000000	 21.379280 
586.000000	 21.345758 
585.000000	 21.309399 
584.000000	 21.271252 
583.000000	 21.233582 
582.000000	 21.199369 
581.000000	 21.172237 
580.000000	 21.155667 
579.000000	 21.152234 
578.000000	 21.162438 
577.000000	 21.184086 
576.000000	 21.211838 
575.000000	 21.237182 
574.000000	 21.249961 
573.000000	 21.240401 
572.000000	 21.201515 
571.000000	 21.130967 
570.000000	 21.031856 
569.000000	 20.913100 
568.000000	 20.786905 
567.000000	 20.666933 
566.000000	 20.564246 
565.000000	 20.486068 
564.000000	 20.432734 
563.000000	 20.398902 
562.000000	 20.373964 
561.000000	 20.345449 
560.000000	 20.301866 
559.000000	 20.235443 
558.000000	 20.144081 
557.000000	 20.031380 
556.000000	 19.905996 
555.000000	 19.779086 
554.000000	 19.662642 
553.000000	 19.566464 
552.000000	 19.496798 
551.000000	 19.455075 
550.000000	 19.438576 
549.000000	 19.441437 
548.000000	 19.455933 
547.000000	 19.474601 
546.000000	 19.490361 
545.000000	 19.498753 
544.000000	 19.497370 
543.000000	 19.486570 
542.000000	 19.468164 
541.000000	 19.444918 
540.000000	 19.419765 
539.000000	 19.394254 
538.000000	 19.369268 
537.000000	 19.343352 
536.000000	 19.313383 
535.000000	 19.275736 
534.000000	 19.227194 
533.000000	 19.166946 
532.000000	 19.096851 
531.000000	 19.022607 
530.000000	 18.952608 
529.000000	 18.897342 
528.000000	 18.866705 
527.000000	 18.867492 
526.000000	 18.900990 
525.000000	 18.962049 
524.000000	 19.039440 
523.000000	 19.117760 
522.000000	 19.180703 
521.000000	 19.214057 
520.000000	 19.208931 
519.000000	 19.163727 
518.000000	 19.084119 
517.000000	 18.981957 
516.000000	 18.871665 
515.000000	 18.767333 
514.000000	 18.679213 
513.000000	 18.612909 
512.000000	 18.568229 
511.000000	 18.541121 
510.000000	 18.524479 
509.000000	 18.511652 
508.000000	 18.496727 
507.000000	 18.476486 
506.000000	 18.449115 
505.000000	 18.413662 
504.000000	 18.368721 
503.000000	 18.311643 
502.000000	 18.239474 
501.000000	 18.149852 
500.000000	 18.042755 
499.000000	 17.921638 
498.000000	 17.794036 
497.000000	 17.670607 
496.000000	 17.563176 
495.000000	 17.481923 
494.000000	 17.432856 
493.000000	 17.415761 
492.000000	 17.423868 
491.000000	 17.445278 
490.000000	 17.464876 
489.000000	 17.468619 
488.000000	 17.446470 
487.000000	 17.395472 
486.000000	 17.319750 
485.000000	 17.229938 
484.000000	 17.140150 
483.000000	 17.064070 
482.000000	 17.010998 
481.000000	 16.983294 
480.000000	 16.976547 
479.000000	 16.980552 
478.000000	 16.983222 
477.000000	 16.972613 
476.000000	 16.940307 
475.000000	 16.883611 
474.000000	 16.806173 
473.000000	 16.715455 
472.000000	 16.620540 
471.000000	 16.529321 
470.000000	 16.447281 
469.000000	 16.377425 
468.000000	 16.321516 
467.000000	 16.280627 
466.000000	 16.256284 
465.000000	 16.252541 
464.000000	 16.274118 
463.000000	 16.322636 
462.000000	 16.396498 
461.000000	 16.488313 
460.000000	 16.587233 
459.000000	 16.681218 
458.000000	 16.758584 
457.000000	 16.811609 
456.000000	 16.835284 
455.000000	 16.830325 
454.000000	 16.797113 
453.000000	 16.737079 
452.000000	 16.646552 
451.000000	 16.518068 
450.000000	 16.342520 
449.000000	 16.114306 
448.000000	 15.834498 
447.000000	 15.514016 
446.000000	 15.176725 
445.000000	 14.857149 
444.000000	 14.594054 
443.000000	 14.423775 
442.000000	 14.370894 
441.000000	 14.444112 
440.000000	 14.637112 
439.000000	 14.928579 
438.000000	 15.286803 
437.000000	 15.672731 
436.000000	 16.045641 
435.000000	 16.366577 
434.000000	 16.601204 
433.000000	 16.724252 
432.000000	 16.723322 
431.000000	 16.599345 
430.000000	 16.364002 
429.000000	 16.042017 
428.000000	 15.668940 
427.000000	 15.288233 
426.000000	 14.946460 
425.000000	 14.688062 
424.000000	 14.546108 
423.000000	 14.546179 
422.000000	 14.706230 
421.000000	 15.021753 
420.000000	 15.461611 
419.000000	 15.978717 
418.000000	 16.516184 
417.000000	 17.001891 
416.000000	 17.361259 
415.000000	 17.529988 
414.000000	 17.469954 
413.000000	 17.178392 
412.000000	 16.690421 
411.000000	 16.094160 
410.000000	 15.494346 
409.000000	 14.983940 
408.000000	 14.616394 
407.000000	 14.389705 
406.000000	 14.251160 
405.000000	 14.134168 
404.000000	 13.965845 
403.000000	 13.677096 
402.000000	 13.243198 
401.000000	 12.684249 
400.000000	 12.086939 
399.000000	 11.531066 
398.000000	 11.174893 
397.000000	 11.219000 
396.000000	 11.877179 
395.000000	 13.333463 
394.000000	 15.633869 
393.000000	 18.643021 
392.000000	 22.064614 
391.000000	 25.503754 
390.000000	 28.518652 
389.000000	 30.728125 
388.000000	 32.021641 
387.000000	 32.552695 
386.000000	 32.639551 
385.000000	 32.668709 
384.000000	 32.920432 
383.000000	 33.512401 
382.000000	 34.476208 
381.000000	 35.640716 
380.000000	 36.910343 
379.000000	 38.005089 
378.000000	 38.447451 
377.000000	 37.678599 
376.000000	 35.102200 
375.000000	 30.399942 
374.000000	 23.713231 
373.000000	 15.638780 
372.000000	 7.330131  
371.000000	 -0.104665 
370.000000	 -5.959939 

