PE IR       SPECTRUM    SPECTRUM    ASCII       PEDS        1.60        
  -1
C-468B~1.ASC
17/03/28
00:40:25.00
17/03/28
00:40:25.00
tln
$C-4040-8_t0121$<tbV0>[-13.0,13.0,8.0,0.0,27,1,0]
370.000000
64









2002,4.07    
MIRTGS : RIGHTBACK : INTERNAL 2
MIR : ON : INTERNAL 2
OPTKBR

0.200000
8
8.000000
FILLER
RATIO
SPECTRUM
UNLOCKED 256

DOUBLE
64
COMBINED
1
0
0


1.000000
RATIO


1
0
TRUE
51149
0
LEFT NOT FITTED RIGHT NOT FITTED 0
NONE
NONE
15600
12.000000
4.427000
51148
TRUE
1 0 8 72 0 0 0 0 

15798.010000






#HDR
-1
-1
#GR
CM-1
%T
0.00002384185791015625
0.0
5000.000000
-1.000000
4631
8
84.163451
42.275786
#DATA
5000.000000	64.586448 
4999.000000	64.538788 
4998.000000	64.484262 
4997.000000	64.427280 
4996.000000	64.374542 
4995.000000	64.333438 
4994.000000	64.311218 
4993.000000	64.311766 
4992.000000	64.336872 
4991.000000	64.386081 
4990.000000	64.456582 
4989.000000	64.543223 
4988.000000	64.639878 
4987.000000	64.740085 
4986.000000	64.837193 
4985.000000	64.924573 
4984.000000	64.997196 
4983.000000	65.052199 
4982.000000	65.089273 
4981.000000	65.110349 
4980.000000	65.118694 
4979.000000	65.117502 
4978.000000	65.109753 
4977.000000	65.096879 
4976.000000	65.079021 
4975.000000	65.054678 
4974.000000	65.023064 
4973.000000	64.982938 
4972.000000	64.934134 
4971.000000	64.876341 
4970.000000	64.810919 
4969.000000	64.738678 
4968.000000	64.659690 
4967.000000	64.573073 
4966.000000	64.477920 
4965.000000	64.373207 
4964.000000	64.258360 
4963.000000	64.134621 
4962.000000	64.005780 
4961.000000	63.878154 
4960.000000	63.759517 
4959.000000	63.658809 
4958.000000	63.583922 
4957.000000	63.541817 
4956.000000	63.536858 
4955.000000	63.569927 
4954.000000	63.637995 
4953.000000	63.734817 
4952.000000	63.851690 
4951.000000	63.977646 
4950.000000	64.101672 
4949.000000	64.213895 
4948.000000	64.307856 
4947.000000	64.380168 
4946.000000	64.431953 
4945.000000	64.467597 
4944.000000	64.494538 
4943.000000	64.521145 
4942.000000	64.555311 
4941.000000	64.603233 
4940.000000	64.667940 
4939.000000	64.749836 
4938.000000	64.845991 
4937.000000	64.951038 
4936.000000	65.058088 
4935.000000	65.160894 
4934.000000	65.253353 
4933.000000	65.330624 
4932.000000	65.389585 
4931.000000	65.429520 
4930.000000	65.450429 
4929.000000	65.452623 
4928.000000	65.437555 
4927.000000	65.407490 
4926.000000	65.364742 
4925.000000	65.311455 
4924.000000	65.250110 
4923.000000	65.182614 
4922.000000	65.111756 
4921.000000	65.040016 
4920.000000	64.968967 
4919.000000	64.899539 
4918.000000	64.832878 
4917.000000	64.770388 
4916.000000	64.712715 
4915.000000	64.661169 
4914.000000	64.617252 
4913.000000	64.583063 
4912.000000	64.559888 
4911.000000	64.549112 
4910.000000	64.550304 
4909.000000	64.563155 
4908.000000	64.585876 
4907.000000	64.618420 
4906.000000	64.661693 
4905.000000	64.718556 
4904.000000	64.792203 
4903.000000	64.885878 
4902.000000	65.000605 
4901.000000	65.133190 
4900.000000	65.274691 
4899.000000	65.410780 
4898.000000	65.522909 
4897.000000	65.592026 
4896.000000	65.602278 
4895.000000	65.545082 
4894.000000	65.421628 
4893.000000	65.244150 
4892.000000	65.034151 
4891.000000	64.818239 
4890.000000	64.623832 
4889.000000	64.474201 
4888.000000	64.384794 
4887.000000	64.361906 
4886.000000	64.402008 
4885.000000	64.494180 
4884.000000	64.622187 
4883.000000	64.767813 
4882.000000	64.913702 
4881.000000	65.044736 
4880.000000	65.150117 
4879.000000	65.222883 
4878.000000	65.260815 
4877.000000	65.265274 
4876.000000	65.241193 
4875.000000	65.195965 
4874.000000	65.138673 
4873.000000	65.078639 
4872.000000	65.024256 
4871.000000	64.981484 
4870.000000	64.953398 
4869.000000	64.939594 
4868.000000	64.937281 
4867.000000	64.941477 
4866.000000	64.946746 
4865.000000	64.947533 
4864.000000	64.939570 
4863.000000	64.920091 
4862.000000	64.887547 
4861.000000	64.842414 
4860.000000	64.785790 
4859.000000	64.720988 
4858.000000	64.652895 
4857.000000	64.588236 
4856.000000	64.534330 
4855.000000	64.498424 
4854.000000	64.486622 
4853.000000	64.502072 
4852.000000	64.544248 
4851.000000	64.607787 
4850.000000	64.683151 
4849.000000	64.758729 
4848.000000	64.823341 
4847.000000	64.868474 
4846.000000	64.889979 
4845.000000	64.889144 
4844.000000	64.871716 
4843.000000	64.846539 
4842.000000	64.822435 
4841.000000	64.805865 
4840.000000	64.798521 
4839.000000	64.797997 
4838.000000	64.797973 
4837.000000	64.791059 
4836.000000	64.770913 
4835.000000	64.734911 
4834.000000	64.685106 
4833.000000	64.627552 
4832.000000	64.571356 
4831.000000	64.525747 
4830.000000	64.497995 
4829.000000	64.491128 
4828.000000	64.503788 
4827.000000	64.530467 
4826.000000	64.563298 
4825.000000	64.594292 
4824.000000	64.617395 
4823.000000	64.629960 
4822.000000	64.633226 
4821.000000	64.631557 
4820.000000	64.631032 
4819.000000	64.637374 
4818.000000	64.654588 
4817.000000	64.683270 
4816.000000	64.720916 
4815.000000	64.761686 
4814.000000	64.798164 
4813.000000	64.822769 
4812.000000	64.829540 
4811.000000	64.815831 
4810.000000	64.783120 
4809.000000	64.737105 
4808.000000	64.686322 
4807.000000	64.640474 
4806.000000	64.608526 
4805.000000	64.596080 
4804.000000	64.604496 
4803.000000	64.630174 
4802.000000	64.666175 
4801.000000	64.703130 
4800.000000	64.731907 
4799.000000	64.745545 
4798.000000	64.740729 
4797.000000	64.718770 
4796.000000	64.684677 
4795.000000	64.646673 
4794.000000	64.613771 
4793.000000	64.594244 
4792.000000	64.593625 
4791.000000	64.613747 
4790.000000	64.652085 
4789.000000	64.703011 
4788.000000	64.758443 
4787.000000	64.810013 
4786.000000	64.850211 
4785.000000	64.873743 
4784.000000	64.878034 
4783.000000	64.863014 
4782.000000	64.830660 
4781.000000	64.784407 
4780.000000	64.727950 
4779.000000	64.664888 
4778.000000	64.598011 
4777.000000	64.530205 
4776.000000	64.463520 
4775.000000	64.399862 
4774.000000	64.341235 
4773.000000	64.289665 
4772.000000	64.247751 
4771.000000	64.217591 
4770.000000	64.201402 
4769.000000	64.200639 
4768.000000	64.216637 
4767.000000	64.249706 
4766.000000	64.298844 
4765.000000	64.361310 
4764.000000	64.432191 
4763.000000	64.505028 
4762.000000	64.571905 
4761.000000	64.625191 
4760.000000	64.659118 
4759.000000	64.671325 
4758.000000	64.663505 
4757.000000	64.641475 
4756.000000	64.613986 
4755.000000	64.590907 
4754.000000	64.580845 
4753.000000	64.589190 
4752.000000	64.617323 
4751.000000	64.662265 
4750.000000	64.718127 
4749.000000	64.777278 
4748.000000	64.832186 
4747.000000	64.877343 
4746.000000	64.910340 
4745.000000	64.931893 
4744.000000	64.944887 
4743.000000	64.953207 
4742.000000	64.960074 
4741.000000	64.966654 
4740.000000	64.971375 
4739.000000	64.970517 
4738.000000	64.959216 
4737.000000	64.933300 
4736.000000	64.890527 
4735.000000	64.831590 
4734.000000	64.760088 
4733.000000	64.682173 
4732.000000	64.605188 
4731.000000	64.535689 
4730.000000	64.478564 
4729.000000	64.436101 
4728.000000	64.408278 
4727.000000	64.393401 
4726.000000	64.389061 
4725.000000	64.393258 
4724.000000	64.404821 
4723.000000	64.423274 
4722.000000	64.447903 
4721.000000	64.476799 
4720.000000	64.506578 
4719.000000	64.531993 
4718.000000	64.547801 
4717.000000	64.549875 
4716.000000	64.536714 
4715.000000	64.509844 
4714.000000	64.473772 
4713.000000	64.434933 
4712.000000	64.399528 
4711.000000	64.372229 
4710.000000	64.355111 
4709.000000	64.347672 
4708.000000	64.347290 
4707.000000	64.350724 
4706.000000	64.355516 
4705.000000	64.361166 
4704.000000	64.369225 
4703.000000	64.383006 
4702.000000	64.405560 
4701.000000	64.439105 
4700.000000	64.483594 
4699.000000	64.536762 
4698.000000	64.593887 
4697.000000	64.649152 
4696.000000	64.697432 
4695.000000	64.734411 
4694.000000	64.757442 
4693.000000	64.765572 
4692.000000	64.759707 
4691.000000	64.741992 
4690.000000	64.715433 
4689.000000	64.682984 
4688.000000	64.647579 
4687.000000	64.610886 
4686.000000	64.573621 
4685.000000	64.535021 
4684.000000	64.493751 
4683.000000	64.448285 
4682.000000	64.398241 
4681.000000	64.344620 
4680.000000	64.290618 
4679.000000	64.241194 
4678.000000	64.202594 
4677.000000	64.180564 
4676.000000	64.179611 
4675.000000	64.200711 
4674.000000	64.242005 
4673.000000	64.297819 
4672.000000	64.361000 
4671.000000	64.424061 
4670.000000	64.481520 
4669.000000	64.530253 
4668.000000	64.570450 
4667.000000	64.604473 
4666.000000	64.635634 
4665.000000	64.666485 
4664.000000	64.697885 
4663.000000	64.728617 
4662.000000	64.755702 
4661.000000	64.775562 
4660.000000	64.785003 
4659.000000	64.782452 
4658.000000	64.768338 
4657.000000	64.745235 
4656.000000	64.716339 
4655.000000	64.685010 
4654.000000	64.653587 
4653.000000	64.623570 
4652.000000	64.596176 
4651.000000	64.572644 
4650.000000	64.554858 
4649.000000	64.545154 
4648.000000	64.545917 
4647.000000	64.558959 
4646.000000	64.583969 
4645.000000	64.619016 
4644.000000	64.659929 
4643.000000	64.701604 
4642.000000	64.738821 
4641.000000	64.767384 
4640.000000	64.784741 
4639.000000	64.790534 
4638.000000	64.786553 
4637.000000	64.775967 
4636.000000	64.762449 
4635.000000	64.749455 
4634.000000	64.739847 
4633.000000	64.735317 
4632.000000	64.736342 
4631.000000	64.742255 
4630.000000	64.751076 
4629.000000	64.759540 
4628.000000	64.763092 
4627.000000	64.756441 
4626.000000	64.734411 
4625.000000	64.693260 
4624.000000	64.631772 
4623.000000	64.552116 
4622.000000	64.460134 
4621.000000	64.363861 
4620.000000	64.273333 
4619.000000	64.197683 
4618.000000	64.145255 
4617.000000	64.121389 
4616.000000	64.129161 
4615.000000	64.168167 
4614.000000	64.236426 
4613.000000	64.329791 
4612.000000	64.443373 
4611.000000	64.571189 
4610.000000	64.706754 
4609.000000	64.842557 
4608.000000	64.970660 
4607.000000	65.082859 
4606.000000	65.171456 
4605.000000	65.230131 
4604.000000	65.255379 
4603.000000	65.247011 
4602.000000	65.208554 
4601.000000	65.146374 
4600.000000	65.069341 
4599.000000	64.986944 
4598.000000	64.908552 
4597.000000	64.841485 
4596.000000	64.790773 
4595.000000	64.758276 
4594.000000	64.742898 
4593.000000	64.741349 
4592.000000	64.748907 
4591.000000	64.761567 
4590.000000	64.776062 
4589.000000	64.791798 
4588.000000	64.810013 
4587.000000	64.833950 
4586.000000	64.866709 
4585.000000	64.911127 
4584.000000	64.968276 
4583.000000	65.037178 
4582.000000	65.114736 
4581.000000	65.195870 
4580.000000	65.274381 
4579.000000	65.343618 
4578.000000	65.397667 
4577.000000	65.431523 
4576.000000	65.441846 
4575.000000	65.427660 
4574.000000	65.390586 
4573.000000	65.334653 
4572.000000	65.265941 
4571.000000	65.192365 
4570.000000	65.122079 
4569.000000	65.062808 
4568.000000	65.020203 
4567.000000	64.996790 
4566.000000	64.992260 
4565.000000	65.003013 
4564.000000	65.024995 
4563.000000	65.054106 
4562.000000	65.088701 
4561.000000	65.128755 
4560.000000	65.176367 
4559.000000	65.234041 
4558.000000	65.303468 
4557.000000	65.383434 
4556.000000	65.469956 
4555.000000	65.556502 
4554.000000	65.635180 
4553.000000	65.698671 
4552.000000	65.742039 
4551.000000	65.763974 
4550.000000	65.766668 
4549.000000	65.754890 
4548.000000	65.735030 
4547.000000	65.712952 
4546.000000	65.692925 
4545.000000	65.676426 
4544.000000	65.662932 
4543.000000	65.649533 
4542.000000	65.633416 
4541.000000	65.611338 
4540.000000	65.580868 
4539.000000	65.540456 
4538.000000	65.489435 
4537.000000	65.428900 
4536.000000	65.360832 
4535.000000	65.289497 
4534.000000	65.220093 
4533.000000	65.159344 
4532.000000	65.114283 
4531.000000	65.090823 
4530.000000	65.092349 
4529.000000	65.118193 
4528.000000	65.163564 
4527.000000	65.219569 
4526.000000	65.274810 
4525.000000	65.318179 
4524.000000	65.341258 
4523.000000	65.340256 
4522.000000	65.316891 
4521.000000	65.278291 
4520.000000	65.235090 
4519.000000	65.198373 
4518.000000	65.176892 
4517.000000	65.175604 
4516.000000	65.194344 
4515.000000	65.228772 
4514.000000	65.271019 
4513.000000	65.311980 
4512.000000	65.343189 
4511.000000	65.359115 
4510.000000	65.357947 
4509.000000	65.340662 
4508.000000	65.311694 
4507.000000	65.276694 
4506.000000	65.242457 
4505.000000	65.214681 
4504.000000	65.198135 
4503.000000	65.195989 
4502.000000	65.210318 
4501.000000	65.242123 
4500.000000	65.291118 
4499.000000	65.355420 
4498.000000	65.430307 
4497.000000	65.508270 
4496.000000	65.579223 
4495.000000	65.631771 
4494.000000	65.654945 
4493.000000	65.640640 
4492.000000	65.585994 
4491.000000	65.494871 
4490.000000	65.376710 
4489.000000	65.246248 
4488.000000	65.120720 
4487.000000	65.017890 
4486.000000	64.953303 
4485.000000	64.937257 
4484.000000	64.974045 
4483.000000	65.059757 
4482.000000	65.183520 
4481.000000	65.327835 
4480.000000	65.471649 
4479.000000	65.593838 
4478.000000	65.676569 
4477.000000	65.708804 
4476.000000	65.687632 
4475.000000	65.618729 
4474.000000	65.514349 
4473.000000	65.391826 
4472.000000	65.270113 
4471.000000	65.167522 
4470.000000	65.099334 
4469.000000	65.076375 
4468.000000	65.103769 
4467.000000	65.181422 
4466.000000	65.303730 
4465.000000	65.460753 
4464.000000	65.638899 
4463.000000	65.821480 
4462.000000	65.991210 
4461.000000	66.131329 
4460.000000	66.228866 
4459.000000	66.276478 
4458.000000	66.274046 
4457.000000	66.229605 
4456.000000	66.156625 
4455.000000	66.071105 
4454.000000	65.988779 
4453.000000	65.922474 
4452.000000	65.880680 
4451.000000	65.868592 
4450.000000	65.886545 
4449.000000	65.932369 
4448.000000	65.999341 
4447.000000	66.077947 
4446.000000	66.155147 
4445.000000	66.215634 
4444.000000	66.249155 
4443.000000	66.253113 
4442.000000	66.232514 
4441.000000	66.198301 
4440.000000	66.165566 
4439.000000	66.149568 
4438.000000	66.156387 
4437.000000	66.183972 
4436.000000	66.229486 
4435.000000	66.287875 
4434.000000	66.354966 
4433.000000	66.425800 
4432.000000	66.495823 
4431.000000	66.559839 
4430.000000	66.605877 
4429.000000	66.624236 
4428.000000	66.615772 
4427.000000	66.586494 
4426.000000	66.543626 
4425.000000	66.496706 
4424.000000	66.458344 
4423.000000	66.435360 
4422.000000	66.430950 
4421.000000	66.433620 
4420.000000	66.418457 
4419.000000	66.355609 
4418.000000	66.219139 
4417.000000	65.991139 
4416.000000	65.664577 
4415.000000	65.245103 
4414.000000	64.746499 
4413.000000	64.163422 
4412.000000	63.479280 
4411.000000	62.668824 
4410.000000	61.721467 
4409.000000	60.670304 
4408.000000	59.585070 
4407.000000	58.594942 
4406.000000	57.818222 
4405.000000	57.325339 
4404.000000	57.097220 
4403.000000	57.001686 
4402.000000	56.844258 
4401.000000	56.407856 
4400.000000	55.542635 
4399.000000	54.213738 
4398.000000	52.536034 
4397.000000	50.741839 
4396.000000	49.143695 
4395.000000	48.034620 
4394.000000	47.646260 
4393.000000	48.081016 
4392.000000	49.303245 
4391.000000	51.147532 
4390.000000	53.358817 
4389.000000	55.652451 
4388.000000	57.771277 
4387.000000	59.538269 
4386.000000	60.886931 
4385.000000	61.858105 
4384.000000	62.571859 
4383.000000	63.176250 
4382.000000	63.789653 
4381.000000	64.465022 
4380.000000	65.188670 
4379.000000	65.884590 
4378.000000	66.469216 
4377.000000	66.863560 
4376.000000	67.060899 
4375.000000	67.091846 
4374.000000	67.020106 
4373.000000	66.912913 
4372.000000	66.813468 
4371.000000	66.736388 
4370.000000	66.667127 
4369.000000	66.576051 
4368.000000	66.446733 
4367.000000	66.269540 
4366.000000	66.054010 
4365.000000	65.818214 
4364.000000	65.584039 
4363.000000	65.370464 
4362.000000	65.188121 
4361.000000	65.041780 
4360.000000	64.930105 
4359.000000	64.851284 
4358.000000	64.804792 
4357.000000	64.782547 
4356.000000	64.774560 
4355.000000	64.778709 
4354.000000	64.797902 
4353.000000	64.831352 
4352.000000	64.877581 
4351.000000	64.933681 
4350.000000	64.995574 
4349.000000	65.056109 
4348.000000	65.108609 
4347.000000	65.150117 
4346.000000	65.180134 
4345.000000	65.199136 
4344.000000	65.209531 
4343.000000	65.215420 
4342.000000	65.220832 
4341.000000	65.229296 
4340.000000	65.242552 
4339.000000	65.260243 
4338.000000	65.281081 
4337.000000	65.303945 
4336.000000	65.328788 
4335.000000	65.356945 
4334.000000	65.391564 
4333.000000	65.436649 
4332.000000	65.494489 
4331.000000	65.564560 
4330.000000	65.643382 
4329.000000	65.724802 
4328.000000	65.800952 
4327.000000	65.864205 
4326.000000	65.909457 
4325.000000	65.934848 
4324.000000	65.942573 
4323.000000	65.937399 
4322.000000	65.925741 
4321.000000	65.913200 
4320.000000	65.903997 
4319.000000	65.899205 
4318.000000	65.897703 
4317.000000	65.895605 
4316.000000	65.888571 
4315.000000	65.872025 
4314.000000	65.842962 
4313.000000	65.800738 
4312.000000	65.747547 
4311.000000	65.687918 
4310.000000	65.627479 
4309.000000	65.572071 
4308.000000	65.526413 
4307.000000	65.493321 
4306.000000	65.473055 
4305.000000	65.464186 
4304.000000	65.463876 
4303.000000	65.468001 
4302.000000	65.472221 
4301.000000	65.472388 
4300.000000	65.465664 
4299.000000	65.449452 
4298.000000	65.423274 
4297.000000	65.388774 
4296.000000	65.349984 
4295.000000	65.312266 
4294.000000	65.281558 
4293.000000	65.263462 
4292.000000	65.261244 
4291.000000	65.275335 
4290.000000	65.302515 
4289.000000	65.336465 
4288.000000	65.369176 
4287.000000	65.392732 
4286.000000	65.401434 
4285.000000	65.392923 
4284.000000	65.368819 
4283.000000	65.334057 
4282.000000	65.295195 
4281.000000	65.258407 
4280.000000	65.227913 
4279.000000	65.204811 
4278.000000	65.186834 
4277.000000	65.169000 
4276.000000	65.145969 
4275.000000	65.113186 
4274.000000	65.068316 
4273.000000	65.011739 
4272.000000	64.946293 
4271.000000	64.877367 
4270.000000	64.810800 
4269.000000	64.752793 
4268.000000	64.707994 
4267.000000	64.679408 
4266.000000	64.667916 
4265.000000	64.672446 
4264.000000	64.690494 
4263.000000	64.717984 
4262.000000	64.749312 
4261.000000	64.778518 
4260.000000	64.799952 
4259.000000	64.809608 
4258.000000	64.805483 
4257.000000	64.788651 
4256.000000	64.762902 
4255.000000	64.734292 
4254.000000	64.709949 
4253.000000	64.696288 
4252.000000	64.697670 
4251.000000	64.715671 
4250.000000	64.748525 
4249.000000	64.792084 
4248.000000	64.840459 
4247.000000	64.887189 
4246.000000	64.926648 
4245.000000	64.954781 
4244.000000	64.970088 
4243.000000	64.972591 
4242.000000	64.964962 
4241.000000	64.951014 
4240.000000	64.936590 
4239.000000	64.927816 
4238.000000	64.931178 
4237.000000	64.952707 
4236.000000	64.996218 
4235.000000	65.062952 
4234.000000	65.149879 
4233.000000	65.250062 
4232.000000	65.353155 
4231.000000	65.447306 
4230.000000	65.520977 
4229.000000	65.565109 
4228.000000	65.574908 
4227.000000	65.550732 
4226.000000	65.497636 
4225.000000	65.424203 
4224.000000	65.341186 
4223.000000	65.259671 
4222.000000	65.188360 
4221.000000	65.132808 
4220.000000	65.096378 
4219.000000	65.080094 
4218.000000	65.082716 
4217.000000	65.101909 
4216.000000	65.135526 
4215.000000	65.181088 
4214.000000	65.235614 
4213.000000	65.294837 
4212.000000	65.352559 
4211.000000	65.401244 
4210.000000	65.433263 
4209.000000	65.441870 
4208.000000	65.421962 
4207.000000	65.372419 
4206.000000	65.296983 
4205.000000	65.203905 
4204.000000	65.104985 
4203.000000	65.012669 
4202.000000	64.937520 
4201.000000	64.885377 
4200.000000	64.855766 
4199.000000	64.840984 
4198.000000	64.827656 
4197.000000	64.798569 
4196.000000	64.736652 
4195.000000	64.628195 
4194.000000	64.467120 
4193.000000	64.255285 
4192.000000	64.005041 
4191.000000	63.735699 
4190.000000	63.473510 
4189.000000	63.245224 
4188.000000	63.077044 
4187.000000	62.988567 
4186.000000	62.992048 
4185.000000	63.090467 
4184.000000	63.276720 
4183.000000	63.534116 
4182.000000	63.837790 
4181.000000	64.156866 
4180.000000	64.458441 
4179.000000	64.710783 
4178.000000	64.889502 
4177.000000	64.980125 
4176.000000	64.981722 
4175.000000	64.906239 
4174.000000	64.776134 
4173.000000	64.619636 
4172.000000	64.466094 
4171.000000	64.340424 
4170.000000	64.259362 
4169.000000	64.229035 
4168.000000	64.246630 
4167.000000	64.301800 
4166.000000	64.379835 
4165.000000	64.465379 
4164.000000	64.545321 
4163.000000	64.611506 
4162.000000	64.659476 
4161.000000	64.689946 
4160.000000	64.706277 
4159.000000	64.713811 
4158.000000	64.716911 
4157.000000	64.718914 
4156.000000	64.722657 
4155.000000	64.728999 
4154.000000	64.737963 
4153.000000	64.748167 
4152.000000	64.757847 
4151.000000	64.764857 
4150.000000	64.768290 
4149.000000	64.766764 
4148.000000	64.758443 
4147.000000	64.742040 
4146.000000	64.717149 
4145.000000	64.683485 
4144.000000	64.641690 
4143.000000	64.593839 
4142.000000	64.543771 
4141.000000	64.497041 
4140.000000	64.460349 
4139.000000	64.439511 
4138.000000	64.439129 
4137.000000	64.461183 
4136.000000	64.505219 
4135.000000	64.568138 
4134.000000	64.645171 
4133.000000	64.730095 
4132.000000	64.816522 
4131.000000	64.899015 
4130.000000	64.972734 
4129.000000	65.034008 
4128.000000	65.079641 
4127.000000	65.107226 
4126.000000	65.114617 
4125.000000	65.100955 
4124.000000	65.065932 
4123.000000	65.010857 
4122.000000	64.938545 
4121.000000	64.853930 
4120.000000	64.763116 
4119.000000	64.673209 
4118.000000	64.590978 
4117.000000	64.522361 
4116.000000	64.471650 
4115.000000	64.441037 
4114.000000	64.430522 
4113.000000	64.438080 
4112.000000	64.459729 
4111.000000	64.490604 
4110.000000	64.525032 
4109.000000	64.558243 
4108.000000	64.586091 
4107.000000	64.606571 
4106.000000	64.619159 
4105.000000	64.625191 
4104.000000	64.627385 
4103.000000	64.629244 
4102.000000	64.633846 
4101.000000	64.643979 
4100.000000	64.661979 
4099.000000	64.688897 
4098.000000	64.724397 
4097.000000	64.766430 
4096.000000	64.811778 
4095.000000	64.855790 
4094.000000	64.893484 
4093.000000	64.920186 
4092.000000	64.932441 
4091.000000	64.928936 
4090.000000	64.911031 
4089.000000	64.882349 
4088.000000	64.848351 
4087.000000	64.815473 
4086.000000	64.790105 
4085.000000	64.777231 
4084.000000	64.779591 
4083.000000	64.797639 
4082.000000	64.829158 
4081.000000	64.870071 
4080.000000	64.914822 
4079.000000	64.957332 
4078.000000	64.991998 
4077.000000	65.014410 
4076.000000	65.022063 
4075.000000	65.014123 
4074.000000	64.992094 
4073.000000	64.959359 
4072.000000	64.920687 
4071.000000	64.881730 
4070.000000	64.847445 
4069.000000	64.821457 
4068.000000	64.805245 
4067.000000	64.798140 
4066.000000	64.797663 
4065.000000	64.800477 
4064.000000	64.803004 
4063.000000	64.802503 
4062.000000	64.797806 
4061.000000	64.789628 
4060.000000	64.779877 
4059.000000	64.771151 
4058.000000	64.766287 
4057.000000	64.767265 
4056.000000	64.774966 
4055.000000	64.788508 
4054.000000	64.805293 
4053.000000	64.821434 
4052.000000	64.833045 
4051.000000	64.836859 
4050.000000	64.831113 
4049.000000	64.816308 
4048.000000	64.794850 
4047.000000	64.771151 
4046.000000	64.750146 
4045.000000	64.736580 
4044.000000	64.733862 
4043.000000	64.743065 
4042.000000	64.762902 
4041.000000	64.789867 
4040.000000	64.819049 
4039.000000	64.845037 
4038.000000	64.863038 
4037.000000	64.869618 
4036.000000	64.863348 
4035.000000	64.844465 
4034.000000	64.815139 
4033.000000	64.778614 
4032.000000	64.739298 
4031.000000	64.702200 
4030.000000	64.672660 
4029.000000	64.655780 
4028.000000	64.655542 
4027.000000	64.673876 
4026.000000	64.710450 
4025.000000	64.761877 
4024.000000	64.822793 
4023.000000	64.886403 
4022.000000	64.945888 
4021.000000	64.995265 
4020.000000	65.030765 
4019.000000	65.051150 
4018.000000	65.057444 
4017.000000	65.052628 
4016.000000	65.040206 
4015.000000	65.023517 
4014.000000	65.005040 
4013.000000	64.986371 
4012.000000	64.968204 
4011.000000	64.950776 
4010.000000	64.934444 
4009.000000	64.920067 
4008.000000	64.908599 
4007.000000	64.900970 
4006.000000	64.897513 
4005.000000	64.898109 
4004.000000	64.902234 
4003.000000	64.909005 
4002.000000	64.917397 
4001.000000	64.926123 
4000.000000	64.933800 
3999.000000	64.938426 
3998.000000	64.937901 
3997.000000	64.930176 
3996.000000	64.913678 
3995.000000	64.888215 
3994.000000	64.855122 
3993.000000	64.817738 
3992.000000	64.780807 
3991.000000	64.749789 
3990.000000	64.729666 
3989.000000	64.723777 
3988.000000	64.733052 
3987.000000	64.755845 
3986.000000	64.788150 
3985.000000	64.824914 
3984.000000	64.861226 
3983.000000	64.893651 
3982.000000	64.920496 
3981.000000	64.941525 
3980.000000	64.957332 
3979.000000	64.968490 
3978.000000	64.974832 
3977.000000	64.975285 
3976.000000	64.968252 
3975.000000	64.952516 
3974.000000	64.927959 
3973.000000	64.896631 
3972.000000	64.862418 
3971.000000	64.830636 
3970.000000	64.806985 
3969.000000	64.796471 
3968.000000	64.802122 
3967.000000	64.823985 
3966.000000	64.859580 
3965.000000	64.904308 
3964.000000	64.952707 
3963.000000	64.999485 
3962.000000	65.040683 
3961.000000	65.074396 
3960.000000	65.100526 
3959.000000	65.120244 
3958.000000	65.135574 
3957.000000	65.148448 
3956.000000	65.160536 
3955.000000	65.172743 
3954.000000	65.185570 
3953.000000	65.198922 
3952.000000	65.212631 
3951.000000	65.226101 
3950.000000	65.238404 
3949.000000	65.247797 
3948.000000	65.251922 
3947.000000	65.248036 
3946.000000	65.233302 
3945.000000	65.205955 
3944.000000	65.165734 
3943.000000	65.114426 
3942.000000	65.056347 
3941.000000	64.997076 
3940.000000	64.942860 
3939.000000	64.898610 
3938.000000	64.866924 
3937.000000	64.847302 
3936.000000	64.836478 
3935.000000	64.829349 
3934.000000	64.820671 
3933.000000	64.806747 
3932.000000	64.786338 
3931.000000	64.761590 
3930.000000	64.737272 
3929.000000	64.719223 
3928.000000	64.712738 
3927.000000	64.721274 
3926.000000	64.745450 
3925.000000	64.782810 
3924.000000	64.828276 
3923.000000	64.875602 
3922.000000	64.918279 
3921.000000	64.951276 
3920.000000	64.971566 
3919.000000	64.978075 
3918.000000	64.971733 
3917.000000	64.954662 
3916.000000	64.929890 
3915.000000	64.900517 
3914.000000	64.869618 
3913.000000	64.840340 
3912.000000	64.815211 
3911.000000	64.796328 
3910.000000	64.785003 
3909.000000	64.781832 
3908.000000	64.786362 
3907.000000	64.796924 
3906.000000	64.811062 
3905.000000	64.825820 
3904.000000	64.837694 
3903.000000	64.843440 
3902.000000	64.840579 
3901.000000	64.828228 
3900.000000	64.807176 
3899.000000	64.780211 
3898.000000	64.751839 
3897.000000	64.727687 
3896.000000	64.713263 
3895.000000	64.712929 
3894.000000	64.729046 
3893.000000	64.761161 
3892.000000	64.806294 
3891.000000	64.859080 
3890.000000	64.912843 
3889.000000	64.960336 
3888.000000	64.995837 
3887.000000	65.015316 
3886.000000	65.017366 
3885.000000	65.002918 
3884.000000	64.974713 
3883.000000	64.936971 
3882.000000	64.894628 
3881.000000	64.852952 
3880.000000	64.816975 
3879.000000	64.791512 
3878.000000	64.780688 
3877.000000	64.787459 
3876.000000	64.813113 
3875.000000	64.856839 
3874.000000	64.915490 
3873.000000	64.984178 
3872.000000	65.056610 
3871.000000	65.125894 
3870.000000	65.185284 
3869.000000	65.229368 
3868.000000	65.254378 
3867.000000	65.258955 
3866.000000	65.243959 
3865.000000	65.212130 
3864.000000	65.167808 
3863.000000	65.116548 
3862.000000	65.064072 
3861.000000	65.016198 
3860.000000	64.977765 
3859.000000	64.952421 
3858.000000	64.942002 
3857.000000	64.946436 
3856.000000	64.963960 
3855.000000	64.991283 
3854.000000	65.024399 
3853.000000	65.059137 
3852.000000	65.091824 
3851.000000	65.119814 
3850.000000	65.140986 
3849.000000	65.153479 
3848.000000	65.155720 
3847.000000	65.146565 
3846.000000	65.125465 
3845.000000	65.093016 
3844.000000	65.051412 
3843.000000	65.004253 
3842.000000	64.957046 
3841.000000	64.915609 
3840.000000	64.885306 
3839.000000	64.869499 
3838.000000	64.869165 
3837.000000	64.882349 
3836.000000	64.904022 
3835.000000	64.928030 
3834.000000	64.948129 
3833.000000	64.960265 
3832.000000	64.962577 
3831.000000	64.957070 
3830.000000	64.948105 
3829.000000	64.942169 
3828.000000	64.945530 
3827.000000	64.963459 
3826.000000	64.998388 
3825.000000	65.049743 
3824.000000	65.113925 
3823.000000	65.184760 
3822.000000	65.254807 
3821.000000	65.316462 
3820.000000	65.363192 
3819.000000	65.390419 
3818.000000	65.396094 
3817.000000	65.380764 
3816.000000	65.347266 
3815.000000	65.300107 
3814.000000	65.244388 
3813.000000	65.185594 
3812.000000	65.128064 
3811.000000	65.074968 
3810.000000	65.027642 
3809.000000	64.986491 
3808.000000	64.950799 
3807.000000	64.919519 
3806.000000	64.891982 
3805.000000	64.867734 
3804.000000	64.847350 
3803.000000	64.831686 
3802.000000	64.821863 
3801.000000	64.818191 
3800.000000	64.820599 
3799.000000	64.828133 
3798.000000	64.839386 
3797.000000	64.852714 
3796.000000	64.866971 
3795.000000	64.881706 
3794.000000	64.897298 
3793.000000	64.914631 
3792.000000	64.934444 
3791.000000	64.956927 
3790.000000	64.980983 
3789.000000	65.004301 
3788.000000	65.024209 
3787.000000	65.037989 
3786.000000	65.043878 
3785.000000	65.041255 
3784.000000	65.031051 
3783.000000	65.015268 
3782.000000	64.996814 
3781.000000	64.978480 
3780.000000	64.962172 
3779.000000	64.948964 
3778.000000	64.939093 
3777.000000	64.932107 
3776.000000	64.927363 
3775.000000	64.924359 
3774.000000	64.923310 
3773.000000	64.924860 
3772.000000	64.929699 
3771.000000	64.938473 
3770.000000	64.951109 
3769.000000	64.967203 
3768.000000	64.985632 
3767.000000	65.004992 
3766.000000	65.023589 
3765.000000	65.039777 
3764.000000	65.051794 
3763.000000	65.057945 
3762.000000	65.056681 
3761.000000	65.047025 
3760.000000	65.028619 
3759.000000	65.002274 
3758.000000	64.969635 
3757.000000	64.933443 
3756.000000	64.896798 
3755.000000	64.863133 
3754.000000	64.835381 
3753.000000	64.815664 
3752.000000	64.805006 
3751.000000	64.803075 
3750.000000	64.808726 
3749.000000	64.819765 
3748.000000	64.834070 
3747.000000	64.849495 
3746.000000	64.864611 
3745.000000	64.878511 
3744.000000	64.890837 
3743.000000	64.901423 
3742.000000	64.910006 
3741.000000	64.915871 
3740.000000	64.918065 
3739.000000	64.915466 
3738.000000	64.907169 
3737.000000	64.892983 
3736.000000	64.873552 
3735.000000	64.850831 
3734.000000	64.827704 
3733.000000	64.807653 
3732.000000	64.793872 
3731.000000	64.788889 
3730.000000	64.793944 
3729.000000	64.808607 
3728.000000	64.830970 
3727.000000	64.858031 
3726.000000	64.886212 
3725.000000	64.911937 
3724.000000	64.932322 
3723.000000	64.945650 
3722.000000	64.951181 
3721.000000	64.949464 
3720.000000	64.941883 
3719.000000	64.930391 
3718.000000	64.917135 
3717.000000	64.904236 
3716.000000	64.893651 
3715.000000	64.886999 
3714.000000	64.885711 
3713.000000	64.890694 
3712.000000	64.902210 
3711.000000	64.919853 
3710.000000	64.942336 
3709.000000	64.967536 
3708.000000	64.992880 
3707.000000	65.015554 
3706.000000	65.033149 
3705.000000	65.044069 
3704.000000	65.047836 
3703.000000	65.044999 
3702.000000	65.036916 
3701.000000	65.025639 
3700.000000	65.013194 
3699.000000	65.001487 
3698.000000	64.991760 
3697.000000	64.984726 
3696.000000	64.980411 
3695.000000	64.978599 
3694.000000	64.978408 
3693.000000	64.979147 
3692.000000	64.979934 
3691.000000	64.980173 
3690.000000	64.979243 
3689.000000	64.976692 
3688.000000	64.972233 
3687.000000	64.965653 
3686.000000	64.957070 
3685.000000	64.946770 
3684.000000	64.935421 
3683.000000	64.924144 
3682.000000	64.914226 
3681.000000	64.906883 
3680.000000	64.902997 
3679.000000	64.902877 
3678.000000	64.906167 
3677.000000	64.911937 
3676.000000	64.918828 
3675.000000	64.925503 
3674.000000	64.930725 
3673.000000	64.933776 
3672.000000	64.934420 
3671.000000	64.932918 
3670.000000	64.930033 
3669.000000	64.926648 
3668.000000	64.923739 
3667.000000	64.921903 
3666.000000	64.921665 
3665.000000	64.922738 
3664.000000	64.924407 
3663.000000	64.925122 
3662.000000	64.923000 
3661.000000	64.915847 
3660.000000	64.901685 
3659.000000	64.879131 
3658.000000	64.848065 
3657.000000	64.810037 
3656.000000	64.768314 
3655.000000	64.727592 
3654.000000	64.693188 
3653.000000	64.669871 
3652.000000	64.661192 
3651.000000	64.668226 
3650.000000	64.689540 
3649.000000	64.721679 
3648.000000	64.759778 
3647.000000	64.798569 
3646.000000	64.833664 
3645.000000	64.862132 
3644.000000	64.882969 
3643.000000	64.896821 
3642.000000	64.905357 
3641.000000	64.910793 
3640.000000	64.914870 
3639.000000	64.918661 
3638.000000	64.922189 
3637.000000	64.924621 
3636.000000	64.924597 
3635.000000	64.921379 
3634.000000	64.914703 
3633.000000	64.905118 
3632.000000	64.894175 
3631.000000	64.884042 
3630.000000	64.877104 
3629.000000	64.875292 
3628.000000	64.879631 
3627.000000	64.890050 
3626.000000	64.904952 
3625.000000	64.921712 
3624.000000	64.936852 
3623.000000	64.947056 
3622.000000	64.949703 
3621.000000	64.943647 
3620.000000	64.929175 
3619.000000	64.908289 
3618.000000	64.884352 
3617.000000	64.861512 
3616.000000	64.843225 
3615.000000	64.832282 
3614.000000	64.830565 
3613.000000	64.838480 
3612.000000	64.855170 
3611.000000	64.878773 
3610.000000	64.907050 
3609.000000	64.937567 
3608.000000	64.968347 
3607.000000	64.997649 
3606.000000	65.024185 
3605.000000	65.047073 
3604.000000	65.065670 
3603.000000	65.079474 
3602.000000	65.088152 
3601.000000	65.091657 
3600.000000	65.090012 
3599.000000	65.083670 
3598.000000	65.072846 
3597.000000	65.058231 
3596.000000	65.039896 
3595.000000	65.017843 
3594.000000	64.991044 
3593.000000	64.958548 
3592.000000	64.919304 
3591.000000	64.872360 
3590.000000	64.817667 
3589.000000	64.756536 
3588.000000	64.692234 
3587.000000	64.629340 
3586.000000	64.573717 
3585.000000	64.531278 
3584.000000	64.507365 
3583.000000	64.505219 
3582.000000	64.525294 
3581.000000	64.564704 
3580.000000	64.617919 
3579.000000	64.677548 
3578.000000	64.735436 
3577.000000	64.784121 
3576.000000	64.818215 
3575.000000	64.835548 
3574.000000	64.836812 
3573.000000	64.825630 
3572.000000	64.807820 
3571.000000	64.790415 
3570.000000	64.779949 
3569.000000	64.781951 
3568.000000	64.800190 
3567.000000	64.836382 
3566.000000	64.890122 
3565.000000	64.959025 
3564.000000	65.039348 
3563.000000	65.126204 
3562.000000	65.214204 
3561.000000	65.297532 
3560.000000	65.370512 
3559.000000	65.427851 
3558.000000	65.465521 
3557.000000	65.480852 
3556.000000	65.473103 
3555.000000	65.443730 
3554.000000	65.396738 
3553.000000	65.337800 
3552.000000	65.273690 
3551.000000	65.211319 
3550.000000	65.156507 
3549.000000	65.113306 
3548.000000	65.083217 
3547.000000	65.064978 
3546.000000	65.055060 
3545.000000	65.048527 
3544.000000	65.040421 
3543.000000	65.026402 
3542.000000	65.004086 
3541.000000	64.973330 
3540.000000	64.936447 
3539.000000	64.896869 
3538.000000	64.858746 
3537.000000	64.825463 
3536.000000	64.799404 
3535.000000	64.780664 
3534.000000	64.768433 
3533.000000	64.761257 
3532.000000	64.757823 
3531.000000	64.757299 
3530.000000	64.759731 
3529.000000	64.765810 
3528.000000	64.776206 
3527.000000	64.790749 
3526.000000	64.808177 
3525.000000	64.825987 
3524.000000	64.841127 
3523.000000	64.850854 
3522.000000	64.853477 
3521.000000	64.848971 
3520.000000	64.839529 
3519.000000	64.828777 
3518.000000	64.820575 
3517.000000	64.817905 
3516.000000	64.822244 
3515.000000	64.832854 
3514.000000	64.847111 
3513.000000	64.861154 
3512.000000	64.871287 
3511.000000	64.874482 
3510.000000	64.869022 
3509.000000	64.855074 
3508.000000	64.834141 
3507.000000	64.809179 
3506.000000	64.783644 
3505.000000	64.761352 
3504.000000	64.745807 
3503.000000	64.739727 
3502.000000	64.744615 
3501.000000	64.760589 
3500.000000	64.786553 
3499.000000	64.819955 
3498.000000	64.857125 
3497.000000	64.893865 
3496.000000	64.926075 
3495.000000	64.950466 
3494.000000	64.965224 
3493.000000	64.970183 
3492.000000	64.966559 
3491.000000	64.956855 
3490.000000	64.943933 
3489.000000	64.930510 
3488.000000	64.918541 
3487.000000	64.909338 
3486.000000	64.903187 
3485.000000	64.900159 
3484.000000	64.899659 
3483.000000	64.900970 
3482.000000	64.903044 
3481.000000	64.904713 
3480.000000	64.905166 
3479.000000	64.903664 
3478.000000	64.900660 
3477.000000	64.897131 
3476.000000	64.895415 
3475.000000	64.898538 
3474.000000	64.909887 
3473.000000	64.932227 
3472.000000	64.966964 
3471.000000	65.013122 
3470.000000	65.067148 
3469.000000	65.123414 
3468.000000	65.174937 
3467.000000	65.214824 
3466.000000	65.237569 
3465.000000	65.240025 
3464.000000	65.222215 
3463.000000	65.187048 
3462.000000	65.139603 
3461.000000	65.086126 
3460.000000	65.032815 
3459.000000	64.984798 
3458.000000	64.945864 
3457.000000	64.917874 
3456.000000	64.901137 
3455.000000	64.894580 
3454.000000	64.896559 
3453.000000	64.905142 
3452.000000	64.918231 
3451.000000	64.934015 
3450.000000	64.950537 
3449.000000	64.966344 
3448.000000	64.980053 
3447.000000	64.990854 
3446.000000	64.998102 
3445.000000	65.001630 
3444.000000	65.001535 
3443.000000	64.998102 
3442.000000	64.991521 
3441.000000	64.981889 
3440.000000	64.969301 
3439.000000	64.953756 
3438.000000	64.935541 
3437.000000	64.915370 
3436.000000	64.894533 
3435.000000	64.874792 
3434.000000	64.858436 
3433.000000	64.847683 
3432.000000	64.844489 
3431.000000	64.849901 
3430.000000	64.864087 
3429.000000	64.885759 
3428.000000	64.912748 
3427.000000	64.942288 
3426.000000	64.971590 
3425.000000	64.998078 
3424.000000	65.020012 
3423.000000	65.036463 
3422.000000	65.047311 
3421.000000	65.053129 
3420.000000	65.054821 
3419.000000	65.053129 
3418.000000	65.049004 
3417.000000	65.043091 
3416.000000	65.036129 
3415.000000	65.028905 
3414.000000	65.022492 
3413.000000	65.018129 
3412.000000	65.017080 
3411.000000	65.020275 
3410.000000	65.027666 
3409.000000	65.038299 
3408.000000	65.050244 
3407.000000	65.061116 
3406.000000	65.068435 
3405.000000	65.070414 
3404.000000	65.066409 
3403.000000	65.056729 
3402.000000	65.042495 
3401.000000	65.025234 
3400.000000	65.006375 
3399.000000	64.986991 
3398.000000	64.967703 
3397.000000	64.948844 
3396.000000	64.930582 
3395.000000	64.913153 
3394.000000	64.897036 
3393.000000	64.882636 
3392.000000	64.870333 
3391.000000	64.860177 
3390.000000	64.851784 
3389.000000	64.844465 
3388.000000	64.837312 
3387.000000	64.829993 
3386.000000	64.822816 
3385.000000	64.816808 
3384.000000	64.813542 
3383.000000	64.814543 
3382.000000	64.820909 
3381.000000	64.832520 
3380.000000	64.848399 
3379.000000	64.866471 
3378.000000	64.884567 
3377.000000	64.900636 
3376.000000	64.913511 
3375.000000	64.923048 
3374.000000	64.930057 
3373.000000	64.935827 
3372.000000	64.941549 
3371.000000	64.947915 
3370.000000	64.954948 
3369.000000	64.961886 
3368.000000	64.967775 
3367.000000	64.971661 
3366.000000	64.972925 
3365.000000	64.971613 
3364.000000	64.967870 
3363.000000	64.961791 
3362.000000	64.953041 
3361.000000	64.941000 
3360.000000	64.924931 
3359.000000	64.904379 
3358.000000	64.879751 
3357.000000	64.852547 
3356.000000	64.825320 
3355.000000	64.801001 
3354.000000	64.782214 
3353.000000	64.770555 
3352.000000	64.765810 
3351.000000	64.766144 
3350.000000	64.768409 
3349.000000	64.769148 
3348.000000	64.765238 
3347.000000	64.755320 
3346.000000	64.739799 
3345.000000	64.720845 
3344.000000	64.701628 
3343.000000	64.685416 
3342.000000	64.674210 
3341.000000	64.668774 
3340.000000	64.668273 
3339.000000	64.670920 
3338.000000	64.674377 
3337.000000	64.676833 
3336.000000	64.677524 
3335.000000	64.676833 
3334.000000	64.675951 
3333.000000	64.676451 
3332.000000	64.679741 
3331.000000	64.686298 
3330.000000	64.695668 
3329.000000	64.706325 
3328.000000	64.716720 
3327.000000	64.725637 
3326.000000	64.733147 
3325.000000	64.740633 
3324.000000	64.750933 
3323.000000	64.767575 
3322.000000	64.793419 
3321.000000	64.829874 
3320.000000	64.875531 
3319.000000	64.926695 
3318.000000	64.976930 
3317.000000	65.018653 
3316.000000	65.044331 
3315.000000	65.048646 
3314.000000	65.029335 
3313.000000	64.987921 
3312.000000	64.929556 
3311.000000	64.861893 
3310.000000	64.793610 
3309.000000	64.732456 
3308.000000	64.683914 
3307.000000	64.650464 
3306.000000	64.631700 
3305.000000	64.624929 
3304.000000	64.626312 
3303.000000	64.631891 
3302.000000	64.638423 
3301.000000	64.644074 
3300.000000	64.647936 
3299.000000	64.650821 
3298.000000	64.653825 
3297.000000	64.658665 
3296.000000	64.666724 
3295.000000	64.679241 
3294.000000	64.696621 
3293.000000	64.718747 
3292.000000	64.744830 
3291.000000	64.773559 
3290.000000	64.803385 
3289.000000	64.832162 
3288.000000	64.857983 
3287.000000	64.878582 
3286.000000	64.892101 
3285.000000	64.896559 
3284.000000	64.890623 
3283.000000	64.873528 
3282.000000	64.845490 
3281.000000	64.807939 
3280.000000	64.763641 
3279.000000	64.716625 
3278.000000	64.671635 
3277.000000	64.633917 
3276.000000	64.608192 
3275.000000	64.597821 
3274.000000	64.604330 
3273.000000	64.626598 
3272.000000	64.661622 
3271.000000	64.704871 
3270.000000	64.751505 
3269.000000	64.796853 
3268.000000	64.837694 
3267.000000	64.872574 
3266.000000	64.901947 
3265.000000	64.927387 
3264.000000	64.950871 
3263.000000	64.973831 
3262.000000	64.996433 
3261.000000	65.017461 
3260.000000	65.034484 
3259.000000	65.044617 
3258.000000	65.045022 
3257.000000	65.034365 
3256.000000	65.012717 
3255.000000	64.982032 
3254.000000	64.945316 
3253.000000	64.906096 
3252.000000	64.867568 
3251.000000	64.831662 
3250.000000	64.798927 
3249.000000	64.768743 
3248.000000	64.739680 
3247.000000	64.710497 
3246.000000	64.680504 
3245.000000	64.650321 
3244.000000	64.621186 
3243.000000	64.595317 
3242.000000	64.574623 
3241.000000	64.561033 
3240.000000	64.555478 
3239.000000	64.558362 
3238.000000	64.568853 
3237.000000	64.585828 
3236.000000	64.607763 
3235.000000	64.633178 
3234.000000	64.660000 
3233.000000	64.686417 
3232.000000	64.710664 
3231.000000	64.731097 
3230.000000	64.746236 
3229.000000	64.754939 
3228.000000	64.756703 
3227.000000	64.751625 
3226.000000	64.740800 
3225.000000	64.725589 
3224.000000	64.707851 
3223.000000	64.689660 
3222.000000	64.673423 
3221.000000	64.661240 
3220.000000	64.655041 
3219.000000	64.656686 
3218.000000	64.667510 
3217.000000	64.687752 
3216.000000	64.716339 
3215.000000	64.751052 
3214.000000	64.788150 
3213.000000	64.823269 
3212.000000	64.851522 
3211.000000	64.868688 
3210.000000	64.871478 
3209.000000	64.858150 
3208.000000	64.828729 
3207.000000	64.785218 
3206.000000	64.731502 
3205.000000	64.672708 
3204.000000	64.614868 
3203.000000	64.563822 
3202.000000	64.524793 
3201.000000	64.501619 
3200.000000	64.496111 
3199.000000	64.508080 
3198.000000	64.535546 
3197.000000	64.575266 
3196.000000	64.622950 
3195.000000	64.674067 
3194.000000	64.724326 
3193.000000	64.770054 
3192.000000	64.808487 
3191.000000	64.837694 
3190.000000	64.856529 
3189.000000	64.864492 
3188.000000	64.861917 
3187.000000	64.849948 
3186.000000	64.830660 
3185.000000	64.806771 
3184.000000	64.781665 
3183.000000	64.758658 
3182.000000	64.740753 
3181.000000	64.729928 
3180.000000	64.726972 
3179.000000	64.731478 
3178.000000	64.742422 
3177.000000	64.757966 
3176.000000	64.776229 
3175.000000	64.794945 
3174.000000	64.811825 
3173.000000	64.824485 
3172.000000	64.830923 
3171.000000	64.829683 
3170.000000	64.820313 
3169.000000	64.803695 
3168.000000	64.782238 
3167.000000	64.759564 
3166.000000	64.739894 
3165.000000	64.727258 
3164.000000	64.724397 
3163.000000	64.732289 
3162.000000	64.749646 
3161.000000	64.773178 
3160.000000	64.798164 
3159.000000	64.819598 
3158.000000	64.833259 
3157.000000	64.836597 
3156.000000	64.829063 
3155.000000	64.811897 
3154.000000	64.787769 
3153.000000	64.759778 
3152.000000	64.731073 
3151.000000	64.704370 
3150.000000	64.681553 
3149.000000	64.663600 
3148.000000	64.650607 
3147.000000	64.642047 
3146.000000	64.637017 
3145.000000	64.634442 
3144.000000	64.633226 
3143.000000	64.632487 
3142.000000	64.631652 
3141.000000	64.630651 
3140.000000	64.629530 
3139.000000	64.628815 
3138.000000	64.629197 
3137.000000	64.631795 
3136.000000	64.637708 
3135.000000	64.648294 
3134.000000	64.664673 
3133.000000	64.687538 
3132.000000	64.716768 
3131.000000	64.750814 
3130.000000	64.786982 
3129.000000	64.820790 
3128.000000	64.846825 
3127.000000	64.859390 
3126.000000	64.853501 
3125.000000	64.826464 
3124.000000	64.778685 
3123.000000	64.714527 
3122.000000	64.641809 
3121.000000	64.570903 
3120.000000	64.512705 
3119.000000	64.476943 
3118.000000	64.470171 
3117.000000	64.494657 
3116.000000	64.548158 
3115.000000	64.624428 
3114.000000	64.714622 
3113.000000	64.809060 
3112.000000	64.899134 
3111.000000	64.978098 
3110.000000	65.042161 
3109.000000	65.090084 
3108.000000	65.122509 
3107.000000	65.141105 
3106.000000	65.147495 
3105.000000	65.143060 
3104.000000	65.128445 
3103.000000	65.104556 
3102.000000	65.072298 
3101.000000	65.034055 
3100.000000	64.992952 
3099.000000	64.953279 
3098.000000	64.919328 
3097.000000	64.894723 
3096.000000	64.881443 
3095.000000	64.879369 
3094.000000	64.886212 
3093.000000	64.898204 
3092.000000	64.911150 
3091.000000	64.921355 
3090.000000	64.926719 
3089.000000	64.927124 
3088.000000	64.924240 
3087.000000	64.920830 
3086.000000	64.919829 
3085.000000	64.923167 
3084.000000	64.930939 
3083.000000	64.941453 
3082.000000	64.951896 
3081.000000	64.959001 
3080.000000	64.959859 
3079.000000	64.952826 
3078.000000	64.938187 
3077.000000	64.917969 
3076.000000	64.895296 
3075.000000	64.873886 
3074.000000	64.856934 
3073.000000	64.846730 
3072.000000	64.844179 
3071.000000	64.848899 
3070.000000	64.859366 
3069.000000	64.873600 
3068.000000	64.889645 
3067.000000	64.905714 
3066.000000	64.920234 
3065.000000	64.932131 
3064.000000	64.940571 
3063.000000	64.944982 
3062.000000	64.944911 
3061.000000	64.940023 
3060.000000	64.930272 
3059.000000	64.915943 
3058.000000	64.897799 
3057.000000	64.876866 
3056.000000	64.854645 
3055.000000	64.832901 
3054.000000	64.813518 
3053.000000	64.798331 
3052.000000	64.789104 
3051.000000	64.787054 
3050.000000	64.793014 
3049.000000	64.806842 
3048.000000	64.827680 
3047.000000	64.853858 
3046.000000	64.883399 
3045.000000	64.913773 
3044.000000	64.942979 
3043.000000	64.969372 
3042.000000	64.992213 
3041.000000	65.011692 
3040.000000	65.028405 
3039.000000	65.043258 
3038.000000	65.056657 
3037.000000	65.068387 
3036.000000	65.077424 
3035.000000	65.082240 
3034.000000	65.081143 
3033.000000	65.073013 
3032.000000	65.057635 
3031.000000	65.036129 
3030.000000	65.011048 
3029.000000	64.985680 
3028.000000	64.963340 
3027.000000	64.946484 
3026.000000	64.936423 
3025.000000	64.932870 
3024.000000	64.934158 
3023.000000	64.937686 
3022.000000	64.940834 
3021.000000	64.941644 
3020.000000	64.939308 
3019.000000	64.934349 
3018.000000	64.928078 
3017.000000	64.922332 
3016.000000	64.918756 
3015.000000	64.918136 
3014.000000	64.919924 
3013.000000	64.922666 
3012.000000	64.924478 
3011.000000	64.923286 
3010.000000	64.917635 
3009.000000	64.907145 
3008.000000	64.892768 
3007.000000	64.876461 
3006.000000	64.861106 
3005.000000	64.849853 
3004.000000	64.845681 
3003.000000	64.850878 
3002.000000	64.866399 
3001.000000	64.891743 
3000.000000	64.924621 
2999.000000	64.961838 
2998.000000	64.999365 
2997.000000	65.032935 
2996.000000	65.058875 
2995.000000	65.074849 
2994.000000	65.080070 
2993.000000	65.075397 
2992.000000	65.063047 
2991.000000	65.046119 
2990.000000	65.027499 
2989.000000	65.009546 
2988.000000	64.993166 
2987.000000	64.978194 
2986.000000	64.963436 
2985.000000	64.947223 
2984.000000	64.928317 
2983.000000	64.906239 
2982.000000	64.881610 
2981.000000	64.856243 
2980.000000	64.832544 
2979.000000	64.813113 
2978.000000	64.800238 
2977.000000	64.795398 
2976.000000	64.799213 
2975.000000	64.811086 
2974.000000	64.829730 
2973.000000	64.852809 
2972.000000	64.877820 
2971.000000	64.901995 
2970.000000	64.922547 
2969.000000	64.937043 
2968.000000	64.943480 
2967.000000	64.940810 
2966.000000	64.929127 
2965.000000	64.909863 
2964.000000	64.885449 
2963.000000	64.859080 
2962.000000	64.834094 
2961.000000	64.813041 
2960.000000	64.797568 
2959.000000	64.787912 
2958.000000	64.782929 
2957.000000	64.780521 
2956.000000	64.778447 
2955.000000	64.774608 
2954.000000	64.767956 
2953.000000	64.758419 
2952.000000	64.747214 
2951.000000	64.736485 
2950.000000	64.728856 
2949.000000	64.726471 
2948.000000	64.730715 
2947.000000	64.741396 
2946.000000	64.757084 
2945.000000	64.774990 
2944.000000	64.792132 
2943.000000	64.805984 
2942.000000	64.815139 
2941.000000	64.819478 
2940.000000	64.820218 
2939.000000	64.819288 
2938.000000	64.818596 
2937.000000	64.819550 
2936.000000	64.822387 
2935.000000	64.826202 
2934.000000	64.829277 
2933.000000	64.830017 
2932.000000	64.826941 
2931.000000	64.819526 
2930.000000	64.808273 
2929.000000	64.794659 
2928.000000	64.780378 
2927.000000	64.766955 
2926.000000	64.755320 
2925.000000	64.745497 
2924.000000	64.736723 
2923.000000	64.727759 
2922.000000	64.717340 
2921.000000	64.704513 
2920.000000	64.688777 
2919.000000	64.670228 
2918.000000	64.649367 
2917.000000	64.627218 
2916.000000	64.604806 
2915.000000	64.583539 
2914.000000	64.564609 
2913.000000	64.549398 
2912.000000	64.539170 
2911.000000	64.535045 
2910.000000	64.537692 
2909.000000	64.547157 
2908.000000	64.562845 
2907.000000	64.583539 
2906.000000	64.607524 
2905.000000	64.633011 
2904.000000	64.658284 
2903.000000	64.681982 
2902.000000	64.703440 
2901.000000	64.722394 
2900.000000	64.738893 
2899.000000	64.753007 
2898.000000	64.764809 
2897.000000	64.774131 
2896.000000	64.780640 
2895.000000	64.784288 
2894.000000	64.785170 
2893.000000	64.784002 
2892.000000	64.781546 
2891.000000	64.778852 
2890.000000	64.776468 
2889.000000	64.774584 
2888.000000	64.772844 
2887.000000	64.770340 
2886.000000	64.766168 
2885.000000	64.759564 
2884.000000	64.750790 
2883.000000	64.741182 
2882.000000	64.732956 
2881.000000	64.728784 
2880.000000	64.731049 
2879.000000	64.741230 
2878.000000	64.759469 
2877.000000	64.784216 
2876.000000	64.812707 
2875.000000	64.841485 
2874.000000	64.867305 
2873.000000	64.887762 
2872.000000	64.901661 
2871.000000	64.908790 
2870.000000	64.909911 
2869.000000	64.905595 
2868.000000	64.896106 
2867.000000	64.880800 
2866.000000	64.858531 
2865.000000	64.828181 
2864.000000	64.789557 
2863.000000	64.744091 
2862.000000	64.695167 
2861.000000	64.648032 
2860.000000	64.608955 
2859.000000	64.583945 
2858.000000	64.577198 
2857.000000	64.590287 
2856.000000	64.621376 
2855.000000	64.665770 
2854.000000	64.716935 
2853.000000	64.767980 
2852.000000	64.812922 
2851.000000	64.847922 
2850.000000	64.871692 
2849.000000	64.885306 
2848.000000	64.891362 
2847.000000	64.892888 
2846.000000	64.892435 
2845.000000	64.891552 
2844.000000	64.890336 
2843.000000	64.888072 
2842.000000	64.883422 
2841.000000	64.875459 
2840.000000	64.863896 
2839.000000	64.849328 
2838.000000	64.833235 
2837.000000	64.817500 
2836.000000	64.804363 
2835.000000	64.795422 
2834.000000	64.791798 
2833.000000	64.793848 
2832.000000	64.801144 
2831.000000	64.812421 
2830.000000	64.825773 
2829.000000	64.839267 
2828.000000	64.850807 
2827.000000	64.858484 
2826.000000	64.861130 
2825.000000	64.858222 
2824.000000	64.850401 
2823.000000	64.839363 
2822.000000	64.827466 
2821.000000	64.817452 
2820.000000	64.811897 
2819.000000	64.812803 
2818.000000	64.820933 
2817.000000	64.835786 
2816.000000	64.855718 
2815.000000	64.878368 
2814.000000	64.901041 
2813.000000	64.921379 
2812.000000	64.937520 
2811.000000	64.948511 
2810.000000	64.954209 
2809.000000	64.955377 
2808.000000	64.953351 
2807.000000	64.949798 
2806.000000	64.946627 
2805.000000	64.945030 
2804.000000	64.945554 
2803.000000	64.947700 
2802.000000	64.950346 
2801.000000	64.951634 
2800.000000	64.949679 
2799.000000	64.942884 
2798.000000	64.930558 
2797.000000	64.913177 
2796.000000	64.892172 
2795.000000	64.870119 
2794.000000	64.850020 
2793.000000	64.834737 
2792.000000	64.826369 
2791.000000	64.825987 
2790.000000	64.833140 
2789.000000	64.846110 
2788.000000	64.862132 
2787.000000	64.878034 
2786.000000	64.890623 
2785.000000	64.897489 
2784.000000	64.897251 
2783.000000	64.889693 
2782.000000	64.876079 
2781.000000	64.858675 
2780.000000	64.840555 
2779.000000	64.824891 
2778.000000	64.814281 
2777.000000	64.810347 
2776.000000	64.813566 
2775.000000	64.823126 
2774.000000	64.837265 
2773.000000	64.853882 
2772.000000	64.870953 
2771.000000	64.886999 
2770.000000	64.901161 
2769.000000	64.913296 
2768.000000	64.923596 
2767.000000	64.932513 
2766.000000	64.940381 
2765.000000	64.947175 
2764.000000	64.952874 
2763.000000	64.957332 
2762.000000	64.960694 
2761.000000	64.963102 
2760.000000	64.965271 
2759.000000	64.967656 
2758.000000	64.970684 
2757.000000	64.973783 
2756.000000	64.976072 
2755.000000	64.976048 
2754.000000	64.971947 
2753.000000	64.962196 
2752.000000	64.946198 
2751.000000	64.924049 
2750.000000	64.897036 
2749.000000	64.867067 
2748.000000	64.836549 
2747.000000	64.807963 
2746.000000	64.783406 
2745.000000	64.764428 
2744.000000	64.752030 
2743.000000	64.746618 
2742.000000	64.748287 
2741.000000	64.756727 
2740.000000	64.771175 
2739.000000	64.790439 
2738.000000	64.812755 
2737.000000	64.835810 
2736.000000	64.857125 
2735.000000	64.874076 
2734.000000	64.884781 
2733.000000	64.888334 
2732.000000	64.885306 
2731.000000	64.877510 
2730.000000	64.868044 
2729.000000	64.860296 
2728.000000	64.857482 
2727.000000	64.861798 
2726.000000	64.873719 
2725.000000	64.892148 
2724.000000	64.914393 
2723.000000	64.936804 
2722.000000	64.955639 
2721.000000	64.967751 
2720.000000	64.971256 
2719.000000	64.965724 
2718.000000	64.952325 
2717.000000	64.933323 
2716.000000	64.911627 
2715.000000	64.890074 
2714.000000	64.871096 
2713.000000	64.856457 
2712.000000	64.847159 
2711.000000	64.843678 
2710.000000	64.846062 
2709.000000	64.854240 
2708.000000	64.867782 
2707.000000	64.886283 
2706.000000	64.908790 
2705.000000	64.934182 
2704.000000	64.960837 
2703.000000	64.987111 
2702.000000	65.011167 
2701.000000	65.031290 
2700.000000	65.046167 
2699.000000	65.054988 
2698.000000	65.057468 
2697.000000	65.054106 
2696.000000	65.046119 
2695.000000	65.034961 
2694.000000	65.022468 
2693.000000	65.010213 
2692.000000	64.999556 
2691.000000	64.991259 
2690.000000	64.985418 
2689.000000	64.981555 
2688.000000	64.978814 
2687.000000	64.976191 
2686.000000	64.973044 
2685.000000	64.969205 
2684.000000	64.965152 
2683.000000	64.962053 
2682.000000	64.961147 
2681.000000	64.963507 
2680.000000	64.969635 
2679.000000	64.979147 
2678.000000	64.990878 
2677.000000	65.003275 
2676.000000	65.014719 
2675.000000	65.023851 
2674.000000	65.029788 
2673.000000	65.032291 
2672.000000	65.031528 
2671.000000	65.027761 
2670.000000	65.021443 
2669.000000	65.012931 
2668.000000	65.002846 
2667.000000	64.991831 
2666.000000	64.980697 
2665.000000	64.970517 
2664.000000	64.962363 
2663.000000	64.957332 
2662.000000	64.956068 
2661.000000	64.958548 
2660.000000	64.963960 
2659.000000	64.970993 
2658.000000	64.977955 
2657.000000	64.983081 
2656.000000	64.985060 
2655.000000	64.983320 
2654.000000	64.977955 
2653.000000	64.969706 
2652.000000	64.959788 
2651.000000	64.949512 
2650.000000	64.940237 
2649.000000	64.932870 
2648.000000	64.928054 
2647.000000	64.925670 
2646.000000	64.925193 
2645.000000	64.925551 
2644.000000	64.925432 
2643.000000	64.923644 
2642.000000	64.919400 
2641.000000	64.912581 
2640.000000	64.903616 
2639.000000	64.893436 
2638.000000	64.883017 
2637.000000	64.873242 
2636.000000	64.864516 
2635.000000	64.856791 
2634.000000	64.849662 
2633.000000	64.842700 
2632.000000	64.835619 
2631.000000	64.828586 
2630.000000	64.822125 
2629.000000	64.817333 
2628.000000	64.815211 
2627.000000	64.816355 
2626.000000	64.820885 
2625.000000	64.828038 
2624.000000	64.836621 
2623.000000	64.845347 
2622.000000	64.853358 
2621.000000	64.860439 
2620.000000	64.867019 
2619.000000	64.874243 
2618.000000	64.883470 
2617.000000	64.895677 
2616.000000	64.911127 
2615.000000	64.929294 
2614.000000	64.948797 
2613.000000	64.967823 
2612.000000	64.984321 
2611.000000	64.996552 
2610.000000	65.003371 
2609.000000	65.004467 
2608.000000	65.000534 
2607.000000	64.992952 
2606.000000	64.983654 
2605.000000	64.974737 
2604.000000	64.968109 
2603.000000	64.965057 
2602.000000	64.966368 
2601.000000	64.971876 
2600.000000	64.980649 
2599.000000	64.990901 
2598.000000	65.000462 
2597.000000	65.006947 
2596.000000	65.008115 
2595.000000	65.002322 
2594.000000	64.988827 
2593.000000	64.967870 
2592.000000	64.940738 
2591.000000	64.909744 
2590.000000	64.877772 
2589.000000	64.848041 
2588.000000	64.823770 
2587.000000	64.807415 
2586.000000	64.800453 
2585.000000	64.802956 
2584.000000	64.813470 
2583.000000	64.829492 
2582.000000	64.847660 
2581.000000	64.864683 
2580.000000	64.877963 
2579.000000	64.886188 
2578.000000	64.889407 
2577.000000	64.889097 
2576.000000	64.887619 
2575.000000	64.887523 
2574.000000	64.890909 
2573.000000	64.898800 
2572.000000	64.910769 
2571.000000	64.925408 
2570.000000	64.940476 
2569.000000	64.953804 
2568.000000	64.963722 
2567.000000	64.969563 
2566.000000	64.971470 
2565.000000	64.970445 
2564.000000	64.968013 
2563.000000	64.965534 
2562.000000	64.964389 
2561.000000	64.965462 
2560.000000	64.969491 
2559.000000	64.977049 
2558.000000	64.988327 
2557.000000	65.002918 
2556.000000	65.019822 
2555.000000	65.037536 
2554.000000	65.054154 
2553.000000	65.067553 
2552.000000	65.075898 
2551.000000	65.077972 
2550.000000	65.073680 
2549.000000	65.064024 
2548.000000	65.051054 
2547.000000	65.037178 
2546.000000	65.024948 
2545.000000	65.016222 
2544.000000	65.011978 
2543.000000	65.012121 
2542.000000	65.015888 
2541.000000	65.022015 
2540.000000	65.029120 
2539.000000	65.036129 
2538.000000	65.042066 
2537.000000	65.046525 
2536.000000	65.049147 
2535.000000	65.050172 
2534.000000	65.050148 
2533.000000	65.049934 
2532.000000	65.050554 
2531.000000	65.052795 
2530.000000	65.057158 
2529.000000	65.063142 
2528.000000	65.069508 
2527.000000	65.074324 
2526.000000	65.075564 
2525.000000	65.071463 
2524.000000	65.061187 
2523.000000	65.045213 
2522.000000	65.025186 
2521.000000	65.003657 
2520.000000	64.983439 
2519.000000	64.966821 
2518.000000	64.954972 
2517.000000	64.947795 
2516.000000	64.944314 
2515.000000	64.942860 
2514.000000	64.942049 
2513.000000	64.941525 
2512.000000	64.941835 
2511.000000	64.944291 
2510.000000	64.950156 
2509.000000	64.960122 
2508.000000	64.973521 
2507.000000	64.988160 
2506.000000	65.000438 
2505.000000	65.006327 
2504.000000	65.002465 
2503.000000	64.986920 
2502.000000	64.960050 
2501.000000	64.924597 
2500.000000	64.885210 
2499.000000	64.847230 
2498.000000	64.815711 
2497.000000	64.794230 
2496.000000	64.784526 
2495.000000	64.786338 
2494.000000	64.797949 
2493.000000	64.816737 
2492.000000	64.840102 
2491.000000	64.866161 
2490.000000	64.893722 
2489.000000	64.922428 
2488.000000	64.951801 
2487.000000	64.981269 
2486.000000	65.009665 
2485.000000	65.035176 
2484.000000	65.055823 
2483.000000	65.069627 
2482.000000	65.075540 
2481.000000	65.073513 
2480.000000	65.065050 
2479.000000	65.052390 
2478.000000	65.038537 
2477.000000	65.026283 
2476.000000	65.017962 
2475.000000	65.014791 
2474.000000	65.016674 
2473.000000	65.022087 
2472.000000	65.028619 
2471.000000	65.033364 
2470.000000	65.033793 
2469.000000	65.028071 
2468.000000	65.015840 
2467.000000	64.998483 
2466.000000	64.978981 
2465.000000	64.961242 
2464.000000	64.949512 
2463.000000	64.947509 
2462.000000	64.957284 
2461.000000	64.979362 
2460.000000	65.012001 
2459.000000	65.051412 
2458.000000	65.092468 
2457.000000	65.129923 
2456.000000	65.158963 
2455.000000	65.176177 
2454.000000	65.179872 
2453.000000	65.170145 
2452.000000	65.148639 
2451.000000	65.118193 
2450.000000	65.082049 
2449.000000	65.043497 
2448.000000	65.005564 
2447.000000	64.971160 
2446.000000	64.942574 
2445.000000	64.921426 
2444.000000	64.909338 
2443.000000	64.907860 
2442.000000	64.918470 
2441.000000	64.942073 
2440.000000	64.978623 
2439.000000	65.026283 
2438.000000	65.081501 
2437.000000	65.138578 
2436.000000	65.190196 
2435.000000	65.228557 
2434.000000	65.247225 
2433.000000	65.242600 
2432.000000	65.214562 
2431.000000	65.167236 
2430.000000	65.108466 
2429.000000	65.048146 
2428.000000	64.996290 
2427.000000	64.961099 
2426.000000	64.947414 
2425.000000	64.956426 
2424.000000	64.985489 
2423.000000	65.030264 
2422.000000	65.086102 
2421.000000	65.149593 
2420.000000	65.219044 
2419.000000	65.294027 
2418.000000	65.374112 
2417.000000	65.457677 
2416.000000	65.540862 
2415.000000	65.617561 
2414.000000	65.679669 
2413.000000	65.719318 
2412.000000	65.729832 
2411.000000	65.707921 
2410.000000	65.653705 
2409.000000	65.571618 
2408.000000	65.468835 
2407.000000	65.354537 
2406.000000	65.237760 
2405.000000	65.126538 
2404.000000	65.026783 
2403.000000	64.942359 
2402.000000	64.875173 
2401.000000	64.825510 
2400.000000	64.792895 
2399.000000	64.775943 
2398.000000	64.773273 
2397.000000	64.782619 
2396.000000	64.802026 
2395.000000	64.828896 
2394.000000	64.860892 
2393.000000	64.895367 
2392.000000	64.929771 
2391.000000	64.961457 
2390.000000	64.987945 
2389.000000	65.006780 
2388.000000	65.016198 
2387.000000	65.015482 
2386.000000	65.005159 
2385.000000	64.987015 
2384.000000	64.964175 
2383.000000	64.940571 
2382.000000	64.920258 
2381.000000	64.906787 
2380.000000	64.902496 
2379.000000	64.908075 
2378.000000	64.922666 
2377.000000	64.944005 
2376.000000	64.968824 
2375.000000	64.993667 
2374.000000	65.015983 
2373.000000	65.034008 
2372.000000	65.046930 
2371.000000	65.054702 
2370.000000	65.057921 
2369.000000	65.057253 
2368.000000	65.053153 
2367.000000	65.045714 
2366.000000	65.034937 
2365.000000	65.020799 
2364.000000	65.003728 
2363.000000	64.984536 
2362.000000	64.964842 
2361.000000	64.946627 
2360.000000	64.932155 
2359.000000	64.923357 
2358.000000	64.921450 
2357.000000	64.926743 
2356.000000	64.938449 
2355.000000	64.954829 
2354.000000	64.973473 
2353.000000	64.991903 
2352.000000	65.007734 
2351.000000	65.019273 
2350.000000	65.025401 
2349.000000	65.025711 
2348.000000	65.020012 
2347.000000	65.008544 
2346.000000	64.991760 
2345.000000	64.970183 
2344.000000	64.944720 
2343.000000	64.916443 
2342.000000	64.887046 
2341.000000	64.858746 
2340.000000	64.834046 
2339.000000	64.815545 
2338.000000	64.805459 
2337.000000	64.805102 
2336.000000	64.814734 
2335.000000	64.833283 
2334.000000	64.858365 
2333.000000	64.886641 
2332.000000	64.914345 
2331.000000	64.938044 
2330.000000	64.954781 
2329.000000	64.962816 
2328.000000	64.961838 
2327.000000	64.952945 
2326.000000	64.938354 
2325.000000	64.920926 
2324.000000	64.903807 
2323.000000	64.889621 
2322.000000	64.880323 
2321.000000	64.876604 
2320.000000	64.877843 
2319.000000	64.882421 
2318.000000	64.888048 
2317.000000	64.892458 
2316.000000	64.893674 
2315.000000	64.891004 
2314.000000	64.884686 
2313.000000	64.876532 
2312.000000	64.868927 
2311.000000	64.864850 
2310.000000	64.866995 
2309.000000	64.877200 
2308.000000	64.895987 
2307.000000	64.922308 
2306.000000	64.953756 
2305.000000	64.987015 
2304.000000	65.018415 
2303.000000	65.044879 
2302.000000	65.064191 
2301.000000	65.075421 
2300.000000	65.078902 
2299.000000	65.075731 
2298.000000	65.067529 
2297.000000	65.056061 
2296.000000	65.042829 
2295.000000	65.029001 
2294.000000	65.015435 
2293.000000	65.003132 
2292.000000	64.992809 
2291.000000	64.985322 
2290.000000	64.981055 
2289.000000	64.980125 
2288.000000	64.981913 
2287.000000	64.985227 
2286.000000	64.988231 
2285.000000	64.988994 
2284.000000	64.986062 
2283.000000	64.978933 
2282.000000	64.968466 
2281.000000	64.956593 
2280.000000	64.945793 
2279.000000	64.938735 
2278.000000	64.937353 
2277.000000	64.942455 
2276.000000	64.953851 
2275.000000	64.970421 
2274.000000	64.990401 
2273.000000	65.012216 
2272.000000	65.034651 
2271.000000	65.057039 
2270.000000	65.079212 
2269.000000	65.100884 
2268.000000	65.121769 
2267.000000	65.140891 
2266.000000	65.156936 
2265.000000	65.167880 
2264.000000	65.171790 
2263.000000	65.167069 
2262.000000	65.153193 
2261.000000	65.130734 
2260.000000	65.101504 
2259.000000	65.068316 
2258.000000	65.034580 
2257.000000	65.003895 
2256.000000	64.979505 
2255.000000	64.963793 
2254.000000	64.958000 
2253.000000	64.961838 
2252.000000	64.973998 
2251.000000	64.991879 
2250.000000	65.012383 
2249.000000	65.032219 
2248.000000	65.048336 
2247.000000	65.058541 
2246.000000	65.061473 
2245.000000	65.056729 
2244.000000	65.044760 
2243.000000	65.026569 
2242.000000	65.003681 
2241.000000	64.977955 
2240.000000	64.951372 
2239.000000	64.925956 
2238.000000	64.903616 
2237.000000	64.886093 
2236.000000	64.874696 
2235.000000	64.870047 
2234.000000	64.872002 
2233.000000	64.879488 
2232.000000	64.890670 
2231.000000	64.903092 
2230.000000	64.914250 
2229.000000	64.921903 
2228.000000	64.924812 
2227.000000	64.922833 
2226.000000	64.916777 
2225.000000	64.908242 
2224.000000	64.899444 
2223.000000	64.892506 
2222.000000	64.889240 
2221.000000	64.890480 
2220.000000	64.896178 
2219.000000	64.905333 
2218.000000	64.916205 
2217.000000	64.926934 
2216.000000	64.935421 
2215.000000	64.940452 
2214.000000	64.941787 
2213.000000	64.940357 
2212.000000	64.938092 
2211.000000	64.937353 
2210.000000	64.940309 
2209.000000	64.948368 
2208.000000	64.961791 
2207.000000	64.979505 
2206.000000	64.999270 
2205.000000	65.018534 
2204.000000	65.034985 
2203.000000	65.047430 
2202.000000	65.056180 
2201.000000	65.062952 
2200.000000	65.070271 
2199.000000	65.080714 
2198.000000	65.095877 
2197.000000	65.115642 
2196.000000	65.137743 
2195.000000	65.158343 
2194.000000	65.172719 
2193.000000	65.176534 
2192.000000	65.166854 
2191.000000	65.142893 
2190.000000	65.106558 
2189.000000	65.061879 
2188.000000	65.014505 
2187.000000	64.970588 
2186.000000	64.935588 
2185.000000	64.913487 
2184.000000	64.905738 
2183.000000	64.911580 
2182.000000	64.927840 
2181.000000	64.950323 
2180.000000	64.974141 
2179.000000	64.994835 
2178.000000	65.009045 
2177.000000	65.014958 
2176.000000	65.012478 
2175.000000	65.002894 
2174.000000	64.988493 
2173.000000	64.971899 
2172.000000	64.955997 
2171.000000	64.943170 
2170.000000	64.935255 
2169.000000	64.933133 
2168.000000	64.936947 
2167.000000	64.945840 
2166.000000	64.958214 
2165.000000	64.971923 
2164.000000	64.984369 
2163.000000	64.993286 
2162.000000	64.996504 
2161.000000	64.993262 
2160.000000	64.983963 
2159.000000	64.970874 
2158.000000	64.957523 
2157.000000	64.948344 
2156.000000	64.947366 
2155.000000	64.957571 
2154.000000	64.980220 
2153.000000	65.014195 
2152.000000	65.056180 
2151.000000	65.101265 
2150.000000	65.143775 
2149.000000	65.178346 
2148.000000	65.200877 
2147.000000	65.209221 
2146.000000	65.203356 
2145.000000	65.185618 
2144.000000	65.159702 
2143.000000	65.130281 
2142.000000	65.101552 
2141.000000	65.076589 
2140.000000	65.056586 
2139.000000	65.041065 
2138.000000	65.028166 
2137.000000	65.015673 
2136.000000	65.001749 
2135.000000	64.985418 
2134.000000	64.967298 
2133.000000	64.949178 
2132.000000	64.933943 
2131.000000	64.924144 
2130.000000	64.921903 
2129.000000	64.928078 
2128.000000	64.942264 
2127.000000	64.962720 
2126.000000	64.986991 
2125.000000	65.012407 
2124.000000	65.036630 
2123.000000	65.058088 
2122.000000	65.075898 
2121.000000	65.089964 
2120.000000	65.100455 
2119.000000	65.107560 
2118.000000	65.111637 
2117.000000	65.112948 
2116.000000	65.111660 
2115.000000	65.107679 
2114.000000	65.101075 
2113.000000	65.091729 
2112.000000	65.079641 
2111.000000	65.065026 
2110.000000	65.048146 
2109.000000	65.029740 
2108.000000	65.010952 
2107.000000	64.993405 
2106.000000	64.978551 
2105.000000	64.967703 
2104.000000	64.961647 
2103.000000	64.960598 
2102.000000	64.963698 
2101.000000	64.969897 
2100.000000	64.977741 
2099.000000	64.986062 
2098.000000	64.994049 
2097.000000	65.001535 
2096.000000	65.008997 
2095.000000	65.017032 
2094.000000	65.025830 
2093.000000	65.034723 
2092.000000	65.042090 
2091.000000	65.045595 
2090.000000	65.042543 
2089.000000	65.030598 
2088.000000	65.008521 
2087.000000	64.976930 
2086.000000	64.938330 
2085.000000	64.896607 
2084.000000	64.856553 
2083.000000	64.822769 
2082.000000	64.799022 
2081.000000	64.787197 
2080.000000	64.787554 
2079.000000	64.798712 
2078.000000	64.818644 
2077.000000	64.844822 
2076.000000	64.875459 
2075.000000	64.909338 
2074.000000	64.946413 
2073.000000	64.986824 
2072.000000	65.031123 
2071.000000	65.079331 
2070.000000	65.130805 
2069.000000	65.183806 
2068.000000	65.235638 
2067.000000	65.282869 
2066.000000	65.321826 
2065.000000	65.349054 
2064.000000	65.361642 
2063.000000	65.357732 
2062.000000	65.337038 
2061.000000	65.300893 
2060.000000	65.252327 
2059.000000	65.195631 
2058.000000	65.136384 
2057.000000	65.079975 
2056.000000	65.031242 
2055.000000	64.993429 
2054.000000	64.967823 
2053.000000	64.953923 
2052.000000	64.949464 
2051.000000	64.951443 
2050.000000	64.956545 
2049.000000	64.962410 
2048.000000	64.967465 
2047.000000	64.971470 
2046.000000	64.974594 
2045.000000	64.977550 
2044.000000	64.980864 
2043.000000	64.984703 
2042.000000	64.988303 
2041.000000	64.990854 
2040.000000	64.991784 
2039.000000	64.991044 
2038.000000	64.989209 
2037.000000	64.987492 
2036.000000	64.987516 
2035.000000	64.990592 
2034.000000	64.997291 
2033.000000	65.007567 
2032.000000	65.020728 
2031.000000	65.035629 
2030.000000	65.051078 
2029.000000	65.066051 
2028.000000	65.079855 
2027.000000	65.092468 
2026.000000	65.103960 
2025.000000	65.114378 
2024.000000	65.123319 
2023.000000	65.130305 
2022.000000	65.134239 
2021.000000	65.133857 
2020.000000	65.127921 
2019.000000	65.115785 
2018.000000	65.097475 
2017.000000	65.073823 
2016.000000	65.046525 
2015.000000	65.017890 
2014.000000	64.990544 
2013.000000	64.966893 
2012.000000	64.948940 
2011.000000	64.937734 
2010.000000	64.933323 
2009.000000	64.934730 
2008.000000	64.939904 
2007.000000	64.946269 
2006.000000	64.951348 
2005.000000	64.952993 
2004.000000	64.950013 
2003.000000	64.942193 
2002.000000	64.930462 
2001.000000	64.916610 
2000.000000	64.902639 
1999.000000	64.890480 
1998.000000	64.881777 
1997.000000	64.877510 
1996.000000	64.877915 
1995.000000	64.882636 
1994.000000	64.890933 
1993.000000	64.902186 
1992.000000	64.915776 
1991.000000	64.931678 
1990.000000	64.950156 
1989.000000	64.971494 
1988.000000	64.995813 
1987.000000	65.022563 
1986.000000	65.050196 
1985.000000	65.076494 
1984.000000	65.098810 
1983.000000	65.114736 
1982.000000	65.122532 
1981.000000	65.121936 
1980.000000	65.113830 
1979.000000	65.100073 
1978.000000	65.082669 
1977.000000	65.063476 
1976.000000	65.043663 
1975.000000	65.023875 
1974.000000	65.004229 
1973.000000	64.984941 
1972.000000	64.966559 
1971.000000	64.950180 
1970.000000	64.937710 
1969.000000	64.930868 
1968.000000	64.931344 
1967.000000	64.939951 
1966.000000	64.956402 
1965.000000	64.979100 
1964.000000	65.005421 
1963.000000	65.032124 
1962.000000	65.055966 
1961.000000	65.074229 
1960.000000	65.085124 
1959.000000	65.088009 
1958.000000	65.083336 
1957.000000	65.072345 
1956.000000	65.056896 
1955.000000	65.038871 
1954.000000	65.020203 
1953.000000	65.002393 
1952.000000	64.986705 
1951.000000	64.973759 
1950.000000	64.963817 
1949.000000	64.956521 
1948.000000	64.950895 
1947.000000	64.945745 
1946.000000	64.939737 
1945.000000	64.931750 
1944.000000	64.921092 
1943.000000	64.907717 
1942.000000	64.892411 
1941.000000	64.876627 
1940.000000	64.861989 
1939.000000	64.850068 
1938.000000	64.841890 
1937.000000	64.838004 
1936.000000	64.838266 
1935.000000	64.842391 
1934.000000	64.849734 
1933.000000	64.860129 
1932.000000	64.873623 
1931.000000	64.890551 
1930.000000	64.911031 
1929.000000	64.934682 
1928.000000	64.960503 
1927.000000	64.986610 
1926.000000	65.010643 
1925.000000	65.030193 
1924.000000	65.043377 
1923.000000	65.049839 
1922.000000	65.050435 
1921.000000	65.047168 
1920.000000	65.042638 
1919.000000	65.039730 
1918.000000	65.040349 
1917.000000	65.045404 
1916.000000	65.054202 
1915.000000	65.065097 
1914.000000	65.075731 
1913.000000	65.083599 
1912.000000	65.086698 
1911.000000	65.083980 
1910.000000	65.075445 
1909.000000	65.061950 
1908.000000	65.044951 
1907.000000	65.026283 
1906.000000	65.007710 
1905.000000	64.990806 
1904.000000	64.976692 
1903.000000	64.966011 
1902.000000	64.958906 
1901.000000	64.955282 
1900.000000	64.954566 
1899.000000	64.956045 
1898.000000	64.959073 
1897.000000	64.963340 
1896.000000	64.968633 
1895.000000	64.974951 
1894.000000	64.982533 
1893.000000	64.991474 
1892.000000	65.001583 
1891.000000	65.012192 
1890.000000	65.022373 
1889.000000	65.031099 
1888.000000	65.037393 
1887.000000	65.040779 
1886.000000	65.041399 
1885.000000	65.040349 
1884.000000	65.039157 
1883.000000	65.039634 
1882.000000	65.043282 
1881.000000	65.050673 
1880.000000	65.061354 
1879.000000	65.073704 
1878.000000	65.085220 
1877.000000	65.092992 
1876.000000	65.094447 
1875.000000	65.087699 
1874.000000	65.072321 
1873.000000	65.049076 
1872.000000	65.020036 
1871.000000	64.988088 
1870.000000	64.956545 
1869.000000	64.928412 
1868.000000	64.906239 
1867.000000	64.891529 
1866.000000	64.884877 
1865.000000	64.886069 
1864.000000	64.894318 
1863.000000	64.908385 
1862.000000	64.927053 
1861.000000	64.948940 
1860.000000	64.972782 
1859.000000	64.997363 
1858.000000	65.021610 
1857.000000	65.044283 
1856.000000	65.064144 
1855.000000	65.079998 
1854.000000	65.090584 
1853.000000	65.094971 
1852.000000	65.092515 
1851.000000	65.083003 
1850.000000	65.066671 
1849.000000	65.044379 
1848.000000	65.017390 
1847.000000	64.987325 
1846.000000	64.956045 
1845.000000	64.925479 
1844.000000	64.897632 
1843.000000	64.874505 
1842.000000	64.857864 
1841.000000	64.849138 
1840.000000	64.849066 
1839.000000	64.857816 
1838.000000	64.874458 
1837.000000	64.897489 
1836.000000	64.924645 
1835.000000	64.953494 
1834.000000	64.981365 
1833.000000	65.006208 
1832.000000	65.026473 
1831.000000	65.041446 
1830.000000	65.051221 
1829.000000	65.056467 
1828.000000	65.058445 
1827.000000	65.058279 
1826.000000	65.056943 
1825.000000	65.054869 
1824.000000	65.051937 
1823.000000	65.047550 
1822.000000	65.040755 
1821.000000	65.030503 
1820.000000	65.016222 
1819.000000	64.997911 
1818.000000	64.976191 
1817.000000	64.952325 
1816.000000	64.927840 
1815.000000	64.904427 
1814.000000	64.883613 
1813.000000	64.866185 
1812.000000	64.852595 
1811.000000	64.842557 
1810.000000	64.835882 
1809.000000	64.832282 
1808.000000	64.832019 
1807.000000	64.835476 
1806.000000	64.843320 
1805.000000	64.856123 
1804.000000	64.874005 
1803.000000	64.896011 
1802.000000	64.920473 
1801.000000	64.944887 
1800.000000	64.966249 
1799.000000	64.981818 
1798.000000	64.989161 
1797.000000	64.986920 
1796.000000	64.974927 
1795.000000	64.954209 
1794.000000	64.926791 
1793.000000	64.895510 
1792.000000	64.863419 
1791.000000	64.833617 
1790.000000	64.808726 
1789.000000	64.790654 
1788.000000	64.780449 
1787.000000	64.778280 
1786.000000	64.783120 
1785.000000	64.793372 
1784.000000	64.806675 
1783.000000	64.820766 
1782.000000	64.833498 
1781.000000	64.843583 
1780.000000	64.850544 
1779.000000	64.854860 
1778.000000	64.857864 
1777.000000	64.861440 
1776.000000	64.867138 
1775.000000	64.876008 
1774.000000	64.888381 
1773.000000	64.903569 
1772.000000	64.919972 
1771.000000	64.935684 
1770.000000	64.948678 
1769.000000	64.957404 
1768.000000	64.960956 
1767.000000	64.959287 
1766.000000	64.953231 
1765.000000	64.944005 
1764.000000	64.932966 
1763.000000	64.921498 
1762.000000	64.910411 
1761.000000	64.900445 
1760.000000	64.891600 
1759.000000	64.883708 
1758.000000	64.876174 
1757.000000	64.868545 
1756.000000	64.860033 
1755.000000	64.850115 
1754.000000	64.837884 
1753.000000	64.822793 
1752.000000	64.804506 
1751.000000	64.783000 
1750.000000	64.758849 
1749.000000	64.733195 
1748.000000	64.707469 
1747.000000	64.683294 
1746.000000	64.661836 
1745.000000	64.643883 
1744.000000	64.629435 
1743.000000	64.617609 
1742.000000	64.606857 
1741.000000	64.595270 
1740.000000	64.580893 
1739.000000	64.562511 
1738.000000	64.539623 
1737.000000	64.512991 
1736.000000	64.484238 
1735.000000	64.455986 
1734.000000	64.431214 
1733.000000	64.412951 
1732.000000	64.403581 
1731.000000	64.404702 
1730.000000	64.416599 
1729.000000	64.438605 
1728.000000	64.468908 
1727.000000	64.505290 
1726.000000	64.545130 
1725.000000	64.586186 
1724.000000	64.626622 
1723.000000	64.665412 
1722.000000	64.701914 
1721.000000	64.735937 
1720.000000	64.767313 
1719.000000	64.795708 
1718.000000	64.820456 
1717.000000	64.840650 
1716.000000	64.855265 
1715.000000	64.863538 
1714.000000	64.865517 
1713.000000	64.861989 
1712.000000	64.854311 
1711.000000	64.844536 
1710.000000	64.834976 
1709.000000	64.827752 
1708.000000	64.824056 
1707.000000	64.824461 
1706.000000	64.828515 
1705.000000	64.834833 
1704.000000	64.841628 
1703.000000	64.847087 
1702.000000	64.849901 
1701.000000	64.849424 
1700.000000	64.845871 
1699.000000	64.839982 
1698.000000	64.832782 
1697.000000	64.825296 
1696.000000	64.818048 
1695.000000	64.810919 
1694.000000	64.803457 
1693.000000	64.795231 
1692.000000	64.786124 
1691.000000	64.776420 
1690.000000	64.767289 
1689.000000	64.760613 
1688.000000	64.758253 
1687.000000	64.761757 
1686.000000	64.771819 
1685.000000	64.787960 
1684.000000	64.808630 
1683.000000	64.831280 
1682.000000	64.853310 
1681.000000	64.872264 
1680.000000	64.886641 
1679.000000	64.895725 
1678.000000	64.899659 
1677.000000	64.898943 
1676.000000	64.894247 
1675.000000	64.885950 
1674.000000	64.874339 
1673.000000	64.859604 
1672.000000	64.842438 
1671.000000	64.823770 
1670.000000	64.805126 
1669.000000	64.788246 
1668.000000	64.775133 
1667.000000	64.767169 
1666.000000	64.764833 
1665.000000	64.767384 
1664.000000	64.773058 
1663.000000	64.779305 
1662.000000	64.783668 
1661.000000	64.784169 
1660.000000	64.779877 
1659.000000	64.771270 
1658.000000	64.759993 
1657.000000	64.748477 
1656.000000	64.739179 
1655.000000	64.733982 
1654.000000	64.733505 
1653.000000	64.737057 
1652.000000	64.742565 
1651.000000	64.747476 
1650.000000	64.749312 
1649.000000	64.746069 
1648.000000	64.737558 
1647.000000	64.725089 
1646.000000	64.711880 
1645.000000	64.701771 
1644.000000	64.698839 
1643.000000	64.705967 
1642.000000	64.724135 
1641.000000	64.752149 
1640.000000	64.786434 
1639.000000	64.821767 
1638.000000	64.852380 
1637.000000	64.873337 
1636.000000	64.881491 
1635.000000	64.876246 
1634.000000	64.859724 
1633.000000	64.836144 
1632.000000	64.810705 
1631.000000	64.788246 
1630.000000	64.772319 
1629.000000	64.764428 
1628.000000	64.764022 
1627.000000	64.768767 
1626.000000	64.775586 
1625.000000	64.781332 
1624.000000	64.783430 
1623.000000	64.780473 
1622.000000	64.772129 
1621.000000	64.759445 
1620.000000	64.744448 
1619.000000	64.729619 
1618.000000	64.717459 
1617.000000	64.709830 
1616.000000	64.707827 
1615.000000	64.711189 
1614.000000	64.718532 
1613.000000	64.727544 
1612.000000	64.735436 
1611.000000	64.739680 
1610.000000	64.738392 
1609.000000	64.731097 
1608.000000	64.718794 
1607.000000	64.703774 
1606.000000	64.689111 
1605.000000	64.678335 
1604.000000	64.674425 
1603.000000	64.679217 
1602.000000	64.692950 
1601.000000	64.714241 
1600.000000	64.740133 
1599.000000	64.766907 
1598.000000	64.790606 
1597.000000	64.807868 
1596.000000	64.816308 
1595.000000	64.814972 
1594.000000	64.804267 
1593.000000	64.785742 
1592.000000	64.761614 
1591.000000	64.734530 
1590.000000	64.706921 
1589.000000	64.680862 
1588.000000	64.657950 
1587.000000	64.639210 
1586.000000	64.625144 
1585.000000	64.616060 
1584.000000	64.611792 
1583.000000	64.611935 
1582.000000	64.615774 
1581.000000	64.622449 
1580.000000	64.630866 
1579.000000	64.639687 
1578.000000	64.647793 
1577.000000	64.654231 
1576.000000	64.658403 
1575.000000	64.660143 
1574.000000	64.659357 
1573.000000	64.656400 
1572.000000	64.651846 
1571.000000	64.646434 
1570.000000	64.641237 
1569.000000	64.637374 
1568.000000	64.636421 
1567.000000	64.639496 
1566.000000	64.647507 
1565.000000	64.660549 
1564.000000	64.677810 
1563.000000	64.697575 
1562.000000	64.717245 
1561.000000	64.734077 
1560.000000	64.745664 
1559.000000	64.750456 
1558.000000	64.748215 
1557.000000	64.740014 
1556.000000	64.727997 
1555.000000	64.714527 
1554.000000	64.701700 
1553.000000	64.690732 
1552.000000	64.681816 
1551.000000	64.674377 
1550.000000	64.667582 
1549.000000	64.660763 
1548.000000	64.654016 
1547.000000	64.648509 
1546.000000	64.646148 
1545.000000	64.648985 
1544.000000	64.658784 
1543.000000	64.676332 
1542.000000	64.701128 
1541.000000	64.731431 
1540.000000	64.764642 
1539.000000	64.798116 
1538.000000	64.829254 
1537.000000	64.856410 
1536.000000	64.878416 
1535.000000	64.894652 
1534.000000	64.904570 
1533.000000	64.907646 
1532.000000	64.903450 
1531.000000	64.891672 
1530.000000	64.872646 
1529.000000	64.847636 
1528.000000	64.818644 
1527.000000	64.788413 
1526.000000	64.759707 
1525.000000	64.734935 
1524.000000	64.715456 
1523.000000	64.701509 
1522.000000	64.692211 
1521.000000	64.686155 
1520.000000	64.681768 
1519.000000	64.677834 
1518.000000	64.673995 
1517.000000	64.670515 
1516.000000	64.667797 
1515.000000	64.666390 
1514.000000	64.666032 
1513.000000	64.666032 
1512.000000	64.665246 
1511.000000	64.662718 
1510.000000	64.657783 
1509.000000	64.650845 
1508.000000	64.643239 
1507.000000	64.637017 
1506.000000	64.634156 
1505.000000	64.636039 
1504.000000	64.643239 
1503.000000	64.654922 
1502.000000	64.669108 
1501.000000	64.683055 
1500.000000	64.693808 
1499.000000	64.699196 
1498.000000	64.698266 
1497.000000	64.691543 
1496.000000	64.680933 
1495.000000	64.669466 
1494.000000	64.660573 
1493.000000	64.657378 
1492.000000	64.662265 
1491.000000	64.676380 
1490.000000	64.699411 
1489.000000	64.730024 
1488.000000	64.765882 
1487.000000	64.804100 
1486.000000	64.841437 
1485.000000	64.874792 
1484.000000	64.901351 
1483.000000	64.918947 
1482.000000	64.926147 
1481.000000	64.922714 
1480.000000	64.909434 
1479.000000	64.888238 
1478.000000	64.861893 
1477.000000	64.833641 
1476.000000	64.806771 
1475.000000	64.784240 
1474.000000	64.768147 
1473.000000	64.759659 
1472.000000	64.758920 
1471.000000	64.765095 
1470.000000	64.776396 
1469.000000	64.790272 
1468.000000	64.803719 
1467.000000	64.813685 
1466.000000	64.817380 
1465.000000	64.812612 
1464.000000	64.798545 
1463.000000	64.775419 
1462.000000	64.744567 
1461.000000	64.708375 
1460.000000	64.669942 
1459.000000	64.632534 
1458.000000	64.599370 
1457.000000	64.572978 
1456.000000	64.554810 
1455.000000	64.545011 
1454.000000	64.542484 
1453.000000	64.545273 
1452.000000	64.550638 
1451.000000	64.556503 
1450.000000	64.561486 
1449.000000	64.565420 
1448.000000	64.569067 
1447.000000	64.573812 
1446.000000	64.580965 
1445.000000	64.591193 
1444.000000	64.604163 
1443.000000	64.619088 
1442.000000	64.634919 
1441.000000	64.650988 
1440.000000	64.667296 
1439.000000	64.684987 
1438.000000	64.705729 
1437.000000	64.731073 
1436.000000	64.761590 
1435.000000	64.796328 
1434.000000	64.832568 
1433.000000	64.866042 
1432.000000	64.892148 
1431.000000	64.907002 
1430.000000	64.908552 
1429.000000	64.897513 
1428.000000	64.876842 
1427.000000	64.851284 
1426.000000	64.825797 
1425.000000	64.804720 
1424.000000	64.790248 
1423.000000	64.782118 
1422.000000	64.777898 
1421.000000	64.773941 
1420.000000	64.766359 
1419.000000	64.752101 
1418.000000	64.729881 
1417.000000	64.700412 
1416.000000	64.666128 
1415.000000	64.630699 
1414.000000	64.597868 
1413.000000	64.570713 
1412.000000	64.551115 
1411.000000	64.539384 
1410.000000	64.534640 
1409.000000	64.534902 
1408.000000	64.538049 
1407.000000	64.542007 
1406.000000	64.544892 
1405.000000	64.545679 
1404.000000	64.543843 
1403.000000	64.539885 
1402.000000	64.534115 
1401.000000	64.527511 
1400.000000	64.521026 
1399.000000	64.515972 
1398.000000	64.513587 
1397.000000	64.515137 
1396.000000	64.521765 
1395.000000	64.534139 
1394.000000	64.552402 
1393.000000	64.575529 
1392.000000	64.601349 
1391.000000	64.626765 
1390.000000	64.648509 
1389.000000	64.663910 
1388.000000	64.671444 
1387.000000	64.671564 
1386.000000	64.666485 
1385.000000	64.659810 
1384.000000	64.655423 
1383.000000	64.656615 
1382.000000	64.664912 
1381.000000	64.679288 
1380.000000	64.696311 
1379.000000	64.711165 
1378.000000	64.718675 
1377.000000	64.715075 
1376.000000	64.698886 
1375.000000	64.671564 
1374.000000	64.637327 
1373.000000	64.602160 
1372.000000	64.572358 
1371.000000	64.552855 
1370.000000	64.546537 
1369.000000	64.553785 
1368.000000	64.572548 
1367.000000	64.599251 
1366.000000	64.629435 
1365.000000	64.658999 
1364.000000	64.684748 
1363.000000	64.704561 
1362.000000	64.717555 
1361.000000	64.723658 
1360.000000	64.723324 
1359.000000	64.717268 
1358.000000	64.706230 
1357.000000	64.691162 
1356.000000	64.673233 
1355.000000	64.654040 
1354.000000	64.635539 
1353.000000	64.619779 
1352.000000	64.608669 
1351.000000	64.603519 
1350.000000	64.604759 
1349.000000	64.611554 
1348.000000	64.622020 
1347.000000	64.633393 
1346.000000	64.642453 
1345.000000	64.646339 
1344.000000	64.642810 
1343.000000	64.631295 
1342.000000	64.612865 
1341.000000	64.590334 
1340.000000	64.567589 
1339.000000	64.548873 
1338.000000	64.537763 
1337.000000	64.536428 
1336.000000	64.545202 
1335.000000	64.562702 
1334.000000	64.586496 
1333.000000	64.613413 
1332.000000	64.640355 
1331.000000	64.665031 
1330.000000	64.686203 
1329.000000	64.703607 
1328.000000	64.717864 
1327.000000	64.730119 
1326.000000	64.741230 
1325.000000	64.751839 
1324.000000	64.761447 
1323.000000	64.768886 
1322.000000	64.772129 
1321.000000	64.769244 
1320.000000	64.758539 
1319.000000	64.739203 
1318.000000	64.711809 
1317.000000	64.678430 
1316.000000	64.642381 
1315.000000	64.607620 
1314.000000	64.577960 
1313.000000	64.556384 
1312.000000	64.544177 
1311.000000	64.540719 
1310.000000	64.543581 
1309.000000	64.549183 
1308.000000	64.553809 
1307.000000	64.554405 
1306.000000	64.549517 
1305.000000	64.539313 
1304.000000	64.525508 
1303.000000	64.510583 
1302.000000	64.496970 
1301.000000	64.486360 
1300.000000	64.479494 
1299.000000	64.476180 
1298.000000	64.475250 
1297.000000	64.475369 
1296.000000	64.475584 
1295.000000	64.475727 
1294.000000	64.476156 
1293.000000	64.478158 
1292.000000	64.483237 
1291.000000	64.492988 
1290.000000	64.508366 
1289.000000	64.529228 
1288.000000	64.554357 
1287.000000	64.581441 
1286.000000	64.607739 
1285.000000	64.630270 
1284.000000	64.646530 
1283.000000	64.654922 
1282.000000	64.655256 
1281.000000	64.648580 
1280.000000	64.637017 
1279.000000	64.623451 
1278.000000	64.610815 
1277.000000	64.601731 
1276.000000	64.597654 
1275.000000	64.598917 
1274.000000	64.604353 
1273.000000	64.611816 
1272.000000	64.618182 
1271.000000	64.620542 
1270.000000	64.616370 
1269.000000	64.604043 
1268.000000	64.583349 
1267.000000	64.555406 
1266.000000	64.523077 
1265.000000	64.490222 
1264.000000	64.461326 
1263.000000	64.440560 
1262.000000	64.430904 
1261.000000	64.433550 
1260.000000	64.447522 
1259.000000	64.469838 
1258.000000	64.496374 
1257.000000	64.522743 
1256.000000	64.545083 
1255.000000	64.560794 
1254.000000	64.568614 
1253.000000	64.568567 
1252.000000	64.561676 
1251.000000	64.549517 
1250.000000	64.533972 
1249.000000	64.517021 
1248.000000	64.500808 
1247.000000	64.487314 
1246.000000	64.478516 
1245.000000	64.475798 
1244.000000	64.479923 
1243.000000	64.490723 
1242.000000	64.506769 
1241.000000	64.525651 
1240.000000	64.544272 
1239.000000	64.559531 
1238.000000	64.568805 
1237.000000	64.570713 
1236.000000	64.565324 
1235.000000	64.553880 
1234.000000	64.538145 
1233.000000	64.520263 
1232.000000	64.502263 
1231.000000	64.486002 
1230.000000	64.473056 
1229.000000	64.464783 
1228.000000	64.462614 
1227.000000	64.467382 
1226.000000	64.479303 
1225.000000	64.497423 
1224.000000	64.519762 
1223.000000	64.543366 
1222.000000	64.564919 
1221.000000	64.581060 
1220.000000	64.589452 
1219.000000	64.588856 
1218.000000	64.579725 
1217.000000	64.564108 
1216.000000	64.545178 
1215.000000	64.526343 
1214.000000	64.510965 
1213.000000	64.501619 
1212.000000	64.499592 
1211.000000	64.505100 
1210.000000	64.517140 
1209.000000	64.533901 
1208.000000	64.552998 
1207.000000	64.572000 
1206.000000	64.588689 
1205.000000	64.601206 
1204.000000	64.608788 
1203.000000	64.611721 
1202.000000	64.611530 
1201.000000	64.610290 
1200.000000	64.610028 
1199.000000	64.611935 
1198.000000	64.616060 
1197.000000	64.621233 
1196.000000	64.625430 
1195.000000	64.626169 
1194.000000	64.621686 
1193.000000	64.611315 
1192.000000	64.595866 
1191.000000	64.577436 
1190.000000	64.558911 
1189.000000	64.543199 
1188.000000	64.532494 
1187.000000	64.527773 
1186.000000	64.528608 
1185.000000	64.533019 
1184.000000	64.538073 
1183.000000	64.540696 
1182.000000	64.538383 
1181.000000	64.529728 
1180.000000	64.514732 
1179.000000	64.494800 
1178.000000	64.472246 
1177.000000	64.450144 
1176.000000	64.431500 
1175.000000	64.418864 
1174.000000	64.413857 
1173.000000	64.417004 
1172.000000	64.427757 
1171.000000	64.444565 
1170.000000	64.465332 
1169.000000	64.487838 
1168.000000	64.509916 
1167.000000	64.529848 
1166.000000	64.546561 
1165.000000	64.559316 
1164.000000	64.567947 
1163.000000	64.572453 
1162.000000	64.573264 
1161.000000	64.571189 
1160.000000	64.567184 
1159.000000	64.562559 
1158.000000	64.558291 
1157.000000	64.555454 
1156.000000	64.554381 
1155.000000	64.554953 
1154.000000	64.556288 
1153.000000	64.557218 
1152.000000	64.556527 
1151.000000	64.553236 
1150.000000	64.547014 
1149.000000	64.538359 
1148.000000	64.528656 
1147.000000	64.519929 
1146.000000	64.514374 
1145.000000	64.513874 
1144.000000	64.519691 
1143.000000	64.532089 
1142.000000	64.550423 
1141.000000	64.573168 
1140.000000	64.598178 
1139.000000	64.622879 
1138.000000	64.644789 
1137.000000	64.661431 
1136.000000	64.670825 
1135.000000	64.671206 
1134.000000	64.661407 
1133.000000	64.640927 
1132.000000	64.609980 
1131.000000	64.569687 
1130.000000	64.522123 
1129.000000	64.470243 
1128.000000	64.417648 
1127.000000	64.368462 
1126.000000	64.327025 
1125.000000	64.297270 
1124.000000	64.281916 
1123.000000	64.282178 
1122.000000	64.297604 
1121.000000	64.325714 
1120.000000	64.362215 
1119.000000	64.401650 
1118.000000	64.438247 
1117.000000	64.466810 
1116.000000	64.483523 
1115.000000	64.486765 
1114.000000	64.477086 
1113.000000	64.457297 
1112.000000	64.431715 
1111.000000	64.405465 
1110.000000	64.383077 
1109.000000	64.368176 
1108.000000	64.362025 
1107.000000	64.363980 
1106.000000	64.371037 
1105.000000	64.379382 
1104.000000	64.384388 
1103.000000	64.381694 
1102.000000	64.368009 
1101.000000	64.341998 
1100.000000	64.303994 
1099.000000	64.255475 
1098.000000	64.199447 
1097.000000	64.139723 
1096.000000	64.080572 
1095.000000	64.026188 
1094.000000	63.980698 
1093.000000	63.947415 
1092.000000	63.928818 
1091.000000	63.926005 
1090.000000	63.938164 
1089.000000	63.962674 
1088.000000	63.995218 
1087.000000	64.030742 
1086.000000	64.063382 
1085.000000	64.088416 
1084.000000	64.102840 
1083.000000	64.106726 
1082.000000	64.102387 
1081.000000	64.094781 
1080.000000	64.089632 
1079.000000	64.092826 
1078.000000	64.108848 
1077.000000	64.140057 
1076.000000	64.186620 
1075.000000	64.246034 
1074.000000	64.314413 
1073.000000	64.386415 
1072.000000	64.456415 
1071.000000	64.518904 
1070.000000	64.569330 
1069.000000	64.604187 
1068.000000	64.621233 
1067.000000	64.619827 
1066.000000	64.600968 
1065.000000	64.566802 
1064.000000	64.520239 
1063.000000	64.464998 
1062.000000	64.405298 
1061.000000	64.344811 
1060.000000	64.286804 
1059.000000	64.234018 
1058.000000	64.188790 
1057.000000	64.153552 
1056.000000	64.130568 
1055.000000	64.121270 
1054.000000	64.126253 
1053.000000	64.144372 
1052.000000	64.172840 
1051.000000	64.206290 
1050.000000	64.238524 
1049.000000	64.263510 
1048.000000	64.276885 
1047.000000	64.276790 
1046.000000	64.264225 
1045.000000	64.242482 
1044.000000	64.216375 
1043.000000	64.190745 
1042.000000	64.169764 
1041.000000	64.156174 
1040.000000	64.150929 
1039.000000	64.153218 
1038.000000	64.161229 
1037.000000	64.172744 
1036.000000	64.185905 
1035.000000	64.199280 
1034.000000	64.212179 
1033.000000	64.223980 
1032.000000	64.234471 
1031.000000	64.242911 
1030.000000	64.247727 
1029.000000	64.246654 
1028.000000	64.237260 
1027.000000	64.217805 
1026.000000	64.187359 
1025.000000	64.147138 
1024.000000	64.100360 
1023.000000	64.052391 
1022.000000	64.009809 
1021.000000	63.979315 
1020.000000	63.966226 
1019.000000	63.972997 
1018.000000	63.998365 
1017.000000	64.037346 
1016.000000	64.082098 
1015.000000	64.123988 
1014.000000	64.155459 
1013.000000	64.172148 
1012.000000	64.173769 
1011.000000	64.164233 
1010.000000	64.150118 
1009.000000	64.139246 
1008.000000	64.138269 
1007.000000	64.150834 
1006.000000	64.176464 
1005.000000	64.211130 
1004.000000	64.247822 
1003.000000	64.279127 
1002.000000	64.298701 
1001.000000	64.302968 
1000.000000	64.292454 
999.000000	 64.271140 
998.000000	 64.246010 
997.000000	 64.224553 
996.000000	 64.213514 
995.000000	 64.217424 
994.000000	 64.237475 
993.000000	 64.271736 
992.000000	 64.315414 
991.000000	 64.362478 
990.000000	 64.406633 
989.000000	 64.442825 
988.000000	 64.468121 
987.000000	 64.482045 
986.000000	 64.486217 
985.000000	 64.483642 
984.000000	 64.477872 
983.000000	 64.472150 
982.000000	 64.468789 
981.000000	 64.468574 
980.000000	 64.471197 
979.000000	 64.475035 
978.000000	 64.478063 
977.000000	 64.477992 
976.000000	 64.472675 
975.000000	 64.460301 
974.000000	 64.439845 
973.000000	 64.410996 
972.000000	 64.374780 
971.000000	 64.333033 
970.000000	 64.288449 
969.000000	 64.243865 
968.000000	 64.202332 
967.000000	 64.165949 
966.000000	 64.135742 
965.000000	 64.111208 
964.000000	 64.090466 
963.000000	 64.070773 
962.000000	 64.049458 
961.000000	 64.025092 
960.000000	 63.997888 
959.000000	 63.970303 
958.000000	 63.946366 
957.000000	 63.930821 
956.000000	 63.927912 
955.000000	 63.940072 
954.000000	 63.967108 
953.000000	 64.006090 
952.000000	 64.051890 
951.000000	 64.098334 
950.000000	 64.139389 
949.000000	 64.170408 
948.000000	 64.188981 
947.000000	 64.194965 
946.000000	 64.190244 
945.000000	 64.177536 
944.000000	 64.159989 
943.000000	 64.140343 
942.000000	 64.120650 
941.000000	 64.102149 
940.000000	 64.085578 
939.000000	 64.072084 
938.000000	 64.062809 
937.000000	 64.059042 
936.000000	 64.062118 
935.000000	 64.073228 
934.000000	 64.093017 
933.000000	 64.121198 
932.000000	 64.156389 
931.000000	 64.196157 
930.000000	 64.237380 
929.000000	 64.276671 
928.000000	 64.310240 
927.000000	 64.334559 
926.000000	 64.346814 
925.000000	 64.345717 
924.000000	 64.331221 
923.000000	 64.305138 
922.000000	 64.271092 
921.000000	 64.234113 
920.000000	 64.199495 
919.000000	 64.172077 
918.000000	 64.155149 
917.000000	 64.150285 
916.000000	 64.156413 
915.000000	 64.171290 
914.000000	 64.191699 
913.000000	 64.215087 
912.000000	 64.240145 
911.000000	 64.266705 
910.000000	 64.295601 
909.000000	 64.327073 
908.000000	 64.360404 
907.000000	 64.392042 
906.000000	 64.416098 
905.000000	 64.425015 
904.000000	 64.411377 
903.000000	 64.370155 
902.000000	 64.300489 
901.000000	 64.206743 
900.000000	 64.098000 
899.000000	 63.986277 
898.000000	 63.883852 
897.000000	 63.800382 
896.000000	 63.741469 
895.000000	 63.707685 
894.000000	 63.695645 
893.000000	 63.698697 
892.000000	 63.710117 
891.000000	 63.723969 
890.000000	 63.737225 
889.000000	 63.748955 
888.000000	 63.760781 
887.000000	 63.774538 
886.000000	 63.792300 
885.000000	 63.814282 
884.000000	 63.839435 
883.000000	 63.865375 
882.000000	 63.889265 
881.000000	 63.908672 
880.000000	 63.922405 
879.000000	 63.930988 
878.000000	 63.936185 
877.000000	 63.940858 
876.000000	 63.947868 
875.000000	 63.959383 
874.000000	 63.977003 
873.000000	 64.000725 
872.000000	 64.028811 
871.000000	 64.057683 
870.000000	 64.083003 
869.000000	 64.100098 
868.000000	 64.104461 
867.000000	 64.092993 
866.000000	 64.064836 
865.000000	 64.021968 
864.000000	 63.969016 
863.000000	 63.912677 
862.000000	 63.860917 
861.000000	 63.821029 
860.000000	 63.798975 
859.000000	 63.796949 
858.000000	 63.813233 
857.000000	 63.841843 
856.000000	 63.874077 
855.000000	 63.900256 
854.000000	 63.911843 
853.000000	 63.904261 
852.000000	 63.877797 
851.000000	 63.838434 
850.000000	 63.796424 
849.000000	 63.764166 
848.000000	 63.753175 
847.000000	 63.771295 
846.000000	 63.820433 
845.000000	 63.896346 
844.000000	 63.989233 
843.000000	 64.085793 
842.000000	 64.171838 
841.000000	 64.235472 
840.000000	 64.268946 
839.000000	 64.270043 
838.000000	 64.241623 
837.000000	 64.190077 
836.000000	 64.123678 
835.000000	 64.051151 
834.000000	 63.979649 
833.000000	 63.913893 
832.000000	 63.856506 
831.000000	 63.808798 
830.000000	 63.771796 
829.000000	 63.747096 
828.000000	 63.737344 
827.000000	 63.745164 
826.000000	 63.773393 
825.000000	 63.823270 
824.000000	 63.893365 
823.000000	 63.978314 
822.000000	 64.069771 
821.000000	 64.156770 
820.000000	 64.227223 
819.000000	 64.270067 
818.000000	 64.277124 
817.000000	 64.245223 
816.000000	 64.176774 
815.000000	 64.080595 
814.000000	 63.970828 
813.000000	 63.865184 
812.000000	 63.782024 
811.000000	 63.736891 
810.000000	 63.740730 
809.000000	 63.796305 
808.000000	 63.898134 
807.000000	 64.032292 
806.000000	 64.179921 
805.000000	 64.319252 
804.000000	 64.430284 
803.000000	 64.497637 
802.000000	 64.512586 
801.000000	 64.474916 
800.000000	 64.391994 
799.000000	 64.276814 
798.000000	 64.144992 
797.000000	 64.011931 
796.000000	 63.890290 
795.000000	 63.788151 
794.000000	 63.708710 
793.000000	 63.650512 
792.000000	 63.609242 
791.000000	 63.579559 
790.000000	 63.557124 
789.000000	 63.538861 
788.000000	 63.523983 
787.000000	 63.512992 
786.000000	 63.507103 
785.000000	 63.506603 
784.000000	 63.510227 
783.000000	 63.514328 
782.000000	 63.513946 
781.000000	 63.503742 
780.000000	 63.480114 
779.000000	 63.441610 
778.000000	 63.390898 
777.000000	 63.334417 
776.000000	 63.281559 
775.000000	 63.242316 
774.000000	 63.224887 
773.000000	 63.233518 
772.000000	 63.266992 
771.000000	 63.318562 
770.000000	 63.376688 
769.000000	 63.427639 
768.000000	 63.458633 
767.000000	 63.461232 
766.000000	 63.433241 
765.000000	 63.379454 
764.000000	 63.310503 
763.000000	 63.240718 
762.000000	 63.184595 
761.000000	 63.153743 
760.000000	 63.154816 
759.000000	 63.187909 
758.000000	 63.247084 
757.000000	 63.322019 
756.000000	 63.400840 
755.000000	 63.473582 
754.000000	 63.533163 
753.000000	 63.578581 
752.000000	 63.613843 
751.000000	 63.647031 
750.000000	 63.687491 
749.000000	 63.742756 
748.000000	 63.816237 
747.000000	 63.904762 
746.000000	 63.999700 
745.000000	 64.086937 
744.000000	 64.150738 
743.000000	 64.176845 
742.000000	 64.156198 
741.000000	 64.086675 
740.000000	 63.973641 
739.000000	 63.829040 
738.000000	 63.668394 
737.000000	 63.507580 
736.000000	 63.359284 
735.000000	 63.230991 
734.000000	 63.124299 
733.000000	 63.035988 
732.000000	 62.960243 
731.000000	 62.891650 
730.000000	 62.827277 
729.000000	 62.767148 
728.000000	 62.714862 
727.000000	 62.674736 
726.000000	 62.651419 
725.000000	 62.646341 
724.000000	 62.657880 
723.000000	 62.679862 
722.000000	 62.704277 
721.000000	 62.722611 
720.000000	 62.728452 
719.000000	 62.718892 
718.000000	 62.695622 
717.000000	 62.664127 
716.000000	 62.631893 
715.000000	 62.605810 
714.000000	 62.590646 
713.000000	 62.587785 
712.000000	 62.594771 
711.000000	 62.606239 
710.000000	 62.616443 
709.000000	 62.620806 
708.000000	 62.617874 
707.000000	 62.609481 
706.000000	 62.599658 
705.000000	 62.593913 
704.000000	 62.596845 
703.000000	 62.611460 
702.000000	 62.637257 
701.000000	 62.671566 
700.000000	 62.710261 
699.000000	 62.748908 
698.000000	 62.784123 
697.000000	 62.814307 
696.000000	 62.840270 
695.000000	 62.863421 
694.000000	 62.885093 
693.000000	 62.904715 
692.000000	 62.919640 
691.000000	 62.924647 
690.000000	 62.913274 
689.000000	 62.879180 
688.000000	 62.818074 
687.000000	 62.729454 
686.000000	 62.617444 
685.000000	 62.490439 
684.000000	 62.359881 
683.000000	 62.237691 
682.000000	 62.133836 
681.000000	 62.054657 
680.000000	 62.001442 
679.000000	 61.970257 
678.000000	 61.953544 
677.000000	 61.941599 
676.000000	 61.926698 
675.000000	 61.903905 
674.000000	 61.874079 
673.000000	 61.841988 
672.000000	 61.816310 
671.000000	 61.805820 
670.000000	 61.817336 
669.000000	 61.853003 
668.000000	 61.909031 
667.000000	 61.976408 
666.000000	 62.042188 
665.000000	 62.092757 
664.000000	 62.116551 
663.000000	 62.107062 
662.000000	 62.064290 
661.000000	 61.994910 
660.000000	 61.911153 
659.000000	 61.828327 
658.000000	 61.761641 
657.000000	 61.723303 
656.000000	 61.720371 
655.000000	 61.753535 
654.000000	 61.817741 
653.000000	 61.903405 
652.000000	 61.997938 
651.000000	 62.089300 
650.000000	 62.167453 
649.000000	 62.227201 
648.000000	 62.267732 
647.000000	 62.292981 
646.000000	 62.309265 
645.000000	 62.323760 
644.000000	 62.342500 
643.000000	 62.368392 
642.000000	 62.400960 
641.000000	 62.436366 
640.000000	 62.469267 
639.000000	 62.494230 
638.000000	 62.508368 
637.000000	 62.510728 
636.000000	 62.502503 
635.000000	 62.486100 
634.000000	 62.464094 
633.000000	 62.438297 
632.000000	 62.409329 
631.000000	 62.376475 
630.000000	 62.338471 
629.000000	 62.294125 
628.000000	 62.243461 
627.000000	 62.188887 
626.000000	 62.134361 
625.000000	 62.085151 
624.000000	 62.045311 
623.000000	 62.016868 
622.000000	 61.997890 
621.000000	 61.982727 
620.000000	 61.963248 
619.000000	 61.929440 
618.000000	 61.874842 
617.000000	 61.798143 
616.000000	 61.706256 
615.000000	 61.612033 
614.000000	 61.534118 
613.000000	 61.492061 
612.000000	 61.501288 
611.000000	 61.568188 
610.000000	 61.687541 
609.000000	 61.842775 
608.000000	 62.008881 
607.000000	 62.158298 
606.000000	 62.267947 
605.000000	 62.324714 
604.000000	 62.328910 
603.000000	 62.293291 
602.000000	 62.238025 
601.000000	 62.184453 
600.000000	 62.149190 
599.000000	 62.139201 
598.000000	 62.151789 
597.000000	 62.174916 
596.000000	 62.194013 
595.000000	 62.194442 
594.000000	 62.167191 
593.000000	 62.109994 
592.000000	 62.027907 
591.000000	 61.930942 
590.000000	 61.830687 
589.000000	 61.736941 
588.000000	 61.655473 
587.000000	 61.586475 
586.000000	 61.525225 
585.000000	 61.464977 
584.000000	 61.400246 
583.000000	 61.329483 
582.000000	 61.256146 
581.000000	 61.189007 
580.000000	 61.139678 
579.000000	 61.119747 
578.000000	 61.137247 
577.000000	 61.193513 
576.000000	 61.281561 
575.000000	 61.388087 
574.000000	 61.495327 
573.000000	 61.584472 
572.000000	 61.639428 
571.000000	 61.650443 
570.000000	 61.615657 
569.000000	 61.540865 
568.000000	 61.437988 
567.000000	 61.321496 
566.000000	 61.206459 
565.000000	 61.105155 
564.000000	 61.026978 
563.000000	 60.977888 
562.000000	 60.960865 
561.000000	 60.976958 
560.000000	 61.025357 
559.000000	 61.103534 
558.000000	 61.207008 
557.000000	 61.328792 
556.000000	 61.459040 
555.000000	 61.585164 
554.000000	 61.693787 
553.000000	 61.772584 
552.000000	 61.812281 
551.000000	 61.808228 
550.000000	 61.762046 
549.000000	 61.680865 
548.000000	 61.576199 
547.000000	 61.461305 
546.000000	 61.349320 
545.000000	 61.250090 
544.000000	 61.170554 
543.000000	 61.112308 
542.000000	 61.073207 
541.000000	 61.047482 
540.000000	 61.028409 
539.000000	 61.009192 
538.000000	 60.983657 
537.000000	 60.948324 
536.000000	 60.901737 
535.000000	 60.846114 
534.000000	 60.785365 
533.000000	 60.725951 
532.000000	 60.674667 
531.000000	 60.638332 
530.000000	 60.621881 
529.000000	 60.628294 
528.000000	 60.658216 
527.000000	 60.709261 
526.000000	 60.776257 
525.000000	 60.852336 
524.000000	 60.929512 
523.000000	 60.999703 
522.000000	 61.055278 
521.000000	 61.090016 
520.000000	 61.099052 
519.000000	 61.079454 
518.000000	 61.029863 
517.000000	 60.951161 
516.000000	 60.846138 
515.000000	 60.720324 
514.000000	 60.581231 
513.000000	 60.438466 
512.000000	 60.302257 
511.000000	 60.183024 
510.000000	 60.088992 
509.000000	 60.025405 
508.000000	 59.992694 
507.000000	 59.986329 
506.000000	 59.997200 
505.000000	 60.012602 
504.000000	 60.019969 
503.000000	 60.008859 
502.000000	 59.974622 
501.000000	 59.918403 
500.000000	 59.849047 
499.000000	 59.780526 
498.000000	 59.727644 
497.000000	 59.701919 
496.000000	 59.709167 
495.000000	 59.747219 
494.000000	 59.806275 
493.000000	 59.870600 
492.000000	 59.922933 
491.000000	 59.947490 
490.000000	 59.933853 
489.000000	 59.878706 
488.000000	 59.785532 
487.000000	 59.663915 
486.000000	 59.526395 
485.000000	 59.386706 
484.000000	 59.256315 
483.000000	 59.143996 
482.000000	 59.054970 
481.000000	 58.991932 
480.000000	 58.955144 
479.000000	 58.945250 
478.000000	 58.962774 
477.000000	 59.009861 
476.000000	 59.087443 
475.000000	 59.198141 
474.000000	 59.344029 
473.000000	 59.524822 
472.000000	 59.735727 
471.000000	 59.968495 
470.000000	 60.210967 
469.000000	 60.447120 
468.000000	 60.658740 
467.000000	 60.828900 
466.000000	 60.943794 
465.000000	 60.997629 
464.000000	 60.991144 
463.000000	 60.931897 
462.000000	 60.830497 
461.000000	 60.701203 
460.000000	 60.556101 
459.000000	 60.406827 
458.000000	 60.259318 
457.000000	 60.117053 
456.000000	 59.978413 
455.000000	 59.840774 
454.000000	 59.699892 
453.000000	 59.553265 
452.000000	 59.399223 
451.000000	 59.238815 
450.000000	 59.072637 
449.000000	 58.901238 
448.000000	 58.720660 
447.000000	 58.522605 
446.000000	 58.297204 
445.000000	 58.037710 
444.000000	 57.740759 
443.000000	 57.411336 
442.000000	 57.071375 
441.000000	 56.757950 
440.000000	 56.510972 
439.000000	 56.366419 
438.000000	 56.353425 
437.000000	 56.482553 
436.000000	 56.735086 
435.000000	 57.067561 
434.000000	 57.423973 
433.000000	 57.743334 
432.000000	 57.967305 
431.000000	 58.056807 
430.000000	 57.997345 
429.000000	 57.803320 
428.000000	 57.520294 
427.000000	 57.202863 
426.000000	 56.888914 
425.000000	 56.610608 
424.000000	 56.396079 
423.000000	 56.259751 
422.000000	 56.201767 
421.000000	 56.225395 
420.000000	 56.340384 
419.000000	 56.577229 
418.000000	 56.985068 
417.000000	 57.620906 
416.000000	 58.533787 
415.000000	 59.766244 
414.000000	 61.334633 
413.000000	 63.187074 
412.000000	 65.223526 
411.000000	 67.299318 
410.000000	 69.272541 
409.000000	 71.063542 
408.000000	 72.641634 
407.000000	 74.064564 
406.000000	 75.376486 
405.000000	 76.611542 
404.000000	 77.684378 
403.000000	 78.427290 
402.000000	 78.556466 
401.000000	 77.776026 
400.000000	 75.825309 
399.000000	 72.598814 
398.000000	 68.180918 
397.000000	 62.866568 
396.000000	 57.148194 
395.000000	 51.628303 
394.000000	 46.954178 
393.000000	 43.693280 
392.000000	 42.275786 
391.000000	 42.913556 
390.000000	 45.607161 
389.000000	 50.127291 
388.000000	 56.060862 
387.000000	 62.833857 
386.000000	 69.725680 
385.000000	 75.972676 
384.000000	 80.806255 
383.000000	 83.635115 
382.000000	 84.163451 
381.000000	 82.453608 
380.000000	 78.988599 
379.000000	 74.489140 
378.000000	 69.744825 
377.000000	 65.448093 
376.000000	 62.074899 
375.000000	 59.838414 
374.000000	 58.750128 
373.000000	 58.649373 
372.000000	 59.369468 
371.000000	 60.694813 
370.000000	 62.412500 

