PE IR       SPECTRUM    SPECTRUM    ASCII       PEDS        1.60        
  -1
C-996E~1.ASC
17/03/27
14:58:38.00
17/03/27
14:58:38.00
tln
$C-4040-8_t0006$<tbV0>[0.0,-13.0,8.0,0.0,27,1,0]
370.000000
64









2002,4.07    
MIRTGS : RIGHTBACK : INTERNAL 2
MIR : ON : INTERNAL 2
OPTKBR

0.200000
8
8.000000
FILLER
RATIO
SPECTRUM
UNLOCKED 256

DOUBLE
64
COMBINED
1
0
0


1.000000
RATIO


1
0
TRUE
51149
0
LEFT NOT FITTED RIGHT NOT FITTED 0
NONE
NONE
15600
12.000000
4.427000
51148
TRUE
1 0 8 72 0 0 0 0 

15798.010000






#HDR
-1
-1
#GR
CM-1
%T
0.00002384185791015625
0.0
5000.000000
-1.000000
4631
8
70.939350
-7.819414
#DATA
5000.000000	64.117980 
4999.000000	64.050865 
4998.000000	63.965177 
4997.000000	63.875102 
4996.000000	63.797354 
4995.000000	63.748598 
4994.000000	63.740968 
4993.000000	63.778829 
4992.000000	63.858294 
4991.000000	63.968825 
4990.000000	64.094614 
4989.000000	64.217948 
4988.000000	64.322948 
4987.000000	64.398455 
4986.000000	64.438939 
4985.000000	64.444470 
4984.000000	64.418768 
4983.000000	64.366984 
4982.000000	64.293670 
4981.000000	64.202046 
4980.000000	64.093089 
4979.000000	63.967967 
4978.000000	63.829374 
4977.000000	63.684654 
4976.000000	63.547992 
4975.000000	63.438367 
4974.000000	63.375830 
4973.000000	63.375568 
4972.000000	63.444280 
4971.000000	63.574385 
4970.000000	63.744211 
4969.000000	63.920450 
4968.000000	64.064145 
4967.000000	64.140105 
4966.000000	64.125013 
4965.000000	64.013338 
4964.000000	63.817787 
4963.000000	63.567638 
4962.000000	63.301944 
4961.000000	63.060069 
4960.000000	62.872767 
4959.000000	62.757086 
4958.000000	62.714052 
4957.000000	62.732481 
4956.000000	62.793493 
4955.000000	62.876820 
4954.000000	62.965035 
4953.000000	63.043570 
4952.000000	63.101720 
4951.000000	63.129758 
4950.000000	63.119816 
4949.000000	63.063883 
4948.000000	62.957358 
4947.000000	62.801074 
4946.000000	62.604498 
4945.000000	62.384700 
4944.000000	62.166786 
4943.000000	61.979722 
4942.000000	61.852693 
4941.000000	61.808180 
4940.000000	61.859011 
4939.000000	62.004756 
4938.000000	62.231922 
4937.000000	62.515783 
4936.000000	62.824535 
4935.000000	63.124394 
4934.000000	63.385009 
4933.000000	63.583397 
4932.000000	63.708019 
4931.000000	63.758802 
4930.000000	63.747930 
4929.000000	63.696098 
4928.000000	63.630223 
4927.000000	63.577342 
4926.000000	63.560080 
4925.000000	63.591289 
4924.000000	63.673138 
4923.000000	63.796281 
4922.000000	63.943219 
4921.000000	64.092731 
4920.000000	64.224362 
4919.000000	64.324259 
4918.000000	64.387655 
4917.000000	64.419841 
4916.000000	64.433145 
4915.000000	64.443564 
4914.000000	64.465165 
4913.000000	64.507126 
4912.000000	64.571571 
4911.000000	64.653778 
4910.000000	64.745235 
4909.000000	64.834809 
4908.000000	64.914083 
4907.000000	64.975190 
4906.000000	65.013408 
4905.000000	65.023946 
4904.000000	65.002155 
4903.000000	64.945077 
4902.000000	64.852881 
4901.000000	64.729571 
4900.000000	64.583849 
4899.000000	64.430236 
4898.000000	64.286184 
4897.000000	64.169454 
4896.000000	64.093399 
4895.000000	64.063954 
4894.000000	64.077496 
4893.000000	64.121103 
4892.000000	64.176225 
4891.000000	64.222550 
4890.000000	64.243793 
4889.000000	64.230442 
4888.000000	64.182686 
4887.000000	64.109182 
4886.000000	64.024496 
4885.000000	63.943743 
4884.000000	63.879656 
4883.000000	63.839292 
4882.000000	63.823175 
4881.000000	63.826513 
4880.000000	63.840842 
4879.000000	63.857316 
4878.000000	63.868594 
4877.000000	63.870763 
4876.000000	63.862895 
4875.000000	63.846445 
4874.000000	63.823843 
4873.000000	63.797378 
4872.000000	63.768219 
4871.000000	63.736605 
4870.000000	63.703250 
4869.000000	63.669800 
4868.000000	63.638877 
4867.000000	63.614130 
4866.000000	63.600111 
4865.000000	63.601088 
4864.000000	63.619256 
4863.000000	63.654494 
4862.000000	63.703417 
4861.000000	63.760280 
4860.000000	63.818001 
4859.000000	63.869333 
4858.000000	63.908052 
4857.000000	63.930559 
4856.000000	63.936591 
4855.000000	63.929080 
4854.000000	63.913273 
4853.000000	63.896107 
4852.000000	63.884544 
4851.000000	63.884639 
4850.000000	63.900208 
4849.000000	63.932561 
4848.000000	63.980388 
4847.000000	64.040279 
4846.000000	64.107584 
4845.000000	64.177870 
4844.000000	64.247584 
4843.000000	64.314579 
4842.000000	64.377403 
4841.000000	64.434647 
4840.000000	64.483761 
4839.000000	64.521741 
4838.000000	64.544081 
4837.000000	64.546251 
4836.000000	64.524316 
4835.000000	64.477491 
4834.000000	64.407801 
4833.000000	64.321327 
4832.000000	64.225816 
4831.000000	64.130663 
4830.000000	64.043354 
4829.000000	63.968586 
4828.000000	63.906717 
4827.000000	63.854146 
4826.000000	63.805127 
4825.000000	63.753819 
4824.000000	63.696408 
4823.000000	63.632488 
4822.000000	63.564991 
4821.000000	63.499641 
4820.000000	63.442707 
4819.000000	63.399624 
4818.000000	63.373661 
4817.000000	63.365554 
4816.000000	63.373517 
4815.000000	63.394594 
4814.000000	63.426399 
4813.000000	63.467526 
4812.000000	63.517522 
4811.000000	63.576197 
4810.000000	63.642454 
4809.000000	63.713693 
4808.000000	63.784790 
4807.000000	63.848948 
4806.000000	63.898992 
4805.000000	63.928866 
4804.000000	63.935899 
4803.000000	63.920855 
4802.000000	63.888192 
4801.000000	63.844966 
4800.000000	63.799595 
4799.000000	63.759851 
4798.000000	63.731193 
4797.000000	63.716793 
4796.000000	63.717341 
4795.000000	63.731956 
4794.000000	63.758540 
4793.000000	63.794612 
4792.000000	63.837313 
4791.000000	63.882613 
4790.000000	63.925576 
4789.000000	63.960170 
4788.000000	63.980579 
4787.000000	63.982224 
4786.000000	63.963365 
4785.000000	63.926315 
4784.000000	63.876771 
4783.000000	63.823223 
4782.000000	63.774561 
4781.000000	63.738203 
4780.000000	63.718366 
4779.000000	63.715600 
4778.000000	63.726830 
4777.000000	63.746619 
4776.000000	63.768577 
4775.000000	63.787341 
4774.000000	63.798880 
4773.000000	63.801288 
4772.000000	63.794445 
4771.000000	63.779020 
4770.000000	63.756108 
4769.000000	63.726472 
4768.000000	63.691353 
4767.000000	63.652634 
4766.000000	63.613462 
4765.000000	63.578081 
4764.000000	63.551020 
4763.000000	63.536238 
4762.000000	63.535499 
4761.000000	63.548207 
4760.000000	63.571286 
4759.000000	63.600111 
4758.000000	63.629412 
4757.000000	63.654518 
4756.000000	63.672327 
4755.000000	63.682174 
4754.000000	63.685393 
4753.000000	63.685250 
4752.000000	63.685822 
4751.000000	63.690972 
4750.000000	63.703823 
4749.000000	63.725137 
4748.000000	63.753581 
4747.000000	63.785362 
4746.000000	63.815569 
4745.000000	63.838410 
4744.000000	63.848805 
4743.000000	63.843131 
4742.000000	63.820028 
4741.000000	63.780903 
4740.000000	63.729715 
4739.000000	63.672423 
4738.000000	63.615727 
4737.000000	63.565397 
4736.000000	63.525485 
4735.000000	63.497591 
4734.000000	63.481330 
4733.000000	63.475179 
4732.000000	63.477206 
4731.000000	63.486123 
4730.000000	63.501238 
4729.000000	63.522195 
4728.000000	63.548612 
4727.000000	63.578820 
4726.000000	63.610672 
4725.000000	63.641428 
4724.000000	63.668417 
4723.000000	63.689541 
4722.000000	63.703823 
4721.000000	63.711595 
4720.000000	63.714051 
4719.000000	63.712954 
4718.000000	63.709902 
4717.000000	63.705825 
4716.000000	63.700962 
4715.000000	63.694834 
4714.000000	63.687133 
4713.000000	63.678050 
4712.000000	63.668560 
4711.000000	63.660097 
4710.000000	63.653945 
4709.000000	63.650822 
4708.000000	63.650584 
4707.000000	63.652157 
4706.000000	63.653993 
4705.000000	63.654732 
4704.000000	63.653898 
4703.000000	63.651823 
4702.000000	63.649296 
4701.000000	63.647127 
4700.000000	63.645529 
4699.000000	63.644385 
4698.000000	63.642907 
4697.000000	63.640570 
4696.000000	63.637495 
4695.000000	63.634562 
4694.000000	63.633966 
4693.000000	63.637804 
4692.000000	63.647770 
4691.000000	63.663530 
4690.000000	63.682436 
4689.000000	63.699722 
4688.000000	63.709473 
4687.000000	63.706326 
4686.000000	63.687086 
4685.000000	63.652181 
4684.000000	63.605880 
4683.000000	63.555121 
4682.000000	63.507676 
4681.000000	63.470196 
4680.000000	63.446569 
4679.000000	63.437080 
4678.000000	63.439130 
4677.000000	63.448357 
4676.000000	63.460564 
4675.000000	63.473081 
4674.000000	63.485550 
4673.000000	63.499665 
4672.000000	63.517951 
4671.000000	63.541865 
4670.000000	63.571166 
4669.000000	63.602542 
4668.000000	63.631010 
4667.000000	63.650703 
4666.000000	63.657212 
4665.000000	63.649201 
4664.000000	63.629150 
4663.000000	63.602852 
4662.000000	63.578128 
4661.000000	63.562703 
4660.000000	63.561773 
4659.000000	63.576602 
4658.000000	63.604259 
4657.000000	63.638830 
4656.000000	63.673043 
4655.000000	63.700652 
4654.000000	63.717842 
4653.000000	63.724231 
4652.000000	63.722276 
4651.000000	63.716721 
4650.000000	63.712096 
4649.000000	63.712334 
4648.000000	63.719296 
4647.000000	63.732719 
4646.000000	63.751363 
4645.000000	63.772821 
4644.000000	63.795113 
4643.000000	63.816356 
4642.000000	63.835501 
4641.000000	63.851833 
4640.000000	63.864374 
4639.000000	63.872694 
4638.000000	63.876271 
4637.000000	63.875842 
4636.000000	63.873505 
4635.000000	63.872575 
4634.000000	63.877105 
4633.000000	63.890433 
4632.000000	63.914060 
4631.000000	63.946366 
4630.000000	63.982772 
4629.000000	64.016580 
4628.000000	64.040708 
4627.000000	64.049577 
4626.000000	64.040589 
4625.000000	64.015078 
4624.000000	63.978052 
4623.000000	63.936400 
4622.000000	63.897871 
4621.000000	63.868999 
4620.000000	63.854455 
4619.000000	63.855957 
4618.000000	63.872933 
4617.000000	63.903212 
4616.000000	63.943576 
4615.000000	63.990950 
4614.000000	64.042282 
4613.000000	64.094495 
4612.000000	64.144134 
4611.000000	64.187073 
4610.000000	64.218997 
4609.000000	64.235877 
4608.000000	64.235329 
4607.000000	64.217162 
4606.000000	64.183807 
4605.000000	64.140295 
4604.000000	64.093065 
4603.000000	64.048624 
4602.000000	64.012360 
4601.000000	63.987302 
4600.000000	63.973307 
4599.000000	63.967347 
4598.000000	63.964557 
4597.000000	63.959670 
4596.000000	63.948488 
4595.000000	63.929533 
4594.000000	63.903856 
4593.000000	63.875651 
4592.000000	63.850450 
4591.000000	63.834118 
4590.000000	63.830518 
4589.000000	63.841128 
4588.000000	63.864254 
4587.000000	63.895916 
4586.000000	63.931250 
4585.000000	63.965535 
4584.000000	63.995051 
4583.000000	64.018034 
4582.000000	64.035105 
4581.000000	64.047503 
4580.000000	64.055991 
4579.000000	64.060115 
4578.000000	64.057660 
4577.000000	64.045119 
4576.000000	64.018845 
4575.000000	63.976359 
4574.000000	63.918066 
4573.000000	63.847804 
4572.000000	63.773155 
4571.000000	63.704013 
4570.000000	63.651084 
4569.000000	63.623499 
4568.000000	63.627314 
4567.000000	63.663649 
4566.000000	63.728594 
4565.000000	63.814520 
4564.000000	63.910198 
4563.000000	64.003539 
4562.000000	64.081978 
4561.000000	64.135241 
4560.000000	64.155030 
4559.000000	64.135670 
4558.000000	64.074945 
4557.000000	63.974547 
4556.000000	63.840627 
4555.000000	63.683700 
4554.000000	63.518023 
4553.000000	63.360261 
4552.000000	63.226246 
4551.000000	63.128638 
4550.000000	63.074111 
4549.000000	63.062310 
4548.000000	63.085675 
4547.000000	63.131928 
4546.000000	63.186144 
4545.000000	63.235235 
4544.000000	63.269901 
4543.000000	63.287758 
4542.000000	63.291954 
4541.000000	63.291025 
4540.000000	63.294529 
4539.000000	63.311290 
4538.000000	63.346505 
4537.000000	63.400530 
4536.000000	63.469004 
4535.000000	63.543868 
4534.000000	63.616466 
4533.000000	63.678717 
4532.000000	63.725113 
4531.000000	63.753509 
4530.000000	63.764834 
4529.000000	63.763499 
4528.000000	63.755750 
4527.000000	63.748908 
4526.000000	63.749527 
4525.000000	63.761734 
4524.000000	63.786149 
4523.000000	63.819861 
4522.000000	63.857269 
4521.000000	63.891673 
4520.000000	63.917255 
4519.000000	63.930630 
4518.000000	63.932037 
4517.000000	63.924479 
4516.000000	63.913774 
4515.000000	63.905811 
4514.000000	63.906574 
4513.000000	63.921070 
4512.000000	63.952040 
4511.000000	64.000463 
4510.000000	64.063644 
4509.000000	64.135622 
4508.000000	64.208221 
4507.000000	64.272475 
4506.000000	64.321303 
4505.000000	64.351463 
4504.000000	64.364027 
4503.000000	64.364218 
4502.000000	64.358544 
4501.000000	64.352822 
4500.000000	64.349436 
4499.000000	64.346623 
4498.000000	64.338564 
4497.000000	64.317345 
4496.000000	64.276003 
4495.000000	64.211320 
4494.000000	64.125394 
4493.000000	64.025664 
4492.000000	63.923311 
4491.000000	63.830733 
4490.000000	63.756060 
4489.000000	63.703989 
4488.000000	63.673305 
4487.000000	63.661623 
4486.000000	63.667607 
4485.000000	63.692808 
4484.000000	63.744902 
4483.000000	63.830900 
4482.000000	63.950848 
4481.000000	64.097690 
4480.000000	64.255595 
4479.000000	64.404177 
4478.000000	64.520716 
4477.000000	64.589929 
4476.000000	64.609098 
4475.000000	64.587426 
4474.000000	64.544129 
4473.000000	64.501166 
4472.000000	64.476704 
4471.000000	64.481234 
4470.000000	64.515924 
4469.000000	64.571332 
4468.000000	64.631509 
4467.000000	64.684677 
4466.000000	64.726352 
4465.000000	64.758276 
4464.000000	64.788699 
4463.000000	64.826464 
4462.000000	64.882040 
4461.000000	64.956402 
4460.000000	65.052080 
4459.000000	65.172052 
4458.000000	65.328168 
4457.000000	65.538430 
4456.000000	65.827155 
4455.000000	66.218686 
4454.000000	66.727519 
4453.000000	67.349481 
4452.000000	68.057203 
4451.000000	68.802928 
4450.000000	69.522094 
4449.000000	70.148134 
4448.000000	70.618486 
4447.000000	70.890522 
4446.000000	70.939350 
4445.000000	70.764708 
4444.000000	70.376849 
4443.000000	69.795179 
4442.000000	69.042110 
4441.000000	68.144130 
4440.000000	67.138051 
4439.000000	66.072511 
4438.000000	65.010952 
4437.000000	64.024019 
4436.000000	63.182497 
4435.000000	62.543082 
4434.000000	62.130570 
4433.000000	61.937284 
4432.000000	61.922788 
4431.000000	62.027502 
4430.000000	62.172031 
4429.000000	62.289977 
4428.000000	62.342548 
4427.000000	62.322950 
4426.000000	62.242889 
4425.000000	62.132930 
4424.000000	62.020611 
4423.000000	61.930179 
4422.000000	61.872243 
4421.000000	61.847496 
4420.000000	61.847400 
4419.000000	61.865925 
4418.000000	61.906838 
4417.000000	61.968827 
4416.000000	62.043404 
4415.000000	62.109160 
4414.000000	62.134242 
4413.000000	62.075567 
4412.000000	61.891555 
4411.000000	61.567044 
4410.000000	61.113238 
4409.000000	60.578489 
4408.000000	60.017037 
4407.000000	59.494590 
4406.000000	59.034872 
4405.000000	58.601903 
4404.000000	58.102893 
4403.000000	57.399272 
4402.000000	56.373715 
4401.000000	54.959630 
4400.000000	53.209614 
4399.000000	51.288270 
4398.000000	49.475383 
4397.000000	48.094558 
4396.000000	47.453594 
4395.000000	47.749996 
4394.000000	49.037933 
4393.000000	51.198840 
4392.000000	53.974890 
4391.000000	57.019376 
4390.000000	59.977769 
4389.000000	62.556934 
4388.000000	64.575266 
4387.000000	65.979933 
4386.000000	66.825962 
4385.000000	67.237615 
4384.000000	67.361497 
4383.000000	67.320370 
4382.000000	67.202687 
4381.000000	67.038679 
4380.000000	66.848659 
4379.000000	66.622638 
4378.000000	66.360449 
4377.000000	66.058897 
4376.000000	65.731024 
4375.000000	65.394854 
4374.000000	65.066838 
4373.000000	64.764213 
4372.000000	64.499926 
4371.000000	64.284920 
4370.000000	64.124512 
4369.000000	64.023256 
4368.000000	63.984465 
4367.000000	64.009141 
4366.000000	64.093041 
4365.000000	64.227819 
4364.000000	64.399147 
4363.000000	64.590954 
4362.000000	64.787030 
4361.000000	64.970684 
4360.000000	65.125513 
4359.000000	65.246057 
4358.000000	65.335202 
4357.000000	65.390110 
4356.000000	65.405154 
4355.000000	65.381479 
4354.000000	65.323615 
4353.000000	65.240645 
4352.000000	65.143227 
4351.000000	65.043354 
4350.000000	64.950752 
4349.000000	64.872670 
4348.000000	64.811921 
4347.000000	64.767670 
4346.000000	64.736342 
4345.000000	64.714884 
4344.000000	64.699888 
4343.000000	64.687895 
4342.000000	64.676547 
4341.000000	64.664173 
4340.000000	64.649796 
4339.000000	64.632058 
4338.000000	64.610219 
4337.000000	64.583969 
4336.000000	64.552736 
4335.000000	64.515709 
4334.000000	64.471864 
4333.000000	64.420175 
4332.000000	64.360284 
4331.000000	64.293360 
4330.000000	64.221549 
4329.000000	64.148831 
4328.000000	64.081287 
4327.000000	64.025878 
4326.000000	63.989210 
4325.000000	63.975214 
4324.000000	63.984012 
4323.000000	64.010930 
4322.000000	64.046907 
4321.000000	64.080476 
4320.000000	64.100098 
4319.000000	64.097309 
4318.000000	64.068484 
4317.000000	64.015841 
4316.000000	63.946270 
4315.000000	63.870048 
4314.000000	63.797879 
4313.000000	63.739299 
4312.000000	63.700747 
4311.000000	63.685226 
4310.000000	63.692307 
4309.000000	63.718914 
4308.000000	63.760685 
4307.000000	63.812518 
4306.000000	63.869643 
4305.000000	63.927412 
4304.000000	63.981842 
4303.000000	64.029741 
4302.000000	64.068984 
4301.000000	64.098334 
4300.000000	64.117455 
4299.000000	64.128208 
4298.000000	64.132547 
4297.000000	64.132666 
4296.000000	64.129257 
4295.000000	64.122128 
4294.000000	64.109086 
4293.000000	64.087080 
4292.000000	64.052820 
4291.000000	64.004826 
4290.000000	63.943696 
4289.000000	63.873171 
4288.000000	63.799238 
4287.000000	63.729119 
4286.000000	63.669204 
4285.000000	63.623452 
4284.000000	63.592290 
4283.000000	63.572812 
4282.000000	63.560128 
4281.000000	63.549113 
4280.000000	63.536477 
4279.000000	63.522219 
4278.000000	63.510155 
4277.000000	63.507175 
4276.000000	63.520359 
4275.000000	63.555073 
4274.000000	63.613200 
4273.000000	63.691926 
4272.000000	63.783574 
4271.000000	63.877034 
4270.000000	63.960552 
4269.000000	64.024066 
4268.000000	64.061212 
4267.000000	64.070844 
4266.000000	64.057064 
4265.000000	64.027714 
4264.000000	63.992691 
4263.000000	63.960957 
4262.000000	63.939070 
4261.000000	63.929390 
4260.000000	63.931035 
4259.000000	63.939809 
4258.000000	63.950157 
4257.000000	63.956451 
4256.000000	63.955187 
4255.000000	63.944172 
4254.000000	63.922882 
4253.000000	63.892292 
4252.000000	63.854289 
4251.000000	63.811016 
4250.000000	63.764572 
4249.000000	63.717341 
4248.000000	63.671588 
4247.000000	63.629794 
4246.000000	63.594031 
4245.000000	63.565778 
4244.000000	63.545417 
4243.000000	63.532018 
4242.000000	63.523602 
4241.000000	63.516831 
4240.000000	63.508391 
4239.000000	63.495898 
4238.000000	63.478374 
4237.000000	63.456130 
4236.000000	63.431262 
4235.000000	63.406848 
4234.000000	63.386678 
4233.000000	63.373684 
4232.000000	63.370490 
4231.000000	63.378763 
4230.000000	63.399505 
4229.000000	63.432741 
4228.000000	63.477444 
4227.000000	63.531446 
4226.000000	63.591337 
4225.000000	63.652777 
4224.000000	63.710999 
4223.000000	63.761377 
4222.000000	63.800263 
4221.000000	63.825488 
4220.000000	63.836669 
4219.000000	63.834857 
4218.000000	63.822841 
4217.000000	63.803601 
4216.000000	63.780260 
4215.000000	63.754796 
4214.000000	63.728523 
4213.000000	63.701462 
4212.000000	63.673973 
4211.000000	63.645601 
4210.000000	63.616394 
4209.000000	63.585758 
4208.000000	63.553047 
4207.000000	63.517141 
4206.000000	63.476681 
4205.000000	63.431072 
4204.000000	63.380837 
4203.000000	63.328337 
4202.000000	63.277840 
4201.000000	63.234329 
4200.000000	63.202404 
4199.000000	63.184952 
4198.000000	63.182401 
4197.000000	63.192439 
4196.000000	63.210415 
4195.000000	63.230800 
4194.000000	63.248467 
4193.000000	63.259673 
4192.000000	63.262486 
4191.000000	63.257074 
4190.000000	63.244223 
4189.000000	63.224339 
4188.000000	63.196349 
4187.000000	63.157749 
4186.000000	63.105368 
4185.000000	63.036918 
4184.000000	62.952446 
4183.000000	62.855744 
4182.000000	62.754464 
4181.000000	62.658905 
4180.000000	62.580394 
4179.000000	62.528443 
4178.000000	62.509655 
4177.000000	62.525677 
4176.000000	62.573456 
4175.000000	62.645816 
4174.000000	62.732982 
4173.000000	62.824726 
4172.000000	62.912368 
4171.000000	62.990427 
4170.000000	63.057494 
4169.000000	63.116025 
4168.000000	63.171434 
4167.000000	63.229990 
4166.000000	63.296675 
4165.000000	63.373017 
4164.000000	63.457322 
4163.000000	63.543772 
4162.000000	63.624453 
4161.000000	63.690018 
4160.000000	63.733386 
4159.000000	63.749647 
4158.000000	63.737988 
4157.000000	63.700842 
4156.000000	63.644361 
4155.000000	63.575959 
4154.000000	63.503122 
4153.000000	63.432073 
4152.000000	63.367438 
4151.000000	63.311386 
4150.000000	63.264250 
4149.000000	63.225197 
4148.000000	63.193249 
4147.000000	63.167905 
4146.000000	63.149452 
4145.000000	63.138842 
4144.000000	63.137555 
4143.000000	63.147258 
4142.000000	63.169407 
4141.000000	63.204121 
4140.000000	63.249874 
4139.000000	63.304090 
4138.000000	63.363242 
4137.000000	63.422679 
4136.000000	63.477587 
4135.000000	63.523554 
4134.000000	63.557338 
4133.000000	63.577175 
4132.000000	63.583326 
4131.000000	63.578581 
4130.000000	63.567376 
4129.000000	63.554930 
4128.000000	63.545966 
4127.000000	63.544058 
4126.000000	63.550209 
4125.000000	63.563346 
4124.000000	63.580179 
4123.000000	63.596343 
4122.000000	63.607716 
4121.000000	63.611841 
4120.000000	63.607454 
4119.000000	63.594913 
4118.000000	63.575482 
4117.000000	63.550996 
4116.000000	63.523077 
4115.000000	63.493037 
4114.000000	63.461875 
4113.000000	63.430476 
4112.000000	63.400220 
4111.000000	63.372874 
4110.000000	63.350582 
4109.000000	63.335371 
4108.000000	63.328599 
4107.000000	63.330364 
4106.000000	63.338613 
4105.000000	63.349795 
4104.000000	63.359498 
4103.000000	63.363862 
4102.000000	63.359808 
4101.000000	63.347053 
4100.000000	63.327813 
4099.000000	63.306879 
4098.000000	63.290238 
4097.000000	63.283777 
4096.000000	63.291692 
4095.000000	63.315081 
4094.000000	63.351821 
4093.000000	63.396525 
4092.000000	63.442015 
4091.000000	63.480758 
4090.000000	63.506960 
4089.000000	63.517785 
4088.000000	63.514161 
4087.000000	63.500452 
4086.000000	63.483166 
4085.000000	63.469314 
4084.000000	63.464355 
4083.000000	63.471221 
4082.000000	63.489079 
4081.000000	63.514041 
4080.000000	63.540148 
4079.000000	63.561058 
4078.000000	63.571691 
4077.000000	63.569593 
4076.000000	63.555431 
4075.000000	63.532543 
4074.000000	63.505911 
4073.000000	63.480448 
4072.000000	63.459849 
4071.000000	63.445687 
4070.000000	63.437294 
4069.000000	63.432216 
4068.000000	63.427352 
4067.000000	63.420414 
4066.000000	63.410496 
4065.000000	63.398528 
4064.000000	63.387084 
4063.000000	63.379406 
4062.000000	63.378310 
4061.000000	63.385033 
4060.000000	63.398814 
4059.000000	63.416576 
4058.000000	63.433837 
4057.000000	63.445281 
4056.000000	63.446402 
4055.000000	63.434243 
4054.000000	63.407802 
4053.000000	63.368654 
4052.000000	63.320207 
4051.000000	63.267779 
4050.000000	63.216948 
4049.000000	63.173580 
4048.000000	63.142538 
4047.000000	63.127493 
4046.000000	63.130450 
4045.000000	63.151645 
4044.000000	63.189291 
4043.000000	63.240242 
4042.000000	63.300180 
4041.000000	63.364243 
4040.000000	63.427591 
4039.000000	63.486289 
4038.000000	63.537478 
4037.000000	63.579869 
4036.000000	63.613510 
4035.000000	63.639664 
4034.000000	63.659930 
4033.000000	63.676142 
4032.000000	63.689303 
4031.000000	63.699769 
4030.000000	63.706946 
4029.000000	63.710117 
4028.000000	63.708543 
4027.000000	63.702082 
4026.000000	63.691425 
4025.000000	63.678240 
4024.000000	63.664770 
4023.000000	63.653516 
4022.000000	63.646483 
4021.000000	63.644719 
4020.000000	63.647842 
4019.000000	63.654208 
4018.000000	63.661050 
4017.000000	63.665533 
4016.000000	63.665080 
4015.000000	63.658142 
4014.000000	63.644504 
4013.000000	63.625240 
4012.000000	63.602423 
4011.000000	63.578820 
4010.000000	63.556718 
4009.000000	63.537502 
4008.000000	63.521575 
4007.000000	63.508725 
4006.000000	63.497829 
4005.000000	63.487696 
4004.000000	63.477492 
4003.000000	63.467359 
4002.000000	63.457989 
4001.000000	63.450384 
4000.000000	63.445472 
3999.000000	63.443732 
3998.000000	63.444590 
3997.000000	63.446855 
3996.000000	63.448548 
3995.000000	63.447856 
3994.000000	63.443708 
3993.000000	63.436126 
3992.000000	63.426160 
3991.000000	63.415837 
3990.000000	63.407683 
3989.000000	63.403606 
3988.000000	63.404321 
3987.000000	63.409018 
3986.000000	63.415575 
3985.000000	63.420844 
3984.000000	63.421368 
3983.000000	63.414573 
3982.000000	63.399171 
3981.000000	63.375329 
3980.000000	63.344550 
3979.000000	63.309431 
3978.000000	63.273024 
3977.000000	63.237810 
3976.000000	63.205862 
3975.000000	63.178277 
3974.000000	63.156056 
3973.000000	63.139915 
3972.000000	63.130784 
3971.000000	63.129401 
3970.000000	63.136696 
3969.000000	63.153028 
3968.000000	63.178253 
3967.000000	63.210725 
3966.000000	63.248348 
3965.000000	63.288187 
3964.000000	63.327574 
3963.000000	63.364267 
3962.000000	63.396859 
3961.000000	63.424968 
3960.000000	63.448858 
3959.000000	63.469219 
3958.000000	63.486742 
3957.000000	63.501691 
3956.000000	63.514184 
3955.000000	63.524293 
3954.000000	63.532614 
3953.000000	63.540339 
3952.000000	63.549542 
3951.000000	63.562369 
3950.000000	63.580679 
3949.000000	63.604640 
3948.000000	63.632869 
3947.000000	63.661718 
3946.000000	63.685846 
3945.000000	63.699245 
3944.000000	63.696861 
3943.000000	63.675642 
3942.000000	63.635468 
3941.000000	63.579463 
3940.000000	63.513660 
3939.000000	63.445806 
3938.000000	63.383626 
3937.000000	63.333725 
3936.000000	63.300228 
3935.000000	63.284158 
3934.000000	63.283777 
3933.000000	63.295245 
3932.000000	63.313674 
3931.000000	63.334417 
3930.000000	63.354063 
3929.000000	63.370656 
3928.000000	63.383650 
3927.000000	63.393735 
3926.000000	63.402152 
3925.000000	63.409829 
3924.000000	63.416719 
3923.000000	63.422179 
3922.000000	63.424801 
3921.000000	63.422751 
3920.000000	63.414502 
3919.000000	63.399577 
3918.000000	63.378834 
3917.000000	63.354158 
3916.000000	63.328671 
3915.000000	63.306212 
3914.000000	63.291049 
3913.000000	63.286471 
3912.000000	63.294982 
3911.000000	63.317513 
3910.000000	63.353610 
3909.000000	63.401460 
3908.000000	63.458323 
3907.000000	63.520503 
3906.000000	63.584399 
3905.000000	63.646650 
3904.000000	63.703989 
3903.000000	63.753175 
3902.000000	63.791489 
3901.000000	63.816618 
3900.000000	63.827085 
3899.000000	63.821935 
3898.000000	63.801550 
3897.000000	63.767099 
3896.000000	63.720655 
3895.000000	63.664531 
3894.000000	63.601565 
3893.000000	63.534283 
3892.000000	63.465166 
3891.000000	63.396096 
3890.000000	63.329005 
3889.000000	63.265728 
3888.000000	63.207960 
3887.000000	63.157701 
3886.000000	63.116502 
3885.000000	63.086199 
3884.000000	63.067579 
3883.000000	63.061475 
3882.000000	63.067436 
3881.000000	63.085150 
3880.000000	63.114094 
3879.000000	63.153600 
3878.000000	63.202333 
3877.000000	63.258409 
3876.000000	63.319134 
3875.000000	63.380789 
3874.000000	63.438844 
3873.000000	63.488912 
3872.000000	63.527584 
3871.000000	63.552999 
3870.000000	63.565039 
3869.000000	63.565373 
3868.000000	63.556718 
3867.000000	63.542485 
3866.000000	63.525938 
3865.000000	63.509535 
3864.000000	63.495039 
3863.000000	63.483929 
3862.000000	63.477158 
3861.000000	63.475823 
3860.000000	63.480639 
3859.000000	63.492584 
3858.000000	63.511371 
3857.000000	63.535547 
3856.000000	63.562011 
3855.000000	63.586378 
3854.000000	63.603949 
3853.000000	63.610672 
3852.000000	63.604331 
3851.000000	63.585162 
3850.000000	63.555526 
3849.000000	63.519430 
3848.000000	63.481259 
3847.000000	63.445043 
3846.000000	63.413929 
3845.000000	63.389801 
3844.000000	63.373255 
3843.000000	63.363718 
3842.000000	63.360047 
3841.000000	63.360762 
3840.000000	63.364005 
3839.000000	63.368105 
3838.000000	63.371300 
3837.000000	63.372230 
3836.000000	63.369750 
3835.000000	63.363003 
3834.000000	63.351392 
3833.000000	63.334536 
3832.000000	63.312530 
3831.000000	63.285708 
3830.000000	63.254594 
3829.000000	63.220071 
3828.000000	63.183355 
3827.000000	63.146471 
3826.000000	63.112139 
3825.000000	63.083481 
3824.000000	63.063573 
3823.000000	63.054370 
3822.000000	63.056540 
3821.000000	63.068699 
3820.000000	63.087654 
3819.000000	63.109159 
3818.000000	63.128924 
3817.000000	63.143682 
3816.000000	63.152074 
3815.000000	63.154649 
3814.000000	63.153409 
3813.000000	63.151454 
3812.000000	63.151836 
3811.000000	63.156533 
3810.000000	63.166189 
3809.000000	63.180208 
3808.000000	63.196825 
3807.000000	63.214373 
3806.000000	63.231086 
3805.000000	63.246321 
3804.000000	63.259410 
3803.000000	63.269662 
3802.000000	63.275814 
3801.000000	63.276243 
3800.000000	63.268852 
3799.000000	63.251709 
3798.000000	63.224124 
3797.000000	63.187217 
3796.000000	63.143992 
3795.000000	63.098978 
3794.000000	63.057470 
3793.000000	63.024592 
3792.000000	63.004255 
3791.000000	62.998390 
3790.000000	63.006901 
3789.000000	63.027739 
3788.000000	63.057541 
3787.000000	63.092398 
3786.000000	63.128662 
3785.000000	63.163328 
3784.000000	63.193798 
3783.000000	63.218450 
3782.000000	63.235831 
3781.000000	63.245701 
3780.000000	63.248252 
3779.000000	63.244700 
3778.000000	63.237285 
3777.000000	63.228869 
3776.000000	63.222932 
3775.000000	63.222265 
3774.000000	63.228821 
3773.000000	63.242959 
3772.000000	63.263678 
3771.000000	63.288426 
3770.000000	63.313698 
3769.000000	63.335609 
3768.000000	63.350868 
3767.000000	63.357257 
3766.000000	63.354301 
3765.000000	63.343143 
3764.000000	63.326716 
3763.000000	63.309049 
3762.000000	63.294792 
3761.000000	63.288545 
3760.000000	63.294005 
3759.000000	63.313436 
3758.000000	63.346982 
3757.000000	63.392901 
3756.000000	63.447260 
3755.000000	63.504767 
3754.000000	63.559389 
3753.000000	63.605737 
3752.000000	63.639402 
3751.000000	63.657927 
3750.000000	63.660669 
3749.000000	63.648700 
3748.000000	63.624310 
3747.000000	63.590502 
3746.000000	63.550710 
3745.000000	63.508582 
3744.000000	63.467550 
3743.000000	63.430953 
3742.000000	63.401627 
3741.000000	63.381814 
3740.000000	63.372516 
3739.000000	63.373064 
3738.000000	63.381481 
3737.000000	63.394546 
3736.000000	63.407969 
3735.000000	63.417720 
3734.000000	63.420486 
3733.000000	63.415074 
3732.000000	63.402247 
3731.000000	63.385057 
3730.000000	63.367819 
3729.000000	63.355159 
3728.000000	63.350939 
3727.000000	63.357090 
3726.000000	63.373470 
3725.000000	63.397383 
3724.000000	63.424706 
3723.000000	63.450145 
3722.000000	63.468956 
3721.000000	63.477301 
3720.000000	63.473415 
3719.000000	63.457441 
3718.000000	63.431572 
3717.000000	63.398933 
3716.000000	63.362979 
3715.000000	63.326311 
3714.000000	63.290357 
3713.000000	63.255214 
3712.000000	63.220286 
3711.000000	63.184809 
3710.000000	63.148784 
3709.000000	63.113498 
3708.000000	63.081479 
3707.000000	63.055896 
3706.000000	63.039779 
3705.000000	63.034820 
3704.000000	63.041186 
3703.000000	63.056898 
3702.000000	63.078761 
3701.000000	63.102555 
3700.000000	63.124847 
3699.000000	63.143491 
3698.000000	63.158154 
3697.000000	63.170289 
3696.000000	63.182044 
3695.000000	63.195180 
3694.000000	63.210105 
3693.000000	63.225412 
3692.000000	63.237953 
3691.000000	63.243985 
3690.000000	63.239884 
3689.000000	63.223910 
3688.000000	63.196301 
3687.000000	63.159751 
3686.000000	63.118982 
3685.000000	63.079881 
3684.000000	63.048243 
3683.000000	63.028502 
3682.000000	63.023447 
3681.000000	63.033437 
3680.000000	63.056635 
3679.000000	63.089179 
3678.000000	63.126301 
3677.000000	63.162803 
3676.000000	63.194084 
3675.000000	63.216733 
3674.000000	63.228654 
3673.000000	63.229441 
3672.000000	63.220143 
3671.000000	63.203096 
3670.000000	63.181328 
3669.000000	63.157820 
3668.000000	63.135266 
3667.000000	63.115453 
3666.000000	63.099431 
3665.000000	63.087177 
3664.000000	63.078355 
3663.000000	63.072371 
3662.000000	63.068866 
3661.000000	63.067770 
3660.000000	63.068985 
3659.000000	63.072609 
3658.000000	63.078498 
3657.000000	63.086414 
3656.000000	63.095808 
3655.000000	63.105988 
3654.000000	63.115811 
3653.000000	63.123750 
3652.000000	63.127779 
3651.000000	63.125848 
3650.000000	63.116359 
3649.000000	63.098430 
3648.000000	63.072371 
3647.000000	63.039755 
3646.000000	63.003492 
3645.000000	62.967514 
3644.000000	62.936282 
3643.000000	62.913656 
3642.000000	62.902522 
3641.000000	62.903976 
3640.000000	62.917590 
3639.000000	62.941265 
3638.000000	62.972140 
3637.000000	63.007068 
3636.000000	63.043117 
3635.000000	63.077855 
3634.000000	63.109230 
3633.000000	63.135385 
3632.000000	63.154554 
3631.000000	63.164901 
3630.000000	63.165283 
3629.000000	63.155269 
3628.000000	63.136005 
3627.000000	63.109779 
3626.000000	63.079714 
3625.000000	63.048982 
3624.000000	63.020467 
3623.000000	62.995862 
3622.000000	62.975478 
3621.000000	62.958431 
3620.000000	62.943339 
3619.000000	62.929129 
3618.000000	62.915587 
3617.000000	62.903618 
3616.000000	62.895154 
3615.000000	62.892436 
3614.000000	62.897014 
3613.000000	62.908864 
3612.000000	62.926149 
3611.000000	62.945079 
3610.000000	62.960720 
3609.000000	62.967991 
3608.000000	62.962937 
3607.000000	62.943649 
3606.000000	62.910747 
3605.000000	62.867259 
3604.000000	62.817811 
3603.000000	62.768316 
3602.000000	62.724852 
3601.000000	62.692594 
3600.000000	62.675189 
3599.000000	62.674546 
3598.000000	62.690806 
3597.000000	62.722134 
3596.000000	62.765336 
3595.000000	62.816119 
3594.000000	62.869739 
3593.000000	62.921166 
3592.000000	62.966012 
3591.000000	63.000679 
3590.000000	63.023138 
3589.000000	63.032770 
3588.000000	63.030695 
3587.000000	63.019537 
3586.000000	63.002657 
3585.000000	62.984061 
3584.000000	62.966942 
3583.000000	62.953329 
3582.000000	62.943577 
3581.000000	62.936997 
3580.000000	62.931513 
3579.000000	62.924742 
3578.000000	62.914371 
3577.000000	62.898898 
3576.000000	62.877964 
3575.000000	62.852287 
3574.000000	62.823605 
3573.000000	62.794280 
3572.000000	62.766909 
3571.000000	62.743759 
3570.000000	62.726688 
3569.000000	62.716412 
3568.000000	62.712407 
3567.000000	62.712979 
3566.000000	62.715196 
3565.000000	62.715673 
3564.000000	62.711191 
3563.000000	62.699747 
3562.000000	62.680459 
3561.000000	62.655067 
3560.000000	62.627363 
3559.000000	62.602996 
3558.000000	62.588000 
3557.000000	62.587475 
3556.000000	62.604212 
3555.000000	62.637758 
3554.000000	62.684392 
3553.000000	62.737607 
3552.000000	62.789511 
3551.000000	62.832522 
3550.000000	62.860941 
3549.000000	62.871718 
3548.000000	62.864828 
3547.000000	62.842941 
3546.000000	62.810492 
3545.000000	62.772345 
3544.000000	62.732672 
3543.000000	62.694740 
3542.000000	62.660002 
3541.000000	62.628865 
3540.000000	62.600588 
3539.000000	62.574529 
3538.000000	62.550091 
3537.000000	62.527179 
3536.000000	62.506628 
3535.000000	62.489295 
3534.000000	62.476921 
3533.000000	62.471103 
3532.000000	62.473583 
3531.000000	62.485432 
3530.000000	62.506890 
3529.000000	62.536764 
3528.000000	62.572431 
3527.000000	62.610244 
3526.000000	62.645864 
3525.000000	62.675189 
3524.000000	62.695193 
3523.000000	62.704420 
3522.000000	62.703585 
3521.000000	62.694764 
3520.000000	62.681198 
3519.000000	62.665963 
3518.000000	62.651228 
3517.000000	62.637424 
3516.000000	62.623596 
3515.000000	62.607693 
3514.000000	62.587356 
3513.000000	62.561082 
3512.000000	62.529063 
3511.000000	62.493586 
3510.000000	62.458443 
3509.000000	62.428498 
3508.000000	62.408137 
3507.000000	62.400817 
3506.000000	62.407827 
3505.000000	62.428545 
3504.000000	62.460374 
3503.000000	62.499666 
3502.000000	62.542223 
3501.000000	62.584185 
3500.000000	62.622594 
3499.000000	62.655544 
3498.000000	62.682294 
3497.000000	62.702798 
3496.000000	62.717652 
3495.000000	62.727975 
3494.000000	62.735295 
3493.000000	62.741518 
3492.000000	62.748599 
3491.000000	62.758588 
3490.000000	62.772798 
3489.000000	62.792038 
3488.000000	62.815594 
3487.000000	62.841486 
3486.000000	62.866210 
3485.000000	62.885904 
3484.000000	62.896609 
3483.000000	62.895393 
3482.000000	62.881016 
3481.000000	62.854671 
3480.000000	62.819838 
3479.000000	62.781691 
3478.000000	62.746405 
3477.000000	62.719893 
3476.000000	62.706422 
3475.000000	62.707948 
3474.000000	62.723684 
3473.000000	62.750267 
3472.000000	62.782478 
3471.000000	62.814497 
3470.000000	62.840914 
3469.000000	62.857794 
3468.000000	62.863540 
3467.000000	62.859177 
3466.000000	62.847495 
3465.000000	62.832283 
3464.000000	62.817621 
3463.000000	62.806773 
3462.000000	62.801313 
3461.000000	62.800979 
3460.000000	62.804460 
3459.000000	62.809586 
3458.000000	62.814140 
3457.000000	62.816596 
3456.000000	62.816429 
3455.000000	62.814497 
3454.000000	62.812113 
3453.000000	62.811136 
3452.000000	62.813210 
3451.000000	62.819337 
3450.000000	62.829637 
3449.000000	62.843322 
3448.000000	62.859153 
3447.000000	62.875652 
3446.000000	62.891459 
3445.000000	62.905311 
3444.000000	62.915873 
3443.000000	62.921977 
3442.000000	62.922477 
3441.000000	62.916088 
3440.000000	62.901282 
3439.000000	62.876868 
3438.000000	62.841939 
3437.000000	62.796616 
3436.000000	62.742185 
3435.000000	62.681078 
3434.000000	62.616825 
3433.000000	62.553811 
3432.000000	62.496638 
3431.000000	62.449336 
3430.000000	62.414979 
3429.000000	62.394928 
3428.000000	62.388777 
3427.000000	62.393951 
3426.000000	62.406778 
3425.000000	62.422657 
3424.000000	62.437534 
3423.000000	62.447857 
3422.000000	62.452101 
3421.000000	62.450480 
3420.000000	62.445449 
3419.000000	62.440729 
3418.000000	62.440824 
3417.000000	62.449598 
3416.000000	62.469410 
3415.000000	62.500214 
3414.000000	62.539196 
3413.000000	62.581038 
3412.000000	62.618803 
3411.000000	62.645411 
3410.000000	62.655019 
3409.000000	62.644147 
3408.000000	62.612986 
3407.000000	62.564945 
3406.000000	62.506031 
3405.000000	62.443208 
3404.000000	62.383437 
3403.000000	62.331676 
3402.000000	62.289953 
3401.000000	62.257719 
3400.000000	62.232375 
3399.000000	62.210774 
3398.000000	62.190341 
3397.000000	62.170481 
3396.000000	62.152647 
3395.000000	62.140369 
3394.000000	62.137532 
3393.000000	62.147331 
3392.000000	62.170600 
3391.000000	62.205505 
3390.000000	62.247681 
3389.000000	62.291097 
3388.000000	62.329506 
3387.000000	62.358212 
3386.000000	62.375020 
3385.000000	62.380814 
3384.000000	62.378764 
3383.000000	62.373304 
3382.000000	62.368488 
3381.000000	62.366795 
3380.000000	62.368345 
3379.000000	62.371206 
3378.000000	62.372183 
3377.000000	62.368059 
3376.000000	62.356638 
3375.000000	62.337708 
3374.000000	62.313342 
3373.000000	62.287282 
3372.000000	62.264442 
3371.000000	62.249088 
3370.000000	62.244415 
3369.000000	62.251591 
3368.000000	62.269473 
3367.000000	62.294673 
3366.000000	62.322545 
3365.000000	62.348127 
3364.000000	62.367248 
3363.000000	62.377166 
3362.000000	62.377119 
3361.000000	62.368249 
3360.000000	62.353181 
3359.000000	62.335371 
3358.000000	62.318277 
3357.000000	62.304520 
3356.000000	62.296152 
3355.000000	62.293767 
3354.000000	62.296772 
3353.000000	62.303328 
3352.000000	62.310838 
3351.000000	62.316465 
3350.000000	62.317228 
3349.000000	62.311100 
3348.000000	62.296938 
3347.000000	62.275195 
3346.000000	62.247610 
3345.000000	62.217330 
3344.000000	62.187933 
3343.000000	62.163329 
3342.000000	62.146639 
3341.000000	62.140083 
3340.000000	62.144446 
3339.000000	62.159180 
3338.000000	62.182760 
3337.000000	62.213015 
3336.000000	62.247586 
3335.000000	62.284111 
3334.000000	62.320327 
3333.000000	62.354016 
3332.000000	62.382817 
3331.000000	62.404298 
3330.000000	62.416052 
3329.000000	62.416028 
3328.000000	62.403011 
3327.000000	62.377405 
3326.000000	62.340950 
3325.000000	62.296938 
3324.000000	62.249588 
3323.000000	62.203693 
3322.000000	62.163782 
3321.000000	62.133526 
3320.000000	62.115073 
3319.000000	62.109112 
3318.000000	62.114644 
3317.000000	62.129211 
3316.000000	62.149381 
3315.000000	62.171173 
3314.000000	62.190794 
3313.000000	62.204933 
3312.000000	62.211418 
3311.000000	62.209272 
3310.000000	62.198853 
3309.000000	62.181735 
3308.000000	62.160611 
3307.000000	62.138581 
3306.000000	62.118768 
3305.000000	62.103748 
3304.000000	62.095117 
3303.000000	62.093210 
3302.000000	62.097334 
3301.000000	62.105846 
3300.000000	62.116575 
3299.000000	62.127161 
3298.000000	62.135338 
3297.000000	62.139678 
3296.000000	62.139368 
3295.000000	62.134647 
3294.000000	62.126469 
3293.000000	62.116408 
3292.000000	62.106299 
3291.000000	62.097501 
3290.000000	62.090682 
3289.000000	62.085437 
3288.000000	62.080764 
3287.000000	62.075400 
3286.000000	62.068295 
3285.000000	62.059330 
3284.000000	62.049317 
3283.000000	62.040019 
3282.000000	62.033557 
3281.000000	62.031817 
3280.000000	62.035632 
3279.000000	62.044382 
3278.000000	62.055945 
3277.000000	62.067222 
3276.000000	62.075018 
3275.000000	62.076902 
3274.000000	62.071967 
3273.000000	62.061166 
3272.000000	62.046980 
3271.000000	62.032532 
3270.000000	62.020826 
3269.000000	62.013602 
3268.000000	62.010979 
3267.000000	62.011671 
3266.000000	62.013220 
3265.000000	62.013125 
3264.000000	62.009191 
3263.000000	62.000322 
3262.000000	61.986565 
3261.000000	61.969089 
3260.000000	61.949777 
3259.000000	61.930656 
3258.000000	61.913728 
3257.000000	61.900544 
3256.000000	61.892223 
3255.000000	61.889433 
3254.000000	61.892533 
3253.000000	61.901760 
3252.000000	61.917018 
3251.000000	61.937856 
3250.000000	61.963248 
3249.000000	61.991477 
3248.000000	62.020206 
3247.000000	62.046575 
3246.000000	62.067866 
3245.000000	62.081742 
3244.000000	62.086915 
3243.000000	62.083220 
3242.000000	62.072086 
3241.000000	62.055611 
3240.000000	62.036681 
3239.000000	62.017917 
3238.000000	62.001729 
3237.000000	61.989283 
3236.000000	61.980748 
3235.000000	61.975288 
3234.000000	61.971426 
3233.000000	61.967802 
3232.000000	61.963772 
3231.000000	61.959600 
3230.000000	61.956357 
3229.000000	61.955785 
3228.000000	61.959767 
3227.000000	61.969828 
3226.000000	61.986398 
3225.000000	62.008762 
3224.000000	62.034821 
3223.000000	62.061619 
3222.000000	62.085819 
3221.000000	62.104201 
3220.000000	62.114453 
3219.000000	62.115335 
3218.000000	62.107181 
3217.000000	62.091898 
3216.000000	62.072634 
3215.000000	62.053155 
3214.000000	62.037014 
3213.000000	62.027359 
3212.000000	62.025618 
3211.000000	62.031865 
3210.000000	62.043905 
3209.000000	62.057900 
3208.000000	62.068939 
3207.000000	62.072062 
3206.000000	62.063455 
3205.000000	62.041306 
3204.000000	62.006330 
3203.000000	61.961650 
3202.000000	61.912322 
3201.000000	61.864423 
3200.000000	61.823534 
3199.000000	61.793804 
3198.000000	61.777377 
3197.000000	61.774134 
3196.000000	61.781930 
3195.000000	61.797142 
3194.000000	61.815357 
3193.000000	61.832308 
3192.000000	61.844372 
3191.000000	61.849331 
3190.000000	61.846041 
3189.000000	61.835241 
3188.000000	61.818671 
3187.000000	61.799240 
3186.000000	61.780405 
3185.000000	61.765408 
3184.000000	61.757230 
3183.000000	61.757016 
3182.000000	61.764121 
3181.000000	61.775708 
3180.000000	61.787486 
3179.000000	61.794519 
3178.000000	61.792254 
3177.000000	61.777758 
3176.000000	61.750245 
3175.000000	61.711645 
3174.000000	61.666059 
3173.000000	61.618900 
3172.000000	61.575698 
3171.000000	61.541414 
3170.000000	61.519527 
3169.000000	61.511731 
3168.000000	61.518120 
3167.000000	61.537384 
3166.000000	61.567282 
3165.000000	61.605215 
3164.000000	61.648321 
3163.000000	61.693668 
3162.000000	61.738514 
3161.000000	61.779856 
3160.000000	61.815142 
3159.000000	61.842274 
3158.000000	61.859989 
3157.000000	61.868453 
3156.000000	61.868667 
3155.000000	61.862516 
3154.000000	61.852145 
3153.000000	61.839866 
3152.000000	61.827206 
3151.000000	61.814808 
3150.000000	61.802315 
3149.000000	61.788868 
3148.000000	61.773276 
3147.000000	61.754608 
3146.000000	61.732435 
3145.000000	61.707115 
3144.000000	61.679649 
3143.000000	61.651611 
3142.000000	61.624622 
3141.000000	61.600017 
3140.000000	61.578726 
3139.000000	61.561083 
3138.000000	61.546802 
3137.000000	61.535334 
3136.000000	61.525845 
3135.000000	61.517930 
3134.000000	61.511087 
3133.000000	61.505675 
3132.000000	61.502432 
3131.000000	61.502790 
3130.000000	61.507987 
3129.000000	61.519384 
3128.000000	61.537790 
3127.000000	61.563444 
3126.000000	61.595416 
3125.000000	61.631751 
3124.000000	61.669778 
3123.000000	61.706519 
3122.000000	61.739015 
3121.000000	61.764669 
3120.000000	61.781525 
3119.000000	61.788725 
3118.000000	61.786127 
3117.000000	61.774110 
3116.000000	61.753416 
3115.000000	61.725091 
3114.000000	61.690592 
3113.000000	61.651825 
3112.000000	61.611270 
3111.000000	61.572217 
3110.000000	61.538290 
3109.000000	61.512899 
3108.000000	61.498427 
3107.000000	61.496067 
3106.000000	61.504888 
3105.000000	61.522078 
3104.000000	61.543273 
3103.000000	61.563301 
3102.000000	61.577486 
3101.000000	61.582493 
3100.000000	61.577081 
3099.000000	61.562252 
3098.000000	61.541056 
3097.000000	61.517500 
3096.000000	61.496043 
3095.000000	61.480331 
3094.000000	61.472702 
3093.000000	61.474132 
3092.000000	61.484003 
3091.000000	61.500477 
3090.000000	61.520981 
3089.000000	61.542630 
3088.000000	61.562466 
3087.000000	61.578035 
3086.000000	61.587500 
3085.000000	61.590337 
3084.000000	61.587047 
3083.000000	61.579132 
3082.000000	61.568593 
3081.000000	61.557769 
3080.000000	61.548852 
3079.000000	61.543107 
3078.000000	61.540699 
3077.000000	61.540484 
3076.000000	61.540555 
3075.000000	61.538887 
3074.000000	61.534094 
3073.000000	61.525988 
3072.000000	61.515688 
3071.000000	61.505627 
3070.000000	61.498904 
3069.000000	61.498403 
3068.000000	61.505579 
3067.000000	61.520361 
3066.000000	61.540675 
3065.000000	61.563110 
3064.000000	61.583304 
3063.000000	61.596941 
3062.000000	61.600852 
3061.000000	61.593294 
3060.000000	61.574649 
3059.000000	61.547255 
3058.000000	61.514902 
3057.000000	61.482000 
3056.000000	61.452889 
3055.000000	61.431217 
3054.000000	61.419272 
3053.000000	61.417865 
3052.000000	61.426162 
3051.000000	61.441946 
3050.000000	61.461925 
3049.000000	61.482238 
3048.000000	61.499452 
3047.000000	61.510682 
3046.000000	61.514306 
3045.000000	61.509823 
3044.000000	61.498117 
3043.000000	61.480998 
3042.000000	61.460638 
3041.000000	61.439251 
3040.000000	61.418604 
3039.000000	61.399936 
3038.000000	61.383700 
3037.000000	61.369633 
3036.000000	61.357164 
3035.000000	61.345696 
3034.000000	61.334633 
3033.000000	61.323761 
3032.000000	61.313366 
3031.000000	61.304187 
3030.000000	61.297297 
3029.000000	61.293935 
3028.000000	61.295294 
3027.000000	61.302471 
3026.000000	61.315965 
3025.000000	61.335587 
3024.000000	61.360001 
3023.000000	61.386919 
3022.000000	61.413478 
3021.000000	61.436295 
3020.000000	61.452293 
3019.000000	61.459016 
3018.000000	61.455368 
3017.000000	61.441588 
3016.000000	61.419272 
3015.000000	61.390852 
3014.000000	61.359095 
3013.000000	61.326646 
3012.000000	61.295533 
3011.000000	61.266994 
3010.000000	61.241459 
3009.000000	61.218762 
3008.000000	61.198639 
3007.000000	61.180853 
3006.000000	61.165904 
3005.000000	61.154413 
3004.000000	61.147594 
3003.000000	61.146378 
3002.000000	61.151361 
3001.000000	61.162304 
3000.000000	61.178302 
2999.000000	61.197471 
2998.000000	61.217641 
2997.000000	61.236834 
2996.000000	61.253523 
2995.000000	61.266970 
2994.000000	61.277222 
2993.000000	61.284947 
2992.000000	61.290764 
2991.000000	61.295270 
2990.000000	61.298108 
2989.000000	61.298155 
2988.000000	61.293578 
2987.000000	61.282444 
2986.000000	61.263203 
2985.000000	61.235523 
2984.000000	61.200475 
2983.000000	61.160707 
2982.000000	61.119914 
2981.000000	61.082243 
2980.000000	61.051440 
2979.000000	61.030125 
2978.000000	61.019349 
2977.000000	61.018323 
2976.000000	61.024785 
2975.000000	61.035513 
2974.000000	61.047101 
2973.000000	61.056780 
2972.000000	61.062431 
2971.000000	61.063265 
2970.000000	61.059594 
2969.000000	61.052680 
2968.000000	61.044049 
2967.000000	61.035370 
2966.000000	61.028075 
2965.000000	61.023116 
2964.000000	61.020898 
2963.000000	61.021113 
2962.000000	61.022973 
2961.000000	61.025357 
2960.000000	61.026954 
2959.000000	61.026525 
2958.000000	61.022996 
2957.000000	61.015868 
2956.000000	61.005163 
2955.000000	60.991477 
2954.000000	60.975813 
2953.000000	60.959553 
2952.000000	60.944151 
2951.000000	60.930919 
2950.000000	60.920429 
2949.000000	60.912942 
2948.000000	60.908079 
2947.000000	60.904598 
2946.000000	60.901093 
2945.000000	60.895800 
2944.000000	60.887575 
2943.000000	60.875678 
2942.000000	60.860443 
2941.000000	60.842728 
2940.000000	60.824346 
2939.000000	60.807538 
2938.000000	60.794615 
2937.000000	60.787296 
2936.000000	60.786628 
2935.000000	60.792565 
2934.000000	60.804128 
2933.000000	60.819578 
2932.000000	60.836791 
2931.000000	60.853815 
2930.000000	60.869026 
2929.000000	60.881495 
2928.000000	60.890722 
2927.000000	60.896492 
2926.000000	60.898876 
2925.000000	60.898113 
2924.000000	60.894441 
2923.000000	60.888195 
2922.000000	60.880112 
2921.000000	60.871005 
2920.000000	60.861659 
2919.000000	60.852384 
2918.000000	60.843253 
2917.000000	60.833668 
2916.000000	60.822534 
2915.000000	60.808515 
2914.000000	60.790371 
2913.000000	60.767650 
2912.000000	60.740828 
2911.000000	60.711717 
2910.000000	60.682892 
2909.000000	60.657644 
2908.000000	60.638904 
2907.000000	60.628914 
2906.000000	60.628485 
2905.000000	60.637116 
2904.000000	60.653114 
2903.000000	60.674023 
2902.000000	60.697221 
2901.000000	60.720539 
2900.000000	60.742592 
2899.000000	60.762691 
2898.000000	60.781002 
2897.000000	60.797882 
2896.000000	60.813903 
2895.000000	60.829401 
2894.000000	60.844063 
2893.000000	60.857176 
2892.000000	60.867500 
2891.000000	60.873913 
2890.000000	60.874938 
2889.000000	60.869812 
2888.000000	60.858035 
2887.000000	60.839962 
2886.000000	60.816550 
2885.000000	60.789155 
2884.000000	60.759520 
2883.000000	60.729718 
2882.000000	60.701656 
2881.000000	60.676836 
2880.000000	60.656285 
2879.000000	60.640525 
2878.000000	60.629391 
2877.000000	60.622358 
2876.000000	60.618615 
2875.000000	60.617637 
2874.000000	60.619235 
2873.000000	60.623741 
2872.000000	60.631895 
2871.000000	60.644316 
2870.000000	60.661506 
2869.000000	60.683155 
2868.000000	60.707783 
2867.000000	60.732913 
2866.000000	60.755085 
2865.000000	60.770797 
2864.000000	60.777091 
2863.000000	60.772514 
2862.000000	60.757756 
2861.000000	60.735678 
2860.000000	60.710906 
2859.000000	60.688638 
2858.000000	60.673737 
2857.000000	60.669422 
2856.000000	60.676717 
2855.000000	60.694265 
2854.000000	60.718989 
2853.000000	60.747003 
2852.000000	60.774564 
2851.000000	60.798740 
2850.000000	60.817766 
2849.000000	60.831069 
2848.000000	60.838842 
2847.000000	60.841846 
2846.000000	60.840702 
2845.000000	60.835838 
2844.000000	60.827445 
2843.000000	60.815787 
2842.000000	60.801243 
2841.000000	60.784816 
2840.000000	60.767745 
2839.000000	60.751652 
2838.000000	60.737800 
2837.000000	60.726928 
2836.000000	60.718941 
2835.000000	60.712933 
2834.000000	60.707545 
2833.000000	60.701012 
2832.000000	60.692024 
2831.000000	60.680031 
2830.000000	60.665726 
2829.000000	60.650491 
2828.000000	60.636568 
2827.000000	60.626173 
2826.000000	60.621190 
2825.000000	60.622429 
2824.000000	60.629367 
2823.000000	60.640430 
2822.000000	60.653042 
2821.000000	60.664343 
2820.000000	60.671663 
2819.000000	60.673427 
2818.000000	60.669016 
2817.000000	60.658979 
2816.000000	60.645151 
2815.000000	60.629844 
2814.000000	60.615706 
2813.000000	60.604596 
2812.000000	60.597562 
2811.000000	60.594367 
2810.000000	60.593891 
2809.000000	60.594463 
2808.000000	60.594344 
2807.000000	60.592174 
2806.000000	60.587596 
2805.000000	60.580778 
2804.000000	60.572195 
2803.000000	60.562467 
2802.000000	60.551953 
2801.000000	60.540890 
2800.000000	60.529327 
2799.000000	60.517573 
2798.000000	60.506176 
2797.000000	60.495853 
2796.000000	60.487437 
2795.000000	60.481357 
2794.000000	60.477590 
2793.000000	60.475516 
2792.000000	60.473990 
2791.000000	60.471558 
2790.000000	60.466861 
2789.000000	60.459041 
2788.000000	60.447978 
2787.000000	60.434269 
2786.000000	60.419297 
2785.000000	60.404610 
2784.000000	60.391712 
2783.000000	60.381674 
2782.000000	60.374903 
2781.000000	60.371208 
2780.000000	60.370016 
2779.000000	60.370421 
2778.000000	60.371851 
2777.000000	60.373854 
2776.000000	60.376477 
2775.000000	60.379815 
2774.000000	60.384202 
2773.000000	60.389709 
2772.000000	60.396313 
2771.000000	60.403609 
2770.000000	60.410833 
2769.000000	60.417222 
2768.000000	60.421872 
2767.000000	60.424232 
2766.000000	60.424232 
2765.000000	60.422348 
2764.000000	60.419559 
2763.000000	60.417056 
2762.000000	60.416150 
2761.000000	60.417795 
2760.000000	60.422515 
2759.000000	60.430097 
2758.000000	60.439562 
2757.000000	60.449171 
2756.000000	60.457086 
2755.000000	60.461449 
2754.000000	60.460638 
2753.000000	60.453963 
2752.000000	60.441708 
2751.000000	60.425043 
2750.000000	60.405921 
2749.000000	60.386681 
2748.000000	60.369658 
2747.000000	60.356545 
2746.000000	60.348320 
2745.000000	60.344696 
2744.000000	60.344529 
2743.000000	60.345625 
2742.000000	60.345530 
2741.000000	60.341858 
2740.000000	60.332727 
2739.000000	60.317230 
2738.000000	60.295820 
2737.000000	60.270094 
2736.000000	60.242581 
2735.000000	60.216379 
2734.000000	60.194563 
2733.000000	60.179567 
2732.000000	60.172867 
2731.000000	60.174751 
2730.000000	60.184335 
2729.000000	60.199737 
2728.000000	60.218691 
2727.000000	60.238718 
2726.000000	60.257720 
2725.000000	60.274147 
2724.000000	60.287046 
2723.000000	60.295987 
2722.000000	60.300707 
2721.000000	60.301303 
2720.000000	60.297703 
2719.000000	60.289883 
2718.000000	60.277867 
2717.000000	60.261964 
2716.000000	60.242819 
2715.000000	60.221576 
2714.000000	60.199761 
2713.000000	60.179042 
2712.000000	60.160994 
2711.000000	60.146832 
2710.000000	60.137152 
2709.000000	60.131907 
2708.000000	60.130381 
2707.000000	60.131525 
2706.000000	60.134243 
2705.000000	60.137629 
2704.000000	60.141062 
2703.000000	60.144448 
2702.000000	60.147905 
2701.000000	60.151910 
2700.000000	60.156798 
2699.000000	60.162901 
2698.000000	60.170078 
2697.000000	60.178065 
2696.000000	60.186362 
2695.000000	60.194373 
2694.000000	60.201525 
2693.000000	60.207247 
2692.000000	60.211253 
2691.000000	60.213279 
2690.000000	60.213208 
2689.000000	60.211014 
2688.000000	60.206747 
2687.000000	60.200524 
2686.000000	60.192656 
2685.000000	60.183596 
2684.000000	60.173869 
2683.000000	60.164237 
2682.000000	60.155344 
2681.000000	60.147690 
2680.000000	60.141468 
2679.000000	60.136508 
2678.000000	60.132360 
2677.000000	60.128140 
2676.000000	60.122895 
2675.000000	60.115790 
2674.000000	60.106229 
2673.000000	60.094094 
2672.000000	60.079765 
2671.000000	60.064005 
2670.000000	60.047936 
2669.000000	60.032796 
2668.000000	60.019612 
2667.000000	60.008978 
2666.000000	60.000944 
2665.000000	59.995055 
2664.000000	59.990310 
2663.000000	59.985494 
2662.000000	59.979391 
2661.000000	59.971070 
2660.000000	59.960079 
2659.000000	59.946632 
2658.000000	59.931612 
2657.000000	59.916377 
2656.000000	59.902620 
2655.000000	59.891915 
2654.000000	59.885454 
2653.000000	59.883713 
2652.000000	59.886407 
2651.000000	59.892630 
2650.000000	59.900808 
2649.000000	59.909343 
2648.000000	59.916567 
2647.000000	59.921336 
2646.000000	59.923005 
2645.000000	59.921455 
2644.000000	59.917068 
2643.000000	59.910464 
2642.000000	59.902405 
2641.000000	59.893703 
2640.000000	59.885025 
2639.000000	59.876871 
2638.000000	59.869718 
2637.000000	59.863781 
2636.000000	59.859347 
2635.000000	59.856462 
2634.000000	59.855008 
2633.000000	59.854793 
2632.000000	59.855389 
2631.000000	59.856390 
2630.000000	59.857225 
2629.000000	59.857511 
2628.000000	59.856867 
2627.000000	59.854960 
2626.000000	59.851551 
2625.000000	59.846496 
2624.000000	59.839677 
2623.000000	59.831142 
2622.000000	59.821081 
2621.000000	59.810090 
2620.000000	59.798789 
2619.000000	59.788084 
2618.000000	59.778642 
2617.000000	59.771060 
2616.000000	59.765291 
2615.000000	59.760761 
2614.000000	59.756302 
2613.000000	59.750509 
2612.000000	59.742045 
2611.000000	59.730076 
2610.000000	59.714579 
2609.000000	59.696364 
2608.000000	59.676957 
2607.000000	59.658288 
2606.000000	59.642219 
2605.000000	59.630179 
2604.000000	59.622812 
2603.000000	59.620141 
2602.000000	59.621500 
2601.000000	59.626030 
2600.000000	59.632945 
2599.000000	59.641695 
2598.000000	59.652090 
2597.000000	59.664154 
2596.000000	59.677767 
2595.000000	59.692621 
2594.000000	59.707760 
2593.000000	59.722089 
2592.000000	59.734368 
2591.000000	59.743714 
2590.000000	59.749746 
2589.000000	59.752655 
2588.000000	59.753036 
2587.000000	59.751486 
2586.000000	59.748673 
2585.000000	59.744572 
2584.000000	59.738492 
2583.000000	59.729218 
2582.000000	59.715628 
2581.000000	59.696841 
2580.000000	59.672784 
2579.000000	59.644460 
2578.000000	59.613800 
2577.000000	59.583353 
2576.000000	59.555816 
2575.000000	59.533429 
2574.000000	59.517598 
2573.000000	59.508800 
2572.000000	59.506559 
2571.000000	59.509587 
2570.000000	59.516096 
2569.000000	59.523916 
2568.000000	59.531044 
2567.000000	59.535312 
2566.000000	59.535503 
2565.000000	59.531211 
2564.000000	59.523367 
2563.000000	59.513711 
2562.000000	59.504842 
2561.000000	59.499573 
2560.000000	59.500217 
2559.000000	59.508204 
2558.000000	59.523487 
2557.000000	59.544491 
2556.000000	59.568595 
2555.000000	59.592461 
2554.000000	59.612846 
2553.000000	59.627127 
2552.000000	59.633851 
2551.000000	59.632873 
2550.000000	59.625291 
2549.000000	59.613060 
2548.000000	59.598636 
2547.000000	59.584116 
2546.000000	59.571099 
2545.000000	59.560275 
2544.000000	59.551811 
2543.000000	59.545159 
2542.000000	59.539580 
2541.000000	59.534144 
2540.000000	59.528183 
2539.000000	59.521341 
2538.000000	59.513688 
2537.000000	59.505510 
2536.000000	59.497237 
2535.000000	59.489417 
2534.000000	59.482359 
2533.000000	59.476256 
2532.000000	59.471035 
2531.000000	59.466481 
2530.000000	59.462523 
2529.000000	59.458756 
2528.000000	59.454894 
2527.000000	59.450435 
2526.000000	59.444665 
2525.000000	59.436917 
2524.000000	59.426617 
2523.000000	59.413528 
2522.000000	59.398031 
2521.000000	59.380936 
2520.000000	59.363675 
2519.000000	59.347677 
2518.000000	59.334111 
2517.000000	59.323430 
2516.000000	59.315538 
2515.000000	59.309577 
2514.000000	59.304618 
2513.000000	59.299755 
2512.000000	59.294843 
2511.000000	59.290313 
2510.000000	59.287071 
2509.000000	59.286165 
2508.000000	59.288096 
2507.000000	59.292459 
2506.000000	59.297704 
2505.000000	59.301304 
2504.000000	59.300494 
2503.000000	59.293127 
2502.000000	59.278464 
2501.000000	59.257745 
2500.000000	59.234285 
2499.000000	59.212660 
2498.000000	59.197854 
2497.000000	59.193897 
2496.000000	59.202814 
2495.000000	59.223699 
2494.000000	59.253168 
2493.000000	59.285664 
2492.000000	59.315061 
2491.000000	59.335732 
2490.000000	59.344100 
2489.000000	59.339141 
2488.000000	59.322595 
2487.000000	59.298396 
2486.000000	59.271478 
2485.000000	59.246563 
2484.000000	59.227204 
2483.000000	59.214925 
2482.000000	59.209561 
2481.000000	59.209299 
2480.000000	59.211802 
2479.000000	59.214758 
2478.000000	59.216785 
2477.000000	59.217643 
2476.000000	59.217882 
2475.000000	59.218645 
2474.000000	59.221029 
2473.000000	59.225654 
2472.000000	59.232282 
2471.000000	59.240174 
2470.000000	59.248042 
2469.000000	59.254574 
2468.000000	59.258627 
2467.000000	59.259581 
2466.000000	59.257125 
2465.000000	59.251141 
2464.000000	59.241628 
2463.000000	59.228372 
2462.000000	59.211397 
2461.000000	59.190654 
2460.000000	59.166765 
2459.000000	59.140849 
2458.000000	59.114718 
2457.000000	59.090757 
2456.000000	59.071612 
2455.000000	59.059333 
2454.000000	59.055590 
2453.000000	59.060883 
2452.000000	59.074807 
2451.000000	59.095954 
2450.000000	59.122180 
2449.000000	59.150958 
2448.000000	59.179759 
2447.000000	59.206032 
2446.000000	59.227633 
2445.000000	59.242868 
2444.000000	59.250569 
2443.000000	59.249973 
2442.000000	59.241127 
2441.000000	59.224843 
2440.000000	59.202933 
2439.000000	59.177994 
2438.000000	59.153413 
2437.000000	59.132599 
2436.000000	59.118866 
2435.000000	59.114265 
2434.000000	59.119462 
2433.000000	59.133172 
2432.000000	59.152221 
2431.000000	59.171962 
2430.000000	59.187483 
2429.000000	59.194159 
2428.000000	59.188866 
2427.000000	59.170532 
2426.000000	59.140658 
2425.000000	59.102702 
2424.000000	59.061694 
2423.000000	59.022450 
2422.000000	58.988857 
2421.000000	58.962678 
2420.000000	58.943557 
2419.000000	58.928871 
2418.000000	58.915019 
2417.000000	58.898448 
2416.000000	58.876729 
2415.000000	58.849692 
2414.000000	58.819437 
2413.000000	58.789873 
2412.000000	58.765602 
2411.000000	58.750438 
2410.000000	58.746433 
2409.000000	58.752942 
2408.000000	58.766674 
2407.000000	58.782482 
2406.000000	58.794569 
2405.000000	58.798217 
2404.000000	58.790826 
2403.000000	58.772420 
2402.000000	58.745932 
2401.000000	58.716106 
2400.000000	58.688545 
2399.000000	58.668231 
2398.000000	58.658432 
2397.000000	58.660244 
2396.000000	58.672475 
2395.000000	58.692407 
2394.000000	58.716416 
2393.000000	58.741044 
2392.000000	58.763217 
2391.000000	58.780932 
2390.000000	58.792972 
2389.000000	58.799099 
2388.000000	58.799600 
2387.000000	58.795285 
2386.000000	58.787345 
2385.000000	58.777260 
2384.000000	58.766746 
2383.000000	58.757567 
2382.000000	58.751416 
2381.000000	58.749532 
2380.000000	58.752608 
2379.000000	58.760523 
2378.000000	58.772301 
2377.000000	58.786487 
2376.000000	58.801245 
2375.000000	58.814668 
2374.000000	58.825159 
2373.000000	58.831572 
2372.000000	58.833312 
2371.000000	58.830404 
2370.000000	58.823394 
2369.000000	58.812904 
2368.000000	58.799791 
2367.000000	58.784890 
2366.000000	58.769154 
2365.000000	58.753347 
2364.000000	58.737826 
2363.000000	58.722615 
2362.000000	58.707594 
2361.000000	58.692526 
2360.000000	58.677291 
2359.000000	58.661866 
2358.000000	58.646559 
2357.000000	58.631920 
2356.000000	58.618760 
2355.000000	58.607697 
2354.000000	58.599090 
2353.000000	58.592724 
2352.000000	58.587789 
2351.000000	58.582949 
2350.000000	58.576583 
2349.000000	58.567333 
2348.000000	58.554506 
2347.000000	58.538079 
2346.000000	58.519148 
2345.000000	58.499622 
2344.000000	58.482074 
2343.000000	58.468794 
2342.000000	58.461713 
2341.000000	58.461809 
2340.000000	58.468937 
2339.000000	58.481907 
2338.000000	58.498740 
2337.000000	58.516860 
2336.000000	58.533763 
2335.000000	58.547377 
2334.000000	58.556056 
2333.000000	58.558964 
2332.000000	58.555912 
2331.000000	58.547377 
2330.000000	58.534502 
2329.000000	58.518552 
2328.000000	58.501195 
2327.000000	58.483886 
2326.000000	58.468031 
2325.000000	58.454275 
2324.000000	58.443021 
2323.000000	58.433771 
2322.000000	58.425736 
2321.000000	58.417820 
2320.000000	58.408975 
2319.000000	58.398699 
2318.000000	58.387160 
2317.000000	58.375382 
2316.000000	58.364915 
2315.000000	58.357620 
2314.000000	58.355093 
2313.000000	58.358335 
2312.000000	58.367371 
2311.000000	58.381152 
2310.000000	58.398103 
2309.000000	58.416247 
2308.000000	58.433508 
2307.000000	58.448290 
2306.000000	58.459448 
2305.000000	58.466339 
2304.000000	58.468675 
2303.000000	58.466339 
2302.000000	58.459234 
2301.000000	58.447504 
2300.000000	58.431339 
2299.000000	58.411383 
2298.000000	58.388662 
2297.000000	58.364892 
2296.000000	58.342051 
2295.000000	58.322310 
2294.000000	58.307313 
2293.000000	58.298015 
2292.000000	58.294367 
2291.000000	58.295249 
2290.000000	58.298754 
2289.000000	58.302521 
2288.000000	58.304357 
2287.000000	58.302688 
2286.000000	58.296847 
2285.000000	58.287215 
2284.000000	58.275055 
2283.000000	58.262109 
2282.000000	58.250284 
2281.000000	58.241081 
2280.000000	58.235216 
2279.000000	58.232665 
2278.000000	58.232617 
2277.000000	58.233833 
2276.000000	58.235239 
2275.000000	58.236217 
2274.000000	58.236503 
2273.000000	58.236479 
2272.000000	58.236885 
2271.000000	58.238506 
2270.000000	58.241724 
2269.000000	58.246421 
2268.000000	58.251905 
2267.000000	58.257055 
2266.000000	58.260583 
2265.000000	58.261227 
2264.000000	58.258152 
2263.000000	58.250975 
2262.000000	58.240127 
2261.000000	58.226442 
2260.000000	58.211231 
2259.000000	58.195924 
2258.000000	58.181786 
2257.000000	58.169913 
2256.000000	58.160877 
2255.000000	58.154773 
2254.000000	58.151292 
2253.000000	58.149600 
2252.000000	58.148550 
2251.000000	58.146858 
2250.000000	58.143305 
2249.000000	58.137106 
2248.000000	58.127808 
2247.000000	58.115577 
2246.000000	58.100962 
2245.000000	58.084821 
2244.000000	58.067870 
2243.000000	58.050775 
2242.000000	58.033823 
2241.000000	58.017206 
2240.000000	58.000898 
2239.000000	57.984948 
2238.000000	57.969689 
2237.000000	57.955551 
2236.000000	57.943248 
2235.000000	57.933497 
2234.000000	57.927131 
2233.000000	57.924652 
2232.000000	57.926392 
2231.000000	57.932114 
2230.000000	57.941055 
2229.000000	57.951784 
2228.000000	57.962489 
2227.000000	57.971239 
2226.000000	57.976150 
2225.000000	57.975673 
2224.000000	57.968926 
2223.000000	57.955932 
2222.000000	57.937669 
2221.000000	57.915878 
2220.000000	57.892704 
2219.000000	57.870411 
2218.000000	57.850885 
2217.000000	57.835364 
2216.000000	57.824158 
2215.000000	57.816815 
2214.000000	57.812333 
2213.000000	57.809424 
2212.000000	57.806873 
2211.000000	57.803750 
2210.000000	57.799243 
2209.000000	57.792997 
2208.000000	57.784843 
2207.000000	57.775115 
2206.000000	57.764244 
2205.000000	57.753252 
2204.000000	57.743382 
2203.000000	57.736110 
2202.000000	57.732748 
2201.000000	57.734155 
2200.000000	57.740449 
2199.000000	57.750535 
2198.000000	57.762336 
2197.000000	57.772946 
2196.000000	57.779192 
2195.000000	57.778048 
2194.000000	57.767462 
2193.000000	57.746791 
2192.000000	57.716941 
2191.000000	57.680392 
2190.000000	57.640552 
2189.000000	57.601332 
2188.000000	57.566380 
2187.000000	57.538580 
2186.000000	57.519769 
2185.000000	57.510662 
2184.000000	57.510900 
2183.000000	57.519245 
2182.000000	57.533693 
2181.000000	57.551884 
2180.000000	57.571077 
2179.000000	57.588505 
2178.000000	57.601571 
2177.000000	57.608079 
2176.000000	57.606983 
2175.000000	57.598662 
2174.000000	57.585096 
2173.000000	57.569575 
2172.000000	57.556295 
2171.000000	57.549524 
2170.000000	57.552504 
2169.000000	57.566332 
2168.000000	57.589745 
2167.000000	57.618975 
2166.000000	57.648444 
2165.000000	57.672333 
2164.000000	57.685852 
2163.000000	57.686638 
2162.000000	57.675313 
2161.000000	57.655620 
2160.000000	57.633209 
2159.000000	57.614278 
2158.000000	57.604217 
2157.000000	57.605934 
2156.000000	57.619452 
2155.000000	57.641577 
2154.000000	57.667303 
2153.000000	57.690525 
2152.000000	57.705807 
2151.000000	57.709193 
2150.000000	57.699155 
2149.000000	57.676482 
2148.000000	57.643818 
2147.000000	57.604861 
2146.000000	57.563424 
2145.000000	57.523036 
2144.000000	57.486367 
2143.000000	57.455229 
2142.000000	57.430338 
2141.000000	57.411623 
2140.000000	57.398390 
2139.000000	57.389402 
2138.000000	57.383131 
2137.000000	57.378220 
2136.000000	57.373428 
2135.000000	57.367944 
2134.000000	57.361197 
2133.000000	57.353019 
2132.000000	57.343578 
2131.000000	57.333064 
2130.000000	57.321834 
2129.000000	57.310271 
2128.000000	57.298970 
2127.000000	57.288718 
2126.000000	57.280540 
2125.000000	57.275366 
2124.000000	57.274007 
2123.000000	57.276892 
2122.000000	57.283544 
2121.000000	57.292628 
2120.000000	57.301902 
2119.000000	57.308697 
2118.000000	57.310581 
2117.000000	57.305788 
2116.000000	57.293915 
2115.000000	57.276082 
2114.000000	57.254433 
2113.000000	57.231760 
2112.000000	57.210707 
2111.000000	57.193446 
2110.000000	57.181096 
2109.000000	57.174134 
2108.000000	57.172203 
2107.000000	57.174730 
2106.000000	57.181191 
2105.000000	57.191085 
2104.000000	57.204079 
2103.000000	57.219791 
2102.000000	57.237625 
2101.000000	57.256531 
2100.000000	57.274770 
2099.000000	57.290220 
2098.000000	57.300901 
2097.000000	57.305526 
2096.000000	57.303833 
2095.000000	57.296895 
2094.000000	57.286930 
2093.000000	57.277059 
2092.000000	57.270407 
2091.000000	57.269716 
2090.000000	57.276344 
2089.000000	57.290029 
2088.000000	57.308721 
2087.000000	57.329225 
2086.000000	57.347893 
2085.000000	57.361459 
2084.000000	57.367849 
2083.000000	57.366895 
2082.000000	57.359790 
2081.000000	57.349276 
2080.000000	57.337880 
2079.000000	57.327342 
2078.000000	57.317519 
2077.000000	57.306575 
2076.000000	57.291293 
2075.000000	57.268190 
2074.000000	57.234930 
2073.000000	57.191371 
2072.000000	57.140207 
2071.000000	57.086873 
2070.000000	57.038187 
2069.000000	57.000708 
2068.000000	56.979131 
2067.000000	56.974983 
2066.000000	56.985783 
2065.000000	57.005786 
2064.000000	57.027411 
2063.000000	57.043051 
2062.000000	57.047176 
2061.000000	57.037448 
2060.000000	57.015180 
2059.000000	56.985116 
2058.000000	56.953382 
2057.000000	56.926274 
2056.000000	56.908631 
2055.000000	56.902933 
2054.000000	56.908631 
2053.000000	56.922864 
2052.000000	56.941390 
2051.000000	56.960010 
2050.000000	56.975340 
2049.000000	56.985735 
2048.000000	56.991052 
2047.000000	56.992506 
2046.000000	56.991815 
2045.000000	56.990623 
2044.000000	56.989574 
2043.000000	56.988501 
2042.000000	56.986641 
2041.000000	56.982994 
2040.000000	56.976866 
2039.000000	56.968331 
2038.000000	56.958389 
2037.000000	56.948518 
2036.000000	56.940102 
2035.000000	56.933951 
2034.000000	56.929731 
2033.000000	56.925964 
2032.000000	56.920266 
2031.000000	56.909751 
2030.000000	56.892085 
2029.000000	56.865882 
2028.000000	56.831574 
2027.000000	56.791257 
2026.000000	56.748628 
2025.000000	56.707811 
2024.000000	56.673049 
2023.000000	56.647300 
2022.000000	56.632351 
2021.000000	56.628155 
2020.000000	56.633329 
2019.000000	56.645202 
2018.000000	56.660866 
2017.000000	56.677675 
2016.000000	56.693792 
2015.000000	56.708025 
2014.000000	56.720232 
2013.000000	56.730651 
2012.000000	56.739568 
2011.000000	56.746912 
2010.000000	56.751942 
2009.000000	56.753349 
2008.000000	56.749486 
2007.000000	56.739068 
2006.000000	56.721806 
2005.000000	56.698656 
2004.000000	56.672239 
2003.000000	56.646227 
2002.000000	56.624555 
2001.000000	56.610512 
2000.000000	56.605839 
1999.000000	56.610417 
1998.000000	56.621885 
1997.000000	56.636404 
1996.000000	56.649684 
1995.000000	56.657910 
1994.000000	56.658816 
1993.000000	56.652235 
1992.000000	56.640076 
1991.000000	56.625604 
1990.000000	56.612324 
1989.000000	56.602978 
1988.000000	56.598687 
1987.000000	56.598806 
1986.000000	56.601262 
1985.000000	56.603074 
1984.000000	56.601381 
1983.000000	56.594252 
1982.000000	56.581449 
1981.000000	56.564140 
1980.000000	56.544923 
1979.000000	56.526875 
1978.000000	56.512808 
1977.000000	56.504917 
1976.000000	56.504082 
1975.000000	56.509757 
1974.000000	56.520199 
1973.000000	56.533169 
1972.000000	56.546068 
1971.000000	56.556797 
1970.000000	56.563758 
1969.000000	56.566238 
1968.000000	56.564354 
1967.000000	56.558799 
1966.000000	56.550526 
1965.000000	56.540489 
1964.000000	56.529307 
1963.000000	56.517171 
1962.000000	56.503629 
1961.000000	56.488060 
1960.000000	56.469774 
1959.000000	56.448578 
1958.000000	56.424832 
1957.000000	56.399822 
1956.000000	56.375575 
1955.000000	56.354522 
1954.000000	56.339216 
1953.000000	56.331706 
1952.000000	56.333136 
1951.000000	56.343293 
1950.000000	56.360960 
1949.000000	56.383705 
1948.000000	56.408238 
1947.000000	56.431102 
1946.000000	56.449198 
1945.000000	56.460261 
1944.000000	56.463074 
1943.000000	56.457805 
1942.000000	56.445574 
1941.000000	56.428289 
1940.000000	56.408381 
1939.000000	56.388068 
1938.000000	56.369161 
1937.000000	56.352686 
1936.000000	56.339144 
1935.000000	56.328344 
1934.000000	56.319761 
1933.000000	56.312775 
1932.000000	56.306815 
1931.000000	56.301617 
1930.000000	56.297254 
1929.000000	56.294012 
1928.000000	56.292271 
1927.000000	56.292366 
1926.000000	56.294584 
1925.000000	56.298851 
1924.000000	56.304907 
1923.000000	56.312298 
1922.000000	56.320548 
1921.000000	56.329131 
1920.000000	56.337380 
1919.000000	56.344747 
1918.000000	56.350374 
1917.000000	56.353497 
1916.000000	56.353163 
1915.000000	56.348443 
1914.000000	56.338429 
1913.000000	56.322646 
1912.000000	56.301164 
1911.000000	56.274652 
1910.000000	56.244659 
1909.000000	56.213402 
1908.000000	56.183505 
1907.000000	56.157541 
1906.000000	56.137585 
1905.000000	56.124758 
1904.000000	56.119108 
1903.000000	56.119608 
1902.000000	56.124353 
1901.000000	56.131100 
1900.000000	56.137537 
1899.000000	56.141972 
1898.000000	56.143093 
1897.000000	56.140542 
1896.000000	56.134247 
1895.000000	56.124615 
1894.000000	56.112122 
1893.000000	56.097364 
1892.000000	56.081104 
1891.000000	56.063866 
1890.000000	56.046700 
1889.000000	56.030392 
1888.000000	56.015920 
1887.000000	56.003832 
1886.000000	55.994153 
1885.000000	55.986261 
1884.000000	55.978941 
1883.000000	55.970859 
1882.000000	55.960845 
1881.000000	55.948591 
1880.000000	55.934524 
1879.000000	55.920100 
1878.000000	55.907106 
1877.000000	55.897402 
1876.000000	55.892276 
1875.000000	55.891871 
1874.000000	55.895161 
1873.000000	55.900168 
1872.000000	55.904507 
1871.000000	55.905795 
1870.000000	55.902671 
1869.000000	55.894732 
1868.000000	55.882716 
1867.000000	55.868363 
1866.000000	55.853939 
1865.000000	55.841445 
1864.000000	55.832290 
1863.000000	55.826830 
1862.000000	55.824589 
1861.000000	55.824518 
1860.000000	55.825161 
1859.000000	55.825138 
1858.000000	55.823397 
1857.000000	55.819439 
1856.000000	55.813503 
1855.000000	55.806231 
1854.000000	55.798578 
1853.000000	55.791664 
1852.000000	55.786466 
1851.000000	55.783629 
1850.000000	55.783367 
1849.000000	55.785274 
1848.000000	55.788278 
1847.000000	55.790686 
1846.000000	55.790448 
1845.000000	55.785417 
1844.000000	55.773806 
1843.000000	55.754566 
1842.000000	55.727815 
1841.000000	55.695247 
1840.000000	55.659699 
1839.000000	55.625295 
1838.000000	55.596113 
1837.000000	55.576014 
1836.000000	55.567431 
1835.000000	55.571222 
1834.000000	55.586314 
1833.000000	55.609750 
1832.000000	55.637454 
1831.000000	55.664992 
1830.000000	55.688524 
1829.000000	55.705308 
1828.000000	55.714225 
1827.000000	55.715656 
1826.000000	55.711269 
1825.000000	55.703186 
1824.000000	55.693578 
1823.000000	55.684018 
1822.000000	55.675315 
1821.000000	55.667471 
1820.000000	55.660009 
1819.000000	55.652403 
1818.000000	55.644083 
1817.000000	55.634856 
1816.000000	55.624890 
1815.000000	55.614304 
1814.000000	55.603337 
1813.000000	55.591893 
1812.000000	55.579710 
1811.000000	55.566334 
1810.000000	55.551648 
1809.000000	55.535578 
1808.000000	55.518865 
1807.000000	55.502700 
1806.000000	55.488967 
1805.000000	55.479502 
1804.000000	55.475974 
1803.000000	55.479311 
1802.000000	55.489706 
1801.000000	55.506229 
1800.000000	55.527019 
1799.000000	55.549335 
1798.000000	55.570244 
1797.000000	55.586957 
1796.000000	55.597281 
1795.000000	55.599856 
1794.000000	55.594420 
1793.000000	55.581784 
1792.000000	55.563664 
1791.000000	55.542349 
1790.000000	55.520343 
1789.000000	55.500006 
1788.000000	55.483102 
1787.000000	55.470776 
1786.000000	55.463385 
1785.000000	55.460810 
1784.000000	55.462217 
1783.000000	55.467009 
1782.000000	55.474376 
1781.000000	55.484080 
1780.000000	55.495667 
1779.000000	55.508756 
1778.000000	55.522680 
1777.000000	55.536198 
1776.000000	55.547547 
1775.000000	55.554819 
1774.000000	55.556249 
1773.000000	55.550599 
1772.000000	55.537748 
1771.000000	55.518722 
1770.000000	55.495977 
1769.000000	55.472612 
1768.000000	55.451965 
1767.000000	55.436730 
1766.000000	55.428314 
1765.000000	55.426764 
1764.000000	55.430603 
1763.000000	55.437183 
1762.000000	55.443501 
1761.000000	55.446863 
1760.000000	55.445170 
1759.000000	55.437326 
1758.000000	55.423283 
1757.000000	55.403661 
1756.000000	55.379867 
1755.000000	55.353641 
1754.000000	55.326914 
1753.000000	55.301642 
1752.000000	55.279564 
1751.000000	55.261850 
1750.000000	55.249071 
1749.000000	55.241155 
1748.000000	55.237126 
1747.000000	55.235505 
1746.000000	55.234432 
1745.000000	55.232048 
1744.000000	55.227255 
1743.000000	55.219841 
1742.000000	55.210661 
1741.000000	55.201220 
1740.000000	55.193448 
1739.000000	55.189013 
1738.000000	55.188941 
1737.000000	55.193114 
1736.000000	55.200409 
1735.000000	55.208683 
1734.000000	55.215525 
1733.000000	55.218529 
1732.000000	55.215501 
1731.000000	55.205106 
1730.000000	55.186891 
1729.000000	55.161905 
1728.000000	55.132389 
1727.000000	55.102109 
1726.000000	55.075430 
1725.000000	55.057191 
1724.000000	55.051469 
1723.000000	55.060791 
1722.000000	55.085492 
1721.000000	55.122900 
1720.000000	55.167794 
1719.000000	55.212855 
1718.000000	55.250263 
1717.000000	55.273270 
1716.000000	55.277514 
1715.000000	55.262160 
1714.000000	55.229926 
1713.000000	55.186557 
1712.000000	55.139470 
1711.000000	55.096101 
1710.000000	55.062317 
1709.000000	55.041885 
1708.000000	55.035591 
1707.000000	55.042195 
1706.000000	55.058407 
1705.000000	55.080223 
1704.000000	55.103373 
1703.000000	55.123996 
1702.000000	55.139207 
1701.000000	55.146956 
1700.000000	55.146503 
1699.000000	55.137562 
1698.000000	55.121016 
1697.000000	55.098438 
1696.000000	55.072379 
1695.000000	55.045986 
1694.000000	55.022764 
1693.000000	55.006170 
1692.000000	54.998850 
1691.000000	55.002164 
1690.000000	55.015444 
1689.000000	55.035901 
1688.000000	55.058956 
1687.000000	55.079102 
1686.000000	55.090975 
1685.000000	55.090594 
1684.000000	55.076217 
1683.000000	55.048942 
1682.000000	55.012297 
1681.000000	54.971528 
1680.000000	54.932546 
1679.000000	54.900312 
1678.000000	54.878354 
1677.000000	54.867362 
1676.000000	54.865860 
1675.000000	54.870247 
1674.000000	54.876399 
1673.000000	54.880166 
1672.000000	54.878234 
1671.000000	54.868865 
1670.000000	54.851984 
1669.000000	54.829263 
1668.000000	54.802918 
1667.000000	54.776120 
1666.000000	54.751801 
1665.000000	54.733014 
1664.000000	54.722261 
1663.000000	54.721808 
1662.000000	54.733490 
1661.000000	54.758334 
1660.000000	54.796171 
1659.000000	54.845261 
1658.000000	54.902076 
1657.000000	54.961371 
1656.000000	55.016589 
1655.000000	55.061173 
1654.000000	55.089259 
1653.000000	55.097126 
1652.000000	55.083227 
1651.000000	55.048894 
1650.000000	54.997587 
1649.000000	54.934573 
1648.000000	54.865789 
1647.000000	54.796886 
1646.000000	54.732584 
1645.000000	54.676413 
1644.000000	54.630541 
1643.000000	54.596138 
1642.000000	54.572963 
1641.000000	54.560065 
1640.000000	54.555392 
1639.000000	54.556107 
1638.000000	54.558753 
1637.000000	54.559445 
1636.000000	54.554939 
1635.000000	54.543042 
1634.000000	54.523277 
1633.000000	54.496741 
1632.000000	54.466247 
1631.000000	54.435515 
1630.000000	54.408073 
1629.000000	54.386782 
1628.000000	54.373311 
1627.000000	54.368019 
1626.000000	54.369926 
1625.000000	54.377150 
1624.000000	54.387640 
1623.000000	54.399323 
1622.000000	54.410433 
1621.000000	54.419493 
1620.000000	54.424929 
1619.000000	54.425621 
1618.000000	54.420375 
1617.000000	54.408740 
1616.000000	54.390621 
1615.000000	54.367017 
1614.000000	54.340410 
1613.000000	54.313778 
1612.000000	54.290342 
1611.000000	54.272627 
1610.000000	54.262113 
1609.000000	54.258489 
1608.000000	54.259777 
1607.000000	54.262614 
1606.000000	54.263353 
1605.000000	54.258847 
1604.000000	54.247403 
1603.000000	54.228949 
1602.000000	54.205513 
1601.000000	54.180145 
1600.000000	54.156684 
1599.000000	54.138517 
1598.000000	54.128098 
1597.000000	54.126429 
1596.000000	54.132890 
1595.000000	54.146027 
1594.000000	54.163527 
1593.000000	54.182910 
1592.000000	54.201912 
1591.000000	54.218673 
1590.000000	54.232192 
1589.000000	54.241895 
1588.000000	54.247975 
1587.000000	54.250812 
1586.000000	54.251265 
1585.000000	54.250264 
1584.000000	54.248738 
1583.000000	54.247665 
1582.000000	54.247450 
1581.000000	54.248070 
1580.000000	54.248809 
1579.000000	54.248619 
1578.000000	54.246377 
1577.000000	54.241037 
1576.000000	54.232001 
1575.000000	54.219317 
1574.000000	54.203701 
1573.000000	54.186367 
1572.000000	54.168844 
1571.000000	54.153180 
1570.000000	54.141569 
1569.000000	54.136300 
1568.000000	54.139399 
1567.000000	54.152059 
1566.000000	54.174304 
1565.000000	54.204773 
1564.000000	54.240322 
1563.000000	54.276633 
1562.000000	54.308700 
1561.000000	54.331994 
1560.000000	54.342937 
1559.000000	54.339885 
1558.000000	54.323601 
1557.000000	54.296779 
1556.000000	54.263520 
1555.000000	54.228019 
1554.000000	54.193687 
1553.000000	54.162597 
1552.000000	54.135346 
1551.000000	54.111862 
1550.000000	54.091882 
1549.000000	54.075789 
1548.000000	54.064631 
1547.000000	54.059934 
1546.000000	54.062962 
1545.000000	54.073762 
1544.000000	54.090857 
1543.000000	54.110813 
1542.000000	54.129099 
1541.000000	54.140925 
1540.000000	54.142284 
1539.000000	54.130625 
1538.000000	54.105710 
1537.000000	54.069519 
1536.000000	54.025864 
1535.000000	53.979825 
1534.000000	53.936767 
1533.000000	53.901052 
1532.000000	53.876090 
1531.000000	53.864192 
1530.000000	53.866028 
1529.000000	53.880834 
1528.000000	53.906273 
1527.000000	53.939056 
1526.000000	53.974604 
1525.000000	54.007673 
1524.000000	54.032993 
1523.000000	54.046130 
1522.000000	54.044318 
1521.000000	54.027271 
1520.000000	53.997182 
1519.000000	53.958678 
1518.000000	53.917884 
1517.000000	53.881549 
1516.000000	53.856062 
1515.000000	53.845834 
1514.000000	53.853034 
1513.000000	53.876280 
1512.000000	53.911542 
1511.000000	53.952050 
1510.000000	53.990054 
1509.000000	54.017829 
1508.000000	54.029345 
1507.000000	54.021239 
1506.000000	53.993272 
1505.000000	53.947949 
1504.000000	53.889822 
1503.000000	53.824734 
1502.000000	53.758740 
1501.000000	53.697609 
1500.000000	53.646135 
1499.000000	53.607773 
1498.000000	53.584623 
1497.000000	53.577208 
1496.000000	53.584456 
1495.000000	53.603410 
1494.000000	53.629875 
1493.000000	53.658723 
1492.000000	53.684902 
1491.000000	53.703904 
1490.000000	53.712821 
1489.000000	53.710484 
1488.000000	53.697872 
1487.000000	53.677630 
1486.000000	53.653264 
1485.000000	53.628563 
1484.000000	53.606534 
1483.000000	53.589057 
1482.000000	53.576731 
1481.000000	53.569078 
1480.000000	53.564882 
1479.000000	53.562974 
1478.000000	53.562259 
1477.000000	53.562140 
1476.000000	53.562211 
1475.000000	53.561902 
1474.000000	53.560423 
1473.000000	53.556561 
1472.000000	53.549003 
1471.000000	53.536581 
1470.000000	53.518557 
1469.000000	53.495216 
1468.000000	53.468155 
1467.000000	53.440356 
1466.000000	53.415703 
1465.000000	53.398251 
1464.000000	53.391218 
1463.000000	53.396081 
1462.000000	53.412246 
1461.000000	53.436756 
1460.000000	53.464603 
1459.000000	53.489971 
1458.000000	53.507542 
1457.000000	53.513646 
1456.000000	53.507018 
1455.000000	53.489136 
1454.000000	53.463745 
1453.000000	53.435945 
1452.000000	53.410959 
1451.000000	53.392529 
1450.000000	53.382182 
1449.000000	53.378844 
1448.000000	53.379535 
1447.000000	53.380489 
1446.000000	53.378295 
1445.000000	53.370952 
1444.000000	53.358268 
1443.000000	53.341388 
1442.000000	53.322196 
1441.000000	53.302216 
1440.000000	53.282070 
1439.000000	53.261375 
1438.000000	53.238630 
1437.000000	53.212428 
1436.000000	53.181576 
1435.000000	53.145813 
1434.000000	53.105974 
1433.000000	53.063774 
1432.000000	53.021836 
1431.000000	52.982711 
1430.000000	52.949047 
1429.000000	52.922654 
1428.000000	52.904891 
1427.000000	52.896380 
1426.000000	52.897119 
1425.000000	52.906394 
1424.000000	52.922773 
1423.000000	52.944135 
1422.000000	52.967882 
1421.000000	52.990961 
1420.000000	53.010535 
1419.000000	53.024077 
1418.000000	53.030133 
1417.000000	53.028416 
1416.000000	53.019452 
1415.000000	53.004503 
1414.000000	52.985143 
1413.000000	52.962875 
1412.000000	52.939033 
1411.000000	52.914619 
1410.000000	52.890729 
1409.000000	52.868556 
1408.000000	52.849435 
1407.000000	52.834677 
1406.000000	52.825546 
1405.000000	52.822732 
1404.000000	52.826237 
1403.000000	52.835083 
1402.000000	52.847456 
1401.000000	52.861118 
1400.000000	52.873682 
1399.000000	52.883362 
1398.000000	52.889251 
1397.000000	52.891206 
1396.000000	52.889776 
1395.000000	52.885770 
1394.000000	52.879881 
1393.000000	52.872538 
1392.000000	52.863597 
1391.000000	52.852630 
1390.000000	52.839088 
1389.000000	52.822947 
1388.000000	52.804732 
1387.000000	52.785563 
1386.000000	52.767086 
1385.000000	52.750921 
1384.000000	52.738523 
1383.000000	52.730488 
1382.000000	52.726674 
1381.000000	52.726006 
1380.000000	52.726864 
1379.000000	52.727484 
1378.000000	52.726387 
1377.000000	52.722430 
1376.000000	52.715349 
1375.000000	52.705383 
1374.000000	52.693486 
1373.000000	52.680969 
1372.000000	52.669429 
1371.000000	52.660155 
1370.000000	52.654075 
1369.000000	52.651572 
1368.000000	52.652168 
1367.000000	52.654790 
1366.000000	52.657723 
1365.000000	52.658939 
1364.000000	52.656602 
1363.000000	52.649402 
1362.000000	52.636837 
1361.000000	52.619433 
1360.000000	52.598810 
1359.000000	52.577161 
1358.000000	52.556872 
1357.000000	52.539825 
1356.000000	52.527236 
1355.000000	52.519321 
1354.000000	52.515554 
1353.000000	52.514743 
1352.000000	52.515649 
1351.000000	52.517104 
1350.000000	52.518129 
1349.000000	52.518105 
1348.000000	52.516508 
1347.000000	52.512979 
1346.000000	52.507162 
1345.000000	52.498745 
1344.000000	52.487492 
1343.000000	52.473664 
1342.000000	52.457976 
1341.000000	52.441692 
1340.000000	52.426505 
1339.000000	52.414059 
1338.000000	52.405714 
1337.000000	52.402210 
1336.000000	52.403426 
1335.000000	52.408504 
1334.000000	52.416038 
1333.000000	52.424478 
1332.000000	52.432346 
1331.000000	52.438402 
1330.000000	52.441930 
1329.000000	52.442598 
1328.000000	52.440428 
1327.000000	52.435684 
1326.000000	52.428865 
1325.000000	52.420663 
1324.000000	52.411770 
1323.000000	52.402973 
1322.000000	52.394700 
1321.000000	52.387499 
1320.000000	52.381300 
1319.000000	52.375793 
1318.000000	52.370190 
1317.000000	52.363371 
1316.000000	52.354288 
1315.000000	52.342152 
1314.000000	52.326512 
1313.000000	52.307534 
1312.000000	52.286148 
1311.000000	52.263808 
1310.000000	52.242136 
1309.000000	52.222585 
1308.000000	52.206230 
1307.000000	52.193593 
1306.000000	52.184319 
1305.000000	52.177548 
1304.000000	52.171969 
1303.000000	52.166342 
1302.000000	52.159547 
1301.000000	52.151083 
1300.000000	52.140951 
1299.000000	52.130246 
1298.000000	52.120161 
1297.000000	52.112412 
1296.000000	52.108621 
1295.000000	52.110075 
1294.000000	52.117300 
1293.000000	52.129864 
1292.000000	52.146506 
1291.000000	52.164793 
1290.000000	52.181887 
1289.000000	52.194666 
1288.000000	52.200293 
1287.000000	52.196717 
1286.000000	52.183103 
1285.000000	52.160000 
1284.000000	52.129077 
1283.000000	52.092933 
1282.000000	52.054572 
1281.000000	52.016901 
1280.000000	51.982069 
1279.000000	51.951313 
1278.000000	51.924991 
1277.000000	51.902604 
1276.000000	51.883387 
1275.000000	51.866650 
1274.000000	51.852154 
1273.000000	51.840472 
1272.000000	51.832699 
1271.000000	51.830005 
1270.000000	51.833248 
1269.000000	51.842355 
1268.000000	51.856136 
1267.000000	51.872348 
1266.000000	51.888227 
1265.000000	51.900935 
1264.000000	51.908540 
1263.000000	51.910305 
1262.000000	51.906895 
1261.000000	51.900291 
1260.000000	51.892971 
1259.000000	51.887202 
1258.000000	51.884531 
1257.000000	51.885318 
1256.000000	51.888656 
1255.000000	51.892709 
1254.000000	51.895260 
1253.000000	51.894164 
1252.000000	51.888036 
1251.000000	51.876449 
1250.000000	51.859593 
1249.000000	51.838254 
1248.000000	51.813268 
1247.000000	51.785707 
1246.000000	51.756358 
1245.000000	51.726126 
1244.000000	51.696300 
1243.000000	51.668453 
1242.000000	51.644492 
1241.000000	51.626539 
1240.000000	51.616358 
1239.000000	51.615023 
1238.000000	51.622343 
1237.000000	51.636862 
1236.000000	51.655745 
1235.000000	51.675319 
1234.000000	51.691627 
1233.000000	51.701259 
1232.000000	51.702046 
1231.000000	51.693511 
1230.000000	51.676988 
1229.000000	51.655340 
1228.000000	51.632332 
1227.000000	51.611590 
1226.000000	51.596021 
1225.000000	51.587104 
1224.000000	51.584768 
1223.000000	51.587390 
1222.000000	51.592493 
1221.000000	51.597285 
1220.000000	51.599669 
1219.000000	51.598429 
1218.000000	51.593565 
1217.000000	51.586174 
1216.000000	51.577901 
1215.000000	51.570224 
1214.000000	51.564192 
1213.000000	51.559948 
1212.000000	51.556992 
1211.000000	51.554298 
1210.000000	51.550793 
1209.000000	51.545882 
1208.000000	51.539468 
1207.000000	51.532030 
1206.000000	51.524281 
1205.000000	51.516795 
1204.000000	51.509690 
1203.000000	51.502561 
1202.000000	51.494503 
1201.000000	51.484465 
1200.000000	51.471805 
1199.000000	51.456594 
1198.000000	51.439714 
1197.000000	51.422953 
1196.000000	51.408123 
1195.000000	51.396703 
1194.000000	51.389288 
1193.000000	51.385450 
1192.000000	51.383852 
1191.000000	51.382517 
1190.000000	51.379466 
1189.000000	51.373457 
1188.000000	51.364159 
1187.000000	51.352357 
1186.000000	51.339626 
1185.000000	51.327848 
1184.000000	51.318764 
1183.000000	51.313495 
1182.000000	51.312327 
1181.000000	51.314640 
1180.000000	51.319098 
1179.000000	51.324009 
1178.000000	51.327800 
1177.000000	51.329326 
1176.000000	51.328301 
1175.000000	51.324820 
1174.000000	51.319670 
1173.000000	51.313686 
1172.000000	51.307749 
1171.000000	51.302528 
1170.000000	51.298403 
1169.000000	51.295328 
1168.000000	51.292920 
1167.000000	51.290655 
1166.000000	51.287913 
1165.000000	51.284074 
1164.000000	51.278519 
1163.000000	51.270818 
1162.000000	51.260924 
1161.000000	51.249170 
1160.000000	51.236510 
1159.000000	51.224350 
1158.000000	51.214337 
1157.000000	51.208376 
1156.000000	51.207709 
1155.000000	51.212811 
1154.000000	51.222920 
1153.000000	51.236128 
1152.000000	51.249456 
1151.000000	51.259374 
1150.000000	51.262593 
1149.000000	51.256775 
1148.000000	51.241254 
1147.000000	51.217198 
1146.000000	51.187634 
1145.000000	51.156926 
1144.000000	51.129674 
1143.000000	51.109600 
1142.000000	51.099085 
1141.000000	51.098179 
1140.000000	51.104950 
1139.000000	51.115822 
1138.000000	51.126623 
1137.000000	51.133513 
1136.000000	51.134014 
1135.000000	51.127171 
1134.000000	51.113843 
1133.000000	51.095890 
1132.000000	51.075744 
1131.000000	51.055455 
1130.000000	51.036047 
1129.000000	51.017570 
1128.000000	50.999259 
1127.000000	50.980257 
1126.000000	50.960397 
1125.000000	50.940299 
1124.000000	50.921559 
1123.000000	50.906085 
1122.000000	50.895214 
1121.000000	50.889039 
1120.000000	50.886058 
1119.000000	50.883126 
1118.000000	50.876283 
1117.000000	50.861811 
1116.000000	50.837063 
1115.000000	50.801634 
1114.000000	50.757598 
1113.000000	50.709056 
1112.000000	50.661516 
1111.000000	50.620508 
1110.000000	50.590753 
1109.000000	50.574851 
1108.000000	50.573277 
1107.000000	50.584769 
1106.000000	50.606322 
1105.000000	50.634217 
1104.000000	50.664305 
1103.000000	50.692415 
1102.000000	50.715208 
1101.000000	50.729894 
1100.000000	50.735235 
1099.000000	50.731158 
1098.000000	50.719380 
1097.000000	50.702881 
1096.000000	50.685405 
1095.000000	50.670599 
1094.000000	50.661015 
1093.000000	50.657820 
1092.000000	50.660014 
1091.000000	50.664949 
1090.000000	50.669002 
1089.000000	50.668597 
1088.000000	50.661253 
1087.000000	50.646138 
1086.000000	50.624346 
1085.000000	50.598549 
1084.000000	50.571656 
1083.000000	50.546097 
1082.000000	50.523018 
1081.000000	50.502395 
1080.000000	50.483012 
1079.000000	50.463557 
1078.000000	50.443458 
1077.000000	50.423192 
1076.000000	50.404429 
1075.000000	50.389528 
1074.000000	50.380563 
1073.000000	50.378918 
1072.000000	50.384593 
1071.000000	50.396060 
1070.000000	50.410485 
1069.000000	50.424695 
1068.000000	50.435996 
1067.000000	50.442767 
1066.000000	50.444698 
1065.000000	50.442838 
1064.000000	50.439023 
1063.000000	50.435185 
1062.000000	50.432801 
1061.000000	50.432634 
1060.000000	50.434732 
1059.000000	50.438618 
1058.000000	50.443506 
1057.000000	50.448608 
1056.000000	50.453209 
1055.000000	50.456714 
1054.000000	50.458574 
1053.000000	50.457954 
1052.000000	50.454092 
1051.000000	50.446248 
1050.000000	50.434160 
1049.000000	50.418162 
1048.000000	50.399160 
1047.000000	50.378727 
1046.000000	50.358796 
1045.000000	50.341296 
1044.000000	50.327420 
1043.000000	50.317335 
1042.000000	50.310111 
1041.000000	50.304079 
1040.000000	50.296974 
1039.000000	50.286817 
1038.000000	50.272464 
1037.000000	50.254106 
1036.000000	50.233030 
1035.000000	50.211453 
1034.000000	50.192141 
1033.000000	50.177860 
1032.000000	50.170755 
1031.000000	50.172019 
1030.000000	50.182008 
1029.000000	50.200152 
1028.000000	50.225257 
1027.000000	50.255203 
1026.000000	50.287795 
1025.000000	50.319910 
1024.000000	50.348281 
1023.000000	50.369095 
1022.000000	50.378823 
1021.000000	50.374579 
1020.000000	50.354814 
1019.000000	50.319790 
1018.000000	50.271677 
1017.000000	50.214409 
1016.000000	50.153589 
1015.000000	50.094771 
1014.000000	50.042843 
1013.000000	50.000858 
1012.000000	49.969840 
1011.000000	49.948859 
1010.000000	49.935626 
1009.000000	49.927091 
1008.000000	49.920701 
1007.000000	49.914884 
1006.000000	49.909543 
1005.000000	49.905467 
1004.000000	49.904012 
1003.000000	49.906349 
1002.000000	49.912810 
1001.000000	49.922418 
1000.000000	49.932789 
999.000000	 49.940729 
998.000000	 49.943113 
997.000000	 49.937343 
996.000000	 49.922823 
995.000000	 49.900937 
994.000000	 49.875354 
993.000000	 49.850773 
992.000000	 49.832582 
991.000000	 49.825215 
990.000000	 49.831533 
989.000000	 49.851751 
988.000000	 49.883341 
987.000000	 49.921393 
986.000000	 49.959754 
985.000000	 49.992370 
984.000000	 50.014066 
983.000000	 50.021529 
982.000000	 50.013828 
981.000000	 49.992227 
980.000000	 49.959373 
979.000000	 49.918580 
978.000000	 49.873208 
977.000000	 49.826169 
976.000000	 49.780082 
975.000000	 49.736738 
974.000000	 49.697947 
973.000000	 49.664926 
972.000000	 49.638628 
971.000000	 49.619054 
970.000000	 49.605178 
969.000000	 49.595022 
968.000000	 49.585413 
967.000000	 49.573397 
966.000000	 49.556112 
965.000000	 49.532485 
964.000000	 49.503540 
963.000000	 49.472522 
962.000000	 49.443912 
961.000000	 49.422550 
960.000000	 49.412274 
959.000000	 49.414467 
958.000000	 49.427747 
957.000000	 49.447941 
956.000000	 49.469399 
955.000000	 49.486136 
954.000000	 49.493455 
953.000000	 49.489021 
952.000000	 49.473643 
951.000000	 49.450278 
950.000000	 49.423432 
949.000000	 49.397635 
948.000000	 49.376320 
947.000000	 49.361133 
946.000000	 49.351882 
945.000000	 49.346733 
944.000000	 49.343347 
943.000000	 49.339866 
942.000000	 49.335169 
941.000000	 49.329090 
940.000000	 49.321961 
939.000000	 49.314141 
938.000000	 49.305486 
937.000000	 49.294948 
936.000000	 49.280929 
935.000000	 49.261832 
934.000000	 49.236488 
933.000000	 49.204659 
932.000000	 49.167823 
931.000000	 49.128842 
930.000000	 49.091529 
929.000000	 49.059462 
928.000000	 49.035358 
927.000000	 49.020409 
926.000000	 49.013805 
925.000000	 49.013280 
924.000000	 49.015641 
923.000000	 49.017620 
922.000000	 49.016833 
921.000000	 49.012160 
920.000000	 49.004173 
919.000000	 48.994445 
918.000000	 48.984766 
917.000000	 48.976325 
916.000000	 48.969364 
915.000000	 48.962736 
914.000000	 48.954129 
913.000000	 48.940992 
912.000000	 48.921251 
911.000000	 48.895287 
910.000000	 48.866152 
909.000000	 48.839592 
908.000000	 48.822593 
907.000000	 48.821878 
906.000000	 48.841762 
905.000000	 48.882818 
904.000000	 48.941183 
903.000000	 49.008989 
902.000000	 49.076175 
901.000000	 49.132657 
900.000000	 49.170875 
899.000000	 49.187064 
898.000000	 49.182200 
897.000000	 49.161577 
896.000000	 49.133443 
895.000000	 49.106884 
894.000000	 49.089694 
893.000000	 49.087262 
892.000000	 49.100875 
891.000000	 49.128627 
890.000000	 49.164700 
889.000000	 49.202084 
888.000000	 49.232411 
887.000000	 49.248456 
886.000000	 49.244451 
885.000000	 49.217009 
884.000000	 49.166059 
883.000000	 49.094676 
882.000000	 49.009037 
881.000000	 48.917293 
880.000000	 48.828840 
879.000000	 48.752832 
878.000000	 48.696660 
877.000000	 48.664879 
876.000000	 48.658561 
875.000000	 48.675513 
874.000000	 48.710250 
873.000000	 48.755574 
872.000000	 48.804259 
871.000000	 48.850536 
870.000000	 48.890399 
869.000000	 48.922348 
868.000000	 48.947000 
867.000000	 48.966217 
866.000000	 48.982071 
865.000000	 48.995590 
864.000000	 49.006557 
863.000000	 49.012827 
862.000000	 49.012064 
861.000000	 49.001145 
860.000000	 48.977851 
859.000000	 48.941087 
858.000000	 48.891639 
857.000000	 48.832345 
856.000000	 48.768329 
855.000000	 48.705315 
854.000000	 48.648667 
853.000000	 48.602056 
852.000000	 48.566961 
851.000000	 48.541808 
850.000000	 48.522877 
849.000000	 48.505067 
848.000000	 48.483657 
847.000000	 48.455309 
846.000000	 48.419308 
845.000000	 48.377394 
844.000000	 48.334121 
843.000000	 48.294854 
842.000000	 48.265409 
841.000000	 48.250222 
840.000000	 48.252034 
839.000000	 48.270916 
838.000000	 48.304438 
837.000000	 48.348903 
836.000000	 48.398685 
835.000000	 48.447990 
834.000000	 48.489546 
833.000000	 48.516011 
832.000000	 48.520016 
831.000000	 48.495483 
830.000000	 48.439049 
829.000000	 48.351454 
828.000000	 48.237705 
827.000000	 48.107457 
826.000000	 47.971749 
825.000000	 47.841477 
824.000000	 47.724866 
823.000000	 47.626662 
822.000000	 47.547769 
821.000000	 47.486233 
820.000000	 47.438931 
819.000000	 47.403359 
818.000000	 47.378325 
817.000000	 47.364354 
816.000000	 47.362470 
815.000000	 47.373652 
814.000000	 47.396659 
813.000000	 47.428417 
812.000000	 47.463726 
811.000000	 47.496628 
810.000000	 47.521233 
809.000000	 47.533416 
808.000000	 47.532224 
807.000000	 47.519421 
806.000000	 47.498631 
805.000000	 47.474527 
804.000000	 47.451233 
803.000000	 47.432184 
802.000000	 47.419428 
801.000000	 47.414207 
800.000000	 47.417306 
799.000000	 47.428703 
798.000000	 47.447609 
797.000000	 47.472238 
796.000000	 47.499942 
795.000000	 47.526693 
794.000000	 47.547912 
793.000000	 47.559380 
792.000000	 47.558760 
791.000000	 47.545838 
790.000000	 47.523522 
789.000000	 47.497534 
788.000000	 47.475695 
787.000000	 47.466349 
786.000000	 47.476458 
785.000000	 47.509860 
784.000000	 47.566032 
783.000000	 47.640490 
782.000000	 47.725033 
781.000000	 47.809505 
780.000000	 47.883892 
779.000000	 47.940206 
778.000000	 47.974061 
777.000000	 47.984623 
776.000000	 47.974681 
775.000000	 47.949838 
774.000000	 47.916555 
773.000000	 47.880864 
772.000000	 47.847104 
771.000000	 47.817420 
770.000000	 47.791886 
769.000000	 47.769355 
768.000000	 47.748184 
767.000000	 47.727251 
766.000000	 47.706341 
765.000000	 47.686266 
764.000000	 47.668409 
763.000000	 47.654223 
762.000000	 47.644114 
761.000000	 47.637271 
760.000000	 47.632217 
759.000000	 47.626733 
758.000000	 47.618436 
757.000000	 47.605180 
756.000000	 47.586178 
755.000000	 47.561573 
754.000000	 47.532510 
753.000000	 47.500324 
752.000000	 47.466611 
751.000000	 47.432398 
750.000000	 47.398018 
749.000000	 47.363138 
748.000000	 47.327136 
747.000000	 47.289490 
746.000000	 47.250008 
745.000000	 47.209858 
744.000000	 47.171688 
743.000000	 47.139167 
742.000000	 47.116208 
741.000000	 47.106385 
740.000000	 47.111654 
739.000000	 47.131800 
738.000000	 47.163653 
737.000000	 47.201728 
736.000000	 47.238326 
735.000000	 47.265148 
734.000000	 47.274470 
733.000000	 47.260546 
732.000000	 47.221159 
731.000000	 47.157669 
730.000000	 47.075748 
729.000000	 46.983861 
728.000000	 46.892666 
727.000000	 46.813106 
726.000000	 46.754574 
725.000000	 46.723532 
724.000000	 46.721792 
723.000000	 46.746850 
722.000000	 46.791100 
721.000000	 46.843838 
720.000000	 46.892714 
719.000000	 46.925902 
718.000000	 46.934533 
717.000000	 46.913909 
716.000000	 46.864628 
715.000000	 46.792101 
714.000000	 46.705293 
713.000000	 46.614503 
712.000000	 46.529507 
711.000000	 46.457362 
710.000000	 46.401500 
709.000000	 46.361541 
708.000000	 46.334314 
707.000000	 46.315288 
706.000000	 46.300125 
705.000000	 46.286153 
704.000000	 46.272540 
703.000000	 46.260690 
702.000000	 46.252751 
701.000000	 46.250867 
700.000000	 46.255540 
699.000000	 46.265530 
698.000000	 46.277308 
697.000000	 46.286273 
696.000000	 46.288275 
695.000000	 46.280241 
694.000000	 46.261334 
693.000000	 46.232938 
692.000000	 46.198511 
691.000000	 46.162056 
690.000000	 46.127247 
689.000000	 46.096038 
688.000000	 46.068453 
687.000000	 46.043229 
686.000000	 46.018671 
685.000000	 45.993733 
684.000000	 45.969009 
683.000000	 45.946907 
682.000000	 45.931577 
681.000000	 45.927405 
680.000000	 45.937943 
679.000000	 45.964217 
678.000000	 46.004176 
677.000000	 46.052718 
676.000000	 46.102738 
675.000000	 46.146607 
674.000000	 46.177911 
673.000000	 46.192741 
672.000000	 46.190381 
671.000000	 46.173524 
670.000000	 46.147060 
669.000000	 46.116852 
668.000000	 46.088027 
667.000000	 46.064186 
666.000000	 46.046495 
665.000000	 46.034336 
664.000000	 46.025586 
663.000000	 46.017694 
662.000000	 46.008133 
661.000000	 45.995140 
660.000000	 45.977401 
659.000000	 45.954227 
658.000000	 45.925092 
657.000000	 45.889616 
656.000000	 45.847702 
655.000000	 45.799732 
654.000000	 45.747184 
653.000000	 45.692443 
652.000000	 45.638799 
651.000000	 45.589351 
650.000000	 45.546627 
649.000000	 45.511603 
648.000000	 45.483207 
647.000000	 45.459103 
646.000000	 45.435237 
645.000000	 45.408463 
644.000000	 45.377278 
643.000000	 45.342898 
642.000000	 45.308613 
641.000000	 45.279240 
640.000000	 45.259785 
639.000000	 45.253300 
638.000000	 45.259809 
637.000000	 45.275592 
636.000000	 45.293807 
635.000000	 45.306301 
634.000000	 45.305562 
633.000000	 45.287084 
632.000000	 45.250773 
631.000000	 45.200943 
630.000000	 45.145392 
629.000000	 45.093464 
628.000000	 45.053768 
627.000000	 45.032048 
626.000000	 45.029973 
625.000000	 45.045256 
624.000000	 45.072078 
623.000000	 45.103192 
622.000000	 45.130872 
621.000000	 45.148205 
620.000000	 45.150375 
619.000000	 45.134568 
618.000000	 45.101118 
617.000000	 45.052552 
616.000000	 44.993925 
615.000000	 44.932007 
614.000000	 44.874024 
613.000000	 44.826507 
612.000000	 44.794058 
611.000000	 44.778847 
610.000000	 44.779181 
609.000000	 44.790077 
608.000000	 44.803977 
607.000000	 44.812560 
606.000000	 44.808506 
605.000000	 44.787216 
604.000000	 44.747781 
603.000000	 44.693136 
602.000000	 44.629216 
601.000000	 44.563126 
600.000000	 44.501566 
599.000000	 44.448971 
598.000000	 44.407415 
597.000000	 44.376134 
596.000000	 44.352483 
595.000000	 44.332885 
594.000000	 44.313526 
593.000000	 44.292235 
592.000000	 44.267964 
591.000000	 44.242477 
590.000000	 44.218587 
589.000000	 44.200897 
588.000000	 44.193577 
587.000000	 44.200325 
586.000000	 44.223070 
585.000000	 44.261288 
584.000000	 44.311690 
583.000000	 44.368743 
582.000000	 44.425821 
581.000000	 44.476008 
580.000000	 44.513440 
579.000000	 44.534492 
578.000000	 44.537973 
577.000000	 44.525408 
576.000000	 44.499731 
575.000000	 44.464349 
574.000000	 44.421815 
573.000000	 44.373178 
572.000000	 44.318151 
571.000000	 44.256162 
570.000000	 44.187855 
569.000000	 44.115829 
568.000000	 44.045400 
567.000000	 43.983912 
566.000000	 43.939542 
565.000000	 43.919038 
564.000000	 43.925857 
563.000000	 43.958926 
562.000000	 44.011497 
561.000000	 44.072198 
560.000000	 44.126343 
559.000000	 44.159078 
558.000000	 44.158148 
557.000000	 44.116258 
556.000000	 44.033813 
555.000000	 43.918895 
554.000000	 43.785834 
553.000000	 43.651890 
552.000000	 43.533420 
551.000000	 43.442487 
550.000000	 43.384337 
549.000000	 43.356513 
548.000000	 43.350696 
547.000000	 43.354821 
546.000000	 43.356752 
545.000000	 43.347215 
544.000000	 43.321084 
543.000000	 43.278884 
542.000000	 43.224740 
541.000000	 43.165898 
540.000000	 43.109440 
539.000000	 43.061161 
538.000000	 43.024230 
537.000000	 42.998480 
536.000000	 42.981386 
535.000000	 42.968058 
534.000000	 42.953324 
533.000000	 42.931556 
532.000000	 42.897582 
531.000000	 42.848134 
530.000000	 42.782235 
529.000000	 42.702412 
528.000000	 42.613840 
527.000000	 42.524909 
526.000000	 42.445683 
525.000000	 42.385959 
524.000000	 42.353248 
523.000000	 42.350530 
522.000000	 42.375636 
521.000000	 42.421841 
520.000000	 42.479586 
519.000000	 42.537975 
518.000000	 42.587733 
517.000000	 42.623996 
516.000000	 42.646026 
515.000000	 42.656517 
514.000000	 42.659211 
513.000000	 42.656707 
512.000000	 42.649173 
511.000000	 42.633700 
510.000000	 42.606329 
509.000000	 42.563152 
508.000000	 42.504549 
507.000000	 42.436981 
506.000000	 42.372989 
505.000000	 42.328739 
504.000000	 42.320466 
503.000000	 42.359757 
502.000000	 42.450189 
501.000000	 42.585444 
500.000000	 42.748785 
499.000000	 42.915892 
498.000000	 43.059277 
497.000000	 43.153333 
496.000000	 43.178939 
495.000000	 43.126034 
494.000000	 42.994117 
493.000000	 42.791461 
492.000000	 42.532801 
491.000000	 42.237544 
490.000000	 41.926908 
489.000000	 41.623306 
488.000000	 41.347956 
487.000000	 41.121101 
486.000000	 40.960574 
485.000000	 40.880274 
484.000000	 40.886855 
483.000000	 40.979456 
482.000000	 41.148900 
481.000000	 41.376900 
480.000000	 41.636681 
479.000000	 41.896033 
478.000000	 42.120718 
477.000000	 42.279958 
476.000000	 42.350840 
475.000000	 42.322611 
474.000000	 42.198085 
473.000000	 41.993522 
472.000000	 41.735339 
471.000000	 41.456484 
470.000000	 41.190695 
469.000000	 40.965652 
468.000000	 40.798974 
467.000000	 40.698075 
466.000000	 40.659713 
465.000000	 40.672540 
464.000000	 40.720033 
463.000000	 40.784978 
462.000000	 40.851521 
461.000000	 40.907740 
460.000000	 40.944623 
459.000000	 40.952849 
458.000000	 40.925240 
457.000000	 40.855050 
456.000000	 40.740513 
455.000000	 40.584516 
454.000000	 40.398550 
453.000000	 40.202331 
452.000000	 40.021347 
451.000000	 39.883518 
450.000000	 39.810013 
449.000000	 39.810776 
448.000000	 39.877605 
447.000000	 39.985227 
446.000000	 40.093612 
445.000000	 40.157127 
444.000000	 40.132880 
443.000000	 39.992094 
442.000000	 39.726448 
441.000000	 39.352488 
440.000000	 38.909125 
439.000000	 38.451313 
438.000000	 38.036656 
437.000000	 37.716197 
436.000000	 37.524437 
435.000000	 37.474489 
434.000000	 37.560582 
433.000000	 37.757492 
432.000000	 38.026762 
431.000000	 38.323330 
430.000000	 38.599562 
429.000000	 38.816547 
428.000000	 38.952350 
427.000000	 38.998723 
426.000000	 38.953137 
425.000000	 38.825702 
424.000000	 38.632678 
423.000000	 38.401436 
422.000000	 38.167524 
421.000000	 37.970638 
420.000000	 37.847447 
419.000000	 37.829113 
418.000000	 37.933516 
417.000000	 38.151121 
416.000000	 38.444042 
415.000000	 38.739418 
414.000000	 38.947296 
413.000000	 38.991665 
412.000000	 38.835930 
411.000000	 38.459587 
410.000000	 37.895393 
409.000000	 37.263298 
408.000000	 36.716055 
407.000000	 36.439251 
406.000000	 36.540842 
405.000000	 37.004923 
404.000000	 37.677359 
403.000000	 38.268089 
402.000000	 38.469696 
401.000000	 38.047862 
400.000000	 36.929273 
399.000000	 35.285520 
398.000000	 33.411836 
397.000000	 31.610369 
396.000000	 30.167746 
395.000000	 29.243540 
394.000000	 28.963065 
393.000000	 29.396843 
392.000000	 30.595493 
391.000000	 32.567143 
390.000000	 35.077381 
389.000000	 37.651324 
388.000000	 39.544630 
387.000000	 39.928770 
386.000000	 38.128232 
385.000000	 33.829975 
384.000000	 27.302932 
383.000000	 19.320607 
382.000000	 10.956239 
381.000000	 3.361558  
380.000000	 -2.579736 
379.000000	 -6.323289 
378.000000	 -7.819414 
377.000000	 -7.311320 
376.000000	 -5.220746 
375.000000	 -1.921033 
374.000000	 2.355265  
373.000000	 7.572722  
372.000000	 13.775992 
371.000000	 21.001195 
370.000000	 29.073929 

