PE IR       SPECTRUM    SPECTRUM    ASCII       PEDS        1.60        
  -1
C-1AEF~1.ASC
17/03/27
15:50:00.00
17/03/27
15:50:00.00
tln
$C-4040-8_t0017$<tbV0>[0.0,-10.4,8.0,0.0,27,1,0]
370.000000
64









2002,4.07    
MIRTGS : RIGHTBACK : INTERNAL 2
MIR : ON : INTERNAL 2
OPTKBR

0.200000
8
8.000000
FILLER
RATIO
SPECTRUM
UNLOCKED 256

DOUBLE
64
COMBINED
1
0
0


1.000000
RATIO


1
0
TRUE
51149
0
LEFT NOT FITTED RIGHT NOT FITTED 0
NONE
NONE
15600
12.000000
4.427000
51148
TRUE
1 0 8 72 0 0 0 0 

15798.010000






#HDR
-1
-1
#GR
CM-1
%T
0.00002384185791015625
0.0
5000.000000
-1.000000
4631
8
70.456314
35.021662
#DATA
5000.000000	63.844466 
4999.000000	63.810372 
4998.000000	63.772845 
4997.000000	63.740015 
4996.000000	63.723754 
4995.000000	63.737392 
4994.000000	63.791871 
4993.000000	63.891530 
4992.000000	64.032864 
4991.000000	64.204931 
4990.000000	64.389419 
4989.000000	64.564251 
4988.000000	64.706707 
4987.000000	64.798164 
4986.000000	64.826560 
4985.000000	64.788722 
4984.000000	64.688611 
4983.000000	64.536285 
4982.000000	64.345955 
4981.000000	64.133834 
4980.000000	63.915419 
4979.000000	63.704705 
4978.000000	63.514113 
4977.000000	63.354325 
4976.000000	63.235902 
4975.000000	63.166880 
4974.000000	63.151836 
4973.000000	63.188552 
4972.000000	63.267707 
4971.000000	63.371396 
4970.000000	63.474988 
4969.000000	63.550949 
4968.000000	63.572168 
4967.000000	63.520050 
4966.000000	63.387823 
4965.000000	63.184452 
4964.000000	62.932014 
4963.000000	62.663769 
4962.000000	62.416815 
4961.000000	62.225580 
4960.000000	62.114572 
4959.000000	62.094831 
4958.000000	62.162423 
4957.000000	62.302041 
4956.000000	62.490892 
4955.000000	62.703251 
4954.000000	62.914252 
4953.000000	63.100886 
4952.000000	63.243794 
4951.000000	63.327002 
4950.000000	63.339805 
4949.000000	63.276076 
4948.000000	63.137984 
4947.000000	62.937855 
4946.000000	62.698411 
4945.000000	62.449836 
4944.000000	62.226700 
4943.000000	62.063455 
4942.000000	61.987757 
4941.000000	62.015414 
4940.000000	62.147521 
4939.000000	62.369966 
4938.000000	62.656259 
4937.000000	62.972259 
4936.000000	63.282299 
4935.000000	63.554692 
4934.000000	63.766360 
4933.000000	63.904285 
4932.000000	63.967251 
4931.000000	63.963532 
4930.000000	63.908839 
4929.000000	63.822150 
4928.000000	63.724064 
4927.000000	63.633036 
4926.000000	63.563609 
4925.000000	63.524627 
4924.000000	63.518834 
4923.000000	63.543629 
4922.000000	63.593268 
4921.000000	63.660979 
4920.000000	63.739156 
4919.000000	63.822531 
4918.000000	63.908004 
4917.000000	63.995146 
4916.000000	64.084482 
4915.000000	64.176464 
4914.000000	64.268589 
4913.000000	64.356374 
4912.000000	64.433908 
4911.000000	64.495587 
4910.000000	64.538311 
4909.000000	64.562010 
4908.000000	64.571213 
4907.000000	64.571714 
4906.000000	64.569997 
4905.000000	64.568829 
4904.000000	64.566326 
4903.000000	64.557194 
4902.000000	64.534902 
4901.000000	64.493393 
4900.000000	64.429473 
4899.000000	64.344453 
4898.000000	64.244222 
4897.000000	64.137506 
4896.000000	64.034461 
4895.000000	63.943195 
4894.000000	63.869833 
4893.000000	63.816857 
4892.000000	63.785028 
4891.000000	63.774275 
4890.000000	63.784599 
4889.000000	63.816452 
4888.000000	63.869571 
4887.000000	63.942027 
4886.000000	64.028906 
4885.000000	64.120125 
4884.000000	64.203596 
4883.000000	64.266848 
4882.000000	64.300203 
4881.000000	64.298844 
4880.000000	64.264297 
4879.000000	64.204049 
4878.000000	64.129424 
4877.000000	64.052820 
4876.000000	63.984155 
4875.000000	63.928866 
4874.000000	63.887548 
4873.000000	63.857269 
4872.000000	63.833069 
4871.000000	63.810610 
4870.000000	63.788557 
4869.000000	63.769340 
4868.000000	63.757586 
4867.000000	63.759112 
4866.000000	63.778018 
4865.000000	63.815116 
4864.000000	63.866996 
4863.000000	63.926029 
4862.000000	63.982343 
4861.000000	64.025092 
4860.000000	64.045143 
4859.000000	64.036440 
4858.000000	63.996887 
4857.000000	63.929629 
4856.000000	63.842201 
4855.000000	63.746023 
4854.000000	63.653707 
4853.000000	63.578319 
4852.000000	63.531255 
4851.000000	63.520383 
4850.000000	63.548851 
4849.000000	63.614630 
4848.000000	63.711166 
4847.000000	63.828277 
4846.000000	63.953995 
4845.000000	64.076709 
4844.000000	64.186859 
4843.000000	64.278483 
4842.000000	64.348912 
4841.000000	64.398169 
4840.000000	64.427232 
4839.000000	64.437866 
4838.000000	64.430332 
4837.000000	64.404320 
4836.000000	64.358162 
4835.000000	64.292216 
4834.000000	64.207386 
4833.000000	64.107275 
4832.000000	63.996720 
4831.000000	63.882851 
4830.000000	63.772821 
4829.000000	63.673067 
4828.000000	63.588070 
4827.000000	63.519597 
4826.000000	63.467192 
4825.000000	63.428664 
4824.000000	63.401246 
4823.000000	63.382196 
4822.000000	63.369274 
4821.000000	63.360619 
4820.000000	63.354706 
4819.000000	63.350224 
4818.000000	63.345813 
4817.000000	63.340616 
4816.000000	63.333702 
4815.000000	63.325047 
4814.000000	63.315916 
4813.000000	63.309526 
4812.000000	63.309359 
4811.000000	63.319754 
4810.000000	63.344955 
4809.000000	63.387894 
4808.000000	63.449573 
4807.000000	63.527894 
4806.000000	63.617587 
4805.000000	63.710594 
4804.000000	63.797831 
4803.000000	63.870143 
4802.000000	63.919639 
4801.000000	63.941788 
4800.000000	63.936471 
4799.000000	63.907837 
4798.000000	63.863396 
4797.000000	63.812875 
4796.000000	63.766336 
4795.000000	63.731884 
4794.000000	63.714313 
4793.000000	63.714241 
4792.000000	63.728547 
4791.000000	63.751220 
4790.000000	63.775229 
4789.000000	63.794136 
4788.000000	63.803601 
4787.000000	63.801670 
4786.000000	63.789629 
4785.000000	63.770532 
4784.000000	63.749480 
4783.000000	63.731479 
4782.000000	63.721632 
4781.000000	63.723802 
4780.000000	63.740491 
4779.000000	63.772678 
4778.000000	63.819169 
4777.000000	63.877487 
4776.000000	63.943123 
4775.000000	64.010429 
4774.000000	64.072322 
4773.000000	64.121580 
4772.000000	64.151287 
4771.000000	64.156436 
4770.000000	64.134287 
4769.000000	64.084935 
4768.000000	64.011621 
4767.000000	63.920426 
4766.000000	63.819408 
4765.000000	63.717555 
4764.000000	63.624119 
4763.000000	63.547611 
4762.000000	63.494491 
4761.000000	63.468790 
4760.000000	63.471579 
4759.000000	63.501262 
4758.000000	63.552904 
4757.000000	63.620424 
4756.000000	63.696622 
4755.000000	63.775324 
4754.000000	63.850998 
4753.000000	63.920426 
4752.000000	63.981676 
4751.000000	64.034748 
4750.000000	64.080357 
4749.000000	64.119291 
4748.000000	64.151740 
4747.000000	64.176845 
4746.000000	64.193606 
4745.000000	64.200115 
4744.000000	64.195156 
4743.000000	64.177632 
4742.000000	64.147567 
4741.000000	64.105224 
4740.000000	64.051556 
4739.000000	63.987708 
4738.000000	63.915228 
4737.000000	63.836407 
4736.000000	63.754391 
4735.000000	63.673520 
4734.000000	63.598990 
4733.000000	63.536047 
4732.000000	63.489294 
4731.000000	63.461375 
4730.000000	63.453054 
4729.000000	63.462162 
4728.000000	63.485074 
4727.000000	63.516545 
4726.000000	63.552403 
4725.000000	63.589572 
4724.000000	63.627672 
4723.000000	63.667607 
4722.000000	63.711380 
4721.000000	63.760781 
4720.000000	63.816022 
4719.000000	63.874793 
4718.000000	63.933014 
4717.000000	63.985323 
4716.000000	64.026761 
4715.000000	64.054107 
4714.000000	64.066457 
4713.000000	64.065384 
4712.000000	64.054226 
4711.000000	64.036893 
4710.000000	64.016675 
4709.000000	63.995313 
4708.000000	63.972854 
4707.000000	63.948202 
4706.000000	63.919997 
4705.000000	63.887691 
4704.000000	63.852667 
4703.000000	63.818168 
4702.000000	63.788580 
4701.000000	63.768529 
4700.000000	63.761496 
4699.000000	63.768911 
4698.000000	63.789033 
4697.000000	63.817834 
4696.000000	63.849735 
4695.000000	63.878893 
4694.000000	63.900732 
4693.000000	63.912677 
4692.000000	63.914537 
4691.000000	63.907957 
4690.000000	63.895630 
4689.000000	63.880109 
4688.000000	63.862872 
4687.000000	63.844370 
4686.000000	63.824224 
4685.000000	63.801264 
4684.000000	63.774347 
4683.000000	63.743114 
4682.000000	63.708043 
4681.000000	63.670301 
4680.000000	63.631796 
4679.000000	63.594198 
4678.000000	63.559484 
4677.000000	63.529229 
4676.000000	63.505434 
4675.000000	63.489937 
4674.000000	63.485002 
4673.000000	63.492608 
4672.000000	63.514161 
4671.000000	63.549256 
4670.000000	63.596129 
4669.000000	63.650989 
4668.000000	63.709115 
4667.000000	63.765454 
4666.000000	63.815498 
4665.000000	63.856339 
4664.000000	63.886070 
4663.000000	63.903927 
4662.000000	63.909459 
4661.000000	63.902425 
4660.000000	63.882303 
4659.000000	63.848519 
4658.000000	63.801431 
4657.000000	63.743138 
4656.000000	63.677620 
4655.000000	63.610816 
4654.000000	63.549828 
4653.000000	63.501548 
4652.000000	63.470935 
4651.000000	63.460087 
4650.000000	63.467121 
4649.000000	63.487553 
4648.000000	63.515162 
4647.000000	63.544058 
4646.000000	63.569951 
4645.000000	63.591122 
4644.000000	63.608121 
4643.000000	63.623237 
4642.000000	63.638710 
4641.000000	63.656544 
4640.000000	63.676953 
4639.000000	63.699197 
4638.000000	63.721680 
4637.000000	63.743090 
4636.000000	63.762855 
4635.000000	63.781571 
4634.000000	63.800811 
4633.000000	63.822150 
4632.000000	63.846516 
4631.000000	63.872909 
4630.000000	63.898468 
4629.000000	63.918876 
4628.000000	63.929176 
4627.000000	63.925480 
4626.000000	63.905668 
4625.000000	63.869976 
4624.000000	63.821029 
4623.000000	63.763356 
4622.000000	63.702416 
4621.000000	63.643383 
4620.000000	63.590764 
4619.000000	63.547372 
4618.000000	63.514780 
4617.000000	63.493442 
4616.000000	63.483643 
4615.000000	63.485050 
4614.000000	63.497996 
4613.000000	63.523197 
4612.000000	63.561582 
4611.000000	63.612914 
4610.000000	63.675808 
4609.000000	63.746953 
4608.000000	63.821196 
4607.000000	63.891983 
4606.000000	63.952374 
4605.000000	63.996148 
4604.000000	64.019393 
4603.000000	64.021039 
4602.000000	64.003610 
4601.000000	63.972353 
4600.000000	63.934588 
4599.000000	63.897609 
4598.000000	63.867306 
4597.000000	63.846254 
4596.000000	63.834095 
4595.000000	63.827323 
4594.000000	63.820838 
4593.000000	63.809347 
4592.000000	63.789367 
4591.000000	63.759946 
4590.000000	63.722300 
4589.000000	63.680362 
4588.000000	63.638925 
4587.000000	63.603377 
4586.000000	63.577985 
4585.000000	63.565731 
4584.000000	63.567328 
4583.000000	63.581919 
4582.000000	63.607597 
4581.000000	63.641381 
4580.000000	63.679695 
4579.000000	63.719487 
4578.000000	63.758683 
4577.000000	63.795757 
4576.000000	63.829827 
4575.000000	63.861179 
4574.000000	63.890862 
4573.000000	63.919973 
4572.000000	63.949465 
4571.000000	63.979840 
4570.000000	64.011025 
4569.000000	64.042639 
4568.000000	64.073920 
4567.000000	64.104080 
4566.000000	64.132475 
4565.000000	64.159202 
4564.000000	64.184498 
4563.000000	64.209532 
4562.000000	64.234256 
4561.000000	64.258193 
4560.000000	64.278554 
4559.000000	64.290857 
4558.000000	64.289259 
4557.000000	64.268493 
4556.000000	64.224815 
4555.000000	64.157485 
4554.000000	64.069581 
4553.000000	63.967990 
4552.000000	63.861513 
4551.000000	63.759183 
4550.000000	63.667917 
4549.000000	63.591623 
4548.000000	63.530898 
4547.000000	63.484287 
4546.000000	63.449048 
4545.000000	63.423204 
4544.000000	63.406753 
4543.000000	63.401460 
4542.000000	63.409662 
4541.000000	63.432216 
4540.000000	63.466572 
4539.000000	63.506674 
4538.000000	63.542127 
4537.000000	63.562512 
4536.000000	63.559126 
4535.000000	63.529276 
4534.000000	63.477349 
4533.000000	63.414907 
4532.000000	63.357830 
4531.000000	63.322567 
4530.000000	63.321495 
4529.000000	63.360142 
4528.000000	63.435459 
4527.000000	63.536882 
4526.000000	63.649034 
4525.000000	63.755035 
4524.000000	63.840460 
4523.000000	63.896083 
4522.000000	63.919615 
4521.000000	63.915085 
4520.000000	63.891363 
4519.000000	63.859415 
4518.000000	63.829350 
4517.000000	63.808012 
4516.000000	63.797736 
4515.000000	63.797378 
4514.000000	63.803339 
4513.000000	63.812184 
4512.000000	63.821601 
4511.000000	63.832044 
4510.000000	63.845419 
4509.000000	63.863492 
4508.000000	63.887286 
4507.000000	63.915491 
4506.000000	63.945293 
4505.000000	63.972949 
4504.000000	63.994812 
4503.000000	64.008903 
4502.000000	64.014291 
4501.000000	64.011740 
4500.000000	64.002346 
4499.000000	63.987469 
4498.000000	63.967084 
4497.000000	63.940024 
4496.000000	63.904547 
4495.000000	63.859152 
4494.000000	63.804268 
4493.000000	63.742089 
4492.000000	63.676857 
4491.000000	63.613748 
4490.000000	63.555693 
4489.000000	63.504314 
4488.000000	63.458418 
4487.000000	63.417768 
4486.000000	63.383555 
4485.000000	63.360238 
4484.000000	63.357996 
4483.000000	63.386654 
4482.000000	63.449716 
4481.000000	63.544464 
4480.000000	63.660931 
4479.000000	63.783788 
4478.000000	63.894128 
4477.000000	63.976597 
4476.000000	64.024257 
4475.000000	64.038610 
4474.000000	64.029264 
4473.000000	64.009213 
4472.000000	63.990497 
4471.000000	63.982462 
4470.000000	63.990521 
4469.000000	64.013862 
4468.000000	64.047265 
4467.000000	64.088916 
4466.000000	64.141106 
4465.000000	64.207410 
4464.000000	64.292216 
4463.000000	64.396095 
4462.000000	64.519000 
4461.000000	64.651727 
4460.000000	64.789652 
4459.000000	64.932870 
4458.000000	65.095448 
4457.000000	65.301680 
4456.000000	65.583252 
4455.000000	65.970563 
4454.000000	66.480565 
4453.000000	67.108082 
4452.000000	67.820525 
4451.000000	68.562865 
4450.000000	69.262933 
4449.000000	69.850039 
4448.000000	70.260977 
4447.000000	70.456314 
4446.000000	70.418691 
4445.000000	70.157623 
4444.000000	69.695115 
4443.000000	69.061613 
4442.000000	68.287873 
4441.000000	67.404055 
4440.000000	66.443490 
4439.000000	65.444707 
4438.000000	64.457464 
4437.000000	63.538384 
4436.000000	62.744569 
4435.000000	62.124824 
4434.000000	61.702609 
4433.000000	61.478567 
4432.000000	61.425757 
4431.000000	61.502289 
4430.000000	61.652088 
4429.000000	61.825656 
4428.000000	61.981344 
4427.000000	62.098956 
4426.000000	62.169384 
4425.000000	62.203240 
4424.000000	62.219142 
4423.000000	62.239837 
4422.000000	62.281537 
4421.000000	62.350773 
4420.000000	62.443542 
4419.000000	62.543559 
4418.000000	62.626457 
4417.000000	62.672543 
4416.000000	62.673282 
4415.000000	62.630414 
4414.000000	62.555432 
4413.000000	62.461018 
4412.000000	62.356996 
4411.000000	62.252354 
4410.000000	62.151861 
4409.000000	62.050318 
4408.000000	61.938261 
4407.000000	61.812376 
4406.000000	61.675596 
4405.000000	61.536383 
4404.000000	61.408567 
4403.000000	61.308479 
4402.000000	61.250734 
4401.000000	61.237573 
4400.000000	61.266446 
4399.000000	61.330151 
4398.000000	61.420392 
4397.000000	61.535525 
4396.000000	61.667394 
4395.000000	61.809587 
4394.000000	61.929488 
4393.000000	61.971807 
4392.000000	61.861634 
4391.000000	61.521911 
4390.000000	60.908722 
4389.000000	60.034036 
4388.000000	58.987855 
4387.000000	57.929158 
4386.000000	57.062983 
4385.000000	56.591057 
4384.000000	56.659555 
4383.000000	57.315421 
4382.000000	58.483481 
4381.000000	59.981012 
4380.000000	61.550879 
4379.000000	62.930536 
4378.000000	63.910603 
4377.000000	64.388704 
4376.000000	64.384126 
4375.000000	64.027285 
4374.000000	63.508248 
4373.000000	63.030505 
4372.000000	62.748742 
4371.000000	62.742424 
4370.000000	63.009524 
4369.000000	63.477325 
4368.000000	64.048838 
4367.000000	64.618372 
4366.000000	65.111160 
4365.000000	65.484976 
4364.000000	65.734577 
4363.000000	65.877962 
4362.000000	65.940856 
4361.000000	65.945482 
4360.000000	65.901255 
4359.000000	65.809559 
4358.000000	65.665292 
4357.000000	65.472364 
4356.000000	65.242671 
4355.000000	64.997124 
4354.000000	64.760065 
4353.000000	64.552426 
4352.000000	64.388465 
4351.000000	64.272332 
4350.000000	64.199995 
4349.000000	64.160346 
4348.000000	64.140582 
4347.000000	64.133977 
4346.000000	64.136719 
4345.000000	64.141726 
4344.000000	64.145278 
4343.000000	64.144539 
4342.000000	64.139294 
4341.000000	64.130687 
4340.000000	64.120745 
4339.000000	64.110636 
4338.000000	64.101505 
4337.000000	64.093995 
4336.000000	64.089536 
4335.000000	64.090633 
4334.000000	64.097881 
4333.000000	64.109778 
4332.000000	64.123630 
4331.000000	64.135861 
4330.000000	64.142680 
4329.000000	64.140629 
4328.000000	64.127039 
4327.000000	64.100265 
4326.000000	64.060950 
4325.000000	64.010930 
4324.000000	63.952183 
4323.000000	63.887190 
4322.000000	63.818931 
4321.000000	63.750576 
4320.000000	63.684940 
4319.000000	63.625049 
4318.000000	63.574147 
4317.000000	63.535499 
4316.000000	63.511776 
4315.000000	63.504481 
4314.000000	63.513088 
4313.000000	63.535070 
4312.000000	63.566184 
4311.000000	63.600778 
4310.000000	63.632774 
4309.000000	63.657331 
4308.000000	63.671803 
4307.000000	63.676261 
4306.000000	63.673496 
4305.000000	63.668489 
4304.000000	63.667345 
4303.000000	63.676023 
4302.000000	63.698720 
4301.000000	63.737416 
4300.000000	63.790559 
4299.000000	63.854408 
4298.000000	63.922429 
4297.000000	63.986754 
4296.000000	64.038729 
4295.000000	64.071083 
4294.000000	64.078617 
4293.000000	64.059019 
4292.000000	64.013409 
4291.000000	63.947081 
4290.000000	63.867378 
4289.000000	63.782620 
4288.000000	63.700628 
4287.000000	63.628172 
4286.000000	63.569092 
4285.000000	63.524413 
4284.000000	63.492345 
4283.000000	63.469529 
4282.000000	63.451957 
4281.000000	63.436460 
4280.000000	63.420891 
4279.000000	63.404917 
4278.000000	63.390350 
4277.000000	63.380670 
4276.000000	63.379478 
4275.000000	63.389706 
4274.000000	63.412880 
4273.000000	63.448619 
4272.000000	63.494038 
4271.000000	63.544559 
4270.000000	63.594269 
4269.000000	63.638019 
4268.000000	63.671588 
4267.000000	63.694000 
4266.000000	63.707065 
4265.000000	63.715696 
4264.000000	63.726568 
4263.000000	63.746404 
4262.000000	63.780140 
4261.000000	63.829040 
4260.000000	63.890790 
4259.000000	63.958573 
4258.000000	64.022779 
4257.000000	64.072799 
4256.000000	64.099907 
4255.000000	64.098238 
4254.000000	64.066314 
4253.000000	64.007258 
4252.000000	63.927936 
4251.000000	63.836789 
4250.000000	63.742256 
4249.000000	63.651227 
4248.000000	63.568329 
4247.000000	63.495969 
4246.000000	63.435292 
4245.000000	63.386607 
4244.000000	63.350605 
4243.000000	63.328313 
4242.000000	63.321542 
4241.000000	63.330841 
4240.000000	63.356709 
4239.000000	63.397979 
4238.000000	63.452410 
4237.000000	63.515639 
4236.000000	63.582491 
4235.000000	63.647484 
4234.000000	63.705301 
4233.000000	63.751173 
4232.000000	63.781785 
4231.000000	63.795781 
4230.000000	63.793754 
4229.000000	63.778018 
4228.000000	63.752889 
4227.000000	63.723802 
4226.000000	63.696527 
4225.000000	63.676071 
4224.000000	63.665628 
4223.000000	63.665890 
4222.000000	63.674855 
4221.000000	63.688349 
4220.000000	63.700962 
4219.000000	63.707733 
4218.000000	63.705492 
4217.000000	63.693714 
4216.000000	63.674187 
4215.000000	63.650345 
4214.000000	63.626575 
4213.000000	63.606286 
4212.000000	63.591265 
4211.000000	63.580584 
4210.000000	63.571286 
4209.000000	63.558697 
4208.000000	63.538479 
4207.000000	63.507270 
4206.000000	63.463711 
4205.000000	63.409471 
4204.000000	63.349270 
4203.000000	63.289260 
4202.000000	63.235688 
4201.000000	63.193082 
4200.000000	63.163280 
4199.000000	63.145303 
4198.000000	63.135600 
4197.000000	63.128924 
4196.000000	63.119888 
4195.000000	63.104724 
4194.000000	63.082718 
4193.000000	63.055586 
4192.000000	63.027834 
4191.000000	63.005137 
4190.000000	62.993144 
4189.000000	62.995624 
4188.000000	63.013410 
4187.000000	63.044714 
4186.000000	63.084673 
4185.000000	63.126969 
4184.000000	63.163805 
4183.000000	63.188338 
4182.000000	63.194155 
4181.000000	63.176178 
4180.000000	63.131785 
4179.000000	63.060760 
4178.000000	62.967729 
4177.000000	62.861394 
4176.000000	62.754988 
4175.000000	62.664031 
4174.000000	62.604784 
4173.000000	62.590813 
4172.000000	62.629914 
4171.000000	62.721967 
4170.000000	62.858724 
4169.000000	63.025498 
4168.000000	63.203358 
4167.000000	63.373851 
4166.000000	63.521671 
4165.000000	63.637971 
4164.000000	63.721084 
4163.000000	63.775563 
4162.000000	63.809609 
4161.000000	63.831973 
4160.000000	63.850092 
4159.000000	63.867425 
4158.000000	63.884496 
4157.000000	63.898277 
4156.000000	63.906407 
4155.000000	63.906025 
4154.000000	63.896703 
4153.000000	63.878726 
4152.000000	63.854169 
4151.000000	63.824057 
4150.000000	63.788151 
4149.000000	63.744091 
4148.000000	63.688373 
4147.000000	63.617396 
4146.000000	63.529014 
4145.000000	63.424515 
4144.000000	63.309407 
4143.000000	63.193154 
4142.000000	63.087987 
4141.000000	63.006019 
4140.000000	62.957382 
4139.000000	62.948155 
4138.000000	62.978935 
4137.000000	63.043975 
4136.000000	63.132452 
4135.000000	63.230824 
4134.000000	63.325333 
4133.000000	63.403010 
4132.000000	63.455581 
4131.000000	63.479924 
4130.000000	63.479113 
4129.000000	63.460230 
4128.000000	63.433527 
4127.000000	63.409519 
4126.000000	63.396787 
4125.000000	63.400983 
4124.000000	63.423228 
4123.000000	63.460969 
4122.000000	63.508701 
4121.000000	63.560128 
4120.000000	63.608622 
4119.000000	63.648724 
4118.000000	63.676929 
4117.000000	63.691926 
4116.000000	63.693928 
4115.000000	63.684082 
4114.000000	63.664436 
4113.000000	63.637328 
4112.000000	63.604998 
4111.000000	63.569426 
4110.000000	63.533186 
4109.000000	63.498663 
4108.000000	63.468360 
4107.000000	63.443946 
4106.000000	63.426423 
4105.000000	63.415741 
4104.000000	63.410735 
4103.000000	63.409638 
4102.000000	63.409376 
4101.000000	63.407683 
4100.000000	63.403463 
4099.000000	63.397383 
4098.000000	63.391304 
4097.000000	63.388538 
4096.000000	63.392663 
4095.000000	63.406515 
4094.000000	63.431334 
4093.000000	63.466119 
4092.000000	63.507676 
4091.000000	63.551115 
4090.000000	63.590884 
4089.000000	63.622331 
4088.000000	63.642597 
4087.000000	63.651275 
4086.000000	63.650298 
4085.000000	63.643336 
4084.000000	63.634634 
4083.000000	63.628053 
4082.000000	63.625764 
4081.000000	63.627958 
4080.000000	63.632535 
4079.000000	63.636565 
4078.000000	63.636231 
4077.000000	63.628125 
4076.000000	63.610076 
4075.000000	63.581943 
4074.000000	63.545823 
4073.000000	63.505506 
4072.000000	63.466191 
4071.000000	63.433003 
4070.000000	63.410162 
4069.000000	63.399958 
4068.000000	63.402271 
4067.000000	63.414692 
4066.000000	63.433194 
4065.000000	63.453030 
4064.000000	63.469934 
4063.000000	63.480973 
4062.000000	63.485217 
4061.000000	63.483667 
4060.000000	63.478565 
4059.000000	63.472652 
4058.000000	63.468337 
4057.000000	63.467001 
4056.000000	63.468623 
4055.000000	63.472223 
4054.000000	63.476586 
4053.000000	63.480424 
4052.000000	63.483762 
4051.000000	63.486933 
4050.000000	63.490772 
4049.000000	63.495969 
4048.000000	63.502621 
4047.000000	63.510084 
4046.000000	63.516902 
4045.000000	63.521432 
4044.000000	63.522481 
4043.000000	63.519668 
4042.000000	63.513398 
4041.000000	63.505101 
4040.000000	63.496756 
4039.000000	63.490366 
4038.000000	63.487458 
4037.000000	63.488650 
4036.000000	63.493680 
4035.000000	63.501834 
4034.000000	63.512134 
4033.000000	63.523602 
4032.000000	63.535571 
4031.000000	63.547372 
4030.000000	63.558745 
4029.000000	63.569116 
4028.000000	63.578033 
4027.000000	63.584804 
4026.000000	63.588953 
4025.000000	63.590598 
4024.000000	63.590264 
4023.000000	63.588857 
4022.000000	63.587617 
4021.000000	63.587570 
4020.000000	63.589811 
4019.000000	63.595008 
4018.000000	63.603520 
4017.000000	63.615155 
4016.000000	63.629269 
4015.000000	63.644981 
4014.000000	63.660693 
4013.000000	63.674330 
4012.000000	63.683462 
4011.000000	63.685774 
4010.000000	63.679075 
4009.000000	63.661932 
4008.000000	63.634300 
4007.000000	63.598203 
4006.000000	63.557195 
4005.000000	63.516259 
4004.000000	63.481092 
4003.000000	63.456988 
4002.000000	63.447713 
4001.000000	63.454937 
4000.000000	63.477802 
3999.000000	63.513278 
3998.000000	63.556742 
3997.000000	63.602924 
3996.000000	63.646793 
3995.000000	63.684201 
3994.000000	63.712549 
3993.000000	63.730478 
3992.000000	63.737654 
3991.000000	63.734078 
3990.000000	63.720083 
3989.000000	63.695430 
3988.000000	63.659715 
3987.000000	63.612532 
3986.000000	63.554191 
3985.000000	63.485574 
3984.000000	63.408780 
3983.000000	63.326883 
3982.000000	63.243961 
3981.000000	63.164567 
3980.000000	63.093400 
3979.000000	63.034391 
3978.000000	62.990617 
3977.000000	62.963557 
3976.000000	62.953710 
3975.000000	62.959718 
3974.000000	62.979841 
3973.000000	63.011598 
3972.000000	63.052845 
3971.000000	63.100838 
3970.000000	63.153314 
3969.000000	63.207626 
3968.000000	63.261342 
3967.000000	63.311505 
3966.000000	63.355636 
3965.000000	63.391971 
3964.000000	63.419938 
3963.000000	63.440227 
3962.000000	63.454580 
3961.000000	63.465666 
3960.000000	63.476085 
3959.000000	63.488006 
3958.000000	63.501834 
3957.000000	63.516330 
3956.000000	63.529133 
3955.000000	63.537597 
3954.000000	63.539314 
3953.000000	63.532924 
3952.000000	63.519263 
3951.000000	63.500738 
3950.000000	63.480544 
3949.000000	63.461613 
3948.000000	63.445734 
3947.000000	63.433241 
3946.000000	63.422799 
3945.000000	63.411927 
3944.000000	63.398122 
3943.000000	63.379406 
3942.000000	63.355374 
3941.000000	63.327097 
3940.000000	63.296651 
3939.000000	63.266730 
3938.000000	63.240051 
3937.000000	63.218808 
3936.000000	63.203692 
3935.000000	63.194966 
3934.000000	63.192272 
3933.000000	63.195633 
3932.000000	63.205313 
3931.000000	63.222336 
3930.000000	63.247823 
3929.000000	63.282585 
3928.000000	63.326311 
3927.000000	63.377141 
3926.000000	63.431358 
3925.000000	63.483786 
3924.000000	63.528585 
3923.000000	63.560342 
3922.000000	63.574957 
3921.000000	63.570570 
3920.000000	63.547921 
3919.000000	63.510227 
3918.000000	63.462495 
3917.000000	63.410687 
3916.000000	63.360214 
3915.000000	63.315129 
3914.000000	63.277602 
3913.000000	63.247942 
3912.000000	63.225293 
3911.000000	63.208341 
3910.000000	63.196468 
3909.000000	63.189506 
3908.000000	63.188672 
3907.000000	63.195443 
3906.000000	63.211488 
3905.000000	63.237357 
3904.000000	63.272523 
3903.000000	63.314723 
3902.000000	63.360595 
3901.000000	63.405966 
3900.000000	63.446664 
3899.000000	63.478970 
3898.000000	63.500356 
3897.000000	63.509583 
3896.000000	63.506412 
3895.000000	63.491559 
3894.000000	63.466739 
3893.000000	63.434076 
3892.000000	63.396573 
3891.000000	63.357281 
3890.000000	63.319778 
3889.000000	63.286924 
3888.000000	63.260412 
3887.000000	63.240504 
3886.000000	63.226222 
3885.000000	63.215565 
3884.000000	63.205790 
3883.000000	63.194870 
3882.000000	63.181734 
3881.000000	63.167071 
3880.000000	63.152933 
3879.000000	63.142228 
3878.000000	63.137602 
3877.000000	63.141036 
3876.000000	63.153195 
3875.000000	63.173270 
3874.000000	63.199234 
3873.000000	63.228678 
3872.000000	63.259267 
3871.000000	63.289427 
3870.000000	63.318347 
3869.000000	63.345646 
3868.000000	63.371229 
3867.000000	63.394618 
3866.000000	63.415408 
3865.000000	63.433241 
3864.000000	63.448572 
3863.000000	63.462877 
3862.000000	63.478565 
3861.000000	63.499116 
3860.000000	63.527464 
3859.000000	63.565492 
3858.000000	63.612222 
3857.000000	63.664007 
3856.000000	63.714337 
3855.000000	63.755106 
3854.000000	63.778471 
3853.000000	63.778901 
3852.000000	63.754725 
3851.000000	63.709092 
3850.000000	63.648962 
3849.000000	63.583898 
3848.000000	63.523960 
3847.000000	63.477659 
3846.000000	63.450789 
3845.000000	63.445353 
3844.000000	63.460111 
3843.000000	63.490700 
3842.000000	63.531112 
3841.000000	63.574481 
3840.000000	63.614535 
3839.000000	63.645887 
3838.000000	63.664865 
3837.000000	63.669180 
3836.000000	63.658118 
3835.000000	63.631701 
3834.000000	63.590502 
3833.000000	63.535380 
3832.000000	63.467693 
3831.000000	63.389468 
3830.000000	63.303780 
3829.000000	63.215208 
3828.000000	63.129234 
3827.000000	63.052892 
3826.000000	62.993383 
3825.000000	62.957072 
3824.000000	62.947750 
3823.000000	62.965583 
3822.000000	63.006830 
3821.000000	63.063764 
3820.000000	63.126325 
3819.000000	63.184165 
3818.000000	63.229012 
3817.000000	63.256430 
3816.000000	63.266754 
3815.000000	63.264274 
3814.000000	63.256406 
3813.000000	63.250803 
3812.000000	63.253974 
3811.000000	63.269782 
3810.000000	63.298654 
3809.000000	63.338184 
3808.000000	63.383340 
3807.000000	63.429045 
3806.000000	63.470053 
3805.000000	63.502717 
3804.000000	63.524413 
3803.000000	63.533425 
3802.000000	63.528847 
3801.000000	63.510346 
3800.000000	63.478517 
3799.000000	63.434696 
3798.000000	63.382244 
3797.000000	63.326573 
3796.000000	63.274431 
3795.000000	63.232755 
3794.000000	63.207769 
3793.000000	63.203263 
3792.000000	63.219618 
3791.000000	63.253259 
3790.000000	63.297295 
3789.000000	63.342571 
3788.000000	63.379716 
3787.000000	63.400769 
3786.000000	63.400602 
3785.000000	63.377785 
3784.000000	63.334298 
3783.000000	63.275313 
3782.000000	63.207769 
3781.000000	63.139390 
3780.000000	63.077187 
3779.000000	63.026762 
3778.000000	62.992048 
3777.000000	62.974858 
3776.000000	62.974977 
3775.000000	62.990427 
3774.000000	63.017702 
3773.000000	63.052797 
3772.000000	63.091731 
3771.000000	63.130927 
3770.000000	63.167428 
3769.000000	63.199305 
3768.000000	63.225579 
3767.000000	63.246130 
3766.000000	63.261222 
3765.000000	63.271474 
3764.000000	63.277721 
3763.000000	63.281059 
3762.000000	63.282847 
3761.000000	63.284993 
3760.000000	63.289904 
3759.000000	63.300323 
3758.000000	63.318777 
3757.000000	63.347220 
3756.000000	63.386344 
3755.000000	63.435196 
3754.000000	63.491344 
3753.000000	63.551282 
3752.000000	63.610792 
3751.000000	63.665938 
3750.000000	63.712644 
3749.000000	63.747501 
3748.000000	63.767647 
3747.000000	63.771390 
3746.000000	63.758063 
3745.000000	63.728475 
3744.000000	63.684701 
3743.000000	63.630437 
3742.000000	63.570308 
3741.000000	63.509607 
3740.000000	63.453149 
3739.000000	63.404488 
3738.000000	63.365697 
3737.000000	63.337016 
3736.000000	63.316845 
3735.000000	63.302659 
3734.000000	63.291859 
3733.000000	63.282728 
3732.000000	63.274455 
3731.000000	63.267469 
3730.000000	63.262581 
3729.000000	63.260960 
3728.000000	63.262629 
3727.000000	63.267159 
3726.000000	63.273143 
3725.000000	63.279461 
3724.000000	63.285183 
3723.000000	63.290262 
3722.000000	63.295602 
3721.000000	63.302588 
3720.000000	63.312602 
3719.000000	63.326334 
3718.000000	63.343548 
3717.000000	63.362360 
3716.000000	63.379597 
3715.000000	63.391470 
3714.000000	63.394331 
3713.000000	63.385820 
3712.000000	63.365435 
3711.000000	63.334751 
3710.000000	63.297295 
3709.000000	63.258075 
3708.000000	63.222432 
3707.000000	63.194513 
3706.000000	63.176560 
3705.000000	63.168716 
3704.000000	63.169240 
3703.000000	63.174819 
3702.000000	63.182139 
3701.000000	63.188195 
3700.000000	63.191914 
3699.000000	63.194394 
3698.000000	63.198494 
3697.000000	63.207554 
3696.000000	63.224411 
3695.000000	63.250446 
3694.000000	63.284468 
3693.000000	63.322710 
3692.000000	63.359379 
3691.000000	63.388180 
3690.000000	63.403582 
3689.000000	63.402342 
3688.000000	63.384175 
3687.000000	63.351917 
3686.000000	63.311076 
3685.000000	63.268733 
3684.000000	63.232088 
3683.000000	63.207268 
3682.000000	63.198590 
3681.000000	63.207745 
3680.000000	63.233876 
3679.000000	63.273406 
3678.000000	63.321232 
3677.000000	63.370418 
3676.000000	63.413858 
3675.000000	63.444280 
3674.000000	63.455486 
3673.000000	63.442993 
3672.000000	63.404965 
3671.000000	63.342690 
3670.000000	63.260483 
3669.000000	63.165712 
3668.000000	63.067936 
3667.000000	62.977242 
3666.000000	62.902832 
3665.000000	62.851357 
3664.000000	62.825989 
3663.000000	62.826204 
3662.000000	62.848043 
3661.000000	62.885785 
3660.000000	62.933278 
3659.000000	62.985134 
3658.000000	63.037633 
3657.000000	63.088989 
3656.000000	63.138842 
3655.000000	63.187265 
3654.000000	63.233423 
3653.000000	63.275027 
3652.000000	63.308143 
3651.000000	63.328218 
3650.000000	63.330936 
3649.000000	63.314032 
3648.000000	63.277411 
3647.000000	63.224482 
3646.000000	63.160562 
3645.000000	63.092303 
3644.000000	63.025712 
3643.000000	62.965393 
3642.000000	62.914037 
3641.000000	62.872648 
3640.000000	62.841248 
3639.000000	62.819695 
3638.000000	62.807965 
3637.000000	62.806415 
3636.000000	62.815308 
3635.000000	62.834239 
3634.000000	62.861514 
3633.000000	62.893772 
3632.000000	62.926554 
3631.000000	62.954950 
3630.000000	62.974977 
3629.000000	62.984108 
3628.000000	62.982082 
3627.000000	62.970304 
3626.000000	62.951517 
3625.000000	62.928795 
3624.000000	62.904357 
3623.000000	62.879633 
3622.000000	62.855291 
3621.000000	62.831568 
3620.000000	62.809395 
3619.000000	62.790036 
3618.000000	62.775564 
3617.000000	62.767624 
3616.000000	62.767362 
3615.000000	62.774181 
3614.000000	62.785577 
3613.000000	62.797713 
3612.000000	62.806057 
3611.000000	62.806868 
3610.000000	62.797856 
3609.000000	62.779355 
3608.000000	62.754273 
3607.000000	62.727260 
3606.000000	62.703609 
3605.000000	62.687635 
3604.000000	62.681627 
3603.000000	62.685585 
3602.000000	62.697529 
3601.000000	62.714457 
3600.000000	62.733435 
3599.000000	62.752676 
3598.000000	62.772250 
3597.000000	62.793564 
3596.000000	62.818741 
3595.000000	62.849473 
3594.000000	62.885737 
3593.000000	62.925624 
3592.000000	62.964868 
3591.000000	62.997913 
3590.000000	63.018870 
3589.000000	63.023567 
3588.000000	63.010191 
3587.000000	62.980389 
3586.000000	62.938475 
3585.000000	62.890934 
3584.000000	62.844300 
3583.000000	62.803864 
3582.000000	62.772297 
3581.000000	62.749481 
3580.000000	62.733030 
3579.000000	62.719631 
3578.000000	62.706279 
3577.000000	62.691259 
3576.000000	62.674760 
3575.000000	62.658953 
3574.000000	62.646794 
3573.000000	62.641334 
3572.000000	62.644529 
3571.000000	62.656784 
3570.000000	62.676620 
3569.000000	62.701225 
3568.000000	62.727117 
3567.000000	62.750840 
3566.000000	62.769794 
3565.000000	62.782478 
3564.000000	62.788748 
3563.000000	62.789320 
3562.000000	62.785649 
3561.000000	62.779402 
3560.000000	62.772130 
3559.000000	62.764811 
3558.000000	62.757945 
3557.000000	62.751245 
3556.000000	62.744188 
3555.000000	62.735724 
3554.000000	62.724876 
3553.000000	62.710714 
3552.000000	62.692594 
3551.000000	62.670540 
3550.000000	62.645626 
3549.000000	62.619829 
3548.000000	62.595772 
3547.000000	62.576174 
3546.000000	62.563180 
3545.000000	62.557673 
3544.000000	62.559270 
3543.000000	62.565803 
3542.000000	62.574839 
3541.000000	62.584233 
3540.000000	62.593293 
3539.000000	62.602972 
3538.000000	62.615418 
3537.000000	62.633442 
3536.000000	62.659001 
3535.000000	62.692189 
3534.000000	62.730860 
3533.000000	62.770605 
3532.000000	62.805986 
3531.000000	62.831926 
3530.000000	62.844777 
3529.000000	62.843298 
3528.000000	62.829089 
3527.000000	62.806057 
3526.000000	62.779259 
3525.000000	62.753415 
3524.000000	62.731981 
3523.000000	62.716197 
3522.000000	62.705183 
3521.000000	62.696433 
3520.000000	62.687063 
3519.000000	62.674355 
3518.000000	62.656426 
3517.000000	62.632513 
3516.000000	62.602901 
3515.000000	62.569046 
3514.000000	62.532472 
3513.000000	62.495326 
3512.000000	62.459659 
3511.000000	62.427854 
3510.000000	62.402248 
3509.000000	62.385368 
3508.000000	62.379145 
3507.000000	62.385296 
3506.000000	62.404704 
3505.000000	62.437009 
3504.000000	62.480187 
3503.000000	62.530612 
3502.000000	62.583422 
3501.000000	62.632918 
3500.000000	62.673377 
3499.000000	62.699818 
3498.000000	62.709021 
3497.000000	62.699913 
3496.000000	62.674069 
3495.000000	62.635469 
3494.000000	62.589907 
3493.000000	62.544441 
3492.000000	62.505984 
3491.000000	62.480378 
3490.000000	62.471318 
3489.000000	62.479948 
3488.000000	62.504649 
3487.000000	62.541794 
3486.000000	62.586212 
3485.000000	62.632131 
3484.000000	62.674045 
3483.000000	62.707233 
3482.000000	62.728714 
3481.000000	62.737011 
3480.000000	62.732505 
3479.000000	62.717151 
3478.000000	62.694096 
3477.000000	62.667250 
3476.000000	62.640571 
3475.000000	62.617659 
3474.000000	62.601041 
3473.000000	62.591934 
3472.000000	62.590336 
3471.000000	62.595367 
3470.000000	62.605237 
3469.000000	62.617778 
3468.000000	62.630915 
3467.000000	62.642955 
3466.000000	62.652468 
3465.000000	62.658452 
3464.000000	62.660050 
3463.000000	62.656474 
3462.000000	62.647342 
3461.000000	62.632536 
3460.000000	62.612318 
3459.000000	62.587618 
3458.000000	62.560319 
3457.000000	62.532973 
3456.000000	62.508296 
3455.000000	62.488532 
3454.000000	62.475156 
3453.000000	62.468242 
3452.000000	62.466549 
3451.000000	62.467575 
3450.000000	62.467980 
3449.000000	62.464356 
3448.000000	62.454032 
3447.000000	62.435793 
3446.000000	62.409949 
3445.000000	62.378501 
3444.000000	62.344503 
3443.000000	62.311387 
3442.000000	62.282299 
3441.000000	62.258911 
3440.000000	62.241291 
3439.000000	62.227845 
3438.000000	62.216329 
3437.000000	62.204384 
3436.000000	62.190842 
3435.000000	62.175917 
3434.000000	62.161755 
3433.000000	62.151670 
3432.000000	62.149524 
3431.000000	62.158203 
3430.000000	62.179017 
3429.000000	62.210726 
3428.000000	62.249732 
3427.000000	62.290620 
3426.000000	62.327218 
3425.000000	62.353873 
3424.000000	62.366628 
3423.000000	62.364268 
3422.000000	62.348222 
3421.000000	62.322163 
3420.000000	62.291502 
3419.000000	62.262105 
3418.000000	62.239527 
3417.000000	62.227869 
3416.000000	62.229466 
3415.000000	62.244558 
3414.000000	62.271213 
3413.000000	62.305688 
3412.000000	62.343192 
3411.000000	62.378644 
3410.000000	62.407112 
3409.000000	62.424850 
3408.000000	62.429642 
3407.000000	62.421226 
3406.000000	62.401127 
3405.000000	62.372088 
3404.000000	62.337827 
3403.000000	62.301731 
3402.000000	62.267184 
3401.000000	62.236523 
3400.000000	62.211203 
3399.000000	62.192034 
3398.000000	62.179470 
3397.000000	62.174010 
3396.000000	62.175893 
3395.000000	62.185645 
3394.000000	62.203478 
3393.000000	62.228870 
3392.000000	62.260174 
3391.000000	62.294793 
3390.000000	62.329578 
3389.000000	62.361121 
3388.000000	62.386512 
3387.000000	62.404227 
3386.000000	62.414336 
3385.000000	62.418532 
3384.000000	62.419271 
3383.000000	62.419271 
3382.000000	62.420344 
3381.000000	62.422871 
3380.000000	62.425780 
3379.000000	62.426829 
3378.000000	62.423348 
3377.000000	62.413430 
3376.000000	62.396216 
3375.000000	62.372660 
3374.000000	62.345027 
3373.000000	62.316751 
3372.000000	62.291312 
3371.000000	62.271451 
3370.000000	62.258529 
3369.000000	62.252473 
3368.000000	62.251520 
3367.000000	62.252783 
3366.000000	62.252759 
3365.000000	62.248277 
3364.000000	62.236857 
3363.000000	62.217044 
3362.000000	62.188553 
3361.000000	62.152171 
3360.000000	62.109780 
3359.000000	62.064242 
3358.000000	62.018656 
3357.000000	61.976361 
3356.000000	61.940383 
3355.000000	61.913442 
3354.000000	61.897039 
3353.000000	61.891770 
3352.000000	61.897206 
3351.000000	61.912178 
3350.000000	61.934566 
3349.000000	61.962103 
3348.000000	61.991977 
3347.000000	62.021899 
3346.000000	62.049889 
3345.000000	62.074828 
3344.000000	62.096214 
3343.000000	62.114596 
3342.000000	62.131166 
3341.000000	62.147140 
3340.000000	62.163257 
3339.000000	62.179684 
3338.000000	62.195897 
3337.000000	62.210464 
3336.000000	62.221360 
3335.000000	62.226700 
3334.000000	62.225008 
3333.000000	62.215566 
3332.000000	62.198591 
3331.000000	62.175178 
3330.000000	62.146949 
3329.000000	62.115597 
3328.000000	62.082529 
3327.000000	62.048912 
3326.000000	62.015676 
3325.000000	61.983680 
3324.000000	61.954283 
3323.000000	61.928939 
3322.000000	61.909723 
3321.000000	61.898446 
3320.000000	61.896610 
3319.000000	61.904406 
3318.000000	61.921310 
3317.000000	61.945772 
3316.000000	61.975598 
3315.000000	62.008118 
3314.000000	62.040758 
3313.000000	62.071466 
3312.000000	62.098550 
3311.000000	62.120795 
3310.000000	62.137293 
3309.000000	62.147545 
3308.000000	62.151122 
3307.000000	62.147712 
3306.000000	62.137365 
3305.000000	62.120461 
3304.000000	62.098050 
3303.000000	62.071728 
3302.000000	62.043786 
3301.000000	62.016844 
3300.000000	61.993432 
3299.000000	61.975622 
3298.000000	61.964797 
3297.000000	61.961245 
3296.000000	61.964368 
3295.000000	61.972570 
3294.000000	61.983633 
3293.000000	61.995077 
3292.000000	62.004637 
3291.000000	62.010645 
3290.000000	62.011861 
3289.000000	62.008166 
3288.000000	62.000083 
3287.000000	61.988735 
3286.000000	61.975669 
3285.000000	61.962342 
3284.000000	61.949944 
3283.000000	61.939430 
3282.000000	61.931324 
3281.000000	61.925649 
3280.000000	61.922049 
3279.000000	61.919760 
3278.000000	61.917877 
3277.000000	61.915516 
3276.000000	61.911749 
3275.000000	61.905908 
3274.000000	61.897778 
3273.000000	61.887454 
3272.000000	61.875486 
3271.000000	61.862397 
3270.000000	61.849164 
3269.000000	61.836481 
3268.000000	61.825346 
3267.000000	61.816525 
3266.000000	61.811017 
3265.000000	61.809587 
3264.000000	61.812901 
3263.000000	61.821222 
3262.000000	61.834359 
3261.000000	61.851525 
3260.000000	61.871409 
3259.000000	61.892414 
3258.000000	61.912918 
3257.000000	61.931586 
3256.000000	61.947417 
3255.000000	61.959862 
3254.000000	61.968898 
3253.000000	61.974978 
3252.000000	61.978411 
3251.000000	61.979246 
3250.000000	61.977338 
3249.000000	61.972284 
3248.000000	61.963653 
3247.000000	61.951136 
3246.000000	61.934995 
3245.000000	61.915946 
3244.000000	61.895275 
3243.000000	61.874461 
3242.000000	61.855149 
3241.000000	61.838579 
3240.000000	61.825728 
3239.000000	61.816954 
3238.000000	61.812114 
3237.000000	61.810469 
3236.000000	61.810898 
3235.000000	61.812210 
3234.000000	61.813163 
3233.000000	61.812829 
3232.000000	61.810970 
3231.000000	61.807847 
3230.000000	61.804246 
3229.000000	61.801505 
3228.000000	61.801147 
3227.000000	61.804437 
3226.000000	61.812019 
3225.000000	61.823725 
3224.000000	61.838769 
3223.000000	61.855530 
3222.000000	61.871957 
3221.000000	61.886239 
3220.000000	61.897015 
3219.000000	61.903738 
3218.000000	61.906790 
3217.000000	61.907172 
3216.000000	61.906123 
3215.000000	61.904978 
3214.000000	61.904549 
3213.000000	61.905241 
3212.000000	61.906671 
3211.000000	61.908173 
3210.000000	61.908841 
3209.000000	61.907696 
3208.000000	61.903738 
3207.000000	61.896371 
3206.000000	61.885190 
3205.000000	61.870360 
3204.000000	61.852312 
3203.000000	61.831617 
3202.000000	61.809182 
3201.000000	61.786103 
3200.000000	61.763501 
3199.000000	61.742472 
3198.000000	61.723589 
3197.000000	61.707115 
3196.000000	61.692833 
3195.000000	61.680340 
3194.000000	61.668992 
3193.000000	61.658406 
3192.000000	61.648440 
3191.000000	61.639404 
3190.000000	61.631846 
3189.000000	61.626529 
3188.000000	61.624026 
3187.000000	61.624550 
3186.000000	61.628007 
3185.000000	61.633586 
3184.000000	61.640167 
3183.000000	61.645936 
3182.000000	61.648964 
3181.000000	61.647057 
3180.000000	61.638402 
3179.000000	61.621642 
3178.000000	61.596274 
3177.000000	61.562967 
3176.000000	61.523652 
3175.000000	61.481809 
3174.000000	61.441874 
3173.000000	61.408829 
3172.000000	61.387228 
3171.000000	61.380243 
3170.000000	61.389017 
3169.000000	61.412358 
3168.000000	61.446857 
3167.000000	61.487531 
3166.000000	61.528944 
3165.000000	61.566019 
3164.000000	61.595225 
3163.000000	61.614847 
3162.000000	61.624932 
3161.000000	61.626887 
3160.000000	61.622881 
3159.000000	61.614799 
3158.000000	61.603927 
3157.000000	61.591172 
3156.000000	61.576628 
3155.000000	61.560463 
3154.000000	61.542725 
3153.000000	61.524248 
3152.000000	61.505818 
3151.000000	61.488080 
3150.000000	61.471271 
3149.000000	61.454987 
3148.000000	61.438512 
3147.000000	61.421227 
3146.000000	61.403036 
3145.000000	61.384725 
3144.000000	61.368012 
3143.000000	61.355066 
3142.000000	61.347889 
3141.000000	61.347579 
3140.000000	61.353516 
3139.000000	61.363482 
3138.000000	61.373662 
3137.000000	61.380124 
3136.000000	61.379599 
3135.000000	61.370992 
3134.000000	61.355423 
3133.000000	61.336684 
3132.000000	61.320090 
3131.000000	61.311650 
3130.000000	61.315965 
3129.000000	61.335802 
3128.000000	61.370873 
3127.000000	61.418104 
3126.000000	61.472439 
3125.000000	61.527466 
3124.000000	61.576890 
3123.000000	61.615300 
3122.000000	61.639213 
3121.000000	61.646890 
3120.000000	61.638355 
3119.000000	61.615157 
3118.000000	61.579799 
3117.000000	61.535477 
3116.000000	61.485600 
3115.000000	61.433815 
3114.000000	61.383628 
3113.000000	61.338424 
3112.000000	61.301088 
3111.000000	61.273717 
3110.000000	61.257386 
3109.000000	61.252021 
3108.000000	61.256408 
3107.000000	61.268448 
3106.000000	61.285614 
3105.000000	61.305332 
3104.000000	61.325407 
3103.000000	61.344099 
3102.000000	61.360216 
3101.000000	61.372923 
3100.000000	61.381649 
3099.000000	61.385917 
3098.000000	61.385416 
3097.000000	61.379981 
3096.000000	61.369919 
3095.000000	61.356067 
3094.000000	61.339688 
3093.000000	61.322259 
3092.000000	61.305260 
3091.000000	61.289548 
3090.000000	61.275243 
3089.000000	61.261582 
3088.000000	61.247181 
3087.000000	61.230826 
3086.000000	61.211752 
3085.000000	61.190438 
3084.000000	61.168694 
3083.000000	61.149573 
3082.000000	61.136317 
3081.000000	61.131739 
3080.000000	61.137437 
3079.000000	61.153101 
3078.000000	61.176538 
3077.000000	61.204218 
3076.000000	61.231732 
3075.000000	61.255145 
3074.000000	61.271715 
3073.000000	61.280345 
3072.000000	61.281609 
3071.000000	61.277484 
3070.000000	61.270833 
3069.000000	61.264538 
3068.000000	61.260771 
3067.000000	61.260986 
3066.000000	61.265563 
3065.000000	61.274242 
3064.000000	61.286258 
3063.000000	61.300492 
3062.000000	61.315774 
3061.000000	61.330986 
3060.000000	61.344957 
3059.000000	61.356544 
3058.000000	61.364579 
3057.000000	61.368131 
3056.000000	61.366605 
3055.000000	61.359810 
3054.000000	61.348032 
3053.000000	61.332106 
3052.000000	61.313247 
3051.000000	61.292719 
3050.000000	61.271715 
3049.000000	61.251258 
3048.000000	61.231994 
3047.000000	61.214470 
3046.000000	61.198711 
3045.000000	61.184430 
3044.000000	61.171102 
3043.000000	61.158132 
3042.000000	61.144685 
3041.000000	61.129808 
3040.000000	61.112904 
3039.000000	61.093926 
3038.000000	61.073684 
3037.000000	61.053609 
3036.000000	61.035847 
3035.000000	61.022806 
3034.000000	61.016464 
3033.000000	61.018157 
3032.000000	61.027884 
3031.000000	61.044526 
3030.000000	61.065649 
3029.000000	61.088514 
3028.000000	61.110210 
3027.000000	61.128568 
3026.000000	61.142420 
3025.000000	61.151504 
3024.000000	61.156296 
3023.000000	61.157274 
3022.000000	61.154770 
3021.000000	61.148691 
3020.000000	61.138415 
3019.000000	61.123299 
3018.000000	61.103034 
3017.000000	61.077880 
3016.000000	61.049151 
3015.000000	61.018967 
3014.000000	60.989928 
3013.000000	60.964727 
3012.000000	60.945510 
3011.000000	60.933518 
3010.000000	60.928964 
3009.000000	60.931110 
3008.000000	60.938668 
3007.000000	60.950326 
3006.000000	60.964822 
3005.000000	60.981440 
3004.000000	60.999774 
3003.000000	61.019635 
3002.000000	61.040806 
3001.000000	61.062407 
3000.000000	61.083054 
2999.000000	61.100888 
2998.000000	61.113572 
2997.000000	61.119008 
2996.000000	61.115431 
2995.000000	61.102104 
2994.000000	61.079192 
2993.000000	61.048150 
2992.000000	61.011290 
2991.000000	60.971593 
2990.000000	60.932064 
2989.000000	60.895466 
2988.000000	60.863900 
2987.000000	60.838651 
2986.000000	60.820150 
2985.000000	60.808134 
2984.000000	60.801792 
2983.000000	60.799932 
2982.000000	60.801362 
2981.000000	60.804963 
2980.000000	60.809826 
2979.000000	60.815453 
2978.000000	60.821580 
2977.000000	60.828399 
2976.000000	60.835909 
2975.000000	60.843968 
2974.000000	60.852146 
2973.000000	60.859560 
2972.000000	60.864996 
2971.000000	60.866856 
2970.000000	60.863947 
2969.000000	60.855627 
2968.000000	60.842132 
2967.000000	60.824775 
2966.000000	60.805869 
2965.000000	60.788083 
2964.000000	60.774183 
2963.000000	60.766029 
2962.000000	60.764455 
2961.000000	60.768580 
2960.000000	60.776376 
2959.000000	60.784935 
2958.000000	60.791349 
2957.000000	60.793328 
2956.000000	60.789680 
2955.000000	60.780668 
2954.000000	60.767602 
2953.000000	60.752367 
2952.000000	60.736846 
2951.000000	60.722446 
2950.000000	60.709977 
2949.000000	60.699462 
2948.000000	60.690379 
2947.000000	60.681986 
2946.000000	60.673928 
2945.000000	60.666275 
2944.000000	60.659837 
2943.000000	60.655641 
2942.000000	60.654807 
2941.000000	60.658049 
2940.000000	60.665106 
2939.000000	60.674786 
2938.000000	60.684728 
2937.000000	60.692119 
2936.000000	60.694003 
2935.000000	60.687899 
2934.000000	60.672616 
2933.000000	60.648369 
2932.000000	60.616683 
2931.000000	60.579943 
2930.000000	60.541105 
2929.000000	60.503053 
2928.000000	60.467720 
2927.000000	60.436129 
2926.000000	60.408306 
2925.000000	60.383772 
2924.000000	60.361886 
2923.000000	60.342478 
2922.000000	60.326123 
2921.000000	60.314011 
2920.000000	60.307526 
2919.000000	60.307860 
2918.000000	60.315060 
2917.000000	60.328221 
2916.000000	60.345101 
2915.000000	60.362744 
2914.000000	60.377979 
2913.000000	60.388302 
2912.000000	60.392355 
2911.000000	60.390496 
2910.000000	60.384297 
2909.000000	60.376548 
2908.000000	60.370349 
2907.000000	60.368514 
2906.000000	60.372900 
2905.000000	60.384011 
2904.000000	60.401201 
2903.000000	60.423159 
2902.000000	60.448217 
2901.000000	60.474729 
2900.000000	60.501408 
2899.000000	60.527586 
2898.000000	60.552954 
2897.000000	60.577273 
2896.000000	60.599708 
2895.000000	60.619401 
2894.000000	60.634899 
2893.000000	60.644721 
2892.000000	60.647487 
2891.000000	60.642647 
2890.000000	60.630226 
2889.000000	60.611772 
2888.000000	60.588955 
2887.000000	60.563945 
2886.000000	60.538387 
2885.000000	60.513305 
2884.000000	60.488581 
2883.000000	60.463428 
2882.000000	60.436701 
2881.000000	60.407781 
2880.000000	60.377192 
2879.000000	60.346698 
2878.000000	60.319566 
2877.000000	60.299873 
2876.000000	60.291552 
2875.000000	60.297465 
2874.000000	60.318470 
2873.000000	60.353136 
2872.000000	60.397601 
2871.000000	60.446310 
2870.000000	60.493063 
2869.000000	60.531997 
2868.000000	60.558629 
2867.000000	60.570096 
2866.000000	60.565733 
2865.000000	60.546278 
2864.000000	60.513758 
2863.000000	60.470867 
2862.000000	60.420608 
2861.000000	60.366153 
2860.000000	60.310959 
2859.000000	60.258483 
2858.000000	60.212230 
2857.000000	60.175371 
2856.000000	60.150623 
2855.000000	60.139560 
2854.000000	60.142183 
2853.000000	60.157132 
2852.000000	60.181593 
2851.000000	60.212016 
2850.000000	60.244774 
2849.000000	60.276842 
2848.000000	60.306119 
2847.000000	60.331797 
2846.000000	60.354042 
2845.000000	60.373544 
2844.000000	60.390996 
2843.000000	60.406589 
2842.000000	60.419845 
2841.000000	60.429787 
2840.000000	60.434985 
2839.000000	60.434532 
2838.000000	60.427904 
2837.000000	60.415625 
2836.000000	60.398983 
2835.000000	60.380005 
2834.000000	60.361194 
2833.000000	60.344672 
2832.000000	60.332393 
2831.000000	60.325431 
2830.000000	60.324287 
2829.000000	60.328984 
2828.000000	60.339021 
2827.000000	60.353541 
2826.000000	60.371184 
2825.000000	60.390353 
2824.000000	60.408926 
2823.000000	60.424494 
2822.000000	60.434460 
2821.000000	60.436582 
2820.000000	60.429453 
2819.000000	60.412836 
2818.000000	60.387945 
2817.000000	60.357379 
2816.000000	60.324883 
2815.000000	60.294532 
2814.000000	60.270047 
2813.000000	60.253906 
2812.000000	60.246992 
2811.000000	60.248374 
2810.000000	60.255622 
2809.000000	60.265374 
2808.000000	60.274243 
2807.000000	60.279417 
2806.000000	60.279273 
2805.000000	60.273575 
2804.000000	60.263395 
2803.000000	60.250616 
2802.000000	60.237312 
2801.000000	60.225081 
2800.000000	60.214853 
2799.000000	60.206651 
2798.000000	60.199856 
2797.000000	60.193443 
2796.000000	60.186505 
2795.000000	60.178613 
2794.000000	60.169744 
2793.000000	60.160279 
2792.000000	60.150575 
2791.000000	60.140943 
2790.000000	60.131478 
2789.000000	60.121631 
2788.000000	60.110878 
2787.000000	60.098814 
2786.000000	60.085511 
2785.000000	60.071516 
2784.000000	60.057854 
2783.000000	60.046005 
2782.000000	60.037183 
2781.000000	60.031914 
2780.000000	60.029721 
2779.000000	60.029196 
2778.000000	60.028195 
2777.000000	60.024380 
2776.000000	60.015892 
2775.000000	60.001754 
2774.000000	59.982204 
2773.000000	59.958815 
2772.000000	59.934163 
2771.000000	59.911203 
2770.000000	59.892821 
2769.000000	59.881305 
2768.000000	59.877967 
2767.000000	59.883117 
2766.000000	59.895992 
2765.000000	59.915089 
2764.000000	59.938526 
2763.000000	59.964299 
2762.000000	59.990692 
2761.000000	60.016489 
2760.000000	60.040950 
2759.000000	60.063791 
2758.000000	60.085058 
2757.000000	60.104823 
2756.000000	60.123181 
2755.000000	60.139656 
2754.000000	60.153460 
2753.000000	60.163044 
2752.000000	60.166978 
2751.000000	60.163736 
2750.000000	60.152602 
2749.000000	60.133528 
2748.000000	60.107851 
2747.000000	60.077667 
2746.000000	60.045695 
2745.000000	60.014748 
2744.000000	59.987235 
2743.000000	59.964752 
2742.000000	59.948134 
2741.000000	59.937334 
2740.000000	59.931468 
2739.000000	59.929180 
2738.000000	59.928894 
2737.000000	59.929084 
2736.000000	59.928536 
2735.000000	59.926462 
2734.000000	59.922623 
2733.000000	59.916973 
2732.000000	59.909892 
2731.000000	59.901976 
2730.000000	59.893774 
2729.000000	59.885764 
2728.000000	59.878230 
2727.000000	59.871172 
2726.000000	59.864377 
2725.000000	59.857487 
2724.000000	59.850287 
2723.000000	59.842801 
2722.000000	59.835243 
2721.000000	59.828019 
2720.000000	59.821510 
2719.000000	59.815740 
2718.000000	59.810471 
2717.000000	59.805011 
2716.000000	59.798765 
2715.000000	59.791302 
2714.000000	59.782743 
2713.000000	59.773969 
2712.000000	59.766340 
2711.000000	59.761404 
2710.000000	59.760379 
2709.000000	59.764003 
2708.000000	59.771990 
2707.000000	59.783506 
2706.000000	59.797024 
2705.000000	59.811067 
2704.000000	59.824633 
2703.000000	59.837579 
2702.000000	59.850549 
2701.000000	59.864640 
2700.000000	59.880781 
2699.000000	59.899377 
2698.000000	59.919810 
2697.000000	59.940338 
2696.000000	59.958529 
2695.000000	59.971642 
2694.000000	59.977602 
2693.000000	59.975194 
2692.000000	59.964585 
2691.000000	59.947037 
2690.000000	59.924936 
2689.000000	59.900808 
2688.000000	59.877157 
2687.000000	59.855580 
2686.000000	59.836888 
2685.000000	59.820723 
2684.000000	59.805917 
2683.000000	59.790945 
2682.000000	59.774446 
2681.000000	59.755730 
2680.000000	59.735059 
2679.000000	59.713411 
2678.000000	59.692454 
2677.000000	59.674072 
2676.000000	59.659981 
2675.000000	59.651041 
2674.000000	59.647297 
2673.000000	59.648060 
2672.000000	59.651923 
2671.000000	59.657120 
2670.000000	59.662032 
2669.000000	59.665131 
2668.000000	59.665465 
2667.000000	59.662413 
2666.000000	59.655833 
2665.000000	59.645962 
2664.000000	59.633445 
2663.000000	59.618949 
2662.000000	59.603667 
2661.000000	59.588956 
2660.000000	59.576225 
2659.000000	59.566879 
2658.000000	59.561705 
2657.000000	59.560656 
2656.000000	59.562802 
2655.000000	59.566521 
2654.000000	59.569692 
2653.000000	59.570312 
2652.000000	59.566807 
2651.000000	59.558749 
2650.000000	59.546661 
2649.000000	59.532380 
2648.000000	59.518027 
2647.000000	59.506344 
2646.000000	59.499788 
2645.000000	59.500074 
2644.000000	59.507918 
2643.000000	59.522676 
2642.000000	59.542393 
2641.000000	59.563899 
2640.000000	59.583449 
2639.000000	59.597253 
2638.000000	59.602308 
2637.000000	59.596943 
2636.000000	59.581160 
2635.000000	59.556770 
2634.000000	59.527015 
2633.000000	59.496188 
2632.000000	59.468483 
2631.000000	59.447360 
2630.000000	59.434604 
2629.000000	59.430384 
2628.000000	59.433007 
2627.000000	59.439587 
2626.000000	59.446740 
2625.000000	59.451460 
2624.000000	59.451556 
2623.000000	59.446167 
2622.000000	59.435677 
2621.000000	59.421205 
2620.000000	59.404635 
2619.000000	59.387731 
2618.000000	59.372043 
2617.000000	59.358525 
2616.000000	59.347486 
2615.000000	59.338593 
2614.000000	59.331250 
2613.000000	59.324765 
2612.000000	59.318757 
2611.000000	59.313225 
2610.000000	59.308528 
2609.000000	59.305167 
2608.000000	59.303545 
2607.000000	59.303617 
2606.000000	59.304738 
2605.000000	59.305763 
2604.000000	59.305262 
2603.000000	59.301972 
2602.000000	59.295344 
2601.000000	59.285521 
2600.000000	59.273672 
2599.000000	59.261536 
2598.000000	59.251093 
2597.000000	59.243845 
2596.000000	59.240388 
2595.000000	59.240126 
2594.000000	59.241414 
2593.000000	59.242033 
2592.000000	59.239721 
2591.000000	59.233021 
2590.000000	59.221768 
2589.000000	59.207081 
2588.000000	59.190821 
2587.000000	59.175348 
2586.000000	59.162950 
2585.000000	59.154939 
2584.000000	59.151482 
2583.000000	59.151721 
2582.000000	59.154129 
2581.000000	59.156703 
2580.000000	59.157729 
2579.000000	59.155869 
2578.000000	59.150600 
2577.000000	59.141969 
2576.000000	59.130764 
2575.000000	59.117865 
2574.000000	59.104323 
2573.000000	59.090948 
2572.000000	59.078454 
2571.000000	59.067392 
2570.000000	59.058094 
2569.000000	59.050965 
2568.000000	59.046220 
2567.000000	59.043931 
2566.000000	59.044265 
2565.000000	59.047126 
2564.000000	59.052419 
2563.000000	59.059906 
2562.000000	59.069561 
2561.000000	59.081196 
2560.000000	59.094834 
2559.000000	59.110355 
2558.000000	59.127545 
2557.000000	59.145641 
2556.000000	59.163594 
2555.000000	59.180140 
2554.000000	59.193563 
2553.000000	59.202027 
2552.000000	59.204173 
2551.000000	59.199333 
2550.000000	59.187817 
2549.000000	59.170746 
2548.000000	59.150123 
2547.000000	59.128165 
2546.000000	59.106922 
2545.000000	59.087681 
2544.000000	59.070944 
2543.000000	59.056329 
2542.000000	59.042787 
2541.000000	59.029197 
2540.000000	59.014701 
2539.000000	58.999133 
2538.000000	58.983182 
2537.000000	58.968281 
2536.000000	58.955955 
2535.000000	58.947849 
2534.000000	58.945059 
2533.000000	58.948278 
2532.000000	58.957362 
2531.000000	58.971834 
2530.000000	58.991169 
2529.000000	59.014701 
2528.000000	59.041619 
2527.000000	59.070491 
2526.000000	59.099268 
2525.000000	59.125137 
2524.000000	59.144759 
2523.000000	59.154796 
2522.000000	59.152817 
2521.000000	59.137916 
2520.000000	59.111189 
2519.000000	59.075713 
2518.000000	59.035778 
2517.000000	58.996391 
2516.000000	58.961939 
2515.000000	58.935356 
2514.000000	58.917522 
2513.000000	58.907628 
2512.000000	58.903098 
2511.000000	58.900761 
2510.000000	58.897519 
2509.000000	58.890914 
2508.000000	58.879661 
2507.000000	58.863091 
2506.000000	58.841514 
2505.000000	58.815431 
2504.000000	58.785891 
2503.000000	58.754158 
2502.000000	58.722066 
2501.000000	58.691906 
2500.000000	58.666133 
2499.000000	58.647251 
2498.000000	58.637046 
2497.000000	58.636283 
2496.000000	58.644390 
2495.000000	58.659505 
2494.000000	58.678507 
2493.000000	58.697652 
2492.000000	58.713030 
2491.000000	58.721470 
2490.000000	58.720803 
2489.000000	58.710455 
2488.000000	58.691167 
2487.000000	58.665370 
2486.000000	58.636140 
2485.000000	58.607101 
2484.000000	58.581852 
2483.000000	58.563280 
2482.000000	58.553504 
2481.000000	58.553242 
2480.000000	58.561992 
2479.000000	58.577847 
2478.000000	58.598065 
2477.000000	58.619332 
2476.000000	58.638310 
2475.000000	58.652210 
2474.000000	58.659267 
2473.000000	58.658790 
2472.000000	58.651018 
2471.000000	58.637452 
2470.000000	58.620333 
2469.000000	58.602571 
2468.000000	58.586955 
2467.000000	58.576202 
2466.000000	58.572101 
2465.000000	58.575320 
2464.000000	58.584856 
2463.000000	58.598399 
2462.000000	58.612489 
2461.000000	58.623409 
2460.000000	58.627772 
2459.000000	58.623123 
2458.000000	58.608698 
2457.000000	58.585333 
2456.000000	58.555698 
2455.000000	58.523321 
2454.000000	58.492231 
2453.000000	58.465886 
2452.000000	58.446788 
2451.000000	58.436226 
2450.000000	58.434081 
2449.000000	58.439230 
2448.000000	58.449935 
2447.000000	58.464002 
2446.000000	58.479452 
2445.000000	58.494687 
2444.000000	58.508491 
2443.000000	58.519887 
2442.000000	58.528566 
2441.000000	58.534789 
2440.000000	58.539175 
2439.000000	58.542490 
2438.000000	58.545398 
2437.000000	58.548021 
2436.000000	58.549976 
2435.000000	58.550190 
2434.000000	58.547067 
2433.000000	58.539104 
2432.000000	58.525133 
2431.000000	58.505129 
2430.000000	58.480429 
2429.000000	58.453702 
2428.000000	58.428621 
2427.000000	58.409023 
2426.000000	58.397889 
2425.000000	58.396720 
2424.000000	58.405137 
2423.000000	58.420681 
2422.000000	58.439302 
2421.000000	58.456134 
2420.000000	58.466744 
2419.000000	58.467507 
2418.000000	58.456563 
2417.000000	58.433866 
2416.000000	58.400940 
2415.000000	58.360838 
2414.000000	58.317208 
2413.000000	58.273935 
2412.000000	58.234357 
2411.000000	58.201050 
2410.000000	58.175444 
2409.000000	58.157896 
2408.000000	58.147692 
2407.000000	58.143210 
2406.000000	58.142566 
2405.000000	58.143591 
2404.000000	58.144736 
2403.000000	58.145046 
2402.000000	58.144736 
2401.000000	58.144688 
2400.000000	58.146166 
2399.000000	58.150219 
2398.000000	58.157396 
2397.000000	58.167195 
2396.000000	58.178448 
2395.000000	58.189201 
2394.000000	58.197712 
2393.000000	58.202791 
2392.000000	58.203911 
2391.000000	58.201718 
2390.000000	58.197546 
2389.000000	58.193087 
2388.000000	58.189821 
2387.000000	58.188557 
2386.000000	58.189344 
2385.000000	58.191394 
2384.000000	58.193302 
2383.000000	58.193325 
2382.000000	58.190274 
2381.000000	58.183622 
2380.000000	58.173465 
2379.000000	58.160614 
2378.000000	58.146309 
2377.000000	58.131957 
2376.000000	58.118796 
2375.000000	58.107686 
2374.000000	58.098888 
2373.000000	58.092236 
2372.000000	58.087205 
2371.000000	58.083152 
2370.000000	58.079266 
2369.000000	58.075094 
2368.000000	58.070588 
2367.000000	58.066082 
2366.000000	58.062124 
2365.000000	58.059382 
2364.000000	58.058357 
2363.000000	58.059263 
2362.000000	58.061814 
2361.000000	58.065462 
2360.000000	58.069467 
2359.000000	58.073139 
2358.000000	58.076071 
2357.000000	58.078408 
2356.000000	58.080792 
2355.000000	58.084273 
2354.000000	58.089876 
2353.000000	58.098435 
2352.000000	58.110022 
2351.000000	58.123898 
2350.000000	58.138179 
2349.000000	58.150458 
2348.000000	58.157968 
2347.000000	58.158254 
2346.000000	58.149695 
2345.000000	58.131694 
2344.000000	58.105182 
2343.000000	58.072328 
2342.000000	58.036327 
2341.000000	58.000826 
2340.000000	57.969355 
2339.000000	57.944798 
2338.000000	57.928752 
2337.000000	57.921552 
2336.000000	57.922220 
2335.000000	57.928705 
2334.000000	57.938504 
2333.000000	57.949185 
2332.000000	57.958674 
2331.000000	57.965588 
2330.000000	57.969379 
2329.000000	57.970166 
2328.000000	57.968330 
2327.000000	57.964229 
2326.000000	57.958459 
2325.000000	57.951235 
2324.000000	57.942748 
2323.000000	57.933020 
2322.000000	57.922434 
2321.000000	57.911324 
2320.000000	57.900214 
2319.000000	57.889556 
2318.000000	57.879638 
2317.000000	57.870483 
2316.000000	57.861852 
2315.000000	57.853412 
2314.000000	57.844924 
2313.000000	57.836556 
2312.000000	57.828879 
2311.000000	57.822656 
2310.000000	57.818460 
2309.000000	57.816576 
2308.000000	57.816648 
2307.000000	57.817459 
2306.000000	57.817125 
2305.000000	57.813405 
2304.000000	57.804322 
2303.000000	57.788491 
2302.000000	57.765555 
2301.000000	57.736253 
2300.000000	57.702136 
2299.000000	57.665276 
2298.000000	57.627844 
2297.000000	57.591581 
2296.000000	57.557654 
2295.000000	57.526779 
2294.000000	57.499361 
2293.000000	57.475709 
2292.000000	57.456445 
2291.000000	57.442355 
2290.000000	57.434535 
2289.000000	57.433629 
2288.000000	57.440209 
2287.000000	57.454037 
2286.000000	57.474279 
2285.000000	57.499289 
2284.000000	57.526969 
2283.000000	57.554841 
2282.000000	57.580494 
2281.000000	57.601761 
2280.000000	57.617044 
2279.000000	57.625174 
2278.000000	57.625627 
2277.000000	57.618570 
2276.000000	57.604861 
2275.000000	57.586002 
2274.000000	57.564210 
2273.000000	57.542037 
2272.000000	57.522273 
2271.000000	57.507348 
2270.000000	57.499408 
2269.000000	57.499551 
2268.000000	57.507634 
2267.000000	57.522249 
2266.000000	57.541108 
2265.000000	57.561182 
2264.000000	57.579112 
2263.000000	57.591819 
2262.000000	57.597041 
2261.000000	57.593679 
2260.000000	57.581877 
2259.000000	57.562947 
2258.000000	57.539224 
2257.000000	57.513594 
2256.000000	57.488989 
2255.000000	57.467770 
2254.000000	57.451391 
2253.000000	57.440185 
2252.000000	57.433485 
2251.000000	57.429480 
2250.000000	57.425951 
2249.000000	57.420778 
2248.000000	57.412528 
2247.000000	57.400512 
2246.000000	57.385182 
2245.000000	57.367920 
2244.000000	57.350730 
2243.000000	57.335686 
2242.000000	57.324314 
2241.000000	57.317137 
2240.000000	57.313776 
2239.000000	57.312893 
2238.000000	57.312703 
2237.000000	57.311439 
2236.000000	57.307744 
2235.000000	57.300996 
2234.000000	57.291436 
2233.000000	57.279896 
2232.000000	57.267403 
2231.000000	57.254862 
2230.000000	57.242703 
2229.000000	57.230925 
2228.000000	57.219290 
2227.000000	57.207298 
2226.000000	57.194757 
2225.000000	57.181787 
2224.000000	57.169079 
2223.000000	57.157564 
2222.000000	57.148051 
2221.000000	57.141304 
2220.000000	57.137322 
2219.000000	57.135772 
2218.000000	57.135820 
2217.000000	57.136583 
2216.000000	57.137179 
2215.000000	57.137012 
2214.000000	57.135844 
2213.000000	57.133698 
2212.000000	57.130670 
2211.000000	57.126903 
2210.000000	57.122492 
2209.000000	57.117438 
2208.000000	57.111883 
2207.000000	57.106041 
2206.000000	57.100272 
2205.000000	57.095003 
2204.000000	57.090687 
2203.000000	57.087278 
2202.000000	57.084369 
2201.000000	57.080960 
2200.000000	57.075881 
2199.000000	57.067966 
2198.000000	57.056522 
2197.000000	57.041621 
2196.000000	57.024073 
2195.000000	57.005405 
2194.000000	56.987380 
2193.000000	56.971287 
2192.000000	56.957960 
2191.000000	56.947064 
2190.000000	56.937599 
2189.000000	56.928157 
2188.000000	56.917452 
2187.000000	56.904506 
2186.000000	56.889510 
2185.000000	56.873321 
2184.000000	56.857705 
2183.000000	56.844711 
2182.000000	56.836199 
2181.000000	56.833362 
2180.000000	56.836605 
2179.000000	56.845569 
2178.000000	56.859350 
2177.000000	56.876683 
2176.000000	56.896114 
2175.000000	56.916284 
2174.000000	56.935691 
2173.000000	56.952738 
2172.000000	56.965661 
2171.000000	56.972742 
2170.000000	56.972408 
2169.000000	56.963825 
2168.000000	56.947088 
2167.000000	56.923389 
2166.000000	56.895208 
2165.000000	56.866145 
2164.000000	56.840229 
2163.000000	56.821179 
2162.000000	56.811857 
2161.000000	56.813383 
2160.000000	56.825041 
2159.000000	56.844282 
2158.000000	56.867289 
2157.000000	56.889533 
2156.000000	56.907010 
2155.000000	56.916642 
2154.000000	56.916761 
2153.000000	56.907510 
2152.000000	56.890439 
2151.000000	56.868052 
2150.000000	56.843280 
2149.000000	56.818914 
2148.000000	56.797146 
2147.000000	56.779479 
2146.000000	56.766533 
2145.000000	56.758451 
2144.000000	56.754946 
2143.000000	56.755256 
2142.000000	56.758356 
2141.000000	56.762886 
2140.000000	56.767320 
2139.000000	56.769871 
2138.000000	56.768965 
2137.000000	56.763529 
2136.000000	56.753134 
2135.000000	56.738471 
2134.000000	56.720757 
2133.000000	56.701612 
2132.000000	56.682705 
2131.000000	56.665372 
2130.000000	56.650447 
2129.000000	56.638121 
2128.000000	56.628298 
2127.000000	56.620645 
2126.000000	56.615042 
2125.000000	56.611657 
2124.000000	56.610798 
2123.000000	56.612682 
2122.000000	56.617212 
2121.000000	56.623744 
2120.000000	56.631088 
2119.000000	56.637501 
2118.000000	56.641197 
2117.000000	56.640553 
2116.000000	56.634712 
2115.000000	56.623840 
2114.000000	56.608676 
2113.000000	56.590533 
2112.000000	56.570887 
2111.000000	56.551170 
2110.000000	56.532573 
2109.000000	56.516170 
2108.000000	56.502604 
2107.000000	56.492328 
2106.000000	56.485748 
2105.000000	56.482934 
2104.000000	56.483602 
2103.000000	56.486916 
2102.000000	56.491661 
2101.000000	56.496095 
2100.000000	56.498265 
2099.000000	56.496453 
2098.000000	56.489396 
2097.000000	56.476974 
2096.000000	56.460261 
2095.000000	56.441378 
2094.000000	56.423163 
2093.000000	56.408810 
2092.000000	56.401085 
2091.000000	56.402111 
2090.000000	56.412696 
2089.000000	56.432104 
2088.000000	56.458044 
2087.000000	56.487011 
2086.000000	56.514644 
2085.000000	56.536746 
2084.000000	56.549739 
2083.000000	56.551432 
2082.000000	56.541609 
2081.000000	56.521797 
2080.000000	56.494808 
2079.000000	56.463789 
2078.000000	56.431508 
2077.000000	56.400012 
2076.000000	56.370353 
2075.000000	56.342768 
2074.000000	56.317543 
2073.000000	56.295108 
2072.000000	56.277036 
2071.000000	56.265711 
2070.000000	56.263780 
2069.000000	56.273341 
2068.000000	56.294655 
2067.000000	56.325793 
2066.000000	56.362199 
2065.000000	56.397247 
2064.000000	56.423759 
2063.000000	56.435561 
2062.000000	56.429028 
2061.000000	56.404209 
2060.000000	56.364679 
2059.000000	56.316995 
2058.000000	56.269168 
2057.000000	56.228709 
2056.000000	56.201457 
2055.000000	56.190156 
2054.000000	56.194353 
2053.000000	56.210494 
2052.000000	56.233453 
2051.000000	56.257557 
2050.000000	56.277704 
2049.000000	56.290626 
2048.000000	56.294965 
2047.000000	56.291604 
2046.000000	56.282448 
2045.000000	56.269979 
2044.000000	56.256318 
2043.000000	56.242823 
2042.000000	56.229948 
2041.000000	56.217503 
2040.000000	56.204938 
2039.000000	56.191921 
2038.000000	56.178617 
2037.000000	56.165671 
2036.000000	56.154251 
2035.000000	56.145358 
2034.000000	56.139469 
2033.000000	56.136393 
2032.000000	56.135177 
2031.000000	56.134390 
2030.000000	56.132197 
2029.000000	56.127190 
2028.000000	56.118345 
2027.000000	56.105756 
2026.000000	56.090188 
2025.000000	56.072592 
2024.000000	56.054115 
2023.000000	56.035542 
2022.000000	56.017398 
2021.000000	55.999970 
2020.000000	55.983448 
2019.000000	55.968213 
2018.000000	55.954885 
2017.000000	55.944323 
2016.000000	55.937242 
2015.000000	55.933952 
2014.000000	55.933880 
2013.000000	55.935549 
2012.000000	55.936646 
2011.000000	55.934572 
2010.000000	55.927109 
2009.000000	55.912947 
2008.000000	55.892300 
2007.000000	55.867242 
2006.000000	55.841207 
2005.000000	55.818390 
2004.000000	55.802845 
2003.000000	55.797457 
2002.000000	55.803298 
2001.000000	55.819082 
2000.000000	55.841660 
1999.000000	55.866384 
1998.000000	55.888390 
1997.000000	55.903339 
1996.000000	55.908489 
1995.000000	55.903148 
1994.000000	55.888652 
1993.000000	55.867886 
1992.000000	55.844521 
1991.000000	55.822181 
1990.000000	55.803608 
1989.000000	55.790138 
1988.000000	55.781936 
1987.000000	55.777883 
1986.000000	55.776500 
1985.000000	55.776190 
1984.000000	55.775809 
1983.000000	55.774760 
1982.000000	55.772995 
1981.000000	55.770683 
1980.000000	55.767989 
1979.000000	55.764794 
1978.000000	55.760455 
1977.000000	55.754113 
1976.000000	55.744814 
1975.000000	55.731821 
1974.000000	55.715060 
1973.000000	55.695080 
1972.000000	55.673050 
1971.000000	55.650687 
1970.000000	55.629730 
1969.000000	55.611848 
1968.000000	55.598092 
1967.000000	55.588817 
1966.000000	55.583643 
1965.000000	55.581545 
1964.000000	55.581068 
1963.000000	55.580568 
1962.000000	55.578732 
1961.000000	55.574607 
1960.000000	55.568099 
1959.000000	55.559754 
1958.000000	55.550789 
1957.000000	55.542850 
1956.000000	55.537462 
1955.000000	55.535721 
1954.000000	55.538082 
1953.000000	55.543875 
1952.000000	55.551767 
1951.000000	55.559754 
1950.000000	55.565595 
1949.000000	55.567574 
1948.000000	55.564689 
1947.000000	55.556988 
1946.000000	55.545830 
1945.000000	55.533123 
1944.000000	55.521154 
1943.000000	55.511808 
1942.000000	55.506563 
1941.000000	55.505776 
1940.000000	55.509138 
1939.000000	55.515408 
1938.000000	55.523109 
1937.000000	55.530595 
1936.000000	55.536365 
1935.000000	55.539226 
1934.000000	55.538201 
1933.000000	55.532813 
1932.000000	55.522894 
1931.000000	55.508708 
1930.000000	55.490827 
1929.000000	55.470252 
1928.000000	55.448174 
1927.000000	55.426073 
1926.000000	55.405354 
1925.000000	55.387115 
1924.000000	55.372166 
1923.000000	55.360841 
1922.000000	55.353116 
1921.000000	55.348944 
1920.000000	55.348134 
1919.000000	55.350494 
1918.000000	55.355763 
1917.000000	55.363559 
1916.000000	55.373120 
1915.000000	55.383133 
1914.000000	55.391860 
1913.000000	55.397319 
1912.000000	55.397653 
1911.000000	55.391573 
1910.000000	55.378723 
1909.000000	55.359888 
1908.000000	55.336689 
1907.000000	55.311512 
1906.000000	55.286741 
1905.000000	55.264592 
1904.000000	55.246424 
1903.000000	55.232596 
1902.000000	55.222821 
1901.000000	55.216431 
1900.000000	55.212712 
1899.000000	55.211257 
1898.000000	55.211901 
1897.000000	55.214810 
1896.000000	55.220055 
1895.000000	55.227565 
1894.000000	55.236721 
1893.000000	55.246281 
1892.000000	55.254864 
1891.000000	55.261015 
1890.000000	55.263590 
1889.000000	55.261969 
1888.000000	55.256295 
1887.000000	55.247163 
1886.000000	55.235505 
1885.000000	55.222058 
1884.000000	55.207347 
1883.000000	55.191421 
1882.000000	55.173969 
1881.000000	55.154490 
1880.000000	55.132627 
1879.000000	55.108118 
1878.000000	55.081248 
1877.000000	55.052542 
1876.000000	55.022978 
1875.000000	54.993867 
1874.000000	54.966735 
1873.000000	54.943108 
1872.000000	54.924488 
1871.000000	54.912233 
1870.000000	54.907298 
1869.000000	54.909825 
1868.000000	54.919290 
1867.000000	54.934215 
1866.000000	54.952597 
1865.000000	54.971742 
1864.000000	54.989075 
1863.000000	55.002355 
1862.000000	55.010128 
1861.000000	55.011987 
1860.000000	55.008602 
1859.000000	55.001115 
1858.000000	54.991197 
1857.000000	54.980492 
1856.000000	54.970240 
1855.000000	54.961252 
1854.000000	54.953813 
1853.000000	54.948019 
1852.000000	54.943680 
1851.000000	54.940438 
1850.000000	54.937958 
1849.000000	54.935836 
1848.000000	54.933381 
1847.000000	54.929661 
1846.000000	54.923510 
1845.000000	54.913663 
1844.000000	54.899048 
1843.000000	54.878950 
1842.000000	54.853558 
1841.000000	54.823899 
1840.000000	54.791927 
1839.000000	54.760384 
1838.000000	54.732084 
1837.000000	54.709792 
1836.000000	54.695558 
1835.000000	54.690456 
1834.000000	54.694318 
1833.000000	54.705929 
1832.000000	54.723310 
1831.000000	54.743933 
1830.000000	54.765152 
1829.000000	54.784798 
1828.000000	54.801225 
1827.000000	54.813599 
1826.000000	54.821634 
1825.000000	54.825544 
1824.000000	54.825639 
1823.000000	54.822444 
1822.000000	54.816412 
1821.000000	54.808020 
1820.000000	54.797625 
1819.000000	54.785704 
1818.000000	54.772758 
1817.000000	54.759049 
1816.000000	54.744625 
1815.000000	54.729318 
1814.000000	54.712867 
1813.000000	54.695010 
1812.000000	54.675865 
1811.000000	54.655981 
1810.000000	54.636573 
1809.000000	54.619359 
1808.000000	54.606246 
1807.000000	54.598975 
1806.000000	54.598498 
1805.000000	54.604458 
1804.000000	54.615235 
1803.000000	54.628133 
1802.000000	54.639911 
1801.000000	54.647564 
1800.000000	54.648852 
1799.000000	54.642868 
1798.000000	54.630231 
1797.000000	54.612922 
1796.000000	54.593634 
1795.000000	54.575061 
1794.000000	54.559636 
1793.000000	54.548883 
1792.000000	54.543399 
1791.000000	54.542660 
1790.000000	54.545474 
1789.000000	54.550147 
1788.000000	54.554843 
1787.000000	54.557943 
1786.000000	54.557895 
1785.000000	54.553699 
1784.000000	54.544949 
1783.000000	54.532027 
1782.000000	54.516243 
1781.000000	54.499483 
1780.000000	54.484272 
1779.000000	54.472994 
1778.000000	54.467821 
1777.000000	54.469585 
1776.000000	54.477810 
1775.000000	54.490494 
1774.000000	54.504466 
1773.000000	54.515957 
1772.000000	54.521536 
1771.000000	54.518842 
1770.000000	54.507136 
1769.000000	54.487442 
1768.000000	54.462337 
1767.000000	54.435014 
1766.000000	54.408812 
1765.000000	54.386377 
1764.000000	54.369449 
1763.000000	54.358625 
1762.000000	54.353618 
1761.000000	54.354071 
1760.000000	54.359245 
1759.000000	54.368615 
1758.000000	54.381418 
1757.000000	54.396677 
1756.000000	54.412508 
1755.000000	54.426336 
1754.000000	54.434776 
1753.000000	54.434466 
1752.000000	54.422593 
1751.000000	54.397726 
1750.000000	54.360222 
1749.000000	54.312777 
1748.000000	54.259538 
1747.000000	54.205799 
1746.000000	54.156637 
1745.000000	54.116129 
1744.000000	54.086923 
1743.000000	54.070019 
1742.000000	54.064869 
1741.000000	54.069781 
1740.000000	54.082465 
1739.000000	54.100561 
1738.000000	54.121851 
1737.000000	54.144406 
1736.000000	54.166388 
1735.000000	54.186344 
1734.000000	54.202961 
1733.000000	54.215359 
1732.000000	54.222655 
1731.000000	54.224538 
1730.000000	54.221367 
1729.000000	54.214286 
1728.000000	54.205155 
1727.000000	54.196023 
1726.000000	54.189276 
1725.000000	54.186367 
1724.000000	54.188275 
1723.000000	54.194498 
1722.000000	54.203414 
1721.000000	54.212069 
1720.000000	54.216766 
1719.000000	54.213953 
1718.000000	54.200983 
1717.000000	54.176831 
1716.000000	54.142498 
1715.000000	54.101085 
1714.000000	54.057359 
1713.000000	54.016757 
1712.000000	53.984189 
1711.000000	53.963303 
1710.000000	53.955793 
1709.000000	53.961515 
1708.000000	53.978872 
1707.000000	54.005360 
1706.000000	54.038119 
1705.000000	54.074645 
1704.000000	54.112672 
1703.000000	54.150080 
1702.000000	54.184436 
1701.000000	54.212927 
1700.000000	54.232382 
1699.000000	54.239368 
1698.000000	54.231500 
1697.000000	54.208016 
1696.000000	54.170536 
1695.000000	54.123401 
1694.000000	54.072976 
1693.000000	54.026913 
1692.000000	53.992247 
1691.000000	53.974008 
1690.000000	53.973937 
1689.000000	53.989839 
1688.000000	54.016280 
1687.000000	54.045796 
1686.000000	54.070281 
1685.000000	54.082775 
1684.000000	54.079103 
1683.000000	54.058861 
1682.000000	54.024577 
1681.000000	53.981399 
1680.000000	53.935575 
1679.000000	53.893256 
1678.000000	53.859233 
1677.000000	53.836035 
1676.000000	53.823995 
1675.000000	53.821063 
1674.000000	53.824186 
1673.000000	53.829264 
1672.000000	53.832054 
1671.000000	53.828573 
1670.000000	53.816032 
1669.000000	53.793001 
1668.000000	53.759193 
1667.000000	53.716373 
1666.000000	53.667712 
1665.000000	53.618144 
1664.000000	53.573393 
1663.000000	53.539896 
1662.000000	53.523445 
1661.000000	53.528523 
1660.000000	53.557229 
1659.000000	53.608608 
1658.000000	53.678774 
1657.000000	53.761076 
1656.000000	53.847169 
1655.000000	53.928279 
1654.000000	53.996419 
1653.000000	54.045605 
1652.000000	54.072237 
1651.000000	54.075264 
1650.000000	54.055809 
1649.000000	54.017138 
1648.000000	53.963589 
1647.000000	53.899860 
1646.000000	53.830456 
1645.000000	53.760266 
1644.000000	53.693270 
1643.000000	53.633356 
1642.000000	53.583073 
1641.000000	53.544211 
1640.000000	53.516936 
1639.000000	53.500056 
1638.000000	53.490877 
1637.000000	53.485465 
1636.000000	53.479909 
1635.000000	53.470802 
1634.000000	53.456091 
1633.000000	53.435444 
1632.000000	53.410363 
1631.000000	53.383636 
1630.000000	53.358674 
1629.000000	53.338861 
1628.000000	53.327059 
1627.000000	53.325128 
1626.000000	53.333568 
1625.000000	53.351545 
1624.000000	53.377389 
1623.000000	53.408622 
1622.000000	53.442096 
1621.000000	53.474259 
1620.000000	53.501629 
1619.000000	53.521013 
1618.000000	53.530049 
1617.000000	53.527212 
1616.000000	53.512191 
1615.000000	53.485798 
1614.000000	53.450536 
1613.000000	53.409361 
1612.000000	53.365421 
1611.000000	53.321552 
1610.000000	53.280091 
1609.000000	53.242397 
1608.000000	53.209042 
1607.000000	53.180074 
1606.000000	53.155422 
1605.000000	53.134775 
1604.000000	53.117871 
1603.000000	53.104329 
1602.000000	53.093791 
1601.000000	53.085446 
1600.000000	53.078579 
1599.000000	53.072047 
1598.000000	53.064918 
1597.000000	53.056502 
1596.000000	53.046751 
1595.000000	53.036308 
1594.000000	53.026270 
1593.000000	53.018116 
1592.000000	53.013110 
1591.000000	53.012084 
1590.000000	53.015017 
1589.000000	53.020954 
1588.000000	53.027987 
1587.000000	53.033757 
1586.000000	53.036093 
1585.000000	53.033518 
1584.000000	53.025722 
1583.000000	53.013634 
1582.000000	52.999281 
1581.000000	52.985239 
1580.000000	52.974271 
1579.000000	52.968716 
1578.000000	52.969670 
1577.000000	52.976846 
1576.000000	52.988839 
1575.000000	53.003287 
1574.000000	53.017020 
1573.000000	53.027081 
1572.000000	53.031182 
1571.000000	53.028798 
1570.000000	53.020858 
1569.000000	53.010368 
1568.000000	53.001475 
1567.000000	52.998566 
1566.000000	53.005695 
1565.000000	53.024911 
1564.000000	53.056120 
1563.000000	53.096151 
1562.000000	53.139805 
1561.000000	53.180193 
1560.000000	53.210687 
1559.000000	53.225898 
1558.000000	53.223037 
1557.000000	53.202414 
1556.000000	53.167438 
1555.000000	53.123354 
1554.000000	53.076243 
1553.000000	53.031921 
1552.000000	52.994966 
1551.000000	52.968931 
1550.000000	52.955961 
1549.000000	52.957463 
1548.000000	52.973508 
1547.000000	53.002929 
1546.000000	53.042888 
1545.000000	53.088736 
1544.000000	53.134131 
1543.000000	53.172087 
1542.000000	53.195834 
1541.000000	53.200292 
1540.000000	53.182935 
1539.000000	53.144288 
1538.000000	53.088188 
1537.000000	53.020834 
1536.000000	52.949762 
1535.000000	52.882719 
1534.000000	52.826237 
1533.000000	52.784776 
1532.000000	52.760577 
1531.000000	52.754044 
1530.000000	52.763795 
1529.000000	52.787232 
1528.000000	52.821016 
1527.000000	52.861595 
1526.000000	52.904820 
1525.000000	52.946233 
1524.000000	52.981781 
1523.000000	53.008008 
1522.000000	53.022551 
1521.000000	53.024625 
1520.000000	53.015017 
1519.000000	52.996039 
1518.000000	52.971315 
1517.000000	52.945065 
1516.000000	52.921915 
1515.000000	52.905488 
1514.000000	52.898311 
1513.000000	52.900552 
1512.000000	52.910661 
1511.000000	52.924847 
1510.000000	52.938246 
1509.000000	52.945637 
1508.000000	52.942728 
1507.000000	52.926945 
1506.000000	52.898216 
1505.000000	52.858757 
1504.000000	52.812170 
1503.000000	52.763104 
1502.000000	52.716064 
1501.000000	52.674102 
1500.000000	52.638483 
1499.000000	52.608489 
1498.000000	52.582240 
1497.000000	52.557659 
1496.000000	52.533340 
1495.000000	52.509069 
1494.000000	52.485656 
1493.000000	52.464413 
1492.000000	52.446484 
1491.000000	52.431774 
1490.000000	52.419090 
1489.000000	52.406072 
1488.000000	52.390193 
1487.000000	52.369403 
1486.000000	52.343225 
1485.000000	52.312564 
1484.000000	52.280282 
1483.000000	52.249693 
1482.000000	52.224826 
1481.000000	52.208971 
1480.000000	52.204561 
1479.000000	52.212166 
1478.000000	52.230596 
1477.000000	52.257084 
1476.000000	52.287602 
1475.000000	52.317762 
1474.000000	52.343130 
1473.000000	52.360129 
1472.000000	52.366447 
1471.000000	52.361631 
1470.000000	52.346897 
1469.000000	52.324914 
1468.000000	52.299857 
1467.000000	52.276563 
1466.000000	52.259945 
1465.000000	52.253651 
1464.000000	52.259945 
1463.000000	52.278375 
1462.000000	52.306008 
1461.000000	52.337360 
1460.000000	52.365612 
1459.000000	52.383565 
1458.000000	52.385282 
1457.000000	52.367329 
1456.000000	52.329587 
1455.000000	52.275514 
1454.000000	52.211284 
1453.000000	52.144956 
1452.000000	52.084636 
1451.000000	52.037096 
1450.000000	52.006268 
1449.000000	51.992988 
1448.000000	51.995229 
1447.000000	52.009010 
1446.000000	52.029585 
1445.000000	52.052497 
1444.000000	52.074313 
1443.000000	52.093100 
1442.000000	52.108240 
1441.000000	52.119755 
1440.000000	52.127575 
1439.000000	52.131628 
1438.000000	52.131438 
1437.000000	52.126431 
1436.000000	52.115678 
1435.000000	52.098608 
1434.000000	52.075171 
1433.000000	52.045845 
1432.000000	52.012181 
1431.000000	51.976394 
1430.000000	51.941490 
1429.000000	51.910591 
1428.000000	51.886796 
1427.000000	51.872539 
1426.000000	51.869034 
1425.000000	51.876068 
1424.000000	51.891851 
1423.000000	51.913142 
1422.000000	51.935911 
1421.000000	51.956081 
1420.000000	51.969981 
1419.000000	51.974821 
1418.000000	51.969408 
1417.000000	51.954102 
1416.000000	51.930427 
1415.000000	51.900625 
1414.000000	51.867103 
1413.000000	51.831698 
1412.000000	51.795840 
1411.000000	51.760101 
1410.000000	51.724767 
1409.000000	51.689958 
1408.000000	51.656055 
1407.000000	51.623845 
1406.000000	51.594567 
1405.000000	51.569581 
1404.000000	51.549935 
1403.000000	51.536154 
1402.000000	51.527786 
1401.000000	51.523709 
1400.000000	51.522254 
1399.000000	51.521968 
1398.000000	51.521706 
1397.000000	51.521348 
1396.000000	51.521706 
1395.000000	51.524305 
1394.000000	51.530718 
1393.000000	51.541948 
1392.000000	51.557874 
1391.000000	51.577091 
1390.000000	51.596975 
1389.000000	51.614308 
1388.000000	51.626157 
1387.000000	51.630520 
1386.000000	51.627039 
1385.000000	51.616787 
1384.000000	51.602172 
1383.000000	51.586318 
1382.000000	51.572132 
1381.000000	51.561665 
1380.000000	51.555466 
1379.000000	51.552820 
1378.000000	51.551890 
1377.000000	51.550483 
1376.000000	51.546454 
1375.000000	51.538300 
1374.000000	51.525402 
1373.000000	51.507782 
1372.000000	51.486206 
1371.000000	51.461744 
1370.000000	51.435708 
1369.000000	51.409459 
1368.000000	51.384329 
1367.000000	51.361680 
1366.000000	51.342844 
1365.000000	51.328849 
1364.000000	51.320314 
1363.000000	51.317214 
1362.000000	51.319074 
1361.000000	51.324725 
1360.000000	51.332712 
1359.000000	51.341223 
1358.000000	51.348590 
1357.000000	51.353335 
1356.000000	51.354312 
1355.000000	51.350474 
1354.000000	51.341247 
1353.000000	51.326107 
1352.000000	51.305007 
1351.000000	51.278233 
1350.000000	51.246881 
1349.000000	51.212668 
1348.000000	51.178169 
1347.000000	51.146364 
1346.000000	51.120424 
1345.000000	51.102948 
1344.000000	51.095294 
1343.000000	51.097369 
1342.000000	51.107621 
1341.000000	51.123309 
1340.000000	51.140975 
1339.000000	51.157188 
1338.000000	51.169133 
1337.000000	51.175260 
1336.000000	51.175284 
1335.000000	51.170110 
1334.000000	51.161432 
1333.000000	51.151156 
1332.000000	51.140904 
1331.000000	51.131844 
1330.000000	51.124596 
1329.000000	51.119136 
1328.000000	51.115179 
1327.000000	51.112675 
1326.000000	51.111626 
1325.000000	51.112151 
1324.000000	51.114249 
1323.000000	51.117444 
1322.000000	51.120686 
1321.000000	51.122450 
1320.000000	51.120853 
1319.000000	51.114106 
1318.000000	51.101040 
1317.000000	51.081585 
1316.000000	51.056694 
1315.000000	51.028060 
1314.000000	50.997853 
1313.000000	50.968360 
1312.000000	50.941467 
1311.000000	50.918436 
1310.000000	50.899791 
1309.000000	50.885343 
1308.000000	50.874471 
1307.000000	50.866150 
1306.000000	50.859093 
1305.000000	50.851893 
1304.000000	50.843334 
1303.000000	50.832414 
1302.000000	50.818419 
1301.000000	50.801110 
1300.000000	50.780653 
1299.000000	50.757694 
1298.000000	50.733470 
1297.000000	50.709748 
1296.000000	50.688385 
1295.000000	50.671315 
1294.000000	50.660037 
1293.000000	50.655531 
1292.000000	50.657892 
1291.000000	50.666475 
1290.000000	50.679683 
1289.000000	50.695371 
1288.000000	50.711274 
1287.000000	50.725364 
1286.000000	50.736045 
1285.000000	50.742340 
1284.000000	50.743722 
1283.000000	50.740265 
1282.000000	50.732278 
1281.000000	50.720381 
1280.000000	50.705075 
1279.000000	50.687170 
1278.000000	50.667619 
1277.000000	50.647735 
1276.000000	50.629138 
1275.000000	50.613594 
1274.000000	50.602865 
1273.000000	50.598406 
1272.000000	50.600886 
1271.000000	50.609898 
1270.000000	50.623607 
1269.000000	50.638914 
1268.000000	50.651788 
1267.000000	50.658082 
1266.000000	50.654411 
1265.000000	50.638842 
1264.000000	50.611495 
1263.000000	50.574803 
1262.000000	50.532960 
1261.000000	50.490903 
1260.000000	50.453472 
1259.000000	50.424385 
1258.000000	50.405669 
1257.000000	50.397729 
1256.000000	50.399184 
1255.000000	50.407695 
1254.000000	50.420570 
1253.000000	50.435137 
1252.000000	50.449085 
1251.000000	50.460577 
1250.000000	50.468111 
1249.000000	50.470447 
1248.000000	50.466537 
1247.000000	50.455641 
1246.000000	50.437545 
1245.000000	50.413155 
1244.000000	50.384378 
1243.000000	50.354313 
1242.000000	50.326848 
1241.000000	50.306010 
1240.000000	50.295257 
1239.000000	50.296592 
1238.000000	50.310254 
1237.000000	50.334334 
1236.000000	50.365138 
1235.000000	50.397801 
1234.000000	50.427198 
1233.000000	50.448751 
1232.000000	50.459504 
1231.000000	50.458335 
1230.000000	50.446033 
1229.000000	50.425100 
1228.000000	50.399160 
1227.000000	50.372052 
1226.000000	50.346994 
1225.000000	50.326442 
1224.000000	50.311303 
1223.000000	50.301551 
1222.000000	50.295948 
1221.000000	50.292730 
1220.000000	50.289869 
1219.000000	50.285649 
1218.000000	50.278759 
1217.000000	50.268316 
1216.000000	50.254154 
1215.000000	50.236678 
1214.000000	50.216841 
1213.000000	50.195860 
1212.000000	50.175309 
1211.000000	50.156927 
1210.000000	50.142550 
1209.000000	50.133824 
1208.000000	50.131845 
1207.000000	50.137042 
1206.000000	50.148820 
1205.000000	50.165677 
1204.000000	50.185012 
1203.000000	50.203752 
1202.000000	50.218605 
1201.000000	50.226593 
1200.000000	50.225710 
1199.000000	50.215125 
1198.000000	50.195670 
1197.000000	50.169396 
1196.000000	50.139331 
1195.000000	50.108504 
1194.000000	50.079989 
1193.000000	50.055766 
1192.000000	50.036573 
1191.000000	50.021672 
1190.000000	50.009274 
1189.000000	49.997138 
1188.000000	49.983119 
1187.000000	49.965953 
1186.000000	49.945068 
1185.000000	49.921345 
1184.000000	49.896717 
1183.000000	49.873852 
1182.000000	49.855256 
1181.000000	49.843120 
1180.000000	49.838662 
1179.000000	49.842071 
1178.000000	49.852395 
1177.000000	49.868011 
1176.000000	49.886941 
1175.000000	49.907112 
1174.000000	49.926590 
1173.000000	49.944114 
1172.000000	49.958944 
1171.000000	49.970674 
1170.000000	49.979138 
1169.000000	49.984622 
1168.000000	49.987411 
1167.000000	49.988079 
1166.000000	49.986791 
1165.000000	49.983787 
1164.000000	49.978590 
1163.000000	49.970746 
1162.000000	49.959230 
1161.000000	49.942851 
1160.000000	49.920225 
1159.000000	49.890661 
1158.000000	49.854326 
1157.000000	49.812412 
1156.000000	49.767303 
1155.000000	49.722480 
1154.000000	49.681687 
1153.000000	49.648451 
1152.000000	49.625253 
1151.000000	49.613046 
1150.000000	49.610900 
1149.000000	49.616241 
1148.000000	49.625182 
1147.000000	49.633407 
1146.000000	49.637031 
1145.000000	49.633455 
1144.000000	49.621367 
1143.000000	49.600982 
1142.000000	49.573850 
1141.000000	49.542307 
1140.000000	49.508786 
1139.000000	49.475622 
1138.000000	49.444723 
1137.000000	49.417686 
1136.000000	49.395704 
1135.000000	49.379563 
1134.000000	49.369883 
1133.000000	49.366974 
1132.000000	49.370479 
1131.000000	49.379634 
1130.000000	49.392890 
1129.000000	49.408531 
1128.000000	49.424505 
1127.000000	49.439263 
1126.000000	49.451828 
1125.000000	49.462103 
1124.000000	49.470686 
1123.000000	49.478173 
1122.000000	49.484539 
1121.000000	49.489212 
1120.000000	49.490928 
1119.000000	49.487686 
1118.000000	49.477458 
1117.000000	49.458980 
1116.000000	49.432325 
1115.000000	49.399137 
1114.000000	49.362492 
1113.000000	49.326157 
1112.000000	49.294090 
1111.000000	49.269247 
1110.000000	49.253034 
1109.000000	49.245309 
1108.000000	49.244117 
1107.000000	49.246644 
1106.000000	49.249434 
1105.000000	49.249243 
1104.000000	49.243164 
1103.000000	49.229001 
1102.000000	49.205660 
1101.000000	49.172663 
1100.000000	49.131369 
1099.000000	49.084353 
1098.000000	49.036145 
1097.000000	48.992347 
1096.000000	48.959350 
1095.000000	48.942995 
1094.000000	48.947310 
1093.000000	48.973417 
1092.000000	49.018812 
1091.000000	49.077820 
1090.000000	49.142122 
1089.000000	49.202537 
1088.000000	49.250960 
1087.000000	49.281740 
1086.000000	49.292874 
1085.000000	49.285745 
1084.000000	49.264287 
1083.000000	49.233555 
1082.000000	49.198389 
1081.000000	49.162149 
1080.000000	49.126672 
1079.000000	49.092149 
1078.000000	49.058413 
1077.000000	49.025416 
1076.000000	48.994040 
1075.000000	48.966217 
1074.000000	48.944354 
1073.000000	48.931050 
1072.000000	48.927950 
1071.000000	48.935198 
1070.000000	48.950934 
1069.000000	48.972010 
1068.000000	48.994302 
1067.000000	49.013876 
1066.000000	49.027800 
1065.000000	49.034643 
1064.000000	49.034619 
1063.000000	49.029016 
1062.000000	49.019622 
1061.000000	49.008059 
1060.000000	48.995161 
1059.000000	48.980951 
1058.000000	48.964500 
1057.000000	48.944735 
1056.000000	48.920631 
1055.000000	48.891901 
1054.000000	48.859047 
1053.000000	48.823523 
1052.000000	48.787403 
1051.000000	48.753023 
1050.000000	48.722481 
1049.000000	48.696851 
1048.000000	48.676586 
1047.000000	48.661279 
1046.000000	48.650193 
1045.000000	48.642563 
1044.000000	48.637747 
1043.000000	48.635506 
1042.000000	48.635482 
1041.000000	48.637008 
1040.000000	48.639130 
1039.000000	48.640537 
1038.000000	48.640179 
1037.000000	48.637652 
1036.000000	48.633313 
1035.000000	48.628330 
1034.000000	48.624491 
1033.000000	48.623847 
1032.000000	48.627805 
1031.000000	48.636722 
1030.000000	48.649883 
1029.000000	48.665356 
1028.000000	48.680925 
1027.000000	48.694038 
1026.000000	48.702549 
1025.000000	48.705053 
1024.000000	48.700952 
1023.000000	48.690271 
1022.000000	48.673367 
1021.000000	48.651027 
1020.000000	48.624515 
1019.000000	48.595595 
1018.000000	48.566699 
1017.000000	48.540830 
1016.000000	48.521471 
1015.000000	48.511075 
1014.000000	48.510384 
1013.000000	48.517751 
1012.000000	48.529171 
1011.000000	48.538827 
1010.000000	48.540425 
1009.000000	48.528575 
1008.000000	48.500418 
1007.000000	48.456287 
1006.000000	48.400115 
1005.000000	48.338246 
1004.000000	48.278379 
1003.000000	48.227810 
1002.000000	48.192095 
1001.000000	48.173594 
1000.000000	48.171305 
999.000000	 48.181557 
998.000000	 48.198866 
997.000000	 48.217010 
996.000000	 48.231410 
995.000000	 48.239612 
994.000000	 48.242282 
993.000000	 48.241710 
992.000000	 48.242306 
991.000000	 48.248815 
990.000000	 48.265385 
989.000000	 48.294186 
988.000000	 48.334980 
987.000000	 48.385071 
986.000000	 48.439764 
985.000000	 48.493075 
984.000000	 48.539042 
983.000000	 48.572659 
982.000000	 48.590445 
981.000000	 48.590660 
980.000000	 48.573327 
979.000000	 48.539805 
978.000000	 48.492908 
977.000000	 48.436403 
976.000000	 48.374676 
975.000000	 48.311972 
974.000000	 48.253417 
973.000000	 48.202633 
972.000000	 48.161625 
971.000000	 48.129701 
970.000000	 48.104333 
969.000000	 48.081183 
968.000000	 48.055434 
967.000000	 48.023033 
966.000000	 47.981715 
965.000000	 47.931957 
964.000000	 47.877001 
963.000000	 47.821474 
962.000000	 47.769951 
961.000000	 47.725796 
960.000000	 47.690415 
959.000000	 47.662162 
958.000000	 47.637200 
957.000000	 47.611165 
956.000000	 47.581171 
955.000000	 47.546553 
954.000000	 47.510147 
953.000000	 47.477650 
952.000000	 47.457051 
951.000000	 47.455692 
950.000000	 47.479319 
949.000000	 47.530126 
948.000000	 47.606062 
947.000000	 47.701096 
946.000000	 47.805881 
945.000000	 47.909903 
944.000000	 48.002743 
943.000000	 48.076081 
942.000000	 48.124384 
941.000000	 48.145699 
940.000000	 48.140907 
939.000000	 48.113727 
938.000000	 48.068404 
937.000000	 48.009538 
936.000000	 47.940254 
935.000000	 47.862982 
934.000000	 47.778701 
933.000000	 47.688150 
932.000000	 47.592401 
931.000000	 47.494101 
930.000000	 47.397541 
929.000000	 47.308731 
928.000000	 47.234606 
927.000000	 47.181916 
926.000000	 47.155570 
925.000000	 47.157096 
924.000000	 47.183966 
923.000000	 47.229075 
922.000000	 47.281360 
921.000000	 47.327923 
920.000000	 47.356176 
919.000000	 47.356939 
918.000000	 47.325897 
917.000000	 47.264957 
916.000000	 47.181916 
915.000000	 47.088122 
914.000000	 46.996188 
913.000000	 46.916484 
912.000000	 46.855401 
911.000000	 46.814084 
910.000000	 46.789002 
909.000000	 46.773481 
908.000000	 46.760225 
907.000000	 46.743345 
906.000000	 46.720075 
905.000000	 46.691346 
904.000000	 46.661043 
903.000000	 46.634554 
902.000000	 46.617245 
901.000000	 46.612858 
900.000000	 46.622729 
899.000000	 46.645903 
898.000000	 46.679687 
897.000000	 46.720767 
896.000000	 46.766114 
895.000000	 46.812844 
894.000000	 46.859169 
893.000000	 46.903514 
892.000000	 46.945452 
891.000000	 46.985030 
890.000000	 47.023177 
889.000000	 47.061347 
888.000000	 47.100949 
887.000000	 47.143602 
886.000000	 47.189497 
885.000000	 47.237920 
884.000000	 47.285938 
883.000000	 47.329139 
882.000000	 47.361922 
881.000000	 47.379207 
880.000000	 47.376799 
879.000000	 47.352838 
878.000000	 47.308158 
877.000000	 47.246694 
876.000000	 47.174334 
875.000000	 47.098088 
874.000000	 47.024750 
873.000000	 46.959853 
872.000000	 46.907329 
871.000000	 46.869134 
870.000000	 46.845531 
869.000000	 46.835350 
868.000000	 46.836709 
867.000000	 46.846938 
866.000000	 46.862530 
865.000000	 46.879863 
864.000000	 46.895408 
863.000000	 46.906208 
862.000000	 46.909666 
861.000000	 46.904039 
860.000000	 46.888899 
859.000000	 46.864724 
858.000000	 46.833014 
857.000000	 46.795773 
856.000000	 46.755361 
855.000000	 46.713924 
854.000000	 46.673321 
853.000000	 46.634817 
852.000000	 46.599125 
851.000000	 46.566486 
850.000000	 46.537017 
849.000000	 46.510720 
848.000000	 46.487712 
847.000000	 46.467852 
846.000000	 46.450877 
845.000000	 46.435809 
844.000000	 46.421360 
843.000000	 46.405792 
842.000000	 46.387648 
841.000000	 46.365618 
840.000000	 46.339440 
839.000000	 46.309781 
838.000000	 46.278572 
837.000000	 46.248316 
836.000000	 46.222090 
835.000000	 46.202278 
834.000000	 46.191072 
833.000000	 46.189856 
832.000000	 46.199607 
831.000000	 46.220231 
830.000000	 46.251583 
829.000000	 46.293234 
828.000000	 46.344470 
827.000000	 46.403956 
826.000000	 46.469116 
825.000000	 46.535873 
824.000000	 46.598911 
823.000000	 46.652340 
822.000000	 46.690464 
821.000000	 46.708893 
820.000000	 46.705913 
819.000000	 46.682739 
818.000000	 46.642994 
817.000000	 46.591877 
816.000000	 46.535706 
815.000000	 46.480250 
814.000000	 46.430444 
813.000000	 46.388936 
812.000000	 46.357107 
811.000000	 46.333909 
810.000000	 46.316790 
809.000000	 46.302008 
808.000000	 46.285367 
807.000000	 46.263337 
806.000000	 46.233773 
805.000000	 46.196627 
804.000000	 46.153712 
803.000000	 46.108818 
802.000000	 46.066594 
801.000000	 46.031546 
800.000000	 46.006870 
799.000000	 45.993947 
798.000000	 45.992207 
797.000000	 45.999217 
796.000000	 46.011400 
795.000000	 46.025514 
794.000000	 46.039342 
793.000000	 46.052145 
792.000000	 46.064424 
791.000000	 46.077561 
790.000000	 46.092867 
789.000000	 46.110630 
788.000000	 46.129846 
787.000000	 46.148014 
786.000000	 46.161842 
785.000000	 46.168637 
784.000000	 46.166324 
783.000000	 46.154284 
782.000000	 46.133065 
781.000000	 46.104764 
780.000000	 46.071743 
779.000000	 46.036314 
778.000000	 45.999884 
777.000000	 45.963048 
776.000000	 45.925569 
775.000000	 45.887088 
774.000000	 45.847511 
773.000000	 45.807504 
772.000000	 45.768785 
771.000000	 45.734071 
770.000000	 45.706129 
769.000000	 45.687079 
768.000000	 45.677947 
767.000000	 45.678448 
766.000000	 45.686745 
765.000000	 45.700216 
764.000000	 45.715856 
763.000000	 45.731544 
762.000000	 45.746111 
761.000000	 45.759844 
760.000000	 45.774245 
759.000000	 45.791220 
758.000000	 45.812082 
757.000000	 45.836639 
756.000000	 45.863175 
755.000000	 45.887994 
754.000000	 45.906448 
753.000000	 45.913648 
752.000000	 45.906519 
751.000000	 45.883584 
750.000000	 45.846486 
749.000000	 45.797967 
748.000000	 45.741391 
747.000000	 45.679306 
746.000000	 45.613074 
745.000000	 45.542526 
744.000000	 45.466494 
743.000000	 45.384335 
742.000000	 45.297098 
741.000000	 45.208811 
740.000000	 45.126247 
739.000000	 45.058083 
738.000000	 45.012784 
737.000000	 44.996619 
736.000000	 45.011401 
735.000000	 45.053172 
734.000000	 45.112657 
733.000000	 45.176887 
732.000000	 45.231938 
731.000000	 45.265507 
730.000000	 45.269870 
729.000000	 45.242834 
728.000000	 45.188641 
727.000000	 45.116162 
726.000000	 45.037484 
725.000000	 44.965267 
724.000000	 44.910097 
723.000000	 44.878935 
722.000000	 44.873499 
721.000000	 44.890975 
720.000000	 44.924330 
719.000000	 44.964504 
718.000000	 45.002031 
717.000000	 45.029091 
716.000000	 45.040631 
715.000000	 45.035147 
714.000000	 45.013999 
713.000000	 44.980621 
712.000000	 44.939470 
711.000000	 44.894599 
710.000000	 44.849014 
709.000000	 44.804263 
708.000000	 44.760966 
707.000000	 44.719552 
706.000000	 44.681072 
705.000000	 44.647860 
704.000000	 44.622969 
703.000000	 44.609570 
702.000000	 44.610190 
701.000000	 44.624876 
700.000000	 44.650435 
699.000000	 44.680500 
698.000000	 44.706702 
697.000000	 44.720244 
696.000000	 44.713854 
695.000000	 44.683694 
694.000000	 44.630241 
693.000000	 44.558882 
692.000000	 44.478631 
691.000000	 44.399905 
690.000000	 44.332075 
689.000000	 44.281673 
688.000000	 44.251060 
687.000000	 44.238066 
686.000000	 44.236850 
685.000000	 44.239854 
684.000000	 44.239282 
683.000000	 44.228625 
682.000000	 44.203710 
681.000000	 44.163036 
680.000000	 44.107627 
679.000000	 44.040012 
678.000000	 43.963718 
677.000000	 43.882656 
676.000000	 43.800306 
675.000000	 43.719983 
674.000000	 43.644404 
673.000000	 43.575906 
672.000000	 43.516564 
671.000000	 43.467974 
670.000000	 43.431425 
669.000000	 43.406963 
668.000000	 43.394327 
667.000000	 43.392467 
666.000000	 43.400287 
665.000000	 43.415904 
664.000000	 43.438005 
663.000000	 43.465447 
662.000000	 43.497419 
661.000000	 43.533110 
660.000000	 43.571972 
659.000000	 43.613171 
658.000000	 43.655729 
657.000000	 43.698048 
656.000000	 43.737697 
655.000000	 43.771481 
654.000000	 43.796396 
653.000000	 43.809556 
652.000000	 43.809390 
651.000000	 43.795204 
650.000000	 43.768501 
649.000000	 43.731236 
648.000000	 43.686223 
647.000000	 43.635654 
646.000000	 43.581604 
645.000000	 43.525004 
644.000000	 43.466281 
643.000000	 43.405318 
642.000000	 43.342804 
641.000000	 43.279981 
640.000000	 43.218803 
639.000000	 43.161582 
638.000000	 43.110656 
637.000000	 43.067264 
636.000000	 43.031024 
635.000000	 42.999958 
634.000000	 42.970871 
633.000000	 42.941069 
632.000000	 42.909312 
631.000000	 42.876100 
630.000000	 42.843890 
629.000000	 42.816710 
628.000000	 42.798852 
627.000000	 42.792940 
626.000000	 42.799496 
625.000000	 42.816543 
624.000000	 42.839956 
623.000000	 42.864322 
622.000000	 42.883896 
621.000000	 42.893886 
620.000000	 42.891359 
619.000000	 42.875504 
618.000000	 42.848181 
617.000000	 42.812681 
616.000000	 42.774009 
615.000000	 42.737770 
614.000000	 42.709231 
613.000000	 42.692327 
612.000000	 42.689251 
611.000000	 42.700362 
610.000000	 42.723107 
609.000000	 42.752504 
608.000000	 42.781925 
607.000000	 42.804455 
606.000000	 42.814254 
605.000000	 42.807650 
604.000000	 42.784190 
603.000000	 42.746615 
602.000000	 42.699742 
601.000000	 42.649388 
600.000000	 42.600655 
599.000000	 42.557382 
598.000000	 42.521905 
597.000000	 42.495107 
596.000000	 42.476534 
595.000000	 42.465233 
594.000000	 42.460370 
593.000000	 42.461609 
592.000000	 42.467713 
591.000000	 42.478132 
590.000000	 42.492413 
589.000000	 42.510557 
588.000000	 42.531943 
587.000000	 42.556262 
586.000000	 42.582845 
585.000000	 42.611050 
584.000000	 42.639970 
583.000000	 42.668318 
582.000000	 42.694544 
581.000000	 42.716884 
580.000000	 42.733478 
579.000000	 42.742967 
578.000000	 42.744421 
577.000000	 42.737627 
576.000000	 42.722606 
575.000000	 42.699670 
574.000000	 42.668533 
573.000000	 42.628645 
572.000000	 42.578363 
571.000000	 42.516279 
570.000000	 42.440557 
569.000000	 42.350482 
568.000000	 42.246222 
567.000000	 42.129135 
566.000000	 42.002296 
565.000000	 41.869950 
564.000000	 41.738080 
563.000000	 41.613507 
562.000000	 41.503810 
561.000000	 41.415858 
560.000000	 41.354823 
559.000000	 41.322851 
558.000000	 41.318035 
557.000000	 41.334247 
556.000000	 41.362643 
555.000000	 41.393303 
554.000000	 41.416597 
553.000000	 41.424608 
552.000000	 41.413569 
551.000000	 41.383934 
550.000000	 41.339707 
549.000000	 41.286945 
548.000000	 41.232705 
547.000000	 41.182661 
546.000000	 41.140151 
545.000000	 41.104769 
544.000000	 41.073584 
543.000000	 41.041779 
542.000000	 41.004443 
541.000000	 40.958857 
540.000000	 40.905141 
539.000000	 40.847945 
538.000000	 40.794825 
537.000000	 40.755534 
536.000000	 40.739321 
535.000000	 40.752148 
534.000000	 40.795540 
533.000000	 40.863585 
532.000000	 40.943193 
531.000000	 41.016578 
530.000000	 41.065549 
529.000000	 41.074085 
528.000000	 41.031932 
527.000000	 40.937876 
526.000000	 40.800118 
525.000000	 40.634083 
524.000000	 40.458869 
523.000000	 40.292763 
522.000000	 40.149307 
521.000000	 40.035462 
520.000000	 39.950609 
519.000000	 39.888358 
518.000000	 39.838790 
517.000000	 39.792180 
516.000000	 39.741373 
515.000000	 39.682817 
514.000000	 39.617609 
513.000000	 39.548707 
512.000000	 39.481306 
511.000000	 39.418148 
510.000000	 39.362764 
509.000000	 39.316773 
508.000000	 39.283847 
507.000000	 39.267921 
506.000000	 39.276146 
505.000000	 39.317297 
504.000000	 39.399504 
503.000000	 39.526891 
502.000000	 39.696502 
501.000000	 39.897036 
500.000000	 40.107989 
499.000000	 40.302491 
498.000000	 40.452980 
497.000000	 40.536880 
496.000000	 40.541648 
495.000000	 40.467524 
494.000000	 40.328192 
493.000000	 40.147042 
492.000000	 39.952540 
491.000000	 39.771151 
490.000000	 39.623236 
489.000000	 39.518070 
488.000000	 39.455699 
487.000000	 39.426445 
486.000000	 39.415812 
485.000000	 39.407801 
484.000000	 39.389848 
483.000000	 39.354586 
482.000000	 39.300489 
481.000000	 39.230751 
480.000000	 39.150476 
479.000000	 39.064145 
478.000000	 38.972735 
477.000000	 38.874459 
476.000000	 38.765740 
475.000000	 38.642978 
474.000000	 38.504815 
473.000000	 38.353562 
472.000000	 38.195300 
471.000000	 38.037800 
470.000000	 37.888383 
469.000000	 37.749981 
468.000000	 37.620615 
467.000000	 37.494158 
466.000000	 37.363266 
465.000000	 37.220716 
464.000000	 37.064623 
463.000000	 36.900544 
462.000000	 36.741924 
461.000000	 36.605596 
460.000000	 36.509084 
459.000000	 36.464619 
458.000000	 36.476874 
457.000000	 36.539673 
456.000000	 36.639094 
455.000000	 36.753463 
454.000000	 36.863160 
453.000000	 36.954426 
452.000000	 37.023854 
451.000000	 37.077045 
450.000000	 37.127304 
449.000000	 37.190246 
448.000000	 37.276482 
447.000000	 37.386584 
446.000000	 37.509846 
445.000000	 37.626123 
444.000000	 37.711572 
443.000000	 37.744569 
442.000000	 37.713646 
441.000000	 37.618565 
440.000000	 37.470531 
439.000000	 37.286043 
438.000000	 37.081742 
437.000000	 36.868619 
436.000000	 36.647939 
435.000000	 36.415219 
434.000000	 36.162400 
433.000000	 35.889363 
432.000000	 35.605931 
431.000000	 35.339403 
430.000000	 35.129094 
429.000000	 35.021662 
428.000000	 35.056400 
427.000000	 35.255956 
426.000000	 35.616374 
425.000000	 36.103868 
424.000000	 36.656975 
423.000000	 37.200450 
422.000000	 37.661027 
421.000000	 37.979865 
420.000000	 38.122177 
419.000000	 38.089346 
418.000000	 37.916684 
417.000000	 37.650871 
416.000000	 37.336945 
415.000000	 37.016701 
414.000000	 36.718273 
413.000000	 36.453294 
412.000000	 36.218929 
411.000000	 36.004638 
410.000000	 35.800647 
409.000000	 35.608029 
408.000000	 35.440182 
407.000000	 35.315895 
406.000000	 35.258197 
405.000000	 35.280752 
404.000000	 35.390853 
403.000000	 35.573935 
402.000000	 35.812425 
401.000000	 36.088275 
400.000000	 36.390423 
399.000000	 36.721181 
398.000000	 37.084269 
397.000000	 37.460827 
396.000000	 37.850713 
395.000000	 38.262677 
394.000000	 38.752651 
393.000000	 39.408206 
392.000000	 40.357232 
391.000000	 41.728544 
390.000000	 43.586945 
389.000000	 45.889306 
388.000000	 48.473072 
387.000000	 51.070237 
386.000000	 53.331947 
385.000000	 54.908227 
384.000000	 55.592870 
383.000000	 55.335617 
382.000000	 54.226946 
381.000000	 52.474999 
380.000000	 50.391745 
379.000000	 48.286652 
378.000000	 46.383595 
377.000000	 44.815135 
376.000000	 43.585467 
375.000000	 42.676949 
374.000000	 42.096996 
373.000000	 41.937065 
372.000000	 42.374706 
371.000000	 43.623590 
370.000000	 45.850205 

