PE IR       SPECTRUM    SPECTRUM    ASCII       PEDS        1.60        
  -1
C-1A61~1.ASC
17/03/27
15:17:06.00
17/03/27
15:17:06.00
tln
$C-4040-8_t0010$<tbV0>[-10.4,-13.0,8.0,0.0,27,1,0]
370.000000
64









2002,4.07    
MIRTGS : RIGHTBACK : INTERNAL 2
MIR : ON : INTERNAL 2
OPTKBR

0.200000
8
8.000000
FILLER
RATIO
SPECTRUM
UNLOCKED 256

DOUBLE
64
COMBINED
1
0
0


1.000000
RATIO


1
0
TRUE
51149
0
LEFT NOT FITTED RIGHT NOT FITTED 0
NONE
NONE
15600
12.000000
4.427000
51148
TRUE
1 0 8 72 0 0 0 0 

15798.010000






#HDR
-1
-1
#GR
CM-1
%T
0.00002384185791015625
0.0
5000.000000
-1.000000
4631
8
80.884838
23.447942
#DATA
5000.000000	63.816332 
4999.000000	63.822054 
4998.000000	63.849544 
4997.000000	63.904237 
4996.000000	63.987898 
4995.000000	64.099192 
4994.000000	64.231920 
4993.000000	64.375925 
4992.000000	64.517807 
4991.000000	64.643883 
4990.000000	64.741134 
4989.000000	64.799404 
4988.000000	64.813351 
4987.000000	64.783287 
4986.000000	64.715099 
4985.000000	64.619302 
4984.000000	64.507627 
4983.000000	64.390802 
4982.000000	64.276456 
4981.000000	64.168262 
4980.000000	64.065217 
4979.000000	63.963961 
4978.000000	63.860774 
4977.000000	63.755106 
4976.000000	63.651609 
4975.000000	63.560056 
4974.000000	63.492870 
4973.000000	63.460850 
4972.000000	63.469910 
4971.000000	63.516736 
4970.000000	63.588309 
4969.000000	63.662981 
4968.000000	63.714122 
4967.000000	63.717198 
4966.000000	63.655996 
4965.000000	63.527441 
4964.000000	63.342308 
4963.000000	63.124537 
4962.000000	62.905240 
4961.000000	62.716984 
4960.000000	62.586116 
4959.000000	62.528061 
4958.000000	62.544202 
4957.000000	62.624788 
4956.000000	62.751936 
4955.000000	62.903928 
4954.000000	63.059210 
4953.000000	63.197588 
4952.000000	63.302659 
4951.000000	63.361263 
4950.000000	63.365769 
4949.000000	63.312482 
4948.000000	63.205003 
4947.000000	63.054704 
4946.000000	62.881255 
4945.000000	62.709331 
4944.000000	62.566757 
4943.000000	62.480211 
4942.000000	62.470388 
4941.000000	62.547898 
4940.000000	62.710976 
4939.000000	62.946319 
4938.000000	63.230013 
4937.000000	63.532137 
4936.000000	63.820457 
4935.000000	64.065980 
4934.000000	64.245510 
4933.000000	64.344215 
4932.000000	64.356994 
4931.000000	64.288234 
4930.000000	64.150977 
4929.000000	63.964724 
4928.000000	63.754200 
4927.000000	63.545846 
4926.000000	63.364720 
4925.000000	63.231015 
4924.000000	63.157486 
4923.000000	63.148188 
4922.000000	63.198542 
4921.000000	63.297986 
4920.000000	63.430452 
4919.000000	63.580298 
4918.000000	63.733768 
4917.000000	63.882541 
4916.000000	64.022135 
4915.000000	64.152359 
4914.000000	64.273619 
4913.000000	64.386129 
4912.000000	64.487648 
4911.000000	64.574337 
4910.000000	64.642500 
4909.000000	64.688849 
4908.000000	64.713096 
4907.000000	64.716315 
4906.000000	64.702129 
4905.000000	64.673042 
4904.000000	64.630389 
4903.000000	64.573836 
4902.000000	64.502549 
4901.000000	64.416003 
4900.000000	64.315676 
4899.000000	64.206552 
4898.000000	64.097261 
4897.000000	63.999366 
4896.000000	63.925242 
4895.000000	63.884401 
4894.000000	63.881850 
4893.000000	63.916683 
4892.000000	63.982057 
4891.000000	64.066433 
4890.000000	64.155483 
4889.000000	64.235401 
4888.000000	64.294028 
4887.000000	64.322614 
4886.000000	64.316272 
4885.000000	64.272618 
4884.000000	64.193654 
4883.000000	64.084863 
4882.000000	63.955569 
4881.000000	63.817882 
4880.000000	63.685631 
4879.000000	63.572978 
4878.000000	63.491630 
4877.000000	63.449239 
4876.000000	63.447046 
4875.000000	63.480067 
4874.000000	63.537311 
4873.000000	63.604712 
4872.000000	63.667464 
4871.000000	63.714146 
4870.000000	63.738894 
4869.000000	63.743185 
4868.000000	63.734245 
4867.000000	63.724017 
4866.000000	63.725137 
4865.000000	63.748264 
4864.000000	63.799428 
4863.000000	63.878107 
4862.000000	63.978552 
4861.000000	64.089822 
4860.000000	64.199233 
4859.000000	64.294338 
4858.000000	64.365315 
4857.000000	64.407515 
4856.000000	64.422130 
4855.000000	64.415597 
4854.000000	64.397215 
4853.000000	64.377021 
4852.000000	64.363431 
4851.000000	64.361238 
4850.000000	64.371442 
4849.000000	64.391469 
4848.000000	64.416861 
4847.000000	64.443087 
4846.000000	64.467310 
4845.000000	64.488768 
4844.000000	64.508938 
4843.000000	64.530158 
4842.000000	64.554476 
4841.000000	64.582657 
4840.000000	64.613533 
4839.000000	64.643692 
4838.000000	64.668011 
4837.000000	64.681863 
4836.000000	64.681410 
4835.000000	64.665269 
4834.000000	64.633750 
4833.000000	64.589333 
4832.000000	64.534831 
4831.000000	64.473152 
4830.000000	64.406299 
4829.000000	64.335894 
4828.000000	64.262652 
4827.000000	64.187550 
4826.000000	64.111709 
4825.000000	64.037084 
4824.000000	63.966345 
4823.000000	63.902616 
4822.000000	63.848567 
4821.000000	63.805794 
4820.000000	63.774847 
4819.000000	63.754963 
4818.000000	63.743782 
4817.000000	63.737893 
4816.000000	63.733267 
4815.000000	63.726401 
4814.000000	63.714861 
4813.000000	63.698101 
4812.000000	63.676762 
4811.000000	63.652873 
4810.000000	63.628935 
4809.000000	63.607454 
4808.000000	63.589978 
4807.000000	63.577365 
4806.000000	63.569402 
4805.000000	63.565349 
4804.000000	63.564300 
4803.000000	63.565993 
4802.000000	63.570475 
4801.000000	63.579273 
4800.000000	63.594460 
4799.000000	63.619399 
4798.000000	63.657140 
4797.000000	63.710618 
4796.000000	63.781404 
4795.000000	63.869404 
4794.000000	63.972091 
4793.000000	64.084506 
4792.000000	64.199566 
4791.000000	64.308238 
4790.000000	64.400744 
4789.000000	64.468479 
4788.000000	64.505362 
4787.000000	64.509010 
4786.000000	64.480996 
4785.000000	64.427685 
4784.000000	64.358162 
4783.000000	64.282608 
4782.000000	64.210295 
4781.000000	64.148712 
4780.000000	64.102196 
4779.000000	64.072513 
4778.000000	64.058518 
4777.000000	64.058399 
4776.000000	64.068961 
4775.000000	64.086675 
4774.000000	64.107418 
4773.000000	64.126491 
4772.000000	64.139151 
4771.000000	64.140534 
4770.000000	64.126849 
4769.000000	64.095687 
4768.000000	64.047694 
4767.000000	63.986611 
4766.000000	63.918972 
4765.000000	63.852977 
4764.000000	63.797807 
4763.000000	63.761901 
4762.000000	63.750410 
4761.000000	63.764715 
4760.000000	63.802766 
4759.000000	63.859510 
4758.000000	63.927745 
4757.000000	63.999867 
4756.000000	64.069342 
4755.000000	64.131832 
4754.000000	64.184856 
4753.000000	64.228272 
4752.000000	64.262771 
4751.000000	64.289903 
4750.000000	64.311504 
4749.000000	64.328956 
4748.000000	64.342975 
4747.000000	64.353799 
4746.000000	64.362239 
4745.000000	64.368677 
4744.000000	64.373683 
4743.000000	64.377093 
4742.000000	64.378428 
4741.000000	64.375400 
4740.000000	64.364624 
4739.000000	64.341902 
4738.000000	64.303445 
4737.000000	64.247155 
4736.000000	64.173650 
4735.000000	64.086866 
4734.000000	63.993525 
4733.000000	63.901758 
4732.000000	63.819718 
4731.000000	63.753628 
4730.000000	63.707232 
4729.000000	63.680911 
4728.000000	63.672804 
4727.000000	63.678741 
4726.000000	63.694739 
4725.000000	63.717675 
4724.000000	63.746333 
4723.000000	63.779950 
4722.000000	63.819098 
4721.000000	63.863587 
4720.000000	63.913059 
4719.000000	63.965415 
4718.000000	64.018201 
4717.000000	64.068627 
4716.000000	64.114546 
4715.000000	64.154934 
4714.000000	64.188766 
4713.000000	64.215302 
4712.000000	64.233231 
4711.000000	64.240884 
4710.000000	64.236474 
4709.000000	64.218831 
4708.000000	64.188742 
4707.000000	64.148950 
4706.000000	64.104199 
4705.000000	64.059948 
4704.000000	64.022064 
4703.000000	63.994884 
4702.000000	63.980031 
4701.000000	63.976359 
4700.000000	63.980340 
4699.000000	63.987374 
4698.000000	63.992977 
4697.000000	63.994574 
4696.000000	63.991785 
4695.000000	63.987064 
4694.000000	63.984441 
4693.000000	63.988637 
4692.000000	64.002847 
4691.000000	64.028429 
4690.000000	64.064264 
4689.000000	64.106845 
4688.000000	64.151287 
4687.000000	64.191961 
4686.000000	64.223861 
4685.000000	64.243030 
4684.000000	64.247608 
4683.000000	64.238286 
4682.000000	64.217996 
4681.000000	64.191389 
4680.000000	64.163732 
4679.000000	64.139962 
4678.000000	64.123558 
4677.000000	64.116477 
4676.000000	64.118337 
4675.000000	64.126706 
4674.000000	64.137911 
4673.000000	64.147853 
4672.000000	64.152979 
4671.000000	64.150357 
4670.000000	64.138865 
4669.000000	64.118838 
4668.000000	64.092659 
4667.000000	64.063811 
4666.000000	64.036893 
4665.000000	64.016294 
4664.000000	64.006304 
4663.000000	64.010357 
4662.000000	64.030051 
4661.000000	64.064717 
4660.000000	64.110708 
4659.000000	64.162158 
4658.000000	64.211201 
4657.000000	64.249753 
4656.000000	64.271354 
4655.000000	64.273047 
4654.000000	64.255952 
4653.000000	64.225459 
4652.000000	64.189863 
4651.000000	64.158678 
4650.000000	64.140510 
4649.000000	64.141035 
4648.000000	64.162015 
4647.000000	64.200949 
4646.000000	64.252424 
4645.000000	64.308857 
4644.000000	64.363002 
4643.000000	64.408421 
4642.000000	64.440917 
4641.000000	64.458227 
4640.000000	64.459514 
4639.000000	64.445185 
4638.000000	64.416337 
4637.000000	64.374899 
4636.000000	64.323592 
4635.000000	64.266228 
4634.000000	64.207649 
4633.000000	64.152932 
4632.000000	64.106798 
4631.000000	64.072442 
4630.000000	64.051103 
4629.000000	64.041996 
4628.000000	64.042925 
4627.000000	64.050745 
4626.000000	64.062404 
4625.000000	64.075922 
4624.000000	64.090180 
4623.000000	64.104390 
4622.000000	64.117860 
4621.000000	64.129042 
4620.000000	64.135956 
4619.000000	64.135599 
4618.000000	64.126086 
4617.000000	64.107012 
4616.000000	64.080739 
4615.000000	64.052557 
4614.000000	64.029526 
4613.000000	64.019203 
4612.000000	64.026761 
4611.000000	64.053750 
4610.000000	64.096260 
4609.000000	64.145612 
4608.000000	64.190125 
4607.000000	64.218091 
4606.000000	64.220738 
4605.000000	64.194607 
4604.000000	64.142680 
4603.000000	64.073848 
4602.000000	64.000153 
4601.000000	63.933706 
4600.000000	63.883638 
4599.000000	63.853764 
4598.000000	63.842201 
4597.000000	63.842201 
4596.000000	63.844847 
4595.000000	63.841509 
4594.000000	63.826346 
4593.000000	63.797783 
4592.000000	63.758134 
4591.000000	63.713359 
4590.000000	63.670015 
4589.000000	63.635087 
4588.000000	63.612890 
4587.000000	63.605761 
4586.000000	63.613843 
4585.000000	63.635849 
4584.000000	63.669848 
4583.000000	63.713479 
4582.000000	63.764524 
4581.000000	63.820075 
4580.000000	63.876390 
4579.000000	63.928747 
4578.000000	63.971757 
4577.000000	64.000391 
4576.000000	64.010834 
4575.000000	64.001393 
4574.000000	63.973331 
4573.000000	63.930749 
4572.000000	63.879990 
4571.000000	63.828349 
4570.000000	63.782691 
4569.000000	63.748836 
4568.000000	63.730096 
4567.000000	63.727140 
4566.000000	63.738226 
4565.000000	63.759827 
4564.000000	63.787627 
4563.000000	63.818120 
4562.000000	63.848185 
4561.000000	63.875150 
4560.000000	63.896203 
4559.000000	63.907718 
4558.000000	63.905930 
4557.000000	63.887429 
4556.000000	63.850450 
4555.000000	63.795852 
4554.000000	63.728022 
4553.000000	63.654446 
4552.000000	63.584256 
4551.000000	63.526225 
4550.000000	63.486671 
4549.000000	63.468170 
4548.000000	63.469123 
4547.000000	63.484454 
4546.000000	63.507699 
4545.000000	63.532185 
4544.000000	63.553452 
4543.000000	63.568472 
4542.000000	63.576292 
4541.000000	63.575720 
4540.000000	63.563466 
4539.000000	63.534760 
4538.000000	63.483357 
4537.000000	63.404941 
4536.000000	63.298940 
4535.000000	63.171219 
4534.000000	63.034939 
4533.000000	62.907576 
4532.000000	62.807703 
4531.000000	62.749838 
4530.000000	62.740349 
4529.000000	62.776732 
4528.000000	62.847948 
4527.000000	62.937927 
4526.000000	63.029408 
4525.000000	63.108730 
4524.000000	63.168859 
4523.000000	63.209772 
4522.000000	63.237166 
4521.000000	63.259673 
4520.000000	63.285470 
4519.000000	63.319516 
4518.000000	63.361692 
4517.000000	63.407135 
4516.000000	63.448119 
4515.000000	63.477468 
4514.000000	63.491010 
4513.000000	63.490056 
4512.000000	63.480663 
4511.000000	63.473105 
4510.000000	63.477635 
4509.000000	63.500857 
4508.000000	63.544034 
4507.000000	63.602852 
4506.000000	63.667726 
4505.000000	63.727188 
4504.000000	63.769817 
4503.000000	63.788390 
4502.000000	63.779091 
4501.000000	63.742303 
4500.000000	63.681387 
4499.000000	63.601660 
4498.000000	63.508868 
4497.000000	63.408303 
4496.000000	63.305163 
4495.000000	63.204550 
4494.000000	63.112354 
4493.000000	63.034415 
4492.000000	62.975454 
4491.000000	62.938261 
4490.000000	62.920856 
4489.000000	62.919068 
4488.000000	62.924814 
4487.000000	62.932252 
4486.000000	62.939453 
4485.000000	62.950539 
4484.000000	62.977123 
4483.000000	63.031554 
4482.000000	63.119983 
4481.000000	63.240742 
4480.000000	63.382935 
4479.000000	63.528251 
4478.000000	63.653612 
4477.000000	63.739800 
4476.000000	63.778090 
4475.000000	63.770627 
4474.000000	63.730478 
4473.000000	63.676524 
4472.000000	63.627648 
4471.000000	63.599157 
4470.000000	63.599586 
4469.000000	63.627862 
4468.000000	63.674712 
4467.000000	63.730835 
4466.000000	63.788819 
4465.000000	63.842916 
4464.000000	63.890576 
4463.000000	63.928866 
4462.000000	63.959193 
4461.000000	63.978266 
4460.000000	63.991522 
4459.000000	64.011168 
4458.000000	64.063334 
4457.000000	64.182138 
4456.000000	64.405608 
4455.000000	64.766001 
4454.000000	65.277838 
4453.000000	65.929722 
4452.000000	66.681289 
4451.000000	67.469310 
4450.000000	68.216061 
4449.000000	68.847012 
4448.000000	69.299554 
4447.000000	69.537782 
4446.000000	69.549655 
4445.000000	69.349312 
4444.000000	68.960857 
4443.000000	68.412613 
4442.000000	67.729330 
4441.000000	66.932225 
4440.000000	66.045546 
4439.000000	65.100789 
4438.000000	64.145302 
4437.000000	63.237881 
4436.000000	62.441682 
4435.000000	61.813139 
4434.000000	61.382722 
4433.000000	61.155152 
4432.000000	61.104798 
4431.000000	61.187624 
4430.000000	61.345005 
4429.000000	61.523485 
4428.000000	61.678838 
4427.000000	61.788892 
4426.000000	61.844205 
4425.000000	61.856079 
4424.000000	61.843252 
4423.000000	61.830019 
4422.000000	61.838436 
4421.000000	61.877202 
4420.000000	61.935091 
4419.000000	61.994409 
4418.000000	62.039947 
4417.000000	62.056660 
4416.000000	62.034654 
4415.000000	61.975383 
4414.000000	61.889958 
4413.000000	61.791276 
4412.000000	61.689305 
4411.000000	61.585092 
4410.000000	61.471605 
4409.000000	61.336278 
4408.000000	61.168360 
4407.000000	60.965514 
4406.000000	60.737013 
4405.000000	60.509514 
4404.000000	60.314035 
4403.000000	60.178089 
4402.000000	60.115957 
4401.000000	60.109186 
4400.000000	60.134124 
4399.000000	60.143017 
4398.000000	60.131168 
4397.000000	60.132026 
4396.000000	60.251832 
4395.000000	60.637140 
4394.000000	61.460399 
4393.000000	62.866163 
4392.000000	64.919543 
4391.000000	67.567324 
4390.000000	70.623850 
4389.000000	73.791170 
4388.000000	76.710128 
4387.000000	79.027700 
4386.000000	80.468654 
4385.000000	80.884838 
4384.000000	80.289769 
4383.000000	78.838920 
4382.000000	76.791262 
4381.000000	74.443364 
4380.000000	72.083163 
4379.000000	69.928860 
4378.000000	68.125796 
4377.000000	66.722583 
4376.000000	65.719151 
4375.000000	65.062022 
4374.000000	64.685249 
4373.000000	64.518046 
4372.000000	64.485788 
4371.000000	64.532017 
4370.000000	64.600396 
4369.000000	64.654898 
4368.000000	64.657092 
4367.000000	64.591407 
4366.000000	64.455842 
4365.000000	64.266967 
4364.000000	64.050436 
4363.000000	63.841009 
4362.000000	63.673973 
4361.000000	63.571572 
4360.000000	63.538217 
4359.000000	63.567185 
4358.000000	63.642859 
4357.000000	63.740706 
4356.000000	63.834977 
4355.000000	63.910746 
4354.000000	63.962459 
4353.000000	63.988375 
4352.000000	63.990831 
4351.000000	63.969397 
4350.000000	63.923048 
4349.000000	63.856863 
4348.000000	63.775396 
4347.000000	63.676905 
4346.000000	63.561153 
4345.000000	63.436055 
4344.000000	63.311958 
4343.000000	63.198971 
4342.000000	63.107275 
4341.000000	63.045382 
4340.000000	63.017129 
4339.000000	63.020372 
4338.000000	63.047623 
4337.000000	63.087463 
4336.000000	63.127636 
4335.000000	63.157677 
4334.000000	63.171362 
4333.000000	63.167691 
4332.000000	63.150334 
4331.000000	63.126325 
4330.000000	63.104534 
4329.000000	63.093042 
4328.000000	63.096904 
4327.000000	63.116693 
4326.000000	63.149690 
4325.000000	63.189411 
4324.000000	63.228464 
4323.000000	63.259291 
4322.000000	63.276076 
4321.000000	63.275623 
4320.000000	63.257861 
4319.000000	63.225436 
4318.000000	63.183021 
4317.000000	63.135886 
4316.000000	63.088631 
4315.000000	63.044357 
4314.000000	63.005161 
4313.000000	62.971138 
4312.000000	62.941694 
4311.000000	62.915611 
4310.000000	62.892293 
4309.000000	62.871575 
4308.000000	62.853860 
4307.000000	62.839913 
4306.000000	62.830638 
4305.000000	62.827301 
4304.000000	62.831234 
4303.000000	62.843513 
4302.000000	62.864780 
4301.000000	62.894964 
4300.000000	62.932848 
4299.000000	62.976455 
4298.000000	63.022708 
4297.000000	63.067531 
4296.000000	63.106322 
4295.000000	63.134908 
4294.000000	63.150119 
4293.000000	63.150763 
4292.000000	63.137364 
4291.000000	63.112711 
4290.000000	63.080453 
4289.000000	63.045024 
4288.000000	63.009858 
4287.000000	62.977504 
4286.000000	62.948465 
4285.000000	62.921690 
4284.000000	62.894821 
4283.000000	62.865495 
4282.000000	62.831330 
4281.000000	62.791347 
4280.000000	62.746191 
4279.000000	62.698912 
4278.000000	62.654924 
4277.000000	62.621521 
4276.000000	62.606596 
4275.000000	62.616944 
4274.000000	62.656617 
4273.000000	62.725353 
4272.000000	62.818050 
4271.000000	62.925028 
4270.000000	63.033580 
4269.000000	63.130307 
4268.000000	63.203549 
4267.000000	63.245677 
4266.000000	63.254213 
4265.000000	63.231897 
4264.000000	63.186025 
4263.000000	63.126111 
4262.000000	63.062238 
4261.000000	63.002538 
4260.000000	62.952446 
4259.000000	62.914037 
4258.000000	62.887287 
4257.000000	62.870550 
4256.000000	62.862348 
4255.000000	62.861180 
4254.000000	62.866163 
4253.000000	62.876653 
4252.000000	62.891936 
4251.000000	62.910246 
4250.000000	62.929153 
4249.000000	62.945532 
4248.000000	62.956809 
4247.000000	62.961220 
4246.000000	62.958955 
4245.000000	62.952065 
4244.000000	62.944531 
4243.000000	62.941265 
4242.000000	62.946891 
4241.000000	62.964582 
4240.000000	62.994956 
4239.000000	63.036036 
4238.000000	63.082647 
4237.000000	63.127994 
4236.000000	63.164138 
4235.000000	63.183856 
4234.000000	63.182115 
4233.000000	63.156962 
4232.000000	63.110661 
4231.000000	63.049197 
4230.000000	62.982296 
4229.000000	62.921357 
4228.000000	62.877631 
4227.000000	62.860035 
4226.000000	62.873625 
4225.000000	62.918257 
4224.000000	62.988638 
4223.000000	63.075375 
4222.000000	63.166093 
4221.000000	63.248348 
4220.000000	63.311815 
4219.000000	63.350534 
4218.000000	63.362979 
4217.000000	63.352799 
4216.000000	63.327717 
4215.000000	63.297772 
4214.000000	63.272833 
4213.000000	63.260769 
4212.000000	63.266682 
4211.000000	63.291335 
4210.000000	63.332176 
4209.000000	63.383483 
4208.000000	63.438391 
4207.000000	63.489866 
4206.000000	63.531923 
4205.000000	63.561272 
4204.000000	63.577747 
4203.000000	63.583827 
4202.000000	63.583540 
4201.000000	63.581180 
4200.000000	63.579797 
4199.000000	63.580775 
4198.000000	63.583254 
4197.000000	63.583993 
4196.000000	63.578009 
4195.000000	63.560700 
4194.000000	63.528585 
4193.000000	63.480210 
4192.000000	63.416409 
4191.000000	63.340497 
4190.000000	63.257503 
4189.000000	63.173508 
4188.000000	63.094329 
4187.000000	63.024950 
4186.000000	62.968301 
4185.000000	62.925744 
4184.000000	62.895941 
4183.000000	62.875890 
4182.000000	62.860393 
4181.000000	62.842941 
4180.000000	62.817120 
4179.000000	62.776899 
4178.000000	62.720084 
4177.000000	62.648510 
4176.000000	62.569308 
4175.000000	62.493181 
4174.000000	62.433624 
4173.000000	62.403941 
4172.000000	62.414002 
4171.000000	62.467670 
4170.000000	62.561964 
4169.000000	62.687349 
4168.000000	62.829446 
4167.000000	62.972378 
4166.000000	63.101482 
4165.000000	63.206696 
4164.000000	63.283801 
4163.000000	63.334822 
4162.000000	63.366031 
4161.000000	63.385534 
4160.000000	63.401794 
4159.000000	63.419747 
4158.000000	63.440680 
4157.000000	63.461065 
4156.000000	63.476252 
4155.000000	63.479685 
4154.000000	63.466405 
4153.000000	63.433670 
4152.000000	63.382911 
4151.000000	63.318419 
4150.000000	63.246464 
4149.000000	63.174223 
4148.000000	63.108110 
4147.000000	63.052678 
4146.000000	63.010048 
4145.000000	62.980556 
4144.000000	62.963175 
4143.000000	62.955760 
4142.000000	62.956428 
4141.000000	62.963509 
4140.000000	62.976527 
4139.000000	62.995862 
4138.000000	63.022732 
4137.000000	63.057827 
4136.000000	63.101148 
4135.000000	63.151693 
4134.000000	63.207292 
4133.000000	63.263654 
4132.000000	63.316059 
4131.000000	63.360357 
4130.000000	63.393688 
4129.000000	63.414835 
4128.000000	63.424611 
4127.000000	63.425564 
4126.000000	63.421297 
4125.000000	63.415336 
4124.000000	63.411021 
4123.000000	63.410925 
4122.000000	63.417100 
4121.000000	63.431096 
4120.000000	63.453888 
4119.000000	63.485956 
4118.000000	63.527560 
4117.000000	63.578391 
4116.000000	63.637113 
4115.000000	63.700628 
4114.000000	63.764739 
4113.000000	63.823914 
4112.000000	63.872098 
4111.000000	63.903284 
4110.000000	63.913202 
4109.000000	63.899612 
4108.000000	63.863563 
4107.000000	63.808536 
4106.000000	63.740658 
4105.000000	63.666248 
4104.000000	63.591718 
4103.000000	63.521361 
4102.000000	63.457274 
4101.000000	63.399529 
4100.000000	63.347005 
4099.000000	63.298606 
4098.000000	63.253951 
4097.000000	63.214850 
4096.000000	63.184976 
4095.000000	63.169145 
4094.000000	63.171625 
4093.000000	63.194966 
4092.000000	63.238501 
4091.000000	63.298082 
4090.000000	63.366293 
4089.000000	63.434267 
4088.000000	63.493299 
4087.000000	63.536739 
4086.000000	63.560938 
4085.000000	63.565802 
4084.000000	63.554310 
4083.000000	63.531160 
4082.000000	63.501620 
4081.000000	63.470625 
4080.000000	63.441562 
4079.000000	63.416647 
4078.000000	63.396286 
4077.000000	63.380312 
4076.000000	63.367772 
4075.000000	63.358116 
4074.000000	63.350915 
4073.000000	63.345599 
4072.000000	63.341856 
4071.000000	63.339614 
4070.000000	63.338732 
4069.000000	63.338851 
4068.000000	63.339686 
4067.000000	63.340973 
4066.000000	63.342285 
4065.000000	63.342976 
4064.000000	63.342308 
4063.000000	63.339519 
4062.000000	63.334083 
4061.000000	63.325881 
4060.000000	63.315534 
4059.000000	63.304162 
4058.000000	63.293385 
4057.000000	63.284730 
4056.000000	63.279151 
4055.000000	63.276791 
4054.000000	63.277029 
4053.000000	63.278985 
4052.000000	63.281369 
4051.000000	63.283801 
4050.000000	63.286232 
4049.000000	63.289737 
4048.000000	63.296270 
4047.000000	63.307666 
4046.000000	63.325071 
4045.000000	63.348269 
4044.000000	63.375568 
4043.000000	63.404059 
4042.000000	63.430190 
4041.000000	63.450908 
4040.000000	63.464283 
4039.000000	63.470172 
4038.000000	63.470101 
4037.000000	63.466906 
4036.000000	63.463950 
4035.000000	63.464093 
4034.000000	63.468718 
4033.000000	63.477516 
4032.000000	63.488435 
4031.000000	63.498234 
4030.000000	63.503479 
4029.000000	63.501477 
4028.000000	63.491296 
4027.000000	63.473844 
4026.000000	63.452291 
4025.000000	63.431000 
4024.000000	63.415217 
4023.000000	63.409399 
4022.000000	63.416504 
4021.000000	63.437151 
4020.000000	63.469338 
4019.000000	63.508963 
4018.000000	63.550400 
4017.000000	63.587689 
4016.000000	63.615942 
4015.000000	63.632535 
4014.000000	63.637423 
4013.000000	63.632822 
4012.000000	63.622951 
4011.000000	63.612675 
4010.000000	63.605952 
4009.000000	63.604712 
4008.000000	63.608765 
4007.000000	63.616061 
4006.000000	63.623189 
4005.000000	63.626790 
4004.000000	63.624739 
4003.000000	63.616967 
4002.000000	63.605546 
4001.000000	63.594150 
4000.000000	63.586640 
3999.000000	63.585877 
3998.000000	63.592958 
3997.000000	63.606357 
3996.000000	63.622355 
3995.000000	63.635826 
3994.000000	63.641881 
3993.000000	63.636684 
3992.000000	63.618588 
3991.000000	63.587808 
3990.000000	63.546633 
3989.000000	63.498067 
3988.000000	63.445162 
3987.000000	63.390064 
3986.000000	63.333606 
3985.000000	63.275432 
3984.000000	63.215017 
3983.000000	63.152098 
3982.000000	63.087701 
3981.000000	63.024139 
3980.000000	62.965154 
3979.000000	62.915110 
3978.000000	62.878608 
3977.000000	62.858653 
3976.000000	62.857007 
3975.000000	62.873148 
3974.000000	62.905144 
3973.000000	62.949681 
3972.000000	63.002943 
3971.000000	63.060927 
3970.000000	63.119626 
3969.000000	63.175225 
3968.000000	63.223814 
3967.000000	63.261604 
3966.000000	63.284897 
3965.000000	63.290739 
3964.000000	63.277363 
3963.000000	63.245177 
3962.000000	63.196587 
3961.000000	63.136339 
3960.000000	63.070940 
3959.000000	63.007926 
3958.000000	62.954425 
3957.000000	62.916350 
3956.000000	62.897562 
3955.000000	62.899637 
3954.000000	62.921595 
3953.000000	62.960624 
3952.000000	63.012576 
3951.000000	63.073039 
3950.000000	63.137483 
3949.000000	63.202071 
3948.000000	63.263201 
3947.000000	63.317942 
3946.000000	63.363432 
3945.000000	63.397169 
3944.000000	63.417077 
3943.000000	63.421797 
3942.000000	63.411164 
3941.000000	63.386273 
3940.000000	63.349890 
3939.000000	63.306045 
3938.000000	63.259792 
3937.000000	63.216304 
3936.000000	63.180351 
3935.000000	63.155364 
3934.000000	63.143134 
3933.000000	63.143706 
3932.000000	63.155674 
3931.000000	63.176560 
3930.000000	63.203310 
3929.000000	63.232970 
3928.000000	63.262724 
3927.000000	63.290095 
3926.000000	63.312649 
3925.000000	63.328289 
3924.000000	63.335371 
3923.000000	63.332724 
3922.000000	63.320112 
3921.000000	63.298392 
3920.000000	63.269686 
3919.000000	63.237452 
3918.000000	63.205671 
3917.000000	63.178205 
3916.000000	63.158059 
3915.000000	63.147234 
3914.000000	63.146162 
3913.000000	63.153505 
3912.000000	63.166952 
3911.000000	63.183856 
3910.000000	63.201880 
3909.000000	63.219308 
3908.000000	63.235354 
3907.000000	63.249850 
3906.000000	63.262987 
3905.000000	63.275074 
3904.000000	63.285851 
3903.000000	63.294315 
3902.000000	63.299131 
3901.000000	63.299155 
3900.000000	63.293719 
3899.000000	63.283276 
3898.000000	63.269209 
3897.000000	63.253808 
3896.000000	63.239789 
3895.000000	63.229560 
3894.000000	63.224554 
3893.000000	63.224506 
3892.000000	63.227772 
3891.000000	63.231420 
3890.000000	63.232088 
3889.000000	63.226532 
3888.000000	63.212227 
3887.000000	63.188171 
3886.000000	63.155221 
3885.000000	63.116049 
3884.000000	63.074254 
3883.000000	63.034200 
3882.000000	63.000035 
3881.000000	62.975192 
3880.000000	62.961983 
3879.000000	62.961006 
3878.000000	62.971115 
3877.000000	62.989783 
3876.000000	63.013768 
3875.000000	63.039231 
3874.000000	63.062572 
3873.000000	63.081049 
3872.000000	63.092899 
3871.000000	63.097620 
3870.000000	63.095664 
3869.000000	63.087606 
3868.000000	63.074254 
3867.000000	63.056373 
3866.000000	63.035202 
3865.000000	63.012552 
3864.000000	62.991094 
3863.000000	62.974548 
3862.000000	62.967133 
3861.000000	62.972950 
3860.000000	62.994742 
3859.000000	63.032817 
3858.000000	63.084173 
3857.000000	63.142776 
3856.000000	63.199949 
3855.000000	63.246178 
3854.000000	63.273262 
3853.000000	63.276052 
3852.000000	63.253664 
3851.000000	63.209891 
3850.000000	63.151764 
3849.000000	63.087987 
3848.000000	63.027119 
3847.000000	62.976121 
3846.000000	62.939953 
3845.000000	62.921047 
3844.000000	62.919831 
3843.000000	62.934947 
3842.000000	62.963604 
3841.000000	63.001918 
3840.000000	63.044810 
3839.000000	63.086628 
3838.000000	63.121485 
3837.000000	63.144397 
3836.000000	63.151884 
3835.000000	63.142871 
3834.000000	63.118743 
3833.000000	63.082957 
3832.000000	63.040661 
3831.000000	62.996983 
3830.000000	62.956142 
3829.000000	62.920451 
3828.000000	62.890195 
3827.000000	62.864470 
3826.000000	62.842273 
3825.000000	62.823104 
3824.000000	62.807250 
3823.000000	62.795853 
3822.000000	62.790369 
3821.000000	62.791204 
3820.000000	62.797403 
3819.000000	62.806630 
3818.000000	62.815952 
3817.000000	62.822604 
3816.000000	62.825202 
3815.000000	62.824296 
3814.000000	62.822532 
3813.000000	62.823987 
3812.000000	62.833023 
3811.000000	62.852835 
3810.000000	62.884497 
3809.000000	62.926292 
3808.000000	62.974214 
3807.000000	63.023066 
3806.000000	63.067150 
3805.000000	63.102173 
3804.000000	63.124918 
3803.000000	63.133716 
3802.000000	63.128089 
3801.000000	63.108611 
3800.000000	63.076281 
3799.000000	63.032436 
3798.000000	62.979125 
3797.000000	62.919521 
3796.000000	62.857365 
3795.000000	62.796640 
3794.000000	62.741088 
3793.000000	62.693738 
3792.000000	62.655925 
3791.000000	62.627410 
3790.000000	62.606167 
3789.000000	62.589573 
3788.000000	62.575149 
3787.000000	62.561535 
3786.000000	62.548947 
3785.000000	62.539315 
3784.000000	62.535142 
3783.000000	62.539148 
3782.000000	62.552547 
3781.000000	62.575030 
3780.000000	62.604260 
3779.000000	62.636685 
3778.000000	62.668156 
3777.000000	62.695193 
3776.000000	62.715554 
3775.000000	62.728953 
3774.000000	62.736606 
3773.000000	62.741231 
3772.000000	62.746238 
3771.000000	62.754702 
3770.000000	62.768602 
3769.000000	62.788271 
3768.000000	62.812185 
3767.000000	62.837719 
3766.000000	62.861585 
3765.000000	62.880659 
3764.000000	62.893056 
3763.000000	62.898349 
3762.000000	62.898135 
3761.000000	62.895321 
3760.000000	62.894010 
3759.000000	62.898039 
3758.000000	62.910461 
3757.000000	62.932682 
3756.000000	62.964320 
3755.000000	63.003110 
3754.000000	63.045525 
3753.000000	63.087916 
3752.000000	63.126850 
3751.000000	63.159966 
3750.000000	63.185596 
3749.000000	63.203072 
3748.000000	63.212156 
3747.000000	63.212847 
3746.000000	63.205385 
3745.000000	63.190221 
3744.000000	63.168382 
3743.000000	63.141584 
3742.000000	63.112258 
3741.000000	63.083291 
3740.000000	63.057518 
3739.000000	63.036870 
3738.000000	63.022255 
3737.000000	63.012933 
3736.000000	63.006711 
3735.000000	63.000369 
3734.000000	62.990593 
3733.000000	62.974858 
3732.000000	62.951683 
3731.000000	62.921333 
3730.000000	62.885236 
3729.000000	62.846016 
3728.000000	62.806582 
3727.000000	62.770032 
3726.000000	62.738752 
3725.000000	62.715005 
3724.000000	62.700462 
3723.000000	62.696194 
3722.000000	62.702751 
3721.000000	62.719774 
3720.000000	62.745904 
3719.000000	62.778639 
3718.000000	62.814545 
3717.000000	62.849187 
3716.000000	62.877845 
3715.000000	62.895989 
3714.000000	62.900185 
3713.000000	62.888693 
3712.000000	62.861824 
3711.000000	62.821841 
3710.000000	62.772703 
3709.000000	62.719416 
3708.000000	62.667369 
3707.000000	62.621259 
3706.000000	62.584543 
3705.000000	62.559175 
3704.000000	62.545800 
3703.000000	62.543630 
3702.000000	62.551641 
3701.000000	62.567925 
3700.000000	62.591505 
3699.000000	62.621760 
3698.000000	62.658834 
3697.000000	62.702703 
3696.000000	62.752914 
3695.000000	62.807965 
3694.000000	62.864923 
3693.000000	62.919569 
3692.000000	62.966775 
3691.000000	63.001656 
3690.000000	63.020229 
3689.000000	63.020801 
3688.000000	63.003945 
3687.000000	62.972903 
3686.000000	62.932944 
3685.000000	62.890481 
3684.000000	62.851881 
3683.000000	62.822151 
3682.000000	62.804579 
3681.000000	62.800025 
3680.000000	62.806987 
3679.000000	62.821960 
3678.000000	62.840580 
3677.000000	62.858152 
3676.000000	62.870454 
3675.000000	62.874293 
3674.000000	62.867665 
3673.000000	62.850165 
3672.000000	62.822580 
3671.000000	62.786936 
3670.000000	62.745714 
3669.000000	62.701892 
3668.000000	62.658739 
3667.000000	62.619185 
3666.000000	62.585568 
3665.000000	62.559747 
3664.000000	62.542819 
3663.000000	62.535405 
3662.000000	62.537240 
3661.000000	62.547969 
3660.000000	62.567043 
3659.000000	62.593817 
3658.000000	62.627196 
3657.000000	62.666010 
3656.000000	62.708473 
3655.000000	62.752342 
3654.000000	62.794685 
3653.000000	62.831926 
3652.000000	62.859964 
3651.000000	62.875485 
3650.000000	62.875986 
3649.000000	62.860560 
3648.000000	62.829566 
3647.000000	62.785553 
3646.000000	62.731671 
3645.000000	62.671923 
3644.000000	62.610030 
3643.000000	62.549424 
3642.000000	62.492704 
3641.000000	62.441968 
3640.000000	62.398862 
3639.000000	62.365031 
3638.000000	62.341690 
3637.000000	62.329792 
3636.000000	62.329363 
3635.000000	62.338972 
3634.000000	62.355852 
3633.000000	62.375998 
3632.000000	62.394833 
3631.000000	62.408351 
3630.000000	62.414264 
3629.000000	62.412619 
3628.000000	62.405967 
3627.000000	62.398457 
3626.000000	62.394595 
3625.000000	62.397623 
3624.000000	62.408447 
3623.000000	62.425184 
3622.000000	62.443757 
3621.000000	62.458944 
3620.000000	62.466406 
3619.000000	62.463665 
3618.000000	62.451028 
3617.000000	62.431144 
3616.000000	62.408828 
3615.000000	62.388563 
3614.000000	62.373137 
3613.000000	62.362742 
3612.000000	62.354969 
3611.000000	62.345409 
3610.000000	62.329077 
3609.000000	62.302303 
3608.000000	62.264347 
3607.000000	62.217688 
3606.000000	62.167692 
3605.000000	62.121129 
3604.000000	62.084627 
3603.000000	62.063193 
3602.000000	62.058973 
3601.000000	62.070775 
3600.000000	62.094569 
3599.000000	62.124752 
3598.000000	62.155508 
3597.000000	62.181973 
3596.000000	62.201762 
3595.000000	62.214732 
3594.000000	62.223267 
3593.000000	62.230801 
3592.000000	62.241220 
3591.000000	62.257146 
3590.000000	62.279462 
3589.000000	62.307119 
3588.000000	62.337207 
3587.000000	62.366056 
3586.000000	62.389731 
3585.000000	62.405347 
3584.000000	62.411141 
3583.000000	62.406992 
3582.000000	62.393832 
3581.000000	62.373495 
3580.000000	62.347817 
3579.000000	62.318420 
3578.000000	62.286448 
3577.000000	62.252569 
3576.000000	62.217426 
3575.000000	62.181806 
3574.000000	62.146973 
3573.000000	62.114715 
3572.000000	62.087297 
3571.000000	62.067246 
3570.000000	62.056398 
3569.000000	62.056016 
3568.000000	62.066245 
3567.000000	62.086153 
3566.000000	62.113451 
3565.000000	62.145137 
3564.000000	62.178063 
3563.000000	62.208962 
3562.000000	62.234997 
3561.000000	62.253737 
3560.000000	62.263250 
3559.000000	62.262129 
3558.000000	62.249779 
3557.000000	62.226676 
3556.000000	62.194490 
3555.000000	62.156105 
3554.000000	62.115406 
3553.000000	62.076497 
3552.000000	62.043094 
3551.000000	62.017607 
3550.000000	62.000679 
3549.000000	61.991190 
3548.000000	61.986494 
3547.000000	61.983180 
3546.000000	61.978125 
3545.000000	61.968851 
3544.000000	61.954545 
3543.000000	61.935782 
3542.000000	61.914825 
3541.000000	61.894679 
3540.000000	61.878752 
3539.000000	61.869716 
3538.000000	61.869001 
3537.000000	61.876487 
3536.000000	61.890578 
3535.000000	61.908507 
3534.000000	61.927318 
3533.000000	61.944413 
3532.000000	61.958193 
3531.000000	61.968207 
3530.000000	61.975049 
3529.000000	61.980032 
3528.000000	61.984324 
3527.000000	61.988687 
3526.000000	61.992716 
3525.000000	61.994957 
3524.000000	61.993360 
3523.000000	61.986064 
3522.000000	61.971855 
3521.000000	61.950635 
3520.000000	61.923837 
3519.000000	61.894273 
3518.000000	61.865186 
3517.000000	61.839818 
3516.000000	61.820411 
3515.000000	61.808133 
3514.000000	61.802554 
3513.000000	61.802244 
3512.000000	61.805295 
3511.000000	61.810016 
3510.000000	61.815571 
3509.000000	61.822009 
3508.000000	61.829876 
3507.000000	61.839890 
3506.000000	61.852312 
3505.000000	61.866784 
3504.000000	61.881923 
3503.000000	61.896419 
3502.000000	61.909389 
3501.000000	61.921000 
3500.000000	61.932563 
3499.000000	61.945962 
3498.000000	61.962985 
3497.000000	61.984276 
3496.000000	62.008929 
3495.000000	62.034273 
3494.000000	62.056612 
3493.000000	62.072324 
3492.000000	62.078976 
3491.000000	62.076735 
3490.000000	62.068223 
3489.000000	62.058448 
3488.000000	62.053060 
3487.000000	62.056589 
3486.000000	62.070536 
3485.000000	62.093019 
3484.000000	62.118721 
3483.000000	62.140297 
3482.000000	62.150120 
3481.000000	62.142610 
3480.000000	62.115645 
3479.000000	62.071394 
3478.000000	62.015724 
3477.000000	61.956810 
3476.000000	61.903405 
3475.000000	61.862897 
3474.000000	61.839842 
3473.000000	61.835098 
3472.000000	61.845946 
3471.000000	61.867332 
3470.000000	61.892724 
3469.000000	61.915969 
3468.000000	61.932301 
3467.000000	61.939597 
3466.000000	61.937785 
3465.000000	61.929225 
3464.000000	61.917805 
3463.000000	61.908054 
3462.000000	61.904001 
3461.000000	61.907958 
3460.000000	61.920595 
3459.000000	61.940217 
3458.000000	61.963558 
3457.000000	61.986255 
3456.000000	62.004232 
3455.000000	62.014412 
3454.000000	62.015390 
3453.000000	62.007617 
3452.000000	61.992955 
3451.000000	61.974000 
3450.000000	61.953210 
3449.000000	61.932134 
3448.000000	61.911392 
3447.000000	61.890530 
3446.000000	61.868739 
3445.000000	61.845374 
3444.000000	61.820197 
3443.000000	61.793994 
3442.000000	61.768341 
3441.000000	61.744713 
3440.000000	61.724138 
3439.000000	61.706376 
3438.000000	61.690163 
3437.000000	61.673450 
3436.000000	61.654329 
3435.000000	61.631369 
3434.000000	61.604309 
3433.000000	61.574149 
3432.000000	61.543011 
3431.000000	61.513209 
3430.000000	61.487150 
3429.000000	61.466169 
3428.000000	61.450695 
3427.000000	61.440110 
3426.000000	61.433172 
3425.000000	61.428594 
3424.000000	61.425566 
3423.000000	61.423635 
3422.000000	61.422991 
3421.000000	61.424207 
3420.000000	61.427927 
3419.000000	61.434316 
3418.000000	61.443161 
3417.000000	61.453747 
3416.000000	61.465024 
3415.000000	61.475849 
3414.000000	61.484885 
3413.000000	61.490559 
3412.000000	61.491537 
3411.000000	61.486864 
3410.000000	61.476135 
3409.000000	61.459875 
3408.000000	61.439752 
3407.000000	61.418390 
3406.000000	61.398983 
3405.000000	61.384606 
3404.000000	61.377739 
3403.000000	61.379671 
3402.000000	61.390113 
3401.000000	61.407065 
3400.000000	61.427378 
3399.000000	61.447072 
3398.000000	61.462092 
3397.000000	61.469006 
3396.000000	61.465716 
3395.000000	61.451578 
3394.000000	61.427736 
3393.000000	61.396646 
3392.000000	61.361503 
3391.000000	61.325979 
3390.000000	61.293721 
3389.000000	61.267805 
3388.000000	61.250495 
3387.000000	61.242961 
3386.000000	61.245226 
3385.000000	61.256170 
3384.000000	61.273717 
3383.000000	61.295199 
3382.000000	61.317682 
3381.000000	61.338281 
3380.000000	61.354565 
3379.000000	61.364674 
3378.000000	61.367750 
3377.000000	61.363744 
3376.000000	61.353683 
3375.000000	61.339497 
3374.000000	61.323380 
3373.000000	61.307764 
3372.000000	61.294221 
3371.000000	61.283516 
3370.000000	61.274957 
3369.000000	61.266756 
3368.000000	61.256599 
3367.000000	61.242318 
3366.000000	61.222767 
3365.000000	61.198210 
3364.000000	61.170744 
3363.000000	61.143755 
3362.000000	61.121416 
3361.000000	61.107540 
3360.000000	61.104631 
3359.000000	61.113357 
3358.000000	61.132359 
3357.000000	61.158919 
3356.000000	61.189484 
3355.000000	61.220836 
3354.000000	61.250638 
3353.000000	61.277866 
3352.000000	61.302661 
3351.000000	61.325740 
3350.000000	61.347246 
3349.000000	61.366558 
3348.000000	61.382126 
3347.000000	61.391329 
3346.000000	61.391520 
3345.000000	61.380600 
3344.000000	61.358165 
3343.000000	61.325526 
3342.000000	61.286163 
3341.000000	61.244702 
3340.000000	61.206388 
3339.000000	61.175584 
3338.000000	61.155247 
3337.000000	61.146116 
3336.000000	61.146807 
3335.000000	61.154437 
3334.000000	61.165499 
3333.000000	61.176681 
3332.000000	61.185693 
3331.000000	61.191606 
3330.000000	61.194586 
3329.000000	61.195516 
3328.000000	61.195445 
3327.000000	61.194968 
3326.000000	61.193990 
3325.000000	61.191725 
3324.000000	61.186981 
3323.000000	61.178827 
3322.000000	61.166691 
3321.000000	61.150979 
3320.000000	61.132526 
3319.000000	61.112666 
3318.000000	61.092734 
3317.000000	61.073756 
3316.000000	61.056280 
3315.000000	61.040186 
3314.000000	61.025214 
3313.000000	61.011171 
3312.000000	60.998344 
3311.000000	60.987329 
3310.000000	60.978865 
3309.000000	60.973405 
3308.000000	60.970902 
3307.000000	60.970664 
3306.000000	60.971355 
3305.000000	60.971450 
3304.000000	60.969758 
3303.000000	60.965943 
3302.000000	60.960912 
3301.000000	60.956883 
3300.000000	60.956788 
3299.000000	60.963606 
3298.000000	60.979723 
3297.000000	61.005854 
3296.000000	61.040949 
3295.000000	61.081600 
3294.000000	61.122989 
3293.000000	61.159062 
3292.000000	61.184191 
3291.000000	61.193919 
3290.000000	61.185717 
3289.000000	61.159920 
3288.000000	61.119246 
3287.000000	61.069059 
3286.000000	61.016201 
3285.000000	60.968017 
3284.000000	60.930871 
3283.000000	60.909008 
3282.000000	60.904049 
3281.000000	60.914516 
3280.000000	60.936260 
3279.000000	60.963416 
3278.000000	60.989594 
3277.000000	61.009192 
3276.000000	61.018490 
3275.000000	61.016082 
3274.000000	61.003232 
3273.000000	60.982918 
3272.000000	60.959148 
3271.000000	60.935950 
3270.000000	60.916614 
3269.000000	60.903096 
3268.000000	60.895466 
3267.000000	60.892891 
3266.000000	60.893154 
3265.000000	60.893988 
3264.000000	60.892748 
3263.000000	60.887026 
3262.000000	60.874724 
3261.000000	60.854148 
3260.000000	60.824298 
3259.000000	60.785269 
3258.000000	60.738396 
3257.000000	60.686278 
3256.000000	60.632658 
3255.000000	60.581970 
3254.000000	60.538911 
3253.000000	60.507583 
3252.000000	60.490441 
3251.000000	60.487914 
3250.000000	60.498309 
3249.000000	60.518074 
3248.000000	60.542321 
3247.000000	60.566234 
3246.000000	60.585379 
3245.000000	60.597229 
3244.000000	60.600924 
3243.000000	60.597896 
3242.000000	60.590887 
3241.000000	60.583662 
3240.000000	60.579633 
3239.000000	60.581231 
3238.000000	60.589671 
3237.000000	60.604119 
3236.000000	60.622215 
3235.000000	60.640287 
3234.000000	60.654520 
3233.000000	60.661840 
3232.000000	60.660576 
3231.000000	60.651135 
3230.000000	60.635900 
3229.000000	60.618901 
3228.000000	60.604834 
3227.000000	60.598278 
3226.000000	60.602378 
3225.000000	60.618138 
3224.000000	60.644245 
3223.000000	60.677313 
3222.000000	60.712766 
3221.000000	60.745716 
3220.000000	60.772156 
3219.000000	60.789704 
3218.000000	60.798144 
3217.000000	60.798978 
3216.000000	60.794734 
3215.000000	60.788440 
3214.000000	60.782456 
3213.000000	60.778498 
3212.000000	60.776758 
3211.000000	60.776638 
3210.000000	60.776638 
3209.000000	60.775351 
3208.000000	60.771489 
3207.000000	60.764575 
3206.000000	60.755014 
3205.000000	60.743927 
3204.000000	60.732746 
3203.000000	60.722732 
3202.000000	60.714364 
3201.000000	60.707283 
3200.000000	60.700249 
3199.000000	60.691380 
3198.000000	60.678744 
3197.000000	60.661101 
3196.000000	60.638594 
3195.000000	60.612750 
3194.000000	60.586404 
3193.000000	60.563302 
3192.000000	60.546922 
3191.000000	60.539984 
3190.000000	60.543465 
3189.000000	60.556435 
3188.000000	60.575938 
3187.000000	60.597872 
3186.000000	60.617852 
3185.000000	60.632181 
3184.000000	60.638523 
3183.000000	60.636162 
3182.000000	60.626006 
3181.000000	60.609817 
3180.000000	60.589694 
3179.000000	60.567188 
3178.000000	60.543084 
3177.000000	60.517358 
3176.000000	60.489678 
3175.000000	60.459923 
3174.000000	60.428738 
3173.000000	60.397911 
3172.000000	60.370302 
3171.000000	60.349011 
3170.000000	60.336971 
3169.000000	60.335803 
3168.000000	60.345530 
3167.000000	60.364198 
3166.000000	60.388469 
3165.000000	60.414123 
3164.000000	60.437154 
3163.000000	60.454463 
3162.000000	60.464572 
3161.000000	60.467410 
3160.000000	60.464191 
3159.000000	60.456824 
3158.000000	60.447168 
3157.000000	60.436749 
3156.000000	60.426187 
3155.000000	60.415720 
3154.000000	60.405087 
3153.000000	60.394287 
3152.000000	60.383296 
3151.000000	60.372495 
3150.000000	60.362386 
3149.000000	60.353517 
3148.000000	60.346364 
3147.000000	60.341024 
3146.000000	60.337471 
3145.000000	60.335564 
3144.000000	60.335302 
3143.000000	60.336709 
3142.000000	60.339975 
3141.000000	60.345101 
3140.000000	60.351753 
3139.000000	60.358667 
3138.000000	60.364151 
3137.000000	60.365819 
3136.000000	60.361385 
3135.000000	60.348868 
3134.000000	60.327410 
3133.000000	60.297536 
3132.000000	60.261344 
3131.000000	60.222387 
3130.000000	60.184955 
3129.000000	60.153484 
3128.000000	60.131859 
3127.000000	60.122680 
3126.000000	60.126829 
3125.000000	60.143136 
3124.000000	60.168766 
3123.000000	60.199618 
3122.000000	60.230851 
3121.000000	60.257697 
3120.000000	60.276365 
3119.000000	60.284495 
3118.000000	60.281658 
3117.000000	60.269403 
3116.000000	60.250973 
3115.000000	60.230708 
3114.000000	60.213065 
3113.000000	60.201764 
3112.000000	60.198664 
3111.000000	60.203719 
3110.000000	60.214614 
3109.000000	60.227584 
3108.000000	60.238218 
3107.000000	60.242724 
3106.000000	60.238981 
3105.000000	60.227036 
3104.000000	60.209155 
3103.000000	60.188984 
3102.000000	60.170531 
3101.000000	60.156798 
3100.000000	60.148715 
3099.000000	60.144996 
3098.000000	60.142374 
3097.000000	60.136532 
3096.000000	60.123515 
3095.000000	60.101294 
3094.000000	60.070037 
3093.000000	60.032558 
3092.000000	59.993267 
3091.000000	59.957242 
3090.000000	59.928774 
3089.000000	59.910488 
3088.000000	59.902572 
3087.000000	59.903335 
3086.000000	59.909987 
3085.000000	59.919714 
3084.000000	59.930586 
3083.000000	59.942078 
3082.000000	59.954762 
3081.000000	59.969949 
3080.000000	59.988451 
3079.000000	60.010099 
3078.000000	60.033273 
3077.000000	60.055041 
3076.000000	60.071778 
3075.000000	60.079979 
3074.000000	60.077476 
3073.000000	60.063743 
3072.000000	60.040521 
3071.000000	60.011196 
3070.000000	59.980249 
3069.000000	59.952330 
3068.000000	59.931373 
3067.000000	59.919881 
3066.000000	59.918546 
3065.000000	59.926509 
3064.000000	59.941530 
3063.000000	59.960365 
3062.000000	59.979319 
3061.000000	59.994745 
3060.000000	60.003829 
3059.000000	60.004496 
3058.000000	59.995865 
3057.000000	59.978389 
3056.000000	59.953665 
3055.000000	59.924125 
3054.000000	59.892463 
3053.000000	59.861469 
3052.000000	59.833240 
3051.000000	59.809494 
3050.000000	59.790825 
3049.000000	59.777045 
3048.000000	59.766983 
3047.000000	59.759140 
3046.000000	59.751868 
3045.000000	59.743523 
3044.000000	59.733152 
3043.000000	59.720611 
3042.000000	59.706783 
3041.000000	59.693169 
3040.000000	59.681773 
3039.000000	59.674715 
3038.000000	59.673714 
3037.000000	59.679675 
3036.000000	59.692382 
3035.000000	59.710645 
3034.000000	59.732222 
3033.000000	59.754562 
3032.000000	59.775352 
3031.000000	59.792971 
3030.000000	59.806656 
3029.000000	59.816670 
3028.000000	59.823942 
3027.000000	59.829735 
3026.000000	59.835290 
3025.000000	59.841060 
3024.000000	59.846925 
3023.000000	59.851741 
3022.000000	59.854245 
3021.000000	59.852790 
3020.000000	59.846067 
3019.000000	59.833097 
3018.000000	59.814000 
3017.000000	59.789681 
3016.000000	59.761786 
3015.000000	59.732460 
3014.000000	59.704041 
3013.000000	59.678745 
3012.000000	59.658169 
3011.000000	59.643244 
3010.000000	59.633994 
3009.000000	59.629559 
3008.000000	59.628510 
3007.000000	59.628844 
3006.000000	59.628796 
3005.000000	59.626889 
3004.000000	59.622573 
3003.000000	59.615826 
3002.000000	59.607362 
3001.000000	59.598231 
3000.000000	59.589433 
2999.000000	59.581518 
2998.000000	59.574508 
2997.000000	59.568119 
2996.000000	59.561944 
2995.000000	59.555530 
2994.000000	59.548592 
2993.000000	59.541320 
2992.000000	59.534144 
2991.000000	59.527540 
2990.000000	59.521937 
2989.000000	59.517431 
2988.000000	59.513902 
2987.000000	59.510731 
2986.000000	59.507107 
2985.000000	59.502196 
2984.000000	59.495306 
2983.000000	59.486031 
2982.000000	59.474134 
2981.000000	59.459638 
2980.000000	59.442806 
2979.000000	59.424138 
2978.000000	59.404492 
2977.000000	59.384822 
2976.000000	59.366297 
2975.000000	59.349942 
2974.000000	59.336590 
2973.000000	59.326338 
2972.000000	59.318614 
2971.000000	59.312438 
2970.000000	59.306383 
2969.000000	59.299325 
2968.000000	59.290695 
2967.000000	59.280490 
2966.000000	59.269690 
2965.000000	59.259700 
2964.000000	59.252095 
2963.000000	59.247779 
2962.000000	59.246611 
2961.000000	59.247303 
2960.000000	59.247565 
2959.000000	59.244608 
2958.000000	59.236049 
2957.000000	59.220409 
2956.000000	59.197854 
2955.000000	59.169936 
2954.000000	59.139561 
2953.000000	59.110283 
2952.000000	59.085464 
2951.000000	59.067821 
2950.000000	59.058880 
2949.000000	59.058833 
2948.000000	59.066557 
2947.000000	59.079790 
2946.000000	59.095668 
2945.000000	59.111022 
2944.000000	59.123396 
2943.000000	59.130740 
2942.000000	59.132409 
2941.000000	59.128618 
2940.000000	59.120869 
2939.000000	59.111046 
2938.000000	59.101510 
2937.000000	59.094429 
2936.000000	59.091162 
2935.000000	59.092164 
2934.000000	59.096693 
2933.000000	59.103441 
2932.000000	59.110331 
2931.000000	59.115195 
2930.000000	59.116268 
2929.000000	59.112572 
2928.000000	59.103798 
2927.000000	59.090495 
2926.000000	59.073710 
2925.000000	59.054803 
2924.000000	59.035134 
2923.000000	59.015631 
2922.000000	58.997011 
2921.000000	58.979511 
2920.000000	58.963036 
2919.000000	58.947110 
2918.000000	58.931279 
2917.000000	58.915233 
2916.000000	58.898806 
2915.000000	58.882427 
2914.000000	58.866548 
2913.000000	58.852076 
2912.000000	58.839964 
2911.000000	58.831334 
2910.000000	58.826804 
2909.000000	58.826851 
2908.000000	58.831453 
2907.000000	58.840274 
2906.000000	58.852481 
2905.000000	58.867001 
2904.000000	58.882570 
2903.000000	58.897972 
2902.000000	58.912158 
2901.000000	58.924293 
2900.000000	58.933997 
2899.000000	58.941030 
2898.000000	58.945322 
2897.000000	58.946967 
2896.000000	58.945775 
2895.000000	58.941698 
2894.000000	58.934688 
2893.000000	58.924770 
2892.000000	58.911919 
2891.000000	58.896684 
2890.000000	58.879685 
2889.000000	58.861970 
2888.000000	58.844637 
2887.000000	58.828568 
2886.000000	58.814191 
2885.000000	58.801412 
2884.000000	58.789706 
2883.000000	58.778142 
2882.000000	58.765840 
2881.000000	58.752274 
2880.000000	58.737492 
2879.000000	58.722257 
2878.000000	58.707737 
2877.000000	58.695316 
2876.000000	58.686065 
2875.000000	58.680701 
2874.000000	58.679294 
2873.000000	58.681511 
2872.000000	58.686637 
2871.000000	58.693814 
2870.000000	58.702230 
2869.000000	58.710885 
2868.000000	58.718752 
2867.000000	58.724308 
2866.000000	58.725738 
2865.000000	58.721041 
2864.000000	58.708143 
2863.000000	58.685779 
2862.000000	58.654022 
2861.000000	58.614611 
2860.000000	58.570981 
2859.000000	58.527898 
2858.000000	58.490419 
2857.000000	58.463168 
2856.000000	58.449125 
2855.000000	58.449268 
2854.000000	58.462214 
2853.000000	58.484935 
2852.000000	58.513212 
2851.000000	58.542680 
2850.000000	58.569455 
2849.000000	58.591032 
2848.000000	58.606410 
2847.000000	58.616185 
2846.000000	58.622169 
2845.000000	58.626770 
2844.000000	58.632159 
2843.000000	58.639860 
2842.000000	58.650112 
2841.000000	58.662271 
2840.000000	58.674407 
2839.000000	58.684396 
2838.000000	58.690142 
2837.000000	58.690214 
2836.000000	58.684229 
2835.000000	58.672881 
2834.000000	58.657693 
2833.000000	58.640766 
2832.000000	58.624172 
2831.000000	58.609676 
2830.000000	58.598470 
2829.000000	58.591103 
2828.000000	58.587622 
2827.000000	58.587789 
2826.000000	58.591198 
2825.000000	58.597540 
2824.000000	58.606195 
2823.000000	58.616232 
2822.000000	58.626103 
2821.000000	58.633732 
2820.000000	58.636736 
2819.000000	58.632946 
2818.000000	58.620762 
2817.000000	58.599662 
2816.000000	58.570647 
2815.000000	58.535957 
2814.000000	58.498907 
2813.000000	58.463025 
2812.000000	58.431339 
2811.000000	58.405923 
2810.000000	58.387303 
2809.000000	58.374738 
2808.000000	58.366680 
2807.000000	58.361411 
2806.000000	58.357357 
2805.000000	58.353590 
2804.000000	58.349847 
2803.000000	58.346486 
2802.000000	58.343744 
2801.000000	58.341979 
2800.000000	58.341193 
2799.000000	58.341145 
2798.000000	58.341526 
2797.000000	58.341884 
2796.000000	58.341765 
2795.000000	58.340835 
2794.000000	58.338928 
2793.000000	58.336019 
2792.000000	58.332085 
2791.000000	58.327150 
2790.000000	58.321118 
2789.000000	58.313918 
2788.000000	58.305239 
2787.000000	58.294892 
2786.000000	58.282995 
2785.000000	58.269929 
2784.000000	58.256292 
2783.000000	58.243107 
2782.000000	58.231210 
2781.000000	58.221006 
2780.000000	58.212327 
2779.000000	58.204507 
2778.000000	58.196568 
2777.000000	58.187317 
2776.000000	58.175826 
2775.000000	58.161783 
2774.000000	58.145642 
2773.000000	58.128428 
2772.000000	58.111786 
2771.000000	58.097243 
2770.000000	58.086109 
2769.000000	58.079075 
2768.000000	58.076071 
2767.000000	58.076524 
2766.000000	58.079576 
2765.000000	58.084416 
2764.000000	58.090400 
2763.000000	58.097004 
2762.000000	58.103871 
2761.000000	58.110737 
2760.000000	58.116936 
2759.000000	58.121871 
2758.000000	58.124852 
2757.000000	58.125567 
2756.000000	58.124041 
2755.000000	58.120894 
2754.000000	58.117103 
2753.000000	58.113837 
2752.000000	58.112001 
2751.000000	58.112025 
2750.000000	58.113718 
2749.000000	58.116436 
2748.000000	58.119153 
2747.000000	58.120870 
2746.000000	58.120989 
2745.000000	58.119249 
2744.000000	58.115959 
2743.000000	58.111238 
2742.000000	58.105134 
2741.000000	58.097076 
2740.000000	58.085966 
2739.000000	58.070492 
2738.000000	58.049607 
2737.000000	58.023047 
2736.000000	57.991743 
2735.000000	57.957792 
2734.000000	57.924079 
2733.000000	57.893729 
2732.000000	57.869172 
2731.000000	57.851624 
2730.000000	57.840776 
2729.000000	57.834720 
2728.000000	57.830691 
2727.000000	57.825636 
2726.000000	57.817339 
2725.000000	57.804799 
2724.000000	57.788681 
2723.000000	57.770919 
2722.000000	57.754373 
2721.000000	57.741522 
2720.000000	57.734107 
2719.000000	57.732391 
2718.000000	57.735204 
2717.000000	57.740139 
2716.000000	57.744193 
2715.000000	57.744550 
2714.000000	57.739281 
2713.000000	57.727861 
2712.000000	57.710933 
2711.000000	57.690358 
2710.000000	57.668495 
2709.000000	57.647776 
2708.000000	57.630038 
2707.000000	57.616543 
2706.000000	57.607674 
2705.000000	57.603621 
2704.000000	57.604336 
2703.000000	57.609868 
2702.000000	57.620549 
2701.000000	57.636666 
2700.000000	57.658123 
2699.000000	57.684111 
2698.000000	57.712841 
2697.000000	57.741618 
2696.000000	57.767081 
2695.000000	57.785725 
2694.000000	57.794761 
2693.000000	57.792639 
2692.000000	57.779574 
2691.000000	57.757520 
2690.000000	57.729887 
2689.000000	57.700514 
2688.000000	57.673048 
2687.000000	57.650184 
2686.000000	57.633137 
2685.000000	57.621860 
2684.000000	57.615232 
2683.000000	57.611560 
2682.000000	57.609248 
2681.000000	57.607078 
2680.000000	57.604742 
2679.000000	57.602262 
2678.000000	57.600235 
2677.000000	57.599067 
2676.000000	57.598996 
2675.000000	57.599830 
2674.000000	57.600951 
2673.000000	57.601404 
2672.000000	57.600045 
2671.000000	57.595968 
2670.000000	57.588315 
2669.000000	57.576894 
2668.000000	57.561874 
2667.000000	57.543778 
2666.000000	57.523584 
2665.000000	57.502603 
2664.000000	57.482314 
2663.000000	57.464075 
2662.000000	57.449078 
2661.000000	57.437968 
2660.000000	57.430720 
2659.000000	57.426714 
2658.000000	57.424592 
2657.000000	57.422614 
2656.000000	57.419013 
2655.000000	57.412290 
2654.000000	57.401537 
2653.000000	57.386660 
2652.000000	57.368373 
2651.000000	57.348155 
2650.000000	57.327961 
2649.000000	57.309865 
2648.000000	57.295703 
2647.000000	57.286524 
2646.000000	57.282543 
2645.000000	57.282948 
2644.000000	57.286143 
2643.000000	57.290053 
2642.000000	57.292509 
2641.000000	57.291865 
2640.000000	57.287216 
2639.000000	57.278680 
2638.000000	57.267332 
2637.000000	57.255053 
2636.000000	57.243895 
2635.000000	57.235598 
2634.000000	57.231163 
2633.000000	57.230615 
2632.000000	57.232952 
2631.000000	57.236433 
2630.000000	57.239055 
2629.000000	57.239031 
2628.000000	57.235169 
2627.000000	57.227087 
2626.000000	57.215261 
2625.000000	57.200670 
2624.000000	57.184696 
2623.000000	57.168555 
2622.000000	57.153058 
2621.000000	57.138609 
2620.000000	57.125258 
2619.000000	57.112812 
2618.000000	57.100939 
2617.000000	57.089471 
2616.000000	57.078242 
2615.000000	57.067108 
2614.000000	57.055902 
2613.000000	57.044267 
2612.000000	57.031869 
2611.000000	57.018327 
2610.000000	57.003498 
2609.000000	56.987380 
2608.000000	56.970238 
2607.000000	56.952524 
2606.000000	56.934714 
2605.000000	56.917428 
2604.000000	56.901264 
2603.000000	56.886935 
2602.000000	56.875252 
2601.000000	56.867218 
2600.000000	56.863880 
2599.000000	56.866145 
2598.000000	56.874585 
2597.000000	56.888747 
2596.000000	56.907296 
2595.000000	56.927609 
2594.000000	56.946277 
2593.000000	56.959676 
2592.000000	56.964612 
2591.000000	56.959199 
2590.000000	56.943297 
2589.000000	56.918525 
2588.000000	56.887888 
2587.000000	56.855344 
2586.000000	56.824803 
2585.000000	56.799674 
2584.000000	56.782174 
2583.000000	56.773161 
2582.000000	56.772327 
2581.000000	56.778097 
2580.000000	56.788277 
2579.000000	56.800270 
2578.000000	56.811690 
2577.000000	56.820487 
2576.000000	56.825089 
2575.000000	56.824684 
2574.000000	56.818985 
2573.000000	56.808447 
2572.000000	56.793785 
2571.000000	56.776189 
2570.000000	56.756615 
2569.000000	56.736207 
2568.000000	56.715679 
2567.000000	56.695652 
2566.000000	56.676483 
2565.000000	56.658601 
2564.000000	56.642460 
2563.000000	56.628513 
2562.000000	56.617379 
2561.000000	56.609416 
2560.000000	56.604886 
2559.000000	56.603574 
2558.000000	56.605124 
2557.000000	56.608939 
2556.000000	56.614494 
2555.000000	56.621313 
2554.000000	56.628990 
2553.000000	56.637001 
2552.000000	56.644797 
2551.000000	56.651663 
2550.000000	56.656742 
2549.000000	56.659007 
2548.000000	56.657600 
2547.000000	56.651711 
2546.000000	56.641006 
2545.000000	56.625437 
2544.000000	56.605386 
2543.000000	56.581640 
2542.000000	56.555056 
2541.000000	56.526589 
2540.000000	56.497287 
2539.000000	56.468319 
2538.000000	56.441164 
2537.000000	56.417346 
2536.000000	56.398344 
2535.000000	56.385612 
2534.000000	56.380081 
2533.000000	56.381964 
2532.000000	56.390213 
2531.000000	56.403207 
2530.000000	56.418704 
2529.000000	56.434202 
2528.000000	56.447362 
2527.000000	56.456494 
2526.000000	56.460785 
2525.000000	56.460142 
2524.000000	56.455278 
2523.000000	56.447219 
2522.000000	56.436967 
2521.000000	56.425571 
2520.000000	56.413722 
2519.000000	56.402063 
2518.000000	56.390929 
2517.000000	56.380701 
2516.000000	56.371569 
2515.000000	56.363630 
2514.000000	56.356668 
2513.000000	56.350183 
2512.000000	56.343197 
2511.000000	56.334567 
2510.000000	56.322979 
2509.000000	56.307530 
2508.000000	56.287455 
2507.000000	56.262564 
2506.000000	56.233096 
2505.000000	56.199860 
2504.000000	56.164169 
2503.000000	56.127691 
2502.000000	56.092643 
2501.000000	56.061410 
2500.000000	56.036710 
2499.000000	56.020998 
2498.000000	56.016492 
2497.000000	56.024408 
2496.000000	56.044650 
2495.000000	56.075572 
2494.000000	56.113815 
2493.000000	56.154584 
2492.000000	56.192398 
2491.000000	56.221914 
2490.000000	56.238579 
2489.000000	56.239485 
2488.000000	56.224012 
2487.000000	56.193661 
2486.000000	56.151819 
2485.000000	56.103157 
2484.000000	56.052947 
2483.000000	56.006026 
2482.000000	55.966377 
2481.000000	55.936360 
2480.000000	55.916619 
2479.000000	55.906248 
2478.000000	55.903363 
2477.000000	55.905723 
2476.000000	55.911183 
2475.000000	55.918502 
2474.000000	55.927157 
2473.000000	55.937552 
2472.000000	55.950284 
2471.000000	55.966091 
2470.000000	55.984997 
2469.000000	56.006145 
2468.000000	56.027507 
2467.000000	56.046271 
2466.000000	56.058979 
2465.000000	56.062269 
2464.000000	56.053161 
2463.000000	56.029796 
2462.000000	55.991554 
2461.000000	55.939888 
2460.000000	55.878019 
2459.000000	55.810236 
2458.000000	55.741977 
2457.000000	55.679011 
2456.000000	55.627012 
2455.000000	55.590486 
2454.000000	55.572509 
2453.000000	55.573701 
2452.000000	55.592799 
2451.000000	55.626368 
2450.000000	55.669975 
2449.000000	55.718159 
2448.000000	55.765914 
2447.000000	55.808758 
2446.000000	55.843853 
2445.000000	55.869746 
2444.000000	55.886530 
2443.000000	55.895161 
2442.000000	55.897474 
2441.000000	55.895352 
2440.000000	55.890512 
2439.000000	55.883574 
2438.000000	55.874085 
2437.000000	55.860233 
2436.000000	55.839681 
2435.000000	55.809879 
2434.000000	55.769133 
2433.000000	55.717206 
2432.000000	55.656075 
2431.000000	55.589962 
2430.000000	55.524873 
2429.000000	55.467724 
2428.000000	55.424928 
2427.000000	55.401039 
2426.000000	55.397295 
2425.000000	55.411553 
2424.000000	55.438542 
2423.000000	55.470943 
2422.000000	55.500936 
2421.000000	55.521726 
2420.000000	55.528688 
2419.000000	55.520296 
2418.000000	55.497789 
2417.000000	55.464506 
2416.000000	55.424904 
2415.000000	55.384159 
2414.000000	55.347180 
2413.000000	55.318188 
2412.000000	55.300021 
2411.000000	55.294418 
2410.000000	55.301356 
2409.000000	55.319476 
2408.000000	55.345702 
2407.000000	55.375599 
2406.000000	55.404114 
2405.000000	55.425858 
2404.000000	55.436825 
2403.000000	55.434679 
2402.000000	55.419754 
2401.000000	55.394959 
2400.000000	55.365395 
2399.000000	55.336761 
2398.000000	55.314397 
2397.000000	55.302143 
2396.000000	55.301523 
2395.000000	55.311489 
2394.000000	55.328893 
2393.000000	55.349493 
2392.000000	55.368876 
2391.000000	55.383396 
2390.000000	55.390572 
2389.000000	55.389595 
2388.000000	55.381155 
2387.000000	55.366921 
2386.000000	55.349135 
2385.000000	55.329871 
2384.000000	55.310869 
2383.000000	55.292940 
2382.000000	55.276656 
2381.000000	55.261969 
2380.000000	55.248665 
2379.000000	55.236315 
2378.000000	55.224752 
2377.000000	55.214095 
2376.000000	55.204868 
2375.000000	55.197811 
2374.000000	55.193662 
2373.000000	55.192923 
2372.000000	55.195569 
2371.000000	55.201125 
2370.000000	55.208468 
2369.000000	55.216169 
2368.000000	55.222797 
2367.000000	55.227303 
2366.000000	55.229258 
2365.000000	55.228757 
2364.000000	55.226302 
2363.000000	55.222392 
2362.000000	55.217432 
2361.000000	55.211520 
2360.000000	55.204582 
2359.000000	55.196332 
2358.000000	55.186510 
2357.000000	55.175352 
2356.000000	55.163383 
2355.000000	55.151510 
2354.000000	55.140542 
2353.000000	55.130934 
2352.000000	55.122232 
2351.000000	55.113172 
2350.000000	55.101895 
2349.000000	55.086684 
2348.000000	55.066514 
2347.000000	55.041456 
2346.000000	55.013322 
2345.000000	54.985308 
2344.000000	54.961681 
2343.000000	54.946422 
2342.000000	54.942584 
2341.000000	54.951119 
2340.000000	54.970693 
2339.000000	54.997801 
2338.000000	55.027341 
2337.000000	55.053687 
2336.000000	55.071854 
2335.000000	55.078434 
2334.000000	55.072236 
2333.000000	55.054187 
2332.000000	55.027079 
2331.000000	54.994678 
2330.000000	54.961180 
2329.000000	54.929876 
2328.000000	54.903268 
2327.000000	54.881834 
2326.000000	54.865050 
2325.000000	54.850816 
2324.000000	54.836606 
2323.000000	54.819869 
2322.000000	54.798579 
2321.000000	54.771995 
2320.000000	54.740524 
2319.000000	54.706263 
2318.000000	54.672002 
2317.000000	54.641342 
2316.000000	54.617500 
2315.000000	54.603219 
2314.000000	54.599785 
2313.000000	54.606962 
2312.000000	54.623174 
2311.000000	54.645729 
2310.000000	54.671406 
2309.000000	54.696846 
2308.000000	54.719185 
2307.000000	54.736161 
2306.000000	54.746317 
2305.000000	54.748630 
2304.000000	54.742527 
2303.000000	54.727959 
2302.000000	54.705214 
2301.000000	54.675269 
2300.000000	54.639697 
2299.000000	54.600811 
2298.000000	54.561424 
2297.000000	54.524946 
2296.000000	54.494476 
2295.000000	54.472446 
2294.000000	54.460144 
2293.000000	54.457426 
2292.000000	54.462790 
2291.000000	54.473662 
2290.000000	54.486918 
2289.000000	54.499483 
2288.000000	54.508924 
2287.000000	54.513764 
2286.000000	54.513549 
2285.000000	54.508948 
2284.000000	54.501104 
2283.000000	54.491329 
2282.000000	54.480791 
2281.000000	54.470205 
2280.000000	54.459953 
2279.000000	54.449939 
2278.000000	54.439783 
2277.000000	54.429030 
2276.000000	54.417252 
2275.000000	54.404091 
2274.000000	54.389429 
2273.000000	54.373359 
2272.000000	54.356479 
2271.000000	54.339671 
2270.000000	54.324221 
2269.000000	54.311513 
2268.000000	54.302763 
2267.000000	54.298472 
2266.000000	54.298567 
2265.000000	54.302048 
2264.000000	54.307055 
2263.000000	54.311275 
2262.000000	54.312515 
2261.000000	54.309272 
2260.000000	54.301023 
2259.000000	54.288482 
2258.000000	54.273438 
2257.000000	54.258179 
2256.000000	54.244923 
2255.000000	54.235363 
2254.000000	54.230046 
2253.000000	54.228425 
2252.000000	54.229021 
2251.000000	54.230070 
2250.000000	54.229712 
2249.000000	54.226541 
2248.000000	54.219794 
2247.000000	54.209494 
2246.000000	54.196286 
2245.000000	54.181194 
2244.000000	54.165482 
2243.000000	54.150342 
2242.000000	54.136848 
2241.000000	54.125857 
2240.000000	54.117727 
2239.000000	54.112696 
2238.000000	54.110479 
2237.000000	54.110574 
2236.000000	54.112172 
2235.000000	54.114222 
2234.000000	54.115509 
2233.000000	54.115080 
2232.000000	54.112172 
2231.000000	54.106354 
2230.000000	54.097533 
2229.000000	54.086089 
2228.000000	54.072594 
2227.000000	54.057788 
2226.000000	54.042434 
2225.000000	54.027104 
2224.000000	54.012465 
2223.000000	53.998994 
2222.000000	53.987073 
2221.000000	53.976964 
2220.000000	53.968667 
2219.000000	53.961968 
2218.000000	53.956508 
2217.000000	53.951668 
2216.000000	53.946614 
2215.000000	53.940200 
2214.000000	53.931546 
2213.000000	53.919863 
2212.000000	53.904819 
2211.000000	53.886485 
2210.000000	53.865289 
2209.000000	53.842115 
2208.000000	53.817987 
2207.000000	53.794050 
2206.000000	53.771448 
2205.000000	53.751182 
2204.000000	53.734040 
2203.000000	53.720617 
2202.000000	53.711247 
2201.000000	53.705978 
2200.000000	53.704667 
2199.000000	53.706979 
2198.000000	53.712296 
2197.000000	53.719878 
2196.000000	53.728580 
2195.000000	53.736782 
2194.000000	53.742575 
2193.000000	53.743958 
2192.000000	53.738999 
2191.000000	53.726315 
2190.000000	53.705263 
2189.000000	53.676557 
2188.000000	53.641867 
2187.000000	53.603792 
2186.000000	53.565645 
2185.000000	53.530621 
2184.000000	53.501629 
2183.000000	53.480625 
2182.000000	53.468489 
2181.000000	53.464770 
2180.000000	53.468179 
2179.000000	53.476786 
2178.000000	53.488373 
2177.000000	53.500795 
2176.000000	53.512191 
2175.000000	53.520941 
2174.000000	53.525924 
2173.000000	53.526568 
2172.000000	53.522849 
2171.000000	53.515458 
2170.000000	53.505659 
2169.000000	53.495168 
2168.000000	53.485894 
2167.000000	53.479433 
2166.000000	53.477001 
2165.000000	53.478884 
2164.000000	53.484821 
2163.000000	53.493523 
2162.000000	53.503370 
2161.000000	53.512001 
2160.000000	53.517174 
2159.000000	53.516793 
2158.000000	53.509330 
2157.000000	53.493928 
2156.000000	53.470683 
2155.000000	53.440737 
2154.000000	53.406310 
2153.000000	53.370451 
2152.000000	53.336548 
2151.000000	53.307890 
2150.000000	53.287196 
2149.000000	53.275847 
2148.000000	53.273677 
2147.000000	53.278875 
2146.000000	53.288292 
2145.000000	53.298544 
2144.000000	53.306698 
2143.000000	53.310823 
2142.000000	53.310179 
2141.000000	53.305363 
2140.000000	53.297615 
2139.000000	53.288507 
2138.000000	53.279113 
2137.000000	53.270006 
2136.000000	53.260898 
2135.000000	53.251242 
2134.000000	53.240275 
2133.000000	53.227615 
2132.000000	53.213143 
2131.000000	53.197407 
2130.000000	53.181219 
2129.000000	53.165674 
2128.000000	53.151822 
2127.000000	53.140354 
2126.000000	53.131747 
2125.000000	53.126001 
2124.000000	53.122949 
2123.000000	53.122067 
2122.000000	53.122425 
2121.000000	53.122663 
2120.000000	53.120994 
2119.000000	53.115582 
2118.000000	53.104877 
2117.000000	53.088188 
2116.000000	53.065967 
2115.000000	53.039836 
2114.000000	53.012561 
2113.000000	52.987384 
2112.000000	52.967405 
2111.000000	52.954769 
2110.000000	52.950334 
2109.000000	52.953362 
2108.000000	52.961850 
2107.000000	52.972984 
2106.000000	52.983665 
2105.000000	52.991366 
2104.000000	52.994370 
2103.000000	52.992272 
2102.000000	52.986049 
2101.000000	52.977347 
2100.000000	52.967882 
2099.000000	52.958846 
2098.000000	52.950596 
2097.000000	52.942299 
2096.000000	52.932405 
2095.000000	52.918791 
2094.000000	52.899456 
2093.000000	52.873063 
2092.000000	52.839398 
2091.000000	52.799487 
2090.000000	52.755475 
2089.000000	52.710103 
2088.000000	52.666759 
2087.000000	52.628707 
2086.000000	52.599048 
2085.000000	52.580165 
2084.000000	52.573633 
2083.000000	52.580094 
2082.000000	52.598595 
2081.000000	52.626800 
2080.000000	52.660489 
2079.000000	52.693700 
2078.000000	52.719569 
2077.000000	52.731108 
2076.000000	52.722978 
2075.000000	52.692556 
2074.000000	52.641177 
2073.000000	52.574181 
2072.000000	52.500271 
2071.000000	52.429938 
2070.000000	52.373194 
2069.000000	52.337765 
2068.000000	52.327179 
2067.000000	52.340197 
2066.000000	52.371168 
2065.000000	52.411508 
2064.000000	52.451753 
2063.000000	52.483510 
2062.000000	52.501106 
2061.000000	52.502799 
2060.000000	52.490210 
2059.000000	52.467656 
2058.000000	52.440547 
2057.000000	52.413988 
2056.000000	52.391505 
2055.000000	52.374458 
2054.000000	52.362370 
2053.000000	52.353334 
2052.000000	52.345132 
2051.000000	52.335858 
2050.000000	52.324628 
2049.000000	52.311992 
2048.000000	52.299523 
2047.000000	52.289700 
2046.000000	52.284526 
2045.000000	52.285242 
2044.000000	52.291727 
2043.000000	52.302765 
2042.000000	52.316021 
2041.000000	52.328538 
2040.000000	52.337527 
2039.000000	52.340912 
2038.000000	52.337908 
2037.000000	52.328824 
2036.000000	52.314639 
2035.000000	52.296972 
2034.000000	52.277302 
2033.000000	52.256822 
2032.000000	52.236127 
2031.000000	52.215313 
2030.000000	52.194023 
2029.000000	52.171945 
2028.000000	52.148818 
2027.000000	52.124857 
2026.000000	52.100729 
2025.000000	52.077078 
2024.000000	52.054810 
2023.000000	52.034378 
2022.000000	52.016043 
2021.000000	51.999735 
2020.000000	51.985168 
2019.000000	51.971840 
2018.000000	51.959729 
2017.000000	51.949048 
2016.000000	51.940631 
2015.000000	51.935267 
2014.000000	51.933908 
2013.000000	51.937174 
2012.000000	51.944875 
2011.000000	51.956033 
2010.000000	51.969027 
2009.000000	51.981949 
2008.000000	51.992893 
2007.000000	52.000379 
2006.000000	52.003884 
2005.000000	52.003788 
2004.000000	52.001333 
2003.000000	51.997923 
2002.000000	51.994824 
2001.000000	51.992487 
2000.000000	51.990699 
1999.000000	51.988458 
1998.000000	51.984262 
1997.000000	51.976609 
1996.000000	51.964759 
1995.000000	51.948690 
1994.000000	51.929283 
1993.000000	51.908063 
1992.000000	51.886796 
1991.000000	51.867032 
1990.000000	51.849770 
1989.000000	51.835298 
1988.000000	51.823282 
1987.000000	51.812887 
1986.000000	51.803159 
1985.000000	51.793289 
1984.000000	51.782751 
1983.000000	51.771306 
1982.000000	51.758813 
1981.000000	51.745128 
1980.000000	51.730179 
1979.000000	51.713848 
1978.000000	51.696109 
1977.000000	51.677155 
1976.000000	51.657462 
1975.000000	51.637887 
1974.000000	51.619577 
1973.000000	51.603651 
1972.000000	51.590800 
1971.000000	51.581311 
1970.000000	51.574707 
1969.000000	51.569890 
1968.000000	51.565217 
1967.000000	51.559019 
1966.000000	51.549816 
1965.000000	51.536870 
1964.000000	51.520323 
1963.000000	51.501131 
1962.000000	51.481175 
1961.000000	51.462650 
1960.000000	51.447868 
1959.000000	51.438570 
1958.000000	51.435852 
1957.000000	51.439833 
1956.000000	51.449656 
1955.000000	51.463556 
1954.000000	51.479220 
1953.000000	51.494026 
1952.000000	51.505661 
1951.000000	51.512098 
1950.000000	51.511931 
1949.000000	51.504707 
1948.000000	51.490736 
1947.000000	51.471209 
1946.000000	51.447749 
1945.000000	51.422524 
1944.000000	51.397681 
1943.000000	51.375198 
1942.000000	51.356625 
1941.000000	51.342988 
1940.000000	51.334714 
1939.000000	51.331543 
1938.000000	51.332640 
1937.000000	51.336789 
1936.000000	51.342487 
1935.000000	51.348114 
1934.000000	51.352024 
1933.000000	51.352882 
1932.000000	51.349735 
1931.000000	51.342105 
1930.000000	51.330208 
1929.000000	51.314711 
1928.000000	51.296687 
1927.000000	51.277661 
1926.000000	51.258921 
1925.000000	51.241540 
1924.000000	51.225948 
1923.000000	51.211953 
1922.000000	51.198983 
1921.000000	51.186180 
1920.000000	51.172828 
1919.000000	51.158642 
1918.000000	51.143693 
1917.000000	51.128721 
1916.000000	51.114630 
1915.000000	51.102423 
1914.000000	51.092624 
1913.000000	51.085114 
1912.000000	51.078915 
1911.000000	51.072573 
1910.000000	51.064491 
1909.000000	51.053333 
1908.000000	51.038408 
1907.000000	51.020002 
1906.000000	50.999426 
1905.000000	50.978708 
1904.000000	50.960183 
1903.000000	50.945806 
1902.000000	50.937104 
1901.000000	50.934600 
1900.000000	50.938034 
1899.000000	50.946164 
1898.000000	50.957202 
1897.000000	50.968837 
1896.000000	50.979065 
1895.000000	50.986003 
1894.000000	50.988173 
1893.000000	50.984835 
1892.000000	50.975823 
1891.000000	50.961852 
1890.000000	50.944209 
1889.000000	50.924611 
1888.000000	50.905132 
1887.000000	50.887584 
1886.000000	50.873613 
1885.000000	50.863838 
1884.000000	50.858354 
1883.000000	50.856089 
1882.000000	50.855541 
1881.000000	50.854730 
1880.000000	50.851678 
1879.000000	50.844860 
1878.000000	50.833296 
1877.000000	50.816845 
1876.000000	50.795984 
1875.000000	50.771808 
1874.000000	50.745868 
1873.000000	50.719785 
1872.000000	50.695180 
1871.000000	50.673437 
1870.000000	50.655651 
1869.000000	50.642466 
1868.000000	50.634074 
1867.000000	50.630164 
1866.000000	50.630044 
1865.000000	50.632429 
1864.000000	50.635790 
1863.000000	50.638508 
1862.000000	50.639176 
1861.000000	50.636744 
1860.000000	50.630807 
1859.000000	50.621604 
1858.000000	50.609970 
1857.000000	50.597190 
1856.000000	50.584697 
1855.000000	50.573849 
1854.000000	50.565576 
1853.000000	50.560235 
1852.000000	50.557541 
1851.000000	50.556683 
1850.000000	50.556564 
1849.000000	50.555920 
1848.000000	50.553488 
1847.000000	50.548267 
1846.000000	50.539445 
1845.000000	50.526690 
1844.000000	50.509810 
1843.000000	50.488948 
1842.000000	50.464653 
1841.000000	50.437903 
1840.000000	50.410175 
1839.000000	50.383424 
1838.000000	50.359869 
1837.000000	50.341653 
1836.000000	50.330448 
1835.000000	50.326943 
1834.000000	50.330853 
1833.000000	50.340485 
1832.000000	50.353145 
1831.000000	50.365424 
1830.000000	50.374031 
1829.000000	50.376129 
1828.000000	50.369954 
1827.000000	50.355291 
1826.000000	50.333309 
1825.000000	50.306415 
1824.000000	50.277614 
1823.000000	50.250124 
1822.000000	50.226688 
1821.000000	50.209331 
1820.000000	50.198888 
1819.000000	50.194978 
1818.000000	50.196290 
1817.000000	50.200796 
1816.000000	50.206232 
1815.000000	50.210237 
1814.000000	50.210905 
1813.000000	50.207114 
1812.000000	50.198626 
1811.000000	50.185966 
1810.000000	50.170326 
1809.000000	50.153255 
1808.000000	50.136470 
1807.000000	50.121498 
1806.000000	50.109505 
1805.000000	50.101065 
1804.000000	50.096487 
1803.000000	50.095629 
1802.000000	50.098252 
1801.000000	50.103902 
1800.000000	50.112152 
1799.000000	50.122332 
1798.000000	50.133657 
1797.000000	50.145101 
1796.000000	50.155377 
1795.000000	50.162982 
1794.000000	50.166392 
1793.000000	50.164246 
1792.000000	50.155735 
1791.000000	50.140547 
1790.000000	50.119233 
1789.000000	50.092649 
1788.000000	50.062251 
1787.000000	50.029516 
1786.000000	49.996066 
1785.000000	49.963426 
1784.000000	49.932837 
1783.000000	49.905538 
1782.000000	49.882745 
1781.000000	49.865698 
1780.000000	49.855232 
1779.000000	49.852132 
1778.000000	49.856591 
1777.000000	49.868011 
1776.000000	49.884843 
1775.000000	49.904465 
1774.000000	49.923515 
1773.000000	49.938440 
1772.000000	49.945902 
1771.000000	49.943709 
1770.000000	49.931240 
1769.000000	49.909615 
1768.000000	49.881505 
1767.000000	49.850583 
1766.000000	49.820590 
1765.000000	49.794602 
1764.000000	49.774384 
1763.000000	49.760174 
1762.000000	49.750685 
1761.000000	49.743890 
1760.000000	49.737310 
1759.000000	49.728965 
1758.000000	49.717617 
1757.000000	49.703001 
1756.000000	49.685692 
1755.000000	49.666357 
1754.000000	49.645733 
1753.000000	49.624276 
1752.000000	49.602055 
1751.000000	49.578714 
1750.000000	49.554300 
1749.000000	49.529242 
1748.000000	49.504590 
1747.000000	49.481892 
1746.000000	49.462771 
1745.000000	49.448513 
1744.000000	49.439787 
1743.000000	49.436521 
1742.000000	49.437618 
1741.000000	49.441289 
1740.000000	49.445557 
1739.000000	49.448490 
1738.000000	49.448895 
1737.000000	49.446153 
1736.000000	49.440288 
1735.000000	49.431657 
1734.000000	49.420881 
1733.000000	49.408364 
1732.000000	49.394106 
1731.000000	49.377584 
1730.000000	49.358296 
1729.000000	49.336051 
1728.000000	49.311351 
1727.000000	49.285340 
1726.000000	49.259972 
1725.000000	49.237823 
1724.000000	49.221444 
1723.000000	49.212956 
1722.000000	49.213123 
1721.000000	49.221277 
1720.000000	49.235200 
1719.000000	49.251341 
1718.000000	49.265670 
1717.000000	49.274420 
1716.000000	49.274873 
1715.000000	49.265909 
1714.000000	49.248361 
1713.000000	49.224710 
1712.000000	49.198794 
1711.000000	49.174785 
1710.000000	49.156546 
1709.000000	49.147272 
1708.000000	49.148821 
1707.000000	49.161648 
1706.000000	49.184846 
1705.000000	49.216294 
1704.000000	49.252891 
1703.000000	49.291038 
1702.000000	49.326801 
1701.000000	49.356365 
1700.000000	49.376153 
1699.000000	49.383497 
1698.000000	49.376749 
1697.000000	49.355673 
1696.000000	49.321484 
1695.000000	49.276995 
1694.000000	49.226307 
1693.000000	49.174380 
1692.000000	49.126172 
1691.000000	49.086141 
1690.000000	49.056792 
1689.000000	49.038624 
1688.000000	49.029779 
1687.000000	49.026823 
1686.000000	49.025177 
1685.000000	49.020433 
1684.000000	49.009346 
1683.000000	48.990726 
1682.000000	48.965716 
1681.000000	48.937559 
1680.000000	48.910593 
1679.000000	48.889231 
1678.000000	48.876786 
1677.000000	48.874616 
1676.000000	48.881721 
1675.000000	48.894929 
1674.000000	48.910140 
1673.000000	48.922848 
1672.000000	48.929119 
1671.000000	48.926377 
1670.000000	48.913812 
1669.000000	48.892474 
1668.000000	48.864436 
1667.000000	48.832798 
1666.000000	48.801183 
1665.000000	48.773288 
1664.000000	48.752450 
1663.000000	48.741436 
1662.000000	48.742175 
1661.000000	48.755455 
1660.000000	48.780798 
1659.000000	48.816108 
1658.000000	48.857927 
1657.000000	48.901724 
1656.000000	48.942518 
1655.000000	48.975706 
1654.000000	48.997473 
1653.000000	49.005722 
1652.000000	48.999786 
1651.000000	48.980498 
1650.000000	48.949503 
1649.000000	48.909354 
1648.000000	48.862409 
1647.000000	48.811292 
1646.000000	48.758339 
1645.000000	48.706030 
1644.000000	48.656511 
1643.000000	48.612093 
1642.000000	48.574399 
1641.000000	48.544287 
1640.000000	48.521661 
1639.000000	48.505282 
1638.000000	48.493003 
1637.000000	48.481965 
1636.000000	48.469614 
1635.000000	48.454093 
1634.000000	48.434853 
1633.000000	48.412632 
1632.000000	48.389196 
1631.000000	48.366975 
1630.000000	48.348045 
1629.000000	48.333811 
1628.000000	48.324656 
1627.000000	48.320031 
1626.000000	48.318576 
1625.000000	48.318505 
1624.000000	48.318147 
1623.000000	48.316073 
1622.000000	48.311328 
1621.000000	48.303318 
1620.000000	48.291778 
1619.000000	48.276710 
1618.000000	48.258376 
1617.000000	48.237323 
1616.000000	48.214149 
1615.000000	48.189616 
1614.000000	48.165130 
1613.000000	48.141717 
1612.000000	48.119997 
1611.000000	48.099946 
1610.000000	48.081183 
1609.000000	48.062515 
1608.000000	48.042464 
1607.000000	48.019647 
1606.000000	47.993302 
1605.000000	47.963428 
1604.000000	47.930932 
1603.000000	47.897458 
1602.000000	47.865152 
1601.000000	47.836160 
1600.000000	47.812366 
1599.000000	47.794795 
1598.000000	47.783780 
1597.000000	47.778534 
1596.000000	47.777843 
1595.000000	47.780036 
1594.000000	47.783660 
1593.000000	47.787213 
1592.000000	47.790050 
1591.000000	47.792077 
1590.000000	47.794055 
1589.000000	47.797012 
1588.000000	47.802448 
1587.000000	47.811484 
1586.000000	47.825026 
1585.000000	47.843217 
1584.000000	47.865390 
1583.000000	47.890090 
1582.000000	47.915005 
1581.000000	47.937607 
1580.000000	47.955274 
1579.000000	47.965764 
1578.000000	47.967433 
1577.000000	47.959518 
1576.000000	47.942233 
1575.000000	47.916722 
1574.000000	47.884416 
1573.000000	47.847437 
1572.000000	47.808361 
1571.000000	47.770500 
1570.000000	47.737669 
1569.000000	47.714114 
1568.000000	47.703766 
1567.000000	47.709631 
1566.000000	47.733259 
1565.000000	47.773528 
1564.000000	47.826504 
1563.000000	47.885560 
1562.000000	47.942590 
1561.000000	47.989058 
1560.000000	48.017525 
1559.000000	48.023200 
1558.000000	48.004674 
1557.000000	47.964191 
1556.000000	47.906851 
1555.000000	47.839164 
1554.000000	47.767806 
1553.000000	47.698497 
1552.000000	47.635531 
1551.000000	47.582364 
1550.000000	47.541713 
1549.000000	47.515988 
1548.000000	47.507047 
1547.000000	47.515773 
1546.000000	47.541117 
1545.000000	47.579360 
1544.000000	47.624206 
1543.000000	47.667336 
1542.000000	47.699952 
1541.000000	47.714614 
1540.000000	47.706651 
1539.000000	47.674989 
1538.000000	47.622585 
1537.000000	47.555613 
1536.000000	47.482514 
1535.000000	47.411942 
1534.000000	47.351598 
1533.000000	47.306728 
1532.000000	47.279977 
1531.000000	47.271633 
1530.000000	47.279977 
1529.000000	47.301864 
1528.000000	47.333455 
1527.000000	47.370767 
1526.000000	47.409605 
1525.000000	47.445702 
1524.000000	47.475242 
1523.000000	47.494959 
1522.000000	47.502946 
1521.000000	47.498607 
1520.000000	47.482728 
1519.000000	47.457408 
1518.000000	47.425913 
1517.000000	47.392106 
1516.000000	47.360348 
1515.000000	47.334384 
1514.000000	47.317218 
1513.000000	47.309970 
1512.000000	47.312331 
1511.000000	47.322010 
1510.000000	47.335410 
1509.000000	47.348260 
1508.000000	47.356653 
1507.000000	47.357630 
1506.000000	47.349858 
1505.000000	47.333359 
1504.000000	47.308969 
1503.000000	47.278118 
1502.000000	47.242403 
1501.000000	47.202897 
1500.000000	47.160148 
1499.000000	47.114467 
1498.000000	47.066521 
1497.000000	47.017836 
1496.000000	46.970891 
1495.000000	46.928930 
1494.000000	46.895241 
1493.000000	46.872067 
1492.000000	46.859931 
1491.000000	46.856999 
1490.000000	46.859645 
1489.000000	46.863293 
1488.000000	46.863651 
1487.000000	46.857833 
1486.000000	46.844959 
1485.000000	46.826124 
1484.000000	46.804118 
1483.000000	46.782112 
1482.000000	46.763443 
1481.000000	46.750617 
1480.000000	46.744918 
1479.000000	46.746373 
1478.000000	46.753382 
1477.000000	46.763396 
1476.000000	46.773099 
1475.000000	46.779155 
1474.000000	46.779012 
1473.000000	46.771454 
1472.000000	46.756958 
1471.000000	46.737742 
1470.000000	46.717143 
1469.000000	46.699070 
1468.000000	46.687221 
1467.000000	46.684336 
1466.000000	46.691775 
1465.000000	46.708846 
1464.000000	46.733546 
1463.000000	46.762299 
1462.000000	46.790695 
1461.000000	46.814036 
1460.000000	46.828031 
1459.000000	46.829533 
1458.000000	46.817064 
1457.000000	46.790862 
1456.000000	46.752977 
1455.000000	46.706771 
1454.000000	46.656703 
1453.000000	46.607255 
1452.000000	46.562576 
1451.000000	46.525382 
1450.000000	46.496820 
1449.000000	46.476364 
1448.000000	46.462059 
1447.000000	46.451234 
1446.000000	46.441340 
1445.000000	46.430253 
1444.000000	46.416878 
1443.000000	46.401143 
1442.000000	46.383905 
1441.000000	46.366214 
1440.000000	46.349167 
1439.000000	46.333694 
1438.000000	46.320152 
1437.000000	46.308565 
1436.000000	46.298241 
1435.000000	46.288180 
1434.000000	46.276926 
1433.000000	46.263170 
1432.000000	46.246075 
1431.000000	46.225118 
1430.000000	46.200966 
1429.000000	46.174907 
1428.000000	46.149182 
1427.000000	46.126270 
1426.000000	46.108508 
1425.000000	46.097588 
1424.000000	46.093845 
1423.000000	46.096110 
1422.000000	46.101999 
1421.000000	46.108388 
1420.000000	46.112132 
1419.000000	46.110653 
1418.000000	46.102476 
1417.000000	46.087551 
1416.000000	46.066761 
1415.000000	46.041584 
1414.000000	46.013498 
1413.000000	45.983624 
1412.000000	45.952916 
1411.000000	45.922231 
1410.000000	45.892715 
1409.000000	45.866155 
1408.000000	45.844960 
1407.000000	45.832014 
1406.000000	45.829749 
1405.000000	45.839691 
1404.000000	45.861339 
1403.000000	45.892286 
1402.000000	45.928049 
1401.000000	45.963120 
1400.000000	45.992183 
1399.000000	46.011090 
1398.000000	46.017885 
1397.000000	46.012735 
1396.000000	45.997738 
1395.000000	45.975852 
1394.000000	45.950293 
1393.000000	45.923566 
1392.000000	45.897078 
1391.000000	45.871114 
1390.000000	45.845222 
1389.000000	45.818567 
1388.000000	45.790505 
1387.000000	45.760798 
1386.000000	45.729899 
1385.000000	45.698690 
1384.000000	45.668363 
1383.000000	45.640158 
1382.000000	45.615220 
1381.000000	45.594191 
1380.000000	45.577502 
1379.000000	45.565104 
1378.000000	45.556592 
1377.000000	45.551037 
1376.000000	45.547151 
1375.000000	45.543289 
1374.000000	45.538043 
1373.000000	45.530414 
1372.000000	45.520234 
1371.000000	45.508050 
1370.000000	45.495200 
1369.000000	45.483469 
1368.000000	45.474505 
1367.000000	45.469260 
1366.000000	45.467925 
1365.000000	45.469784 
1364.000000	45.473384 
1363.000000	45.477080 
1362.000000	45.479464 
1361.000000	45.479512 
1360.000000	45.477366 
1359.000000	45.473814 
1358.000000	45.469760 
1357.000000	45.466065 
1356.000000	45.463228 
1355.000000	45.460939 
1354.000000	45.458364 
1353.000000	45.454144 
1352.000000	45.447158 
1351.000000	45.436358 
1350.000000	45.421099 
1349.000000	45.401000 
1348.000000	45.376324 
1347.000000	45.347738 
1346.000000	45.316314 
1345.000000	45.283436 
1344.000000	45.250654 
1343.000000	45.219516 
1342.000000	45.191407 
1341.000000	45.167279 
1340.000000	45.147442 
1339.000000	45.131683 
1338.000000	45.119404 
1337.000000	45.109844 
1336.000000	45.102405 
1335.000000	45.097017 
1334.000000	45.094156 
1333.000000	45.094609 
1332.000000	45.099163 
1331.000000	45.107913 
1330.000000	45.120239 
1329.000000	45.134329 
1328.000000	45.147871 
1327.000000	45.158576 
1326.000000	45.164656 
1325.000000	45.165729 
1324.000000	45.162343 
1323.000000	45.155811 
1322.000000	45.147418 
1321.000000	45.137858 
1320.000000	45.126891 
1319.000000	45.113348 
1318.000000	45.095396 
1317.000000	45.071697 
1316.000000	45.041823 
1315.000000	45.006966 
1314.000000	44.969987 
1313.000000	44.934892 
1312.000000	44.905900 
1311.000000	44.886517 
1310.000000	44.878530 
1309.000000	44.881367 
1308.000000	44.892382 
1307.000000	44.907474 
1306.000000	44.922089 
1305.000000	44.932341 
1304.000000	44.935989 
1303.000000	44.932794 
1302.000000	44.924378 
1301.000000	44.913411 
1300.000000	44.902896 
1299.000000	44.895124 
1298.000000	44.891285 
1297.000000	44.890713 
1296.000000	44.891715 
1295.000000	44.891595 
1294.000000	44.887876 
1293.000000	44.878435 
1292.000000	44.862365 
1291.000000	44.839787 
1290.000000	44.811701 
1289.000000	44.779682 
1288.000000	44.745492 
1287.000000	44.710564 
1286.000000	44.676089 
1285.000000	44.642829 
1284.000000	44.611024 
1283.000000	44.580841 
1282.000000	44.552302 
1281.000000	44.525575 
1280.000000	44.500708 
1279.000000	44.477963 
1278.000000	44.457554 
1277.000000	44.439768 
1276.000000	44.424819 
1275.000000	44.412827 
1274.000000	44.404101 
1273.000000	44.398999 
1272.000000	44.397974 
1271.000000	44.401264 
1270.000000	44.408559 
1269.000000	44.418954 
1268.000000	44.430804 
1267.000000	44.441819 
1266.000000	44.449687 
1265.000000	44.452190 
1264.000000	44.448041 
1263.000000	44.436979 
1262.000000	44.419932 
1261.000000	44.398689 
1260.000000	44.375562 
1259.000000	44.352865 
1258.000000	44.332647 
1257.000000	44.316291 
1256.000000	44.304728 
1255.000000	44.298434 
1254.000000	44.297504 
1253.000000	44.301605 
1252.000000	44.310140 
1251.000000	44.321990 
1250.000000	44.335389 
1249.000000	44.348049 
1248.000000	44.357085 
1247.000000	44.359779 
1246.000000	44.354271 
1245.000000	44.339847 
1244.000000	44.317698 
1243.000000	44.290280 
1242.000000	44.261169 
1241.000000	44.234275 
1240.000000	44.212889 
1239.000000	44.198894 
1238.000000	44.192624 
1237.000000	44.192600 
1236.000000	44.196200 
1235.000000	44.200134 
1234.000000	44.201421 
1233.000000	44.197893 
1232.000000	44.188642 
1231.000000	44.174337 
1230.000000	44.156765 
1229.000000	44.138503 
1228.000000	44.121932 
1227.000000	44.108915 
1226.000000	44.100117 
1225.000000	44.094848 
1224.000000	44.091176 
1223.000000	44.086337 
1222.000000	44.077587 
1221.000000	44.062614 
1220.000000	44.040441 
1219.000000	44.011950 
1218.000000	43.979740 
1217.000000	43.947529 
1216.000000	43.919587 
1215.000000	43.899774 
1214.000000	43.890595 
1213.000000	43.892645 
1212.000000	43.904447 
1211.000000	43.922924 
1210.000000	43.943977 
1209.000000	43.963503 
1208.000000	43.977856 
1207.000000	43.984603 
1206.000000	43.982529 
1205.000000	43.971610 
1204.000000	43.952536 
1203.000000	43.926501 
1202.000000	43.894767 
1201.000000	43.858480 
1200.000000	43.818831 
1199.000000	43.777227 
1198.000000	43.735361 
1197.000000	43.695282 
1196.000000	43.658995 
1195.000000	43.628239 
1194.000000	43.604016 
1193.000000	43.586564 
1192.000000	43.575119 
1191.000000	43.568086 
1190.000000	43.563365 
1189.000000	43.558955 
1188.000000	43.552994 
1187.000000	43.544459 
1186.000000	43.532896 
1185.000000	43.518662 
1184.000000	43.502473 
1183.000000	43.485450 
1182.000000	43.468618 
1181.000000	43.453025 
1180.000000	43.439650 
1179.000000	43.429088 
1178.000000	43.421578 
1177.000000	43.416929 
1176.000000	43.414521 
1175.000000	43.413305 
1174.000000	43.411874 
1173.000000	43.408918 
1172.000000	43.403506 
1171.000000	43.395423 
1170.000000	43.385219 
1169.000000	43.374180 
1168.000000	43.364024 
1167.000000	43.356466 
1166.000000	43.352627 
1165.000000	43.352770 
1164.000000	43.356060 
1163.000000	43.360900 
1162.000000	43.365192 
1161.000000	43.366861 
1160.000000	43.364453 
1159.000000	43.357539 
1158.000000	43.346619 
1157.000000	43.332862 
1156.000000	43.317627 
1155.000000	43.302154 
1154.000000	43.286895 
1153.000000	43.271708 
1152.000000	43.255734 
1151.000000	43.238043 
1150.000000	43.217825 
1149.000000	43.194842 
1148.000000	43.169546 
1147.000000	43.143200 
1146.000000	43.117189 
1145.000000	43.092823 
1144.000000	43.070840 
1143.000000	43.051147 
1142.000000	43.032670 
1141.000000	43.013954 
1140.000000	42.993378 
1139.000000	42.970156 
1138.000000	42.944335 
1137.000000	42.917370 
1136.000000	42.891669 
1135.000000	42.870283 
1134.000000	42.856264 
1133.000000	42.851591 
1132.000000	42.856955 
1131.000000	42.871212 
1130.000000	42.891693 
1129.000000	42.914628 
1128.000000	42.935967 
1127.000000	42.952203 
1126.000000	42.961025 
1125.000000	42.961645 
1124.000000	42.954874 
1123.000000	42.942571 
1122.000000	42.926979 
1121.000000	42.910265 
1120.000000	42.894077 
1119.000000	42.879581 
1118.000000	42.867398 
1117.000000	42.858123 
1116.000000	42.852282 
1115.000000	42.850661 
1114.000000	42.854070 
1113.000000	42.862892 
1112.000000	42.876768 
1111.000000	42.894172 
1110.000000	42.912459 
1109.000000	42.928004 
1108.000000	42.937207 
1107.000000	42.937541 
1106.000000	42.928004 
1105.000000	42.909502 
1104.000000	42.884540 
1103.000000	42.856645 
1102.000000	42.829465 
1101.000000	42.805790 
1100.000000	42.787075 
1099.000000	42.773532 
1098.000000	42.764019 
1097.000000	42.756843 
1096.000000	42.750191 
1095.000000	42.742753 
1094.000000	42.733645 
1093.000000	42.722606 
1092.000000	42.709803 
1091.000000	42.695498 
1090.000000	42.679977 
1089.000000	42.663216 
1088.000000	42.645001 
1087.000000	42.624878 
1086.000000	42.602396 
1085.000000	42.576956 
1084.000000	42.547917 
1083.000000	42.514872 
1082.000000	42.477416 
1081.000000	42.436075 
1080.000000	42.392230 
1079.000000	42.348289 
1078.000000	42.307615 
1077.000000	42.273926 
1076.000000	42.250323 
1075.000000	42.238497 
1074.000000	42.238163 
1073.000000	42.247128 
1072.000000	42.261528 
1071.000000	42.276835 
1070.000000	42.288684 
1069.000000	42.293906 
1068.000000	42.291212 
1067.000000	42.280983 
1066.000000	42.265057 
1065.000000	42.246079 
1064.000000	42.226743 
1063.000000	42.208957 
1062.000000	42.193508 
1061.000000	42.180061 
1060.000000	42.167186 
1059.000000	42.153692 
1058.000000	42.138743 
1057.000000	42.122387 
1056.000000	42.105817 
1055.000000	42.090988 
1054.000000	42.080402 
1053.000000	42.075920 
1052.000000	42.078781 
1051.000000	42.088866 
1050.000000	42.104911 
1049.000000	42.124676 
1048.000000	42.145204 
1047.000000	42.163848 
1046.000000	42.178034 
1045.000000	42.186021 
1044.000000	42.186331 
1043.000000	42.177987 
1042.000000	42.160320 
1041.000000	42.132997 
1040.000000	42.096185 
1039.000000	42.050933 
1038.000000	41.999959 
1037.000000	41.947460 
1036.000000	41.899037 
1035.000000	41.860556 
1034.000000	41.837286 
1033.000000	41.832566 
1032.000000	41.846680 
1031.000000	41.876935 
1030.000000	41.917800 
1029.000000	41.962432 
1028.000000	42.003655 
1027.000000	42.035865 
1026.000000	42.055797 
1025.000000	42.063069 
1024.000000	42.059588 
1023.000000	42.048621 
1022.000000	42.033720 
1021.000000	42.017269 
1020.000000	42.000341 
1019.000000	41.982197 
1018.000000	41.961359 
1017.000000	41.936016 
1016.000000	41.905474 
1015.000000	41.870093 
1014.000000	41.831755 
1013.000000	41.793441 
1012.000000	41.758322 
1011.000000	41.729116 
1010.000000	41.707420 
1009.000000	41.693377 
1008.000000	41.685700 
1007.000000	41.681957 
1006.000000	41.679310 
1005.000000	41.674971 
1004.000000	41.667032 
1003.000000	41.654634 
1002.000000	41.638135 
1001.000000	41.618776 
1000.000000	41.598176 
999.000000	 41.577744 
998.000000	 41.558432 
997.000000	 41.540241 
996.000000	 41.522645 
995.000000	 41.504836 
994.000000	 41.486072 
993.000000	 41.465950 
992.000000	 41.444969 
991.000000	 41.424274 
990.000000	 41.405749 
989.000000	 41.391301 
988.000000	 41.382932 
987.000000	 41.381955 
986.000000	 41.388726 
985.000000	 41.402387 
984.000000	 41.420817 
983.000000	 41.440820 
982.000000	 41.458463 
981.000000	 41.469693 
980.000000	 41.470479 
979.000000	 41.457962 
978.000000	 41.430830 
977.000000	 41.389966 
976.000000	 41.338443 
975.000000	 41.281342 
974.000000	 41.224908 
973.000000	 41.175460 
972.000000	 41.138195 
971.000000	 41.116046 
970.000000	 41.109251 
969.000000	 41.115236 
968.000000	 41.129493 
967.000000	 41.146302 
966.000000	 41.160130 
965.000000	 41.166305 
964.000000	 41.161489 
963.000000	 41.144156 
962.000000	 41.114211 
961.000000	 41.072773 
960.000000	 41.021847 
959.000000	 40.963912 
958.000000	 40.901923 
957.000000	 40.839314 
956.000000	 40.779852 
955.000000	 40.727305 
954.000000	 40.684938 
953.000000	 40.655183 
952.000000	 40.639162 
951.000000	 40.635895 
950.000000	 40.642499 
949.000000	 40.654373 
948.000000	 40.666103 
947.000000	 40.672206 
946.000000	 40.668225 
945.000000	 40.651178 
944.000000	 40.620613 
943.000000	 40.577864 
942.000000	 40.526700 
941.000000	 40.472292 
940.000000	 40.420675 
939.000000	 40.377640 
938.000000	 40.347623 
937.000000	 40.333223 
936.000000	 40.334558 
935.000000	 40.349578 
934.000000	 40.373873 
933.000000	 40.401339 
932.000000	 40.425348 
931.000000	 40.439724 
930.000000	 40.439343 
929.000000	 40.420889 
928.000000	 40.383577 
927.000000	 40.329527 
926.000000	 40.263485 
925.000000	 40.192055 
924.000000	 40.123271 
923.000000	 40.064573 
922.000000	 40.022015 
921.000000	 39.997887 
920.000000	 39.991283 
919.000000	 39.997005 
918.000000	 40.007138 
917.000000	 40.012240 
916.000000	 40.002894 
915.000000	 39.972877 
914.000000	 39.919900 
913.000000	 39.847826 
912.000000	 39.764952 
911.000000	 39.683890 
910.000000	 39.618015 
909.000000	 39.579892 
908.000000	 39.578318 
907.000000	 39.616489 
906.000000	 39.691090 
905.000000	 39.793109 
904.000000	 39.909601 
903.000000	 40.025353 
902.000000	 40.125966 
901.000000	 40.199995 
900.000000	 40.240907 
899.000000	 40.248179 
898.000000	 40.226292 
897.000000	 40.183949 
896.000000	 40.130567 
895.000000	 40.074706 
894.000000	 40.020942 
893.000000	 39.970779 
892.000000	 39.921665 
891.000000	 39.869236 
890.000000	 39.809370 
889.000000	 39.740633 
888.000000	 39.665913 
887.000000	 39.592027 
886.000000	 39.529252 
885.000000	 39.487814 
884.000000	 39.476394 
883.000000	 39.498782 
882.000000	 39.553523 
881.000000	 39.633250 
880.000000	 39.727711 
879.000000	 39.825558 
878.000000	 39.917087 
877.000000	 39.995574 
876.000000	 40.057516 
875.000000	 40.102124 
874.000000	 40.129351 
873.000000	 40.139245 
872.000000	 40.132045 
871.000000	 40.108156 
870.000000	 40.068769 
869.000000	 40.016412 
868.000000	 39.956331 
867.000000	 39.894938 
866.000000	 39.839839 
865.000000	 39.797544 
864.000000	 39.772534 
863.000000	 39.765787 
862.000000	 39.774990 
861.000000	 39.794898 
860.000000	 39.818859 
859.000000	 39.840149 
858.000000	 39.853382 
857.000000	 39.855265 
856.000000	 39.844822 
855.000000	 39.822983 
854.000000	 39.791584 
853.000000	 39.753055 
852.000000	 39.709758 
851.000000	 39.663767 
850.000000	 39.616775 
849.000000	 39.570260 
848.000000	 39.525508 
847.000000	 39.483022 
846.000000	 39.442706 
845.000000	 39.404153 
844.000000	 39.367127 
843.000000	 39.331293 
842.000000	 39.296722 
841.000000	 39.264154 
840.000000	 39.234519 
839.000000	 39.209270 
838.000000	 39.189052 
837.000000	 39.173626 
836.000000	 39.161086 
835.000000	 39.148330 
834.000000	 39.130997 
833.000000	 39.104151 
832.000000	 39.064002 
831.000000	 39.008855 
830.000000	 38.940334 
829.000000	 38.863658 
828.000000	 38.786458 
827.000000	 38.717412 
826.000000	 38.663768 
825.000000	 38.629651 
824.000000	 38.614916 
823.000000	 38.615465 
822.000000	 38.624691 
821.000000	 38.635540 
820.000000	 38.642883 
819.000000	 38.644695 
818.000000	 38.641595 
817.000000	 38.636517 
816.000000	 38.632345 
815.000000	 38.631677 
814.000000	 38.635158 
813.000000	 38.642072 
812.000000	 38.650655 
811.000000	 38.658881 
810.000000	 38.665604 
809.000000	 38.670468 
808.000000	 38.674592 
807.000000	 38.678932 
806.000000	 38.684082 
805.000000	 38.689160 
804.000000	 38.691544 
803.000000	 38.687491 
802.000000	 38.673162 
801.000000	 38.646006 
800.000000	 38.605999 
799.000000	 38.556289 
798.000000	 38.502979 
797.000000	 38.454079 
796.000000	 38.418006 
795.000000	 38.401317 
794.000000	 38.407111 
793.000000	 38.434147 
792.000000	 38.476943 
791.000000	 38.526630 
790.000000	 38.572931 
789.000000	 38.605833 
788.000000	 38.617801 
787.000000	 38.605546 
786.000000	 38.570404 
785.000000	 38.517856 
784.000000	 38.456082 
783.000000	 38.394212 
782.000000	 38.339829 
781.000000	 38.298296 
780.000000	 38.270735 
779.000000	 38.254761 
778.000000	 38.244795 
777.000000	 38.234186 
776.000000	 38.217020 
775.000000	 38.189768 
774.000000	 38.152647 
773.000000	 38.109016 
772.000000	 38.065147 
771.000000	 38.028216 
770.000000	 38.004374 
769.000000	 37.996721 
768.000000	 38.004565 
767.000000	 38.023495 
766.000000	 38.046264 
765.000000	 38.064384 
764.000000	 38.069915 
763.000000	 38.057470 
762.000000	 38.025403 
761.000000	 37.976431 
760.000000	 37.916970 
759.000000	 37.855648 
758.000000	 37.801361 
757.000000	 37.761354 
756.000000	 37.739777 
755.000000	 37.736773 
754.000000	 37.749099 
753.000000	 37.770652 
752.000000	 37.794589 
751.000000	 37.814331 
750.000000	 37.825345 
749.000000	 37.825083 
748.000000	 37.812757 
747.000000	 37.788677 
746.000000	 37.753462 
745.000000	 37.707400 
744.000000	 37.650585 
743.000000	 37.583374 
742.000000	 37.507271 
741.000000	 37.425708 
740.000000	 37.344408 
739.000000	 37.270855 
738.000000	 37.213087 
737.000000	 37.177705 
736.000000	 37.168145 
735.000000	 37.183451 
734.000000	 37.218236 
733.000000	 37.263607 
732.000000	 37.309193 
731.000000	 37.345337 
730.000000	 37.365102 
729.000000	 37.365317 
728.000000	 37.346959 
727.000000	 37.314200 
726.000000	 37.273001 
725.000000	 37.229275 
724.000000	 37.187361 
723.000000	 37.149596 
722.000000	 37.116169 
721.000000	 37.086248 
720.000000	 37.058186 
719.000000	 37.031030 
718.000000	 37.004566 
717.000000	 36.979603 
716.000000	 36.957120 
715.000000	 36.937689 
714.000000	 36.921000 
713.000000	 36.905956 
712.000000	 36.890673 
711.000000	 36.873435 
710.000000	 36.853170 
709.000000	 36.830425 
708.000000	 36.807179 
707.000000	 36.786746 
706.000000	 36.772918 
705.000000	 36.768913 
704.000000	 36.776447 
703.000000	 36.794948 
702.000000	 36.821985 
701.000000	 36.853051 
700.000000	 36.882495 
699.000000	 36.904287 
698.000000	 36.913752 
697.000000	 36.907577 
696.000000	 36.884903 
695.000000	 36.846804 
694.000000	 36.796236 
693.000000	 36.737275 
692.000000	 36.674833 
691.000000	 36.613059 
690.000000	 36.554861 
689.000000	 36.501479 
688.000000	 36.452651 
687.000000	 36.406707 
686.000000	 36.361527 
685.000000	 36.315059 
684.000000	 36.265993 
683.000000	 36.214399 
682.000000	 36.161804 
681.000000	 36.110568 
680.000000	 36.063265 
679.000000	 36.022138 
678.000000	 35.988163 
677.000000	 35.960435 
676.000000	 35.936570 
675.000000	 35.912990 
674.000000	 35.886430 
673.000000	 35.854196 
672.000000	 35.815858 
671.000000	 35.773110 
670.000000	 35.730171 
669.000000	 35.692405 
668.000000	 35.665440 
667.000000	 35.653591 
666.000000	 35.658574 
665.000000	 35.678815 
664.000000	 35.709381 
663.000000	 35.743021 
662.000000	 35.771441 
661.000000	 35.787200 
660.000000	 35.785031 
659.000000	 35.762906 
658.000000	 35.722327 
657.000000	 35.667729 
656.000000	 35.605311 
655.000000	 35.541319 
654.000000	 35.480999 
653.000000	 35.427474 
652.000000	 35.381579 
651.000000	 35.342049 
650.000000	 35.306882 
649.000000	 35.274052 
648.000000	 35.242652 
647.000000	 35.213398 
646.000000	 35.188150 
645.000000	 35.169601 
644.000000	 35.159945 
643.000000	 35.159850 
642.000000	 35.167837 
641.000000	 35.180187 
640.000000	 35.191679 
639.000000	 35.196590 
638.000000	 35.190129 
637.000000	 35.169219 
636.000000	 35.133528 
635.000000	 35.085201 
634.000000	 35.028123 
633.000000	 34.967732 
632.000000	 34.909534 
631.000000	 34.857821 
630.000000	 34.814739 
629.000000	 34.780430 
628.000000	 34.752988 
627.000000	 34.729361 
626.000000	 34.706234 
625.000000	 34.680771 
624.000000	 34.651589 
623.000000	 34.619092 
622.000000	 34.584808 
621.000000	 34.550142 
620.000000	 34.516429 
619.000000	 34.484076 
618.000000	 34.453058 
617.000000	 34.422612 
616.000000	 34.392237 
615.000000	 34.362030 
614.000000	 34.332799 
613.000000	 34.306073 
612.000000	 34.282827 
611.000000	 34.263181 
610.000000	 34.244871 
609.000000	 34.223437 
608.000000	 34.192681 
607.000000	 34.146118 
606.000000	 34.079194 
605.000000	 33.991146 
604.000000	 33.885478 
603.000000	 33.769965 
602.000000	 33.655285 
601.000000	 33.553457 
600.000000	 33.474230 
599.000000	 33.424448 
598.000000	 33.406972 
597.000000	 33.420848 
596.000000	 33.461952 
595.000000	 33.523726 
594.000000	 33.598351 
593.000000	 33.677482 
592.000000	 33.752632 
591.000000	 33.816146 
590.000000	 33.860945 
589.000000	 33.882117 
588.000000	 33.877062 
587.000000	 33.846569 
586.000000	 33.794999 
585.000000	 33.729577 
584.000000	 33.659815 
583.000000	 33.594417 
582.000000	 33.539915 
581.000000	 33.498215 
580.000000	 33.466315 
579.000000	 33.436989 
578.000000	 33.400678 
577.000000	 33.347797 
576.000000	 33.271336 
575.000000	 33.168172 
574.000000	 33.040571 
573.000000	 32.895398 
572.000000	 32.743787 
571.000000	 32.598328 
570.000000	 32.471656 
569.000000	 32.374238 
568.000000	 32.312631 
567.000000	 32.288169 
566.000000	 32.297182 
565.000000	 32.331299 
564.000000	 32.379937 
563.000000	 32.432126 
562.000000	 32.478761 
561.000000	 32.512998 
560.000000	 32.531499 
559.000000	 32.533693 
558.000000	 32.520556 
557.000000	 32.493543 
556.000000	 32.452964 
555.000000	 32.397794 
554.000000	 32.325839 
553.000000	 32.235312 
552.000000	 32.126331 
551.000000	 32.002687 
550.000000	 31.872057 
549.000000	 31.745600 
548.000000	 31.636428 
547.000000	 31.557226 
546.000000	 31.517004 
545.000000	 31.519150 
544.000000	 31.559967 
543.000000	 31.629252 
542.000000	 31.712555 
541.000000	 31.793618 
540.000000	 31.856536 
539.000000	 31.890273 
538.000000	 31.889605 
537.000000	 31.856870 
536.000000	 31.799864 
535.000000	 31.731104 
534.000000	 31.664395 
533.000000	 31.612515 
532.000000	 31.585097 
531.000000	 31.585597 
530.000000	 31.611919 
529.000000	 31.654739 
528.000000	 31.700062 
527.000000	 31.730604 
526.000000	 31.729769 
525.000000	 31.684422 
524.000000	 31.588363 
523.000000	 31.443238 
522.000000	 31.259131 
521.000000	 31.052732 
520.000000	 30.845141 
519.000000	 30.657958 
518.000000	 30.510377 
517.000000	 30.416178 
516.000000	 30.382204 
515.000000	 30.408382 
514.000000	 30.487561 
513.000000	 30.606794 
512.000000	 30.749225 
511.000000	 30.895948 
510.000000	 31.029081 
509.000000	 31.132602 
508.000000	 31.195759 
507.000000	 31.213068 
506.000000	 31.186342 
505.000000	 31.123948 
504.000000	 31.038808 
503.000000	 30.945777 
502.000000	 30.858111 
501.000000	 30.785489 
500.000000	 30.730414 
499.000000	 30.688667 
498.000000	 30.650305 
497.000000	 30.603480 
496.000000	 30.537056 
495.000000	 30.444836 
494.000000	 30.328702 
493.000000	 30.199337 
492.000000	 30.072450 
491.000000	 29.966783 
490.000000	 29.897665 
489.000000	 29.875731 
488.000000	 29.902887 
487.000000	 29.974436 
486.000000	 30.080270 
485.000000	 30.208206 
484.000000	 30.347537 
483.000000	 30.488514 
482.000000	 30.624175 
481.000000	 30.746436 
480.000000	 30.845761 
479.000000	 30.909228 
478.000000	 30.922842 
477.000000	 30.872750 
476.000000	 30.749320 
475.000000	 30.551004 
474.000000	 30.287408 
473.000000	 29.977679 
472.000000	 29.648256 
471.000000	 29.325771 
470.000000	 29.032182 
469.000000	 28.779673 
468.000000	 28.570437 
467.000000	 28.398251 
466.000000	 28.253459 
465.000000	 28.127408 
464.000000	 28.016662 
463.000000	 27.922821 
462.000000	 27.853202 
461.000000	 27.814412 
460.000000	 27.811622 
459.000000	 27.843141 
458.000000	 27.901387 
457.000000	 27.972459 
456.000000	 28.039526 
455.000000	 28.086757 
454.000000	 28.101396 
453.000000	 28.077411 
452.000000	 28.013896 
451.000000	 27.914667 
450.000000	 27.786064 
449.000000	 27.635407 
448.000000	 27.470064 
447.000000	 27.297425 
446.000000	 27.123880 
445.000000	 26.954936 
444.000000	 26.796960 
443.000000	 26.657080 
442.000000	 26.540565 
441.000000	 26.451182 
440.000000	 26.388025 
439.000000	 26.347732 
438.000000	 26.327919 
437.000000	 26.327109 
436.000000	 26.341247 
435.000000	 26.366186 
434.000000	 26.398539 
433.000000	 26.434969 
432.000000	 26.469039 
431.000000	 26.495099 
430.000000	 26.507329 
429.000000	 26.504516 
428.000000	 26.488566 
427.000000	 26.468396 
426.000000	 26.458907 
425.000000	 26.476526 
424.000000	 26.537394 
423.000000	 26.644587 
422.000000	 26.789498 
421.000000	 26.935410 
420.000000	 27.022194 
419.000000	 26.986598 
418.000000	 26.783680 
417.000000	 26.384568 
416.000000	 25.792765 
415.000000	 25.076746 
414.000000	 24.356794 
413.000000	 23.770976 
412.000000	 23.447942 
411.000000	 23.461151 
410.000000	 23.822522 
409.000000	 24.491786 
408.000000	 25.379419 
407.000000	 26.382684 
406.000000	 27.388405 
405.000000	 28.275370 
404.000000	 28.950500 
403.000000	 29.340100 
402.000000	 29.430937 
401.000000	 29.286646 
400.000000	 29.007649 
399.000000	 28.725528 
398.000000	 28.526067 
397.000000	 28.402090 
396.000000	 28.312373 
395.000000	 28.172492 
394.000000	 28.038072 
393.000000	 28.121447 
392.000000	 28.810143 
391.000000	 30.564093 
390.000000	 33.745598 
389.000000	 38.459110 
388.000000	 44.411730 
387.000000	 50.925946 
386.000000	 57.028889 
385.000000	 61.698484 
384.000000	 64.159202 
383.000000	 64.082717 
382.000000	 61.692643 
381.000000	 57.690882 
380.000000	 53.157353 
379.000000	 49.176478 
378.000000	 46.528410 
377.000000	 45.527482 
376.000000	 45.950841 
375.000000	 47.218990 
374.000000	 48.674297 
373.000000	 49.772953 
372.000000	 50.371623 
371.000000	 50.578904 
370.000000	 50.687909 

