PE IR       SPECTRUM    SPECTRUM    ASCII       PEDS        1.60        
  -1
C-1A65~1.ASC
17/03/27
15:54:37.00
17/03/27
15:54:37.00
tln
$C-4040-8_t0018$<tbV0>[-2.6,-10.4,8.0,0.0,27,1,0]
370.000000
64









2002,4.07    
MIRTGS : RIGHTBACK : INTERNAL 2
MIR : ON : INTERNAL 2
OPTKBR

0.200000
8
8.000000
FILLER
RATIO
SPECTRUM
UNLOCKED 256

DOUBLE
64
COMBINED
1
0
0


1.000000
RATIO


1
0
TRUE
51149
0
LEFT NOT FITTED RIGHT NOT FITTED 0
NONE
NONE
15600
12.000000
4.427000
51148
TRUE
1 0 8 72 0 0 0 0 

15798.010000






#HDR
-1
-1
#GR
CM-1
%T
0.00002384185791015625
0.0
5000.000000
-1.000000
4631
8
71.734380
28.716731
#DATA
5000.000000	63.818359 
4999.000000	63.760352 
4998.000000	63.726210 
4997.000000	63.721203 
4996.000000	63.748455 
4995.000000	63.807868 
4994.000000	63.896036 
4993.000000	64.005017 
4992.000000	64.124417 
4991.000000	64.242768 
4990.000000	64.348888 
4989.000000	64.433073 
4988.000000	64.489102 
4987.000000	64.515447 
4986.000000	64.514231 
4985.000000	64.490318 
4984.000000	64.449834 
4983.000000	64.398312 
4982.000000	64.339208 
4981.000000	64.273285 
4980.000000	64.198637 
4979.000000	64.112377 
4978.000000	64.012002 
4977.000000	63.898539 
4976.000000	63.778400 
4975.000000	63.663125 
4974.000000	63.567519 
4973.000000	63.505721 
4972.000000	63.487863 
4971.000000	63.516378 
4970.000000	63.584589 
4969.000000	63.677334 
4968.000000	63.772749 
4967.000000	63.848662 
4966.000000	63.887453 
4965.000000	63.880515 
4964.000000	63.829183 
4963.000000	63.744783 
4962.000000	63.645172 
4961.000000	63.549971 
4960.000000	63.475513 
4959.000000	63.431334 
4958.000000	63.418292 
4957.000000	63.430929 
4956.000000	63.459753 
4955.000000	63.494491 
4954.000000	63.526177 
4953.000000	63.546609 
4952.000000	63.548684 
4951.000000	63.525342 
4950.000000	63.470935 
4949.000000	63.380479 
4948.000000	63.253712 
4947.000000	63.096046 
4946.000000	62.921285 
4945.000000	62.748670 
4944.000000	62.603068 
4943.000000	62.509536 
4942.000000	62.490057 
4941.000000	62.557792 
4940.000000	62.714791 
4939.000000	62.950563 
4938.000000	63.242554 
4937.000000	63.559460 
4936.000000	63.865709 
4935.000000	64.127397 
4934.000000	64.317536 
4933.000000	64.419889 
4932.000000	64.431619 
4931.000000	64.362502 
4930.000000	64.233541 
4929.000000	64.072346 
4928.000000	63.908910 
4927.000000	63.770055 
4926.000000	63.675737 
4925.000000	63.635897 
4924.000000	63.650727 
4923.000000	63.711571 
4922.000000	63.804364 
4921.000000	63.913464 
4920.000000	64.024543 
4919.000000	64.128136 
4918.000000	64.219164 
4917.000000	64.298200 
4916.000000	64.368271 
4915.000000	64.433836 
4914.000000	64.497089 
4913.000000	64.558362 
4912.000000	64.616131 
4911.000000	64.667963 
4910.000000	64.713239 
4909.000000	64.751672 
4908.000000	64.785170 
4907.000000	64.814472 
4906.000000	64.839553 
4905.000000	64.856004 
4904.000000	64.855456 
4903.000000	64.828228 
4902.000000	64.766359 
4901.000000	64.666509 
4900.000000	64.532327 
4899.000000	64.374947 
4898.000000	64.211416 
4897.000000	64.061307 
4896.000000	63.942694 
4895.000000	63.867449 
4894.000000	63.840126 
4893.000000	63.857102 
4892.000000	63.909339 
4891.000000	63.985514 
4890.000000	64.074826 
4889.000000	64.169716 
4888.000000	64.265179 
4887.000000	64.358019 
4886.000000	64.444088 
4885.000000	64.516258 
4884.000000	64.564561 
4883.000000	64.577102 
4882.000000	64.543700 
4881.000000	64.459276 
4880.000000	64.327239 
4879.000000	64.160680 
4878.000000	63.980698 
4877.000000	63.812780 
4876.000000	63.681221 
4875.000000	63.603758 
4874.000000	63.587403 
4873.000000	63.627195 
4872.000000	63.707852 
4871.000000	63.808107 
4870.000000	63.905882 
4869.000000	63.984251 
4868.000000	64.033579 
4867.000000	64.054584 
4866.000000	64.055228 
4865.000000	64.049434 
4864.000000	64.051198 
4863.000000	64.072251 
4862.000000	64.119148 
4861.000000	64.191532 
4860.000000	64.283776 
4859.000000	64.385151 
4858.000000	64.484024 
4857.000000	64.568996 
4856.000000	64.632081 
4855.000000	64.668869 
4854.000000	64.678740 
4853.000000	64.664506 
4852.000000	64.631223 
4851.000000	64.584994 
4850.000000	64.531826 
4849.000000	64.476490 
4848.000000	64.422416 
4847.000000	64.371514 
4846.000000	64.324998 
4845.000000	64.283490 
4844.000000	64.247703 
4843.000000	64.218664 
4842.000000	64.197754 
4841.000000	64.186120 
4840.000000	64.184427 
4839.000000	64.191699 
4838.000000	64.206218 
4837.000000	64.225625 
4836.000000	64.247465 
4835.000000	64.269685 
4834.000000	64.290714 
4833.000000	64.309668 
4832.000000	64.325785 
4831.000000	64.338541 
4830.000000	64.346694 
4829.000000	64.348578 
4828.000000	64.341878 
4827.000000	64.324235 
4826.000000	64.294409 
4825.000000	64.252877 
4824.000000	64.201974 
4823.000000	64.145612 
4822.000000	64.087939 
4821.000000	64.032506 
4820.000000	63.981366 
4819.000000	63.934898 
4818.000000	63.891768 
4817.000000	63.850140 
4816.000000	63.808703 
4815.000000	63.768053 
4814.000000	63.730525 
4813.000000	63.700842 
4812.000000	63.684105 
4811.000000	63.685417 
4810.000000	63.708519 
4809.000000	63.754844 
4808.000000	63.822436 
4807.000000	63.906407 
4806.000000	63.999247 
4805.000000	64.091968 
4804.000000	64.175415 
4803.000000	64.241647 
4802.000000	64.285206 
4801.000000	64.303922 
4800.000000	64.299011 
4799.000000	64.275312 
4798.000000	64.240097 
4797.000000	64.202427 
4796.000000	64.171481 
4795.000000	64.154887 
4794.000000	64.157247 
4793.000000	64.179658 
4792.000000	64.219498 
4791.000000	64.270377 
4790.000000	64.323425 
4789.000000	64.369177 
4788.000000	64.398884 
4787.000000	64.405798 
4786.000000	64.386510 
4785.000000	64.341545 
4784.000000	64.275288 
4783.000000	64.194989 
4782.000000	64.109849 
4781.000000	64.029645 
4780.000000	63.962650 
4779.000000	63.914823 
4778.000000	63.888502 
4777.000000	63.882613 
4776.000000	63.892865 
4775.000000	63.913202 
4774.000000	63.936948 
4773.000000	63.957691 
4772.000000	63.971543 
4771.000000	63.977646 
4770.000000	63.977670 
4769.000000	63.974905 
4768.000000	63.973212 
4767.000000	63.975834 
4766.000000	63.984322 
4765.000000	63.998007 
4764.000000	64.014959 
4763.000000	64.032459 
4762.000000	64.048266 
4761.000000	64.061164 
4760.000000	64.071369 
4759.000000	64.080452 
4758.000000	64.090371 
4757.000000	64.103078 
4756.000000	64.119887 
4755.000000	64.141249 
4754.000000	64.166760 
4753.000000	64.194893 
4752.000000	64.223742 
4751.000000	64.250659 
4750.000000	64.273691 
4749.000000	64.290714 
4748.000000	64.299654 
4747.000000	64.298629 
4746.000000	64.286637 
4745.000000	64.263272 
4744.000000	64.229083 
4743.000000	64.185643 
4742.000000	64.135670 
4741.000000	64.082217 
4740.000000	64.028429 
4739.000000	63.976883 
4738.000000	63.929557 
4737.000000	63.887476 
4736.000000	63.850951 
4735.000000	63.819837 
4734.000000	63.793969 
4733.000000	63.772988 
4732.000000	63.756799 
4731.000000	63.744878 
4730.000000	63.736867 
4729.000000	63.731932 
4728.000000	63.729691 
4727.000000	63.729095 
4726.000000	63.729953 
4725.000000	63.732481 
4724.000000	63.737773 
4723.000000	63.746833 
4722.000000	63.760948 
4721.000000	63.780879 
4720.000000	63.806509 
4719.000000	63.836503 
4718.000000	63.868618 
4717.000000	63.900113 
4716.000000	63.928556 
4715.000000	63.952231 
4714.000000	63.970446 
4713.000000	63.983583 
4712.000000	63.993120 
4711.000000	64.000821 
4710.000000	64.008259 
4709.000000	64.016318 
4708.000000	64.025330 
4707.000000	64.034795 
4706.000000	64.043760 
4705.000000	64.050579 
4704.000000	64.054250 
4703.000000	64.053654 
4702.000000	64.048099 
4701.000000	64.036965 
4700.000000	64.019918 
4699.000000	63.996791 
4698.000000	63.967537 
4697.000000	63.932704 
4696.000000	63.893556 
4695.000000	63.852119 
4694.000000	63.811326 
4693.000000	63.774466 
4692.000000	63.744783 
4691.000000	63.724422 
4690.000000	63.713860 
4689.000000	63.711929 
4688.000000	63.715767 
4687.000000	63.721752 
4686.000000	63.726639 
4685.000000	63.728117 
4684.000000	63.725519 
4683.000000	63.720154 
4682.000000	63.714790 
4681.000000	63.712525 
4680.000000	63.716030 
4679.000000	63.726711 
4678.000000	63.744544 
4677.000000	63.767838 
4676.000000	63.793849 
4675.000000	63.819551 
4674.000000	63.842201 
4673.000000	63.860082 
4672.000000	63.872432 
4671.000000	63.879179 
4670.000000	63.880872 
4669.000000	63.878393 
4668.000000	63.873100 
4667.000000	63.866591 
4666.000000	63.860845 
4665.000000	63.858389 
4664.000000	63.861680 
4663.000000	63.872504 
4662.000000	63.891434 
4661.000000	63.917779 
4660.000000	63.948702 
4659.000000	63.979959 
4658.000000	64.006519 
4657.000000	64.023685 
4656.000000	64.028072 
4655.000000	64.018630 
4654.000000	63.996505 
4653.000000	63.964915 
4652.000000	63.928484 
4651.000000	63.892555 
4650.000000	63.861584 
4649.000000	63.839197 
4648.000000	63.827300 
4647.000000	63.826537 
4646.000000	63.836741 
4645.000000	63.856983 
4644.000000	63.885450 
4643.000000	63.919901 
4642.000000	63.957643 
4641.000000	63.995766 
4640.000000	64.030885 
4639.000000	64.060354 
4638.000000	64.082264 
4637.000000	64.096307 
4636.000000	64.103460 
4635.000000	64.106035 
4634.000000	64.107012 
4633.000000	64.108896 
4632.000000	64.112949 
4631.000000	64.118337 
4630.000000	64.122271 
4629.000000	64.120531 
4628.000000	64.108800 
4627.000000	64.083623 
4626.000000	64.044070 
4625.000000	63.991975 
4624.000000	63.932871 
4623.000000	63.874006 
4622.000000	63.824439 
4621.000000	63.792514 
4620.000000	63.785457 
4619.000000	63.807034 
4618.000000	63.858127 
4617.000000	63.936233 
4616.000000	64.036226 
4615.000000	64.150452 
4614.000000	64.270544 
4613.000000	64.388132 
4612.000000	64.495873 
4611.000000	64.587593 
4610.000000	64.658975 
4609.000000	64.707565 
4608.000000	64.732885 
4607.000000	64.736437 
4606.000000	64.721107 
4605.000000	64.690709 
4604.000000	64.649653 
4603.000000	64.602470 
4602.000000	64.553189 
4601.000000	64.504933 
4600.000000	64.460062 
4599.000000	64.420223 
4598.000000	64.386653 
4597.000000	64.359998 
4596.000000	64.340806 
4595.000000	64.328837 
4594.000000	64.322853 
4593.000000	64.320135 
4592.000000	64.316844 
4591.000000	64.308142 
4590.000000	64.288544 
4589.000000	64.254117 
4588.000000	64.202809 
4587.000000	64.136719 
4586.000000	64.061427 
4585.000000	63.986420 
4584.000000	63.922452 
4583.000000	63.880372 
4582.000000	63.868618 
4581.000000	63.890624 
4580.000000	63.943648 
4579.000000	64.019632 
4578.000000	64.106845 
4577.000000	64.191699 
4576.000000	64.261412 
4575.000000	64.306807 
4574.000000	64.323616 
4573.000000	64.312601 
4572.000000	64.279365 
4571.000000	64.232611 
4570.000000	64.182353 
4569.000000	64.138317 
4568.000000	64.107871 
4567.000000	64.094853 
4566.000000	64.099526 
4565.000000	64.119791 
4564.000000	64.151978 
4563.000000	64.192008 
4562.000000	64.236354 
4561.000000	64.282751 
4560.000000	64.329528 
4559.000000	64.374470 
4558.000000	64.414930 
4557.000000	64.447665 
4556.000000	64.468646 
4555.000000	64.473915 
4554.000000	64.460492 
4553.000000	64.427757 
4552.000000	64.376640 
4551.000000	64.310026 
4550.000000	64.231562 
4549.000000	64.145302 
4548.000000	64.054894 
4547.000000	63.963532 
4546.000000	63.873410 
4545.000000	63.787007 
4544.000000	63.708043 
4543.000000	63.641738 
4542.000000	63.594031 
4541.000000	63.570690 
4540.000000	63.574719 
4539.000000	63.606667 
4538.000000	63.662028 
4537.000000	63.734555 
4536.000000	63.815927 
4535.000000	63.899397 
4534.000000	63.980436 
4533.000000	64.058017 
4532.000000	64.133238 
4531.000000	64.208722 
4530.000000	64.286351 
4529.000000	64.366340 
4528.000000	64.446449 
4527.000000	64.522123 
4526.000000	64.587306 
4525.000000	64.634919 
4524.000000	64.658403 
4523.000000	64.652514 
4522.000000	64.614748 
4521.000000	64.546227 
4520.000000	64.452171 
4519.000000	64.341592 
4518.000000	64.226198 
4517.000000	64.118409 
4516.000000	64.029788 
4515.000000	63.969469 
4514.000000	63.942813 
4513.000000	63.950705 
4512.000000	63.989472 
4511.000000	64.052200 
4510.000000	64.129829 
4509.000000	64.211702 
4508.000000	64.288568 
4507.000000	64.352488 
4506.000000	64.399886 
4505.000000	64.431333 
4504.000000	64.450836 
4503.000000	64.464092 
4502.000000	64.476084 
4501.000000	64.489650 
4500.000000	64.503717 
4499.000000	64.514183 
4498.000000	64.513683 
4497.000000	64.494228 
4496.000000	64.449667 
4495.000000	64.378070 
4494.000000	64.283108 
4493.000000	64.173698 
4492.000000	64.062857 
4491.000000	63.964891 
4490.000000	63.890576 
4489.000000	63.846683 
4488.000000	63.834285 
4487.000000	63.851380 
4486.000000	63.894271 
4485.000000	63.958716 
4484.000000	64.044547 
4483.000000	64.149665 
4482.000000	64.265203 
4481.000000	64.378428 
4480.000000	64.472842 
4479.000000	64.533424 
4478.000000	64.548015 
4477.000000	64.515304 
4476.000000	64.447045 
4475.000000	64.364886 
4474.000000	64.295840 
4473.000000	64.263963 
4472.000000	64.283776 
4471.000000	64.357948 
4470.000000	64.477539 
4469.000000	64.623069 
4468.000000	64.770555 
4467.000000	64.902901 
4466.000000	65.013694 
4465.000000	65.104389 
4464.000000	65.183758 
4463.000000	65.260863 
4462.000000	65.346193 
4461.000000	65.440201 
4460.000000	65.545821 
4459.000000	65.668439 
4458.000000	65.824389 
4457.000000	66.038942 
4456.000000	66.343307 
4455.000000	66.766738 
4454.000000	67.324495 
4453.000000	68.008136 
4452.000000	68.781733 
4451.000000	69.587063 
4450.000000	70.349764 
4449.000000	70.997190 
4448.000000	71.465611 
4447.000000	71.716713 
4446.000000	71.734380 
4445.000000	71.528768 
4444.000000	71.120262 
4443.000000	70.535016 
4442.000000	69.797730 
4441.000000	68.932175 
4440.000000	67.966485 
4439.000000	66.936945 
4438.000000	65.895962 
4437.000000	64.907002 
4436.000000	64.037227 
4435.000000	63.346004 
4434.000000	62.866353 
4433.000000	62.604165 
4432.000000	62.532734 
4431.000000	62.605237 
4430.000000	62.758135 
4429.000000	62.932395 
4428.000000	63.078594 
4427.000000	63.170456 
4426.000000	63.197112 
4425.000000	63.169121 
4424.000000	63.105106 
4423.000000	63.028669 
4422.000000	62.955927 
4421.000000	62.897109 
4420.000000	62.856435 
4419.000000	62.830114 
4418.000000	62.808775 
4417.000000	62.788033 
4416.000000	62.771701 
4415.000000	62.766885 
4414.000000	62.782144 
4413.000000	62.820816 
4412.000000	62.879610 
4411.000000	62.950277 
4410.000000	63.021087 
4409.000000	63.080358 
4408.000000	63.119173 
4407.000000	63.133120 
4406.000000	63.124060 
4405.000000	63.098049 
4404.000000	63.066244 
4403.000000	63.039207 
4402.000000	63.030076 
4401.000000	63.048624 
4400.000000	63.104867 
4399.000000	63.216161 
4398.000000	63.388895 
4397.000000	63.622021 
4396.000000	63.886904 
4395.000000	64.139103 
4394.000000	64.300155 
4393.000000	64.272689 
4392.000000	63.964223 
4391.000000	63.313627 
4390.000000	62.324953 
4389.000000	61.076879 
4388.000000	59.727597 
4387.000000	58.479619 
4386.000000	57.533144 
4385.000000	57.027339 
4384.000000	57.000565 
4383.000000	57.369279 
4382.000000	57.937932 
4381.000000	58.452415 
4380.000000	58.655595 
4379.000000	58.373236 
4378.000000	57.550644 
4377.000000	56.292009 
4376.000000	54.817962 
4375.000000	53.433704 
4374.000000	52.435874 
4373.000000	52.058768 
4372.000000	52.404618 
4371.000000	53.438377 
4370.000000	55.002665 
4369.000000	56.862354 
4368.000000	58.768916 
4367.000000	60.506916 
4366.000000	61.933708 
4365.000000	62.990832 
4364.000000	63.691043 
4363.000000	64.101338 
4362.000000	64.306449 
4361.000000	64.392113 
4360.000000	64.420604 
4359.000000	64.430117 
4358.000000	64.430236 
4357.000000	64.426374 
4356.000000	64.418196 
4355.000000	64.406919 
4354.000000	64.394688 
4353.000000	64.388036 
4352.000000	64.393997 
4351.000000	64.414477 
4350.000000	64.448308 
4349.000000	64.490985 
4348.000000	64.536714 
4347.000000	64.582228 
4346.000000	64.624810 
4345.000000	64.662694 
4344.000000	64.694666 
4343.000000	64.718413 
4342.000000	64.732766 
4341.000000	64.738988 
4340.000000	64.738512 
4339.000000	64.733815 
4338.000000	64.724850 
4337.000000	64.707612 
4336.000000	64.681410 
4335.000000	64.650607 
4334.000000	64.616775 
4333.000000	64.579319 
4332.000000	64.539432 
4331.000000	64.500021 
4330.000000	64.463615 
4329.000000	64.433097 
4328.000000	64.411687 
4327.000000	64.402198 
4326.000000	64.406991 
4325.000000	64.426255 
4324.000000	64.457583 
4323.000000	64.495253 
4322.000000	64.530992 
4321.000000	64.555335 
4320.000000	64.559483 
4319.000000	64.537858 
4318.000000	64.489150 
4317.000000	64.418077 
4316.000000	64.334726 
4315.000000	64.252638 
4314.000000	64.185547 
4313.000000	64.144277 
4312.000000	64.134430 
4311.000000	64.154481 
4310.000000	64.196419 
4309.000000	64.247703 
4308.000000	64.294695 
4307.000000	64.326000 
4306.000000	64.335632 
4305.000000	64.324045 
4304.000000	64.298272 
4303.000000	64.269685 
4302.000000	64.251327 
4301.000000	64.254736 
4300.000000	64.286732 
4299.000000	64.348626 
4298.000000	64.434933 
4297.000000	64.535617 
4296.000000	64.637041 
4295.000000	64.725637 
4294.000000	64.789509 
4293.000000	64.821004 
4292.000000	64.817428 
4291.000000	64.780926 
4290.000000	64.717888 
4289.000000	64.637231 
4288.000000	64.548921 
4287.000000	64.462375 
4286.000000	64.384913 
4285.000000	64.321684 
4284.000000	64.275074 
4283.000000	64.245462 
4282.000000	64.231824 
4281.000000	64.232563 
4280.000000	64.245748 
4279.000000	64.269495 
4278.000000	64.302110 
4277.000000	64.341831 
4276.000000	64.386034 
4275.000000	64.431095 
4274.000000	64.472532 
4273.000000	64.505457 
4272.000000	64.525294 
4271.000000	64.528584 
4270.000000	64.513993 
4269.000000	64.482545 
4268.000000	64.438104 
4267.000000	64.386367 
4266.000000	64.334177 
4265.000000	64.287519 
4264.000000	64.251089 
4263.000000	64.226770 
4262.000000	64.214110 
4261.000000	64.209723 
4260.000000	64.209079 
4259.000000	64.206361 
4258.000000	64.196085 
4257.000000	64.173913 
4256.000000	64.137649 
4255.000000	64.087271 
4254.000000	64.024662 
4253.000000	63.953804 
4252.000000	63.880038 
4251.000000	63.809251 
4250.000000	63.747382 
4249.000000	63.699269 
4248.000000	63.668441 
4247.000000	63.656520 
4246.000000	63.663363 
4245.000000	63.686585 
4244.000000	63.722562 
4243.000000	63.766789 
4242.000000	63.815045 
4241.000000	63.863158 
4240.000000	63.908362 
4239.000000	63.948678 
4238.000000	63.983702 
4237.000000	64.013767 
4236.000000	64.039778 
4235.000000	64.062619 
4234.000000	64.082837 
4233.000000	64.100956 
4232.000000	64.116811 
4231.000000	64.130139 
4230.000000	64.140224 
4229.000000	64.146852 
4228.000000	64.149785 
4227.000000	64.148879 
4226.000000	64.144301 
4225.000000	64.136433 
4224.000000	64.125633 
4223.000000	64.111971 
4222.000000	64.095735 
4221.000000	64.077115 
4220.000000	64.056205 
4219.000000	64.033293 
4218.000000	64.009046 
4217.000000	63.984680 
4216.000000	63.961553 
4215.000000	63.941502 
4214.000000	63.926124 
4213.000000	63.916850 
4212.000000	63.915252 
4211.000000	63.921785 
4210.000000	63.935565 
4209.000000	63.954138 
4208.000000	63.973760 
4207.000000	63.989830 
4206.000000	63.997602 
4205.000000	63.993859 
4204.000000	63.977813 
4203.000000	63.951659 
4202.000000	63.919973 
4201.000000	63.889050 
4200.000000	63.865399 
4199.000000	63.853836 
4198.000000	63.856410 
4197.000000	63.872289 
4196.000000	63.898301 
4195.000000	63.930010 
4194.000000	63.962817 
4193.000000	63.993763 
4192.000000	64.021444 
4191.000000	64.046168 
4190.000000	64.068698 
4189.000000	64.088416 
4188.000000	64.103341 
4187.000000	64.109587 
4186.000000	64.103221 
4185.000000	64.081430 
4184.000000	64.044499 
4183.000000	63.996815 
4182.000000	63.945984 
4181.000000	63.901519 
4180.000000	63.871908 
4179.000000	63.862299 
4178.000000	63.872957 
4177.000000	63.898992 
4176.000000	63.931298 
4175.000000	63.958811 
4174.000000	63.970756 
4173.000000	63.959455 
4172.000000	63.921618 
4171.000000	63.859224 
4170.000000	63.778877 
4169.000000	63.690400 
4168.000000	63.604664 
4167.000000	63.531851 
4166.000000	63.479852 
4165.000000	63.453412 
4164.000000	63.453888 
4163.000000	63.479471 
4162.000000	63.526153 
4161.000000	63.588213 
4160.000000	63.658785 
4159.000000	63.730645 
4158.000000	63.796687 
4157.000000	63.850736 
4156.000000	63.887763 
4155.000000	63.904619 
4154.000000	63.900184 
4153.000000	63.875722 
4152.000000	63.835167 
4151.000000	63.783979 
4150.000000	63.728642 
4149.000000	63.675785 
4148.000000	63.631510 
4147.000000	63.599824 
4146.000000	63.582134 
4145.000000	63.577628 
4144.000000	63.583660 
4143.000000	63.596558 
4142.000000	63.612222 
4141.000000	63.627219 
4140.000000	63.639283 
4139.000000	63.647174 
4138.000000	63.650894 
4137.000000	63.650870 
4136.000000	63.647937 
4135.000000	63.642692 
4134.000000	63.635706 
4133.000000	63.627243 
4132.000000	63.617825 
4131.000000	63.608455 
4130.000000	63.600730 
4129.000000	63.596105 
4128.000000	63.596534 
4127.000000	63.603878 
4126.000000	63.619923 
4125.000000	63.645219 
4124.000000	63.680076 
4123.000000	63.724207 
4122.000000	63.777232 
4121.000000	63.838243 
4120.000000	63.905715 
4119.000000	63.977241 
4118.000000	64.049816 
4117.000000	64.119815 
4116.000000	64.183330 
4115.000000	64.236164 
4114.000000	64.275407 
4113.000000	64.298892 
4112.000000	64.305639 
4111.000000	64.295315 
4110.000000	64.269042 
4109.000000	64.228153 
4108.000000	64.174914 
4107.000000	64.111304 
4106.000000	64.040279 
4105.000000	63.964271 
4104.000000	63.885879 
4103.000000	63.807296 
4102.000000	63.730788 
4101.000000	63.658642 
4100.000000	63.593125 
4099.000000	63.536858 
4098.000000	63.491988 
4097.000000	63.460898 
4096.000000	63.445329 
4095.000000	63.446259 
4094.000000	63.462924 
4093.000000	63.493561 
4092.000000	63.535284 
4091.000000	63.584327 
4090.000000	63.636279 
4089.000000	63.687562 
4088.000000	63.735628 
4087.000000	63.778972 
4086.000000	63.816976 
4085.000000	63.850116 
4084.000000	63.879060 
4083.000000	63.904237 
4082.000000	63.925504 
4081.000000	63.942646 
4080.000000	63.955140 
4079.000000	63.963103 
4078.000000	63.966870 
4077.000000	63.967180 
4076.000000	63.964819 
4075.000000	63.961338 
4074.000000	63.957548 
4073.000000	63.953280 
4072.000000	63.947653 
4071.000000	63.939714 
4070.000000	63.928079 
4069.000000	63.911366 
4068.000000	63.888812 
4067.000000	63.860869 
4066.000000	63.828635 
4065.000000	63.793921 
4064.000000	63.758802 
4063.000000	63.725090 
4062.000000	63.694047 
4061.000000	63.665914 
4060.000000	63.640284 
4059.000000	63.616180 
4058.000000	63.592576 
4057.000000	63.568997 
4056.000000	63.545155 
4055.000000	63.521885 
4054.000000	63.500642 
4053.000000	63.483881 
4052.000000	63.473773 
4051.000000	63.473010 
4050.000000	63.483500 
4049.000000	63.507056 
4048.000000	63.544178 
4047.000000	63.594412 
4046.000000	63.656020 
4045.000000	63.726091 
4044.000000	63.800501 
4043.000000	63.874578 
4042.000000	63.943314 
4041.000000	64.002275 
4040.000000	64.048409 
4039.000000	64.080309 
4038.000000	64.098501 
4037.000000	64.105486 
4036.000000	64.105057 
4035.000000	64.101457 
4034.000000	64.098358 
4033.000000	64.098429 
4032.000000	64.102530 
4031.000000	64.110040 
4030.000000	64.118766 
4029.000000	64.126253 
4028.000000	64.130115 
4027.000000	64.129042 
4026.000000	64.122891 
4025.000000	64.112782 
4024.000000	64.100933 
4023.000000	64.089798 
4022.000000	64.081692 
4021.000000	64.077997 
4020.000000	64.079165 
4019.000000	64.084815 
4018.000000	64.093828 
4017.000000	64.104604 
4016.000000	64.115691 
4015.000000	64.126229 
4014.000000	64.135622 
4013.000000	64.143323 
4012.000000	64.149165 
4011.000000	64.153122 
4010.000000	64.154982 
4009.000000	64.154028 
4008.000000	64.149856 
4007.000000	64.141988 
4006.000000	64.130377 
4005.000000	64.115166 
4004.000000	64.096975 
4003.000000	64.076805 
4002.000000	64.055848 
4001.000000	64.035344 
4000.000000	64.016342 
3999.000000	63.999485 
3998.000000	63.985085 
3997.000000	63.972806 
3996.000000	63.961982 
3995.000000	63.951420 
3994.000000	63.939809 
3993.000000	63.925838 
3992.000000	63.908791 
3991.000000	63.888287 
3990.000000	63.864707 
3989.000000	63.838529 
3988.000000	63.810420 
3987.000000	63.781046 
3986.000000	63.750886 
3985.000000	63.720273 
3984.000000	63.689446 
3983.000000	63.658976 
3982.000000	63.629674 
3981.000000	63.602781 
3980.000000	63.579893 
3979.000000	63.562536 
3978.000000	63.552236 
3977.000000	63.549709 
3976.000000	63.555145 
3975.000000	63.567805 
3974.000000	63.586521 
3973.000000	63.609838 
3972.000000	63.636064 
3971.000000	63.663434 
3970.000000	63.690090 
3969.000000	63.714098 
3968.000000	63.733458 
3967.000000	63.746166 
3966.000000	63.750958 
3965.000000	63.747525 
3964.000000	63.737320 
3963.000000	63.723349 
3962.000000	63.710021 
3961.000000	63.702154 
3960.000000	63.704180 
3959.000000	63.718962 
3958.000000	63.746809 
3957.000000	63.785147 
3956.000000	63.829255 
3955.000000	63.873291 
3954.000000	63.911485 
3953.000000	63.939285 
3952.000000	63.954734 
3951.000000	63.958263 
3950.000000	63.952469 
3949.000000	63.940787 
3948.000000	63.926768 
3947.000000	63.912487 
3946.000000	63.898587 
3945.000000	63.883638 
3944.000000	63.865685 
3943.000000	63.842535 
3942.000000	63.812971 
3941.000000	63.777160 
3940.000000	63.736844 
3939.000000	63.695192 
3938.000000	63.655972 
3937.000000	63.623142 
3936.000000	63.599586 
3935.000000	63.587546 
3934.000000	63.588070 
3933.000000	63.601517 
3932.000000	63.627433 
3931.000000	63.664960 
3930.000000	63.712525 
3929.000000	63.767576 
3928.000000	63.826537 
3927.000000	63.884711 
3926.000000	63.936758 
3925.000000	63.977289 
3924.000000	64.001893 
3923.000000	64.008593 
3922.000000	63.998103 
3921.000000	63.974070 
3920.000000	63.942050 
3919.000000	63.908863 
3918.000000	63.880538 
3917.000000	63.861417 
3916.000000	63.853025 
3915.000000	63.854312 
3914.000000	63.862347 
3913.000000	63.873243 
3912.000000	63.883519 
3911.000000	63.891124 
3910.000000	63.895773 
3909.000000	63.898706 
3908.000000	63.902163 
3907.000000	63.908100 
3906.000000	63.917636 
3905.000000	63.930630 
3904.000000	63.945508 
3903.000000	63.959717 
3902.000000	63.970518 
3901.000000	63.975834 
3900.000000	63.974499 
3899.000000	63.966441 
3898.000000	63.952374 
3897.000000	63.933491 
3896.000000	63.911199 
3895.000000	63.886618 
3894.000000	63.860487 
3893.000000	63.832974 
3892.000000	63.804316 
3891.000000	63.774585 
3890.000000	63.744044 
3889.000000	63.712954 
3888.000000	63.681483 
3887.000000	63.650107 
3886.000000	63.619303 
3885.000000	63.590097 
3884.000000	63.563394 
3883.000000	63.540911 
3882.000000	63.524532 
3881.000000	63.516902 
3880.000000	63.520669 
3879.000000	63.538026 
3878.000000	63.569784 
3877.000000	63.615059 
3876.000000	63.670992 
3875.000000	63.732981 
3874.000000	63.795328 
3873.000000	63.852119 
3872.000000	63.898324 
3871.000000	63.930463 
3870.000000	63.946938 
3869.000000	63.947868 
3868.000000	63.934755 
3867.000000	63.909816 
3866.000000	63.875746 
3865.000000	63.835597 
3864.000000	63.792896 
3863.000000	63.751626 
3862.000000	63.716387 
3861.000000	63.692283 
3860.000000	63.683581 
3859.000000	63.693523 
3858.000000	63.722419 
3857.000000	63.767123 
3856.000000	63.821363 
3855.000000	63.876199 
3854.000000	63.922667 
3853.000000	63.953542 
3852.000000	63.965415 
3851.000000	63.959360 
3850.000000	63.940382 
3849.000000	63.915920 
3848.000000	63.893723 
3847.000000	63.879895 
3846.000000	63.877606 
3845.000000	63.886260 
3844.000000	63.902378 
3843.000000	63.920068 
3842.000000	63.933062 
3841.000000	63.935518 
3840.000000	63.923335 
3839.000000	63.894796 
3838.000000	63.850569 
3837.000000	63.793516 
3836.000000	63.728356 
3835.000000	63.660645 
3834.000000	63.596057 
3833.000000	63.539600 
3832.000000	63.495039 
3831.000000	63.464140 
3830.000000	63.446402 
3829.000000	63.439393 
3828.000000	63.438892 
3827.000000	63.440942 
3826.000000	63.442564 
3825.000000	63.442540 
3824.000000	63.441467 
3823.000000	63.441658 
3822.000000	63.446092 
3821.000000	63.456916 
3820.000000	63.474535 
3819.000000	63.497352 
3818.000000	63.522219 
3817.000000	63.545370 
3816.000000	63.563799 
3815.000000	63.576245 
3814.000000	63.583922 
3813.000000	63.590216 
3812.000000	63.600015 
3811.000000	63.618087 
3810.000000	63.647699 
3809.000000	63.689422 
3808.000000	63.740491 
3807.000000	63.795566 
3806.000000	63.847351 
3805.000000	63.889122 
3804.000000	63.915038 
3803.000000	63.921523 
3802.000000	63.907647 
3801.000000	63.875579 
3800.000000	63.829135 
3799.000000	63.773012 
3798.000000	63.712120 
3797.000000	63.651061 
3796.000000	63.593578 
3795.000000	63.542532 
3794.000000	63.499903 
3793.000000	63.467168 
3792.000000	63.445067 
3791.000000	63.433790 
3790.000000	63.432431 
3789.000000	63.439154 
3788.000000	63.451051 
3787.000000	63.464689 
3786.000000	63.476228 
3785.000000	63.482737 
3784.000000	63.482069 
3783.000000	63.473892 
3782.000000	63.459396 
3781.000000	63.441371 
3780.000000	63.423418 
3779.000000	63.409376 
3778.000000	63.402462 
3777.000000	63.404917 
3776.000000	63.417696 
3775.000000	63.440322 
3774.000000	63.471221 
3773.000000	63.508176 
3772.000000	63.548779 
3771.000000	63.590478 
3770.000000	63.630723 
3769.000000	63.666749 
3768.000000	63.695621 
3767.000000	63.714504 
3766.000000	63.721323 
3765.000000	63.715195 
3764.000000	63.696813 
3763.000000	63.669228 
3762.000000	63.637495 
3761.000000	63.608169 
3760.000000	63.588094 
3759.000000	63.583302 
3758.000000	63.597655 
3757.000000	63.632035 
3756.000000	63.684034 
3755.000000	63.748669 
3754.000000	63.818931 
3753.000000	63.887739 
3752.000000	63.948440 
3751.000000	63.996124 
3750.000000	64.027762 
3749.000000	64.042115 
3748.000000	64.039516 
3747.000000	64.021587 
3746.000000	63.990974 
3745.000000	63.951206 
3744.000000	63.906455 
3743.000000	63.861489 
3742.000000	63.820791 
3741.000000	63.788485 
3740.000000	63.766741 
3739.000000	63.755536 
3738.000000	63.752436 
3737.000000	63.753342 
3736.000000	63.753128 
3735.000000	63.747262 
3734.000000	63.733077 
3733.000000	63.710665 
3732.000000	63.682866 
3731.000000	63.654613 
3730.000000	63.631129 
3729.000000	63.616824 
3728.000000	63.613343 
3727.000000	63.619995 
3726.000000	63.633751 
3725.000000	63.650608 
3724.000000	63.666820 
3723.000000	63.680124 
3722.000000	63.690352 
3721.000000	63.698911 
3720.000000	63.707900 
3719.000000	63.718771 
3718.000000	63.731455 
3717.000000	63.743615 
3716.000000	63.751077 
3715.000000	63.749170 
3714.000000	63.734173 
3713.000000	63.705110 
3712.000000	63.664460 
3711.000000	63.618063 
3710.000000	63.573932 
3709.000000	63.540816 
3708.000000	63.525748 
3707.000000	63.532471 
3706.000000	63.560128 
3705.000000	63.603758 
3704.000000	63.655161 
3703.000000	63.704705 
3702.000000	63.743591 
3701.000000	63.765621 
3700.000000	63.768815 
3699.000000	63.755321 
3698.000000	63.731169 
3697.000000	63.704156 
3696.000000	63.681912 
3695.000000	63.670516 
3694.000000	63.672089 
3693.000000	63.685274 
3692.000000	63.704848 
3691.000000	63.723945 
3690.000000	63.735294 
3689.000000	63.733410 
3688.000000	63.716268 
3687.000000	63.685655 
3686.000000	63.647103 
3685.000000	63.608288 
3684.000000	63.577222 
3683.000000	63.560295 
3682.000000	63.561058 
3681.000000	63.579416 
3680.000000	63.612103 
3679.000000	63.653469 
3678.000000	63.697218 
3677.000000	63.737320 
3676.000000	63.769125 
3675.000000	63.789510 
3674.000000	63.796925 
3673.000000	63.790822 
3672.000000	63.771820 
3671.000000	63.740825 
3670.000000	63.699316 
3669.000000	63.649296 
3668.000000	63.593959 
3667.000000	63.537073 
3666.000000	63.483214 
3665.000000	63.436460 
3664.000000	63.399910 
3663.000000	63.375043 
3662.000000	63.361620 
3661.000000	63.358378 
3660.000000	63.363218 
3659.000000	63.374328 
3658.000000	63.390541 
3657.000000	63.411521 
3656.000000	63.437485 
3655.000000	63.468241 
3654.000000	63.502573 
3653.000000	63.537573 
3652.000000	63.568925 
3651.000000	63.591599 
3650.000000	63.600826 
3649.000000	63.593673 
3648.000000	63.569307 
3647.000000	63.530135 
3646.000000	63.480782 
3645.000000	63.427329 
3644.000000	63.376116 
3643.000000	63.332200 
3642.000000	63.299226 
3641.000000	63.278889 
3640.000000	63.271427 
3639.000000	63.276124 
3638.000000	63.291668 
3637.000000	63.316464 
3636.000000	63.348436 
3635.000000	63.384914 
3634.000000	63.422417 
3633.000000	63.456702 
3632.000000	63.483333 
3631.000000	63.498425 
3630.000000	63.499498 
3629.000000	63.486075 
3628.000000	63.460326 
3627.000000	63.426446 
3626.000000	63.389801 
3625.000000	63.355731 
3624.000000	63.328576 
3623.000000	63.310790 
3622.000000	63.302946 
3621.000000	63.303804 
3620.000000	63.311338 
3619.000000	63.322949 
3618.000000	63.336181 
3617.000000	63.348793 
3616.000000	63.358950 
3615.000000	63.365173 
3614.000000	63.365960 
3613.000000	63.360238 
3612.000000	63.347268 
3611.000000	63.327026 
3610.000000	63.300371 
3609.000000	63.269138 
3608.000000	63.236141 
3607.000000	63.204574 
3606.000000	63.177633 
3605.000000	63.157677 
3604.000000	63.145875 
3603.000000	63.142204 
3602.000000	63.145923 
3601.000000	63.155531 
3600.000000	63.169527 
3599.000000	63.186669 
3598.000000	63.206505 
3597.000000	63.228917 
3596.000000	63.254117 
3595.000000	63.282227 
3594.000000	63.312816 
3593.000000	63.345003 
3592.000000	63.376998 
3591.000000	63.406205 
3590.000000	63.429498 
3589.000000	63.444089 
3588.000000	63.447785 
3587.000000	63.439846 
3586.000000	63.420867 
3585.000000	63.393211 
3584.000000	63.360047 
3583.000000	63.325214 
3582.000000	63.292121 
3581.000000	63.263320 
3580.000000	63.240075 
3579.000000	63.222408 
3578.000000	63.209128 
3577.000000	63.198518 
3576.000000	63.188767 
3575.000000	63.178610 
3574.000000	63.167405 
3573.000000	63.155722 
3572.000000	63.144850 
3571.000000	63.136839 
3570.000000	63.133716 
3569.000000	63.137149 
3568.000000	63.147783 
3567.000000	63.165235 
3566.000000	63.187837 
3565.000000	63.213086 
3564.000000	63.237905 
3563.000000	63.259267 
3562.000000	63.274765 
3561.000000	63.282966 
3560.000000	63.283562 
3559.000000	63.277053 
3558.000000	63.264751 
3557.000000	63.247776 
3556.000000	63.227057 
3555.000000	63.202714 
3554.000000	63.174605 
3553.000000	63.142132 
3552.000000	63.105106 
3551.000000	63.064026 
3550.000000	63.020658 
3549.000000	62.977766 
3548.000000	62.938928 
3547.000000	62.907648 
3546.000000	62.887048 
3545.000000	62.878799 
3544.000000	62.883329 
3543.000000	62.899088 
3542.000000	62.923669 
3541.000000	62.954282 
3540.000000	62.988305 
3539.000000	63.023781 
3538.000000	63.059425 
3537.000000	63.094425 
3536.000000	63.128113 
3535.000000	63.159561 
3534.000000	63.187694 
3533.000000	63.211059 
3532.000000	63.228440 
3531.000000	63.239264 
3530.000000	63.243508 
3529.000000	63.241815 
3528.000000	63.235139 
3527.000000	63.224887 
3526.000000	63.212203 
3525.000000	63.197827 
3524.000000	63.182377 
3523.000000	63.166236 
3522.000000	63.149523 
3521.000000	63.132143 
3520.000000	63.114190 
3519.000000	63.095760 
3518.000000	63.076853 
3517.000000	63.057279 
3516.000000	63.036775 
3515.000000	63.014936 
3514.000000	62.991356 
3513.000000	62.966012 
3512.000000	62.939357 
3511.000000	62.913084 
3510.000000	62.889909 
3509.000000	62.873435 
3508.000000	62.867116 
3507.000000	62.873697 
3506.000000	62.894225 
3505.000000	62.927627 
3504.000000	62.970376 
3503.000000	63.017392 
3502.000000	63.063168 
3501.000000	63.102746 
3500.000000	63.132596 
3499.000000	63.151311 
3498.000000	63.159680 
3497.000000	63.160085 
3496.000000	63.155484 
3495.000000	63.148808 
3494.000000	63.142085 
3493.000000	63.136482 
3492.000000	63.132095 
3491.000000	63.128328 
3490.000000	63.124251 
3489.000000	63.119316 
3488.000000	63.113498 
3487.000000	63.107037 
3486.000000	63.100814 
3485.000000	63.095617 
3484.000000	63.092517 
3483.000000	63.092231 
3482.000000	63.095331 
3481.000000	63.102245 
3480.000000	63.112878 
3479.000000	63.126611 
3478.000000	63.141894 
3477.000000	63.156414 
3476.000000	63.167023 
3475.000000	63.170123 
3474.000000	63.162422 
3473.000000	63.141584 
3472.000000	63.107109 
3471.000000	63.061022 
3470.000000	63.007545 
3469.000000	62.952613 
3468.000000	62.902855 
3467.000000	62.864232 
3466.000000	62.840819 
3465.000000	62.834143 
3464.000000	62.842679 
3463.000000	62.862563 
3462.000000	62.888622 
3461.000000	62.915587 
3460.000000	62.939119 
3459.000000	62.956714 
3458.000000	62.967729 
3457.000000	62.973403 
3456.000000	62.975645 
3455.000000	62.976574 
3454.000000	62.977719 
3453.000000	62.979578 
3452.000000	62.981724 
3451.000000	62.982869 
3450.000000	62.981772 
3449.000000	62.977552 
3448.000000	62.970137 
3447.000000	62.960314 
3446.000000	62.949466 
3445.000000	62.939739 
3444.000000	62.933659 
3443.000000	62.933588 
3442.000000	62.941145 
3441.000000	62.957143 
3440.000000	62.981319 
3439.000000	63.012290 
3438.000000	63.047742 
3437.000000	63.084626 
3436.000000	63.119816 
3435.000000	63.150501 
3434.000000	63.174724 
3433.000000	63.191580 
3432.000000	63.201284 
3431.000000	63.205218 
3430.000000	63.205337 
3429.000000	63.203978 
3428.000000	63.202476 
3427.000000	63.201975 
3426.000000	63.201880 
3425.000000	63.201022 
3424.000000	63.196992 
3423.000000	63.187575 
3422.000000	63.170409 
3421.000000	63.143897 
3420.000000	63.107395 
3419.000000	63.061690 
3418.000000	63.008832 
3417.000000	62.952160 
3416.000000	62.895727 
3415.000000	62.843585 
3414.000000	62.798976 
3413.000000	62.763977 
3412.000000	62.738823 
3411.000000	62.722611 
3410.000000	62.713170 
3409.000000	62.708306 
3408.000000	62.705850 
3407.000000	62.704873 
3406.000000	62.705492 
3405.000000	62.709045 
3404.000000	62.716746 
3403.000000	62.730002 
3402.000000	62.749266 
3401.000000	62.774085 
3400.000000	62.802767 
3399.000000	62.832903 
3398.000000	62.861967 
3397.000000	62.887597 
3396.000000	62.908387 
3395.000000	62.923526 
3394.000000	62.932801 
3393.000000	62.936377 
3392.000000	62.934494 
3391.000000	62.927913 
3390.000000	62.917733 
3389.000000	62.905693 
3388.000000	62.894272 
3387.000000	62.885999 
3386.000000	62.883472 
3385.000000	62.888503 
3384.000000	62.901949 
3383.000000	62.922835 
3382.000000	62.948727 
3381.000000	62.976050 
3380.000000	63.000845 
3379.000000	63.019251 
3378.000000	63.028597 
3377.000000	63.027787 
3376.000000	63.017702 
3375.000000	63.000679 
3374.000000	62.980198 
3373.000000	62.960004 
3372.000000	62.943267 
3371.000000	62.932085 
3370.000000	62.926745 
3369.000000	62.926054 
3368.000000	62.927365 
3367.000000	62.927293 
3366.000000	62.922477 
3365.000000	62.910318 
3364.000000	62.889933 
3363.000000	62.862586 
3362.000000	62.831473 
3361.000000	62.800860 
3360.000000	62.775230 
3359.000000	62.758231 
3358.000000	62.751483 
3357.000000	62.754654 
3356.000000	62.765502 
3355.000000	62.780904 
3354.000000	62.797546 
3353.000000	62.813162 
3352.000000	62.826919 
3351.000000	62.839603 
3350.000000	62.852978 
3349.000000	62.868881 
3348.000000	62.888693 
3347.000000	62.912011 
3346.000000	62.936973 
3345.000000	62.960076 
3344.000000	62.977170 
3343.000000	62.984228 
3342.000000	62.978744 
3341.000000	62.959861 
3340.000000	62.928605 
3339.000000	62.887692 
3338.000000	62.841057 
3337.000000	62.793111 
3336.000000	62.747883 
3335.000000	62.708711 
3334.000000	62.677717 
3333.000000	62.655544 
3332.000000	62.641549 
3331.000000	62.633872 
3330.000000	62.630081 
3329.000000	62.627339 
3328.000000	62.623190 
3327.000000	62.615656 
3326.000000	62.603998 
3325.000000	62.588047 
3324.000000	62.568950 
3323.000000	62.548398 
3322.000000	62.528824 
3321.000000	62.512874 
3320.000000	62.503004 
3319.000000	62.501120 
3318.000000	62.507963 
3317.000000	62.523269 
3316.000000	62.545251 
3315.000000	62.571120 
3314.000000	62.597227 
3313.000000	62.619876 
3312.000000	62.635970 
3311.000000	62.643432 
3310.000000	62.641882 
3309.000000	62.632369 
3308.000000	62.617397 
3307.000000	62.600302 
3306.000000	62.584161 
3305.000000	62.571310 
3304.000000	62.563014 
3303.000000	62.559533 
3302.000000	62.560367 
3301.000000	62.564706 
3300.000000	62.572073 
3299.000000	62.582254 
3298.000000	62.595582 
3297.000000	62.612295 
3296.000000	62.632107 
3295.000000	62.653994 
3294.000000	62.675857 
3293.000000	62.694931 
3292.000000	62.708187 
3291.000000	62.713074 
3290.000000	62.708067 
3289.000000	62.693309 
3288.000000	62.670612 
3287.000000	62.643456 
3286.000000	62.616252 
3285.000000	62.593531 
3284.000000	62.579083 
3283.000000	62.575364 
3282.000000	62.582850 
3281.000000	62.600255 
3280.000000	62.624645 
3279.000000	62.651824 
3278.000000	62.677145 
3277.000000	62.696409 
3276.000000	62.706398 
3275.000000	62.705302 
3274.000000	62.693023 
3273.000000	62.671113 
3272.000000	62.642145 
3271.000000	62.609434 
3270.000000	62.576150 
3269.000000	62.544989 
3268.000000	62.517690 
3267.000000	62.495112 
3266.000000	62.477040 
3265.000000	62.462544 
3264.000000	62.450242 
3263.000000	62.438893 
3262.000000	62.427449 
3261.000000	62.415075 
3260.000000	62.401676 
3259.000000	62.387657 
3258.000000	62.374043 
3257.000000	62.362122 
3256.000000	62.353539 
3255.000000	62.349820 
3254.000000	62.352085 
3253.000000	62.361025 
3252.000000	62.376189 
3251.000000	62.396073 
3250.000000	62.418103 
3249.000000	62.439084 
3248.000000	62.455368 
3247.000000	62.463903 
3246.000000	62.462711 
3245.000000	62.451505 
3244.000000	62.431693 
3243.000000	62.406158 
3242.000000	62.379002 
3241.000000	62.354159 
3240.000000	62.334942 
3239.000000	62.322950 
3238.000000	62.318325 
3237.000000	62.319469 
3236.000000	62.323665 
3235.000000	62.327957 
3234.000000	62.329888 
3233.000000	62.328290 
3232.000000	62.323427 
3231.000000	62.316846 
3230.000000	62.310743 
3229.000000	62.307167 
3228.000000	62.307548 
3227.000000	62.312221 
3226.000000	62.320303 
3225.000000	62.330317 
3224.000000	62.340807 
3223.000000	62.350630 
3222.000000	62.359499 
3221.000000	62.367892 
3220.000000	62.376832 
3219.000000	62.387180 
3218.000000	62.399268 
3217.000000	62.412786 
3216.000000	62.426614 
3215.000000	62.439250 
3214.000000	62.448954 
3213.000000	62.454605 
3212.000000	62.455487 
3211.000000	62.451863 
3210.000000	62.444591 
3209.000000	62.434649 
3208.000000	62.422990 
3207.000000	62.410378 
3206.000000	62.397146 
3205.000000	62.383556 
3204.000000	62.369608 
3203.000000	62.355184 
3202.000000	62.340092 
3201.000000	62.323951 
3200.000000	62.306237 
3199.000000	62.286400 
3198.000000	62.263965 
3197.000000	62.239074 
3196.000000	62.212634 
3195.000000	62.186455 
3194.000000	62.162804 
3193.000000	62.144088 
3192.000000	62.132239 
3191.000000	62.128138 
3190.000000	62.131237 
3189.000000	62.139725 
3188.000000	62.150740 
3187.000000	62.161231 
3186.000000	62.168693 
3185.000000	62.171554 
3184.000000	62.169718 
3183.000000	62.163972 
3182.000000	62.155580 
3181.000000	62.145733 
3180.000000	62.134766 
3179.000000	62.122321 
3178.000000	62.107324 
3177.000000	62.088871 
3176.000000	62.066721 
3175.000000	62.041974 
3174.000000	62.017273 
3173.000000	61.996293 
3172.000000	61.982989 
3171.000000	61.980485 
3170.000000	61.990261 
3169.000000	62.011575 
3168.000000	62.041783 
3167.000000	62.076783 
3166.000000	62.112140 
3165.000000	62.144064 
3164.000000	62.170171 
3163.000000	62.189459 
3162.000000	62.202405 
3161.000000	62.210154 
3160.000000	62.214279 
3159.000000	62.216091 
3158.000000	62.216544 
3157.000000	62.216377 
3156.000000	62.215757 
3155.000000	62.215018 
3154.000000	62.214016 
3153.000000	62.212872 
3152.000000	62.210774 
3151.000000	62.206435 
3150.000000	62.197971 
3149.000000	62.183594 
3148.000000	62.162089 
3147.000000	62.133526 
3146.000000	62.099575 
3145.000000	62.063479 
3144.000000	62.029552 
3143.000000	62.002134 
3142.000000	61.984276 
3141.000000	61.977148 
3140.000000	61.979866 
3139.000000	61.989736 
3138.000000	62.002754 
3137.000000	62.014865 
3136.000000	62.022924 
3135.000000	62.025451 
3134.000000	62.022352 
3133.000000	62.015366 
3132.000000	62.007045 
3131.000000	62.000608 
3130.000000	61.998558 
3129.000000	62.002849 
3128.000000	62.014389 
3127.000000	62.033367 
3126.000000	62.059283 
3125.000000	62.091016 
3124.000000	62.127089 
3123.000000	62.165474 
3122.000000	62.203574 
3121.000000	62.238454 
3120.000000	62.267017 
3119.000000	62.286281 
3118.000000	62.293791 
3117.000000	62.288022 
3116.000000	62.268781 
3115.000000	62.237262 
3114.000000	62.195944 
3113.000000	62.148690 
3112.000000	62.099719 
3111.000000	62.053680 
3110.000000	62.014555 
3109.000000	61.985206 
3108.000000	61.967062 
3107.000000	61.960124 
3106.000000	61.963248 
3105.000000	61.974382 
3104.000000	61.991286 
3103.000000	62.011313 
3102.000000	62.032103 
3101.000000	62.051391 
3100.000000	62.067246 
3099.000000	62.077903 
3098.000000	62.082099 
3097.000000	62.079000 
3096.000000	62.068581 
3095.000000	62.051558 
3094.000000	62.029290 
3093.000000	62.003731 
3092.000000	61.976885 
3091.000000	61.950516 
3090.000000	61.925625 
3089.000000	61.902618 
3088.000000	61.881327 
3087.000000	61.861443 
3086.000000	61.842966 
3085.000000	61.826920 
3084.000000	61.814999 
3083.000000	61.809587 
3082.000000	61.812615 
3081.000000	61.825275 
3080.000000	61.847019 
3079.000000	61.875844 
3078.000000	61.907911 
3077.000000	61.938810 
3076.000000	61.964249 
3075.000000	61.981153 
3074.000000	61.988377 
3073.000000	61.986875 
3072.000000	61.979126 
3071.000000	61.968636 
3070.000000	61.958956 
3069.000000	61.952519 
3068.000000	61.950325 
3067.000000	61.951804 
3066.000000	61.955404 
3065.000000	61.959075 
3064.000000	61.961126 
3063.000000	61.960530 
3062.000000	61.957216 
3061.000000	61.952066 
3060.000000	61.946582 
3059.000000	61.942410 
3058.000000	61.940860 
3057.000000	61.942887 
3056.000000	61.948776 
3055.000000	61.958074 
3054.000000	61.969590 
3053.000000	61.981940 
3052.000000	61.993455 
3051.000000	62.002635 
3050.000000	62.008047 
3049.000000	62.008833 
3048.000000	62.004446 
3047.000000	61.994862 
3046.000000	61.980438 
3045.000000	61.961841 
3044.000000	61.939859 
3043.000000	61.915397 
3042.000000	61.889386 
3041.000000	61.862707 
3040.000000	61.836361 
3039.000000	61.811494 
3038.000000	61.789417 
3037.000000	61.771488 
3036.000000	61.759090 
3035.000000	61.753463 
3034.000000	61.755132 
3033.000000	61.763834 
3032.000000	61.778450 
3031.000000	61.797142 
3030.000000	61.817431 
3029.000000	61.836838 
3028.000000	61.853098 
3027.000000	61.864948 
3026.000000	61.871767 
3025.000000	61.874079 
3024.000000	61.873102 
3023.000000	61.870265 
3022.000000	61.866998 
3021.000000	61.864519 
3020.000000	61.863517 
3019.000000	61.864304 
3018.000000	61.866998 
3017.000000	61.871314 
3016.000000	61.876869 
3015.000000	61.883068 
3014.000000	61.889100 
3013.000000	61.893725 
3012.000000	61.895370 
3011.000000	61.892366 
3010.000000	61.883163 
3009.000000	61.866807 
3008.000000	61.843180 
3007.000000	61.813426 
3006.000000	61.779856 
3005.000000	61.745595 
3004.000000	61.713981 
3003.000000	61.687850 
3002.000000	61.669015 
3001.000000	61.657929 
3000.000000	61.653590 
2999.000000	61.653852 
2998.000000	61.656045 
2997.000000	61.657691 
2996.000000	61.657190 
2995.000000	61.653804 
2994.000000	61.648082 
2993.000000	61.641430 
2992.000000	61.635684 
2991.000000	61.632227 
2990.000000	61.631965 
2989.000000	61.634516 
2988.000000	61.638855 
2987.000000	61.643266 
2986.000000	61.645889 
2985.000000	61.645388 
2984.000000	61.641097 
2983.000000	61.633157 
2982.000000	61.622238 
2981.000000	61.609315 
2980.000000	61.595368 
2979.000000	61.580991 
2978.000000	61.566567 
2977.000000	61.552190 
2976.000000	61.538052 
2975.000000	61.524677 
2974.000000	61.512804 
2973.000000	61.503219 
2972.000000	61.497020 
2971.000000	61.494874 
2970.000000	61.496496 
2969.000000	61.501026 
2968.000000	61.506938 
2967.000000	61.512565 
2966.000000	61.516427 
2965.000000	61.517572 
2964.000000	61.515927 
2963.000000	61.511898 
2962.000000	61.506152 
2961.000000	61.499166 
2960.000000	61.490917 
2959.000000	61.481118 
2958.000000	61.469316 
2957.000000	61.455249 
2956.000000	61.439204 
2955.000000	61.422085 
2954.000000	61.405777 
2953.000000	61.392259 
2952.000000	61.383652 
2951.000000	61.381578 
2950.000000	61.387062 
2949.000000	61.400246 
2948.000000	61.420559 
2947.000000	61.447000 
2946.000000	61.478376 
2945.000000	61.513566 
2944.000000	61.551117 
2943.000000	61.589479 
2942.000000	61.626625 
2941.000000	61.660146 
2940.000000	61.687326 
2939.000000	61.705756 
2938.000000	61.713552 
2937.000000	61.710119 
2936.000000	61.695861 
2935.000000	61.672472 
2934.000000	61.642408 
2933.000000	61.608552 
2932.000000	61.573576 
2931.000000	61.539530 
2930.000000	61.507797 
2929.000000	61.479067 
2928.000000	61.453318 
2927.000000	61.430025 
2926.000000	61.408424 
2925.000000	61.387920 
2924.000000	61.368060 
2923.000000	61.348748 
2922.000000	61.330103 
2921.000000	61.312437 
2920.000000	61.296343 
2919.000000	61.282372 
2918.000000	61.270880 
2917.000000	61.261916 
2916.000000	61.255216 
2915.000000	61.250114 
2914.000000	61.245369 
2913.000000	61.239695 
2912.000000	61.232018 
2911.000000	61.222028 
2910.000000	61.209774 
2909.000000	61.196589 
2908.000000	61.184477 
2907.000000	61.175990 
2906.000000	61.173415 
2905.000000	61.178541 
2904.000000	61.191916 
2903.000000	61.212801 
2902.000000	61.239361 
2901.000000	61.268663 
2900.000000	61.297273 
2899.000000	61.322116 
2898.000000	61.340808 
2897.000000	61.351680 
2896.000000	61.354064 
2895.000000	61.348295 
2894.000000	61.335349 
2893.000000	61.316609 
2892.000000	61.293697 
2891.000000	61.268544 
2890.000000	61.243176 
2889.000000	61.219739 
2888.000000	61.200165 
2887.000000	61.186218 
2886.000000	61.178803 
2885.000000	61.177778 
2884.000000	61.181831 
2883.000000	61.188507 
2882.000000	61.194992 
2881.000000	61.198496 
2880.000000	61.197113 
2879.000000	61.190247 
2878.000000	61.178755 
2877.000000	61.164736 
2876.000000	61.151170 
2875.000000	61.141061 
2874.000000	61.136960 
2873.000000	61.140227 
2872.000000	61.150932 
2871.000000	61.167883 
2870.000000	61.188840 
2869.000000	61.210942 
2868.000000	61.231136 
2867.000000	61.246657 
2866.000000	61.255383 
2865.000000	61.256265 
2864.000000	61.249160 
2863.000000	61.235165 
2862.000000	61.216354 
2861.000000	61.195468 
2860.000000	61.175751 
2859.000000	61.159920 
2858.000000	61.149787 
2857.000000	61.145806 
2856.000000	61.147284 
2855.000000	61.152720 
2854.000000	61.160349 
2853.000000	61.168837 
2852.000000	61.177659 
2851.000000	61.187267 
2850.000000	61.198806 
2849.000000	61.213445 
2848.000000	61.231851 
2847.000000	61.253738 
2846.000000	61.277651 
2845.000000	61.301112 
2844.000000	61.321115 
2843.000000	61.334753 
2842.000000	61.339807 
2841.000000	61.335325 
2840.000000	61.321830 
2839.000000	61.301136 
2838.000000	61.275887 
2837.000000	61.249065 
2836.000000	61.223459 
2835.000000	61.201119 
2834.000000	61.183357 
2833.000000	61.170721 
2832.000000	61.162972 
2831.000000	61.159586 
2830.000000	61.159753 
2829.000000	61.162734 
2828.000000	61.167907 
2827.000000	61.174702 
2826.000000	61.182641 
2825.000000	61.191177 
2824.000000	61.199831 
2823.000000	61.208057 
2822.000000	61.215519 
2821.000000	61.221814 
2820.000000	61.226606 
2819.000000	61.229658 
2818.000000	61.230659 
2817.000000	61.229276 
2816.000000	61.225390 
2815.000000	61.218953 
2814.000000	61.210131 
2813.000000	61.199450 
2812.000000	61.187577 
2811.000000	61.175394 
2810.000000	61.163926 
2809.000000	61.154150 
2808.000000	61.147117 
2807.000000	61.143517 
2806.000000	61.144018 
2805.000000	61.148500 
2804.000000	61.156177 
2803.000000	61.165404 
2802.000000	61.173987 
2801.000000	61.179542 
2800.000000	61.180114 
2799.000000	61.174535 
2798.000000	61.162686 
2797.000000	61.145687 
2796.000000	61.125636 
2795.000000	61.105084 
2794.000000	61.086440 
2793.000000	61.071705 
2792.000000	61.062097 
2791.000000	61.057972 
2790.000000	61.058592 
2789.000000	61.062622 
2788.000000	61.068272 
2787.000000	61.073637 
2786.000000	61.077213 
2785.000000	61.077928 
2784.000000	61.075425 
2783.000000	61.069703 
2782.000000	61.061358 
2781.000000	61.051034 
2780.000000	61.039352 
2779.000000	61.026763 
2778.000000	61.013627 
2777.000000	61.000061 
2776.000000	60.986208 
2775.000000	60.972189 
2774.000000	60.958266 
2773.000000	60.944771 
2772.000000	60.932183 
2771.000000	60.920929 
2770.000000	60.911250 
2769.000000	60.903072 
2768.000000	60.896182 
2767.000000	60.890197 
2766.000000	60.884857 
2765.000000	60.880160 
2764.000000	60.876441 
2763.000000	60.874342 
2762.000000	60.874557 
2761.000000	60.877561 
2760.000000	60.883426 
2759.000000	60.891699 
2758.000000	60.901474 
2757.000000	60.911679 
2756.000000	60.921096 
2755.000000	60.928702 
2754.000000	60.933732 
2753.000000	60.935688 
2752.000000	60.934281 
2751.000000	60.929512 
2750.000000	60.921525 
2749.000000	60.910701 
2748.000000	60.897684 
2747.000000	60.883402 
2746.000000	60.869121 
2745.000000	60.856294 
2744.000000	60.846352 
2743.000000	60.840368 
2742.000000	60.838937 
2741.000000	60.841727 
2740.000000	60.847830 
2739.000000	60.855674 
2738.000000	60.863637 
2737.000000	60.870265 
2736.000000	60.874795 
2735.000000	60.877060 
2734.000000	60.877537 
2733.000000	60.877180 
2732.000000	60.877180 
2731.000000	60.878610 
2730.000000	60.882186 
2729.000000	60.888242 
2728.000000	60.896348 
2727.000000	60.905766 
2726.000000	60.915088 
2725.000000	60.922980 
2724.000000	60.928034 
2723.000000	60.929226 
2722.000000	60.925793 
2721.000000	60.917353 
2720.000000	60.903930 
2719.000000	60.885953 
2718.000000	60.864090 
2717.000000	60.839295 
2716.000000	60.812830 
2715.000000	60.786414 
2714.000000	60.762000 
2713.000000	60.741901 
2712.000000	60.728430 
2711.000000	60.723686 
2710.000000	60.729026 
2709.000000	60.744786 
2708.000000	60.769939 
2707.000000	60.802197 
2706.000000	60.838127 
2705.000000	60.873937 
2704.000000	60.906004 
2703.000000	60.931634 
2702.000000	60.949492 
2701.000000	60.959434 
2700.000000	60.962438 
2699.000000	60.959887 
2698.000000	60.953283 
2697.000000	60.943484 
2696.000000	60.930895 
2695.000000	60.915136 
2694.000000	60.895872 
2693.000000	60.872840 
2692.000000	60.846352 
2691.000000	60.817337 
2690.000000	60.787343 
2689.000000	60.758066 
2688.000000	60.731077 
2687.000000	60.707211 
2686.000000	60.686707 
2685.000000	60.669112 
2684.000000	60.653519 
2683.000000	60.639071 
2682.000000	60.625219 
2681.000000	60.611891 
2680.000000	60.599589 
2679.000000	60.588812 
2678.000000	60.580015 
2677.000000	60.573220 
2676.000000	60.568046 
2675.000000	60.563349 
2674.000000	60.557913 
2673.000000	60.550689 
2672.000000	60.541391 
2671.000000	60.530161 
2670.000000	60.518169 
2669.000000	60.507321 
2668.000000	60.499787 
2667.000000	60.497379 
2666.000000	60.501074 
2665.000000	60.510826 
2664.000000	60.525536 
2663.000000	60.543322 
2662.000000	60.561871 
2661.000000	60.578942 
2660.000000	60.592913 
2659.000000	60.603022 
2658.000000	60.609292 
2657.000000	60.612154 
2656.000000	60.612440 
2655.000000	60.610985 
2654.000000	60.608243 
2653.000000	60.604095 
2652.000000	60.598540 
2651.000000	60.591101 
2650.000000	60.581588 
2649.000000	60.569787 
2648.000000	60.555791 
2647.000000	60.539746 
2646.000000	60.521650 
2645.000000	60.501503 
2644.000000	60.478925 
2643.000000	60.453653 
2642.000000	60.425639 
2641.000000	60.395240 
2640.000000	60.363507 
2639.000000	60.332107 
2638.000000	60.303092 
2637.000000	60.278749 
2636.000000	60.261011 
2635.000000	60.251355 
2634.000000	60.250473 
2633.000000	60.258388 
2632.000000	60.274147 
2631.000000	60.296630 
2630.000000	60.324335 
2629.000000	60.355567 
2628.000000	60.388422 
2627.000000	60.420775 
2626.000000	60.450315 
2625.000000	60.474753 
2624.000000	60.491633 
2623.000000	60.498976 
2622.000000	60.495734 
2621.000000	60.481953 
2620.000000	60.459065 
2619.000000	60.429906 
2618.000000	60.398030 
2617.000000	60.367393 
2616.000000	60.341429 
2615.000000	60.322499 
2614.000000	60.311412 
2613.000000	60.307574 
2612.000000	60.309123 
2611.000000	60.313439 
2610.000000	60.318064 
2609.000000	60.321092 
2608.000000	60.321521 
2607.000000	60.319304 
2606.000000	60.315203 
2605.000000	60.310363 
2604.000000	60.306000 
2603.000000	60.302996 
2602.000000	60.301804 
2601.000000	60.302543 
2600.000000	60.305047 
2599.000000	60.309100 
2598.000000	60.314345 
2597.000000	60.320234 
2596.000000	60.326194 
2595.000000	60.331511 
2594.000000	60.334849 
2593.000000	60.335063 
2592.000000	60.331130 
2591.000000	60.322499 
2590.000000	60.309529 
2589.000000	60.293292 
2588.000000	60.275673 
2587.000000	60.258722 
2586.000000	60.244560 
2585.000000	60.234689 
2584.000000	60.229539 
2583.000000	60.228729 
2582.000000	60.230875 
2581.000000	60.234284 
2580.000000	60.237360 
2579.000000	60.239052 
2578.000000	60.239028 
2577.000000	60.237646 
2576.000000	60.235786 
2575.000000	60.234379 
2574.000000	60.233783 
2573.000000	60.233831 
2572.000000	60.233497 
2571.000000	60.231256 
2570.000000	60.225367 
2569.000000	60.214400 
2568.000000	60.197663 
2567.000000	60.175538 
2566.000000	60.149693 
2565.000000	60.122847 
2564.000000	60.098505 
2563.000000	60.080218 
2562.000000	60.070633 
2561.000000	60.071134 
2560.000000	60.081219 
2559.000000	60.098671 
2558.000000	60.119867 
2557.000000	60.140419 
2556.000000	60.156178 
2555.000000	60.164046 
2554.000000	60.162734 
2553.000000	60.152840 
2552.000000	60.136628 
2551.000000	60.117411 
2550.000000	60.098814 
2549.000000	60.083818 
2548.000000	60.074281 
2547.000000	60.070490 
2546.000000	60.071468 
2545.000000	60.075449 
2544.000000	60.080409 
2543.000000	60.084867 
2542.000000	60.087871 
2541.000000	60.089230 
2540.000000	60.089516 
2539.000000	60.089659 
2538.000000	60.090565 
2537.000000	60.092854 
2536.000000	60.096979 
2535.000000	60.102748 
2534.000000	60.109591 
2533.000000	60.116505 
2532.000000	60.122585 
2531.000000	60.126948 
2530.000000	60.128903 
2529.000000	60.127997 
2528.000000	60.123944 
2527.000000	60.116600 
2526.000000	60.106039 
2525.000000	60.092329 
2524.000000	60.075592 
2523.000000	60.056209 
2522.000000	60.034871 
2521.000000	60.012507 
2520.000000	59.990549 
2519.000000	59.970617 
2518.000000	59.954500 
2517.000000	59.943771 
2516.000000	59.939622 
2515.000000	59.942603 
2514.000000	59.952592 
2513.000000	59.968709 
2512.000000	59.989428 
2511.000000	60.012936 
2510.000000	60.037207 
2509.000000	60.060453 
2508.000000	60.080933 
2507.000000	60.096859 
2506.000000	60.106492 
2505.000000	60.108494 
2504.000000	60.101699 
2503.000000	60.085630 
2502.000000	60.060691 
2501.000000	60.028314 
2500.000000	59.990668 
2499.000000	59.950590 
2498.000000	59.910964 
2497.000000	59.874248 
2496.000000	59.841990 
2495.000000	59.814572 
2494.000000	59.791064 
2493.000000	59.769845 
2492.000000	59.748673 
2491.000000	59.725666 
2490.000000	59.699511 
2489.000000	59.670615 
2488.000000	59.640502 
2487.000000	59.612345 
2486.000000	59.589624 
2485.000000	59.576106 
2484.000000	59.574437 
2483.000000	59.585785 
2482.000000	59.609365 
2481.000000	59.642338 
2480.000000	59.680461 
2479.000000	59.718799 
2478.000000	59.752416 
2477.000000	59.777688 
2476.000000	59.792590 
2475.000000	59.796929 
2474.000000	59.792304 
2473.000000	59.781336 
2472.000000	59.766912 
2471.000000	59.751749 
2470.000000	59.737730 
2469.000000	59.725856 
2468.000000	59.716272 
2467.000000	59.708929 
2466.000000	59.703445 
2465.000000	59.699487 
2464.000000	59.696745 
2463.000000	59.694814 
2462.000000	59.693455 
2461.000000	59.692001 
2460.000000	59.690070 
2459.000000	59.687113 
2458.000000	59.683084 
2457.000000	59.678268 
2456.000000	59.673643 
2455.000000	59.670472 
2454.000000	59.670329 
2453.000000	59.674859 
2452.000000	59.685182 
2451.000000	59.701442 
2450.000000	59.722995 
2449.000000	59.748458 
2448.000000	59.775710 
2447.000000	59.802269 
2446.000000	59.826040 
2445.000000	59.845614 
2444.000000	59.860134 
2443.000000	59.869265 
2442.000000	59.872889 
2441.000000	59.871125 
2440.000000	59.863972 
2439.000000	59.851384 
2438.000000	59.833788 
2437.000000	59.812068 
2436.000000	59.788084 
2435.000000	59.764337 
2434.000000	59.743905 
2433.000000	59.729599 
2432.000000	59.723353 
2431.000000	59.725189 
2430.000000	59.733104 
2429.000000	59.743261 
2428.000000	59.750509 
2427.000000	59.750103 
2426.000000	59.738636 
2425.000000	59.715151 
2424.000000	59.681534 
2423.000000	59.641718 
2422.000000	59.600591 
2421.000000	59.562778 
2420.000000	59.531450 
2419.000000	59.507751 
2418.000000	59.490919 
2417.000000	59.478735 
2416.000000	59.468388 
2415.000000	59.457421 
2414.000000	59.444236 
2413.000000	59.428048 
2412.000000	59.408998 
2411.000000	59.387588 
2410.000000	59.364700 
2409.000000	59.341025 
2408.000000	59.317588 
2407.000000	59.295320 
2406.000000	59.275650 
2405.000000	59.260368 
2404.000000	59.251427 
2403.000000	59.250164 
2402.000000	59.257149 
2401.000000	59.271621 
2400.000000	59.292006 
2399.000000	59.315943 
2398.000000	59.341144 
2397.000000	59.365701 
2396.000000	59.388542 
2395.000000	59.409284 
2394.000000	59.428000 
2393.000000	59.444832 
2392.000000	59.459376 
2391.000000	59.470701 
2390.000000	59.477376 
2389.000000	59.478068 
2388.000000	59.471774 
2387.000000	59.458327 
2386.000000	59.439086 
2385.000000	59.416723 
2384.000000	59.394741 
2383.000000	59.376859 
2382.000000	59.366154 
2381.000000	59.364557 
2380.000000	59.372258 
2379.000000	59.387636 
2378.000000	59.408020 
2377.000000	59.429883 
2376.000000	59.449672 
2375.000000	59.464597 
2374.000000	59.472870 
2373.000000	59.473967 
2372.000000	59.468555 
2371.000000	59.458231 
2370.000000	59.445023 
2369.000000	59.430742 
2368.000000	59.416842 
2367.000000	59.404110 
2366.000000	59.392571 
2365.000000	59.381651 
2364.000000	59.370684 
2363.000000	59.358859 
2362.000000	59.345722 
2361.000000	59.331130 
2360.000000	59.315562 
2359.000000	59.299826 
2358.000000	59.284949 
2357.000000	59.272074 
2356.000000	59.262228 
2355.000000	59.256052 
2354.000000	59.253668 
2353.000000	59.254741 
2352.000000	59.258341 
2351.000000	59.263062 
2350.000000	59.267210 
2349.000000	59.269189 
2348.000000	59.267830 
2347.000000	59.262347 
2346.000000	59.252977 
2345.000000	59.240722 
2344.000000	59.227490 
2343.000000	59.215307 
2342.000000	59.206104 
2341.000000	59.201383 
2340.000000	59.201526 
2339.000000	59.205913 
2338.000000	59.212779 
2337.000000	59.219622 
2336.000000	59.223914 
2335.000000	59.223580 
2334.000000	59.217429 
2333.000000	59.205317 
2332.000000	59.188508 
2331.000000	59.168863 
2330.000000	59.148764 
2329.000000	59.130072 
2328.000000	59.114170 
2327.000000	59.101128 
2326.000000	59.090185 
2325.000000	59.079575 
2324.000000	59.067320 
2323.000000	59.051775 
2322.000000	59.031820 
2321.000000	59.007406 
2320.000000	58.979630 
2319.000000	58.950448 
2318.000000	58.922219 
2317.000000	58.897447 
2316.000000	58.878111 
2315.000000	58.865594 
2314.000000	58.860182 
2313.000000	58.861327 
2312.000000	58.867835 
2311.000000	58.878278 
2310.000000	58.891010 
2309.000000	58.904719 
2308.000000	58.918380 
2307.000000	58.931207 
2306.000000	58.942604 
2305.000000	58.951854 
2304.000000	58.958268 
2303.000000	58.961009 
2302.000000	58.959364 
2301.000000	58.952832 
2300.000000	58.941459 
2299.000000	58.925771 
2298.000000	58.907008 
2297.000000	58.886957 
2296.000000	58.867788 
2295.000000	58.851814 
2294.000000	58.841037 
2293.000000	58.836936 
2292.000000	58.839845 
2291.000000	58.849239 
2290.000000	58.863329 
2289.000000	58.879685 
2288.000000	58.895516 
2287.000000	58.908224 
2286.000000	58.916115 
2285.000000	58.918404 
2284.000000	58.915615 
2283.000000	58.909130 
2282.000000	58.901047 
2281.000000	58.893442 
2280.000000	58.888053 
2279.000000	58.885693 
2278.000000	58.886241 
2277.000000	58.888792 
2276.000000	58.892250 
2275.000000	58.895468 
2274.000000	58.897686 
2273.000000	58.898377 
2272.000000	58.897423 
2271.000000	58.894896 
2270.000000	58.890700 
2269.000000	58.884644 
2268.000000	58.876371 
2267.000000	58.865451 
2266.000000	58.851838 
2265.000000	58.835721 
2264.000000	58.817434 
2263.000000	58.797574 
2262.000000	58.776831 
2261.000000	58.755946 
2260.000000	58.735632 
2259.000000	58.716845 
2258.000000	58.700513 
2257.000000	58.687877 
2256.000000	58.680415 
2255.000000	58.679461 
2254.000000	58.685779 
2253.000000	58.699059 
2252.000000	58.717823 
2251.000000	58.739233 
2250.000000	58.759593 
2249.000000	58.774805 
2248.000000	58.781313 
2247.000000	58.776998 
2246.000000	58.761453 
2245.000000	58.736228 
2244.000000	58.704519 
2243.000000	58.670210 
2242.000000	58.637452 
2241.000000	58.609771 
2240.000000	58.589410 
2239.000000	58.577442 
2238.000000	58.573341 
2237.000000	58.575558 
2236.000000	58.581972 
2235.000000	58.590340 
2234.000000	58.598542 
2233.000000	58.604907 
2232.000000	58.608365 
2231.000000	58.608412 
2230.000000	58.605122 
2229.000000	58.598995 
2228.000000	58.590984 
2227.000000	58.582329 
2226.000000	58.574390 
2225.000000	58.568406 
2224.000000	58.565449 
2223.000000	58.565998 
2222.000000	58.570051 
2221.000000	58.576917 
2220.000000	58.585309 
2219.000000	58.593654 
2218.000000	58.600187 
2217.000000	58.603787 
2216.000000	58.603477 
2215.000000	58.599281 
2214.000000	58.592104 
2213.000000	58.583426 
2212.000000	58.575248 
2211.000000	58.569407 
2210.000000	58.567285 
2209.000000	58.569216 
2208.000000	58.574724 
2207.000000	58.582162 
2206.000000	58.589458 
2205.000000	58.594346 
2204.000000	58.594918 
2203.000000	58.590292 
2202.000000	58.580660 
2201.000000	58.567237 
2200.000000	58.551907 
2199.000000	58.536958 
2198.000000	58.524322 
2197.000000	58.515143 
2196.000000	58.509421 
2195.000000	58.506035 
2194.000000	58.503079 
2193.000000	58.498167 
2192.000000	58.489370 
2191.000000	58.475589 
2190.000000	58.457088 
2189.000000	58.435249 
2188.000000	58.412432 
2187.000000	58.391284 
2186.000000	58.374142 
2185.000000	58.362174 
2184.000000	58.355617 
2183.000000	58.353614 
2182.000000	58.354568 
2181.000000	58.356571 
2180.000000	58.357834 
2179.000000	58.357071 
2178.000000	58.353519 
2177.000000	58.346939 
2176.000000	58.337712 
2175.000000	58.326339 
2174.000000	58.313488 
2173.000000	58.299827 
2172.000000	58.286166 
2171.000000	58.273434 
2170.000000	58.262872 
2169.000000	58.255743 
2168.000000	58.253240 
2167.000000	58.256220 
2166.000000	58.265042 
2165.000000	58.279228 
2164.000000	58.297562 
2163.000000	58.317756 
2162.000000	58.337306 
2161.000000	58.352994 
2160.000000	58.361530 
2159.000000	58.359885 
2158.000000	58.346128 
2157.000000	58.319735 
2156.000000	58.282041 
2155.000000	58.236217 
2154.000000	58.186769 
2153.000000	58.138775 
2152.000000	58.096742 
2151.000000	58.063817 
2150.000000	58.041191 
2149.000000	58.028244 
2148.000000	58.022952 
2147.000000	58.022546 
2146.000000	58.024597 
2145.000000	58.027434 
2144.000000	58.030462 
2143.000000	58.033967 
2142.000000	58.038640 
2141.000000	58.044862 
2140.000000	58.052682 
2139.000000	58.061122 
2138.000000	58.068966 
2137.000000	58.075237 
2136.000000	58.079552 
2135.000000	58.082628 
2134.000000	58.085775 
2133.000000	58.090543 
2132.000000	58.098030 
2131.000000	58.108162 
2130.000000	58.119916 
2129.000000	58.131170 
2128.000000	58.139777 
2127.000000	58.143925 
2126.000000	58.142828 
2125.000000	58.136916 
2124.000000	58.127808 
2123.000000	58.117794 
2122.000000	58.109188 
2121.000000	58.103704 
2120.000000	58.102154 
2119.000000	58.104515 
2118.000000	58.109617 
2117.000000	58.115696 
2116.000000	58.120894 
2115.000000	58.123779 
2114.000000	58.123183 
2113.000000	58.118653 
2112.000000	58.110022 
2111.000000	58.097743 
2110.000000	58.082485 
2109.000000	58.065390 
2108.000000	58.047699 
2107.000000	58.030605 
2106.000000	58.015537 
2105.000000	58.003449 
2104.000000	57.994651 
2103.000000	57.988953 
2102.000000	57.985711 
2101.000000	57.983994 
2100.000000	57.982492 
2099.000000	57.979989 
2098.000000	57.975554 
2097.000000	57.968711 
2096.000000	57.959485 
2095.000000	57.948875 
2094.000000	57.938551 
2093.000000	57.930970 
2092.000000	57.928466 
2091.000000	57.933402 
2090.000000	57.947254 
2089.000000	57.970309 
2088.000000	58.001422 
2087.000000	58.038020 
2086.000000	58.076238 
2085.000000	58.111739 
2084.000000	58.139801 
2083.000000	58.156394 
2082.000000	58.158254 
2081.000000	58.143877 
2080.000000	58.113598 
2079.000000	58.069610 
2078.000000	58.015608 
2077.000000	57.956647 
2076.000000	57.898044 
2075.000000	57.845067 
2074.000000	57.801771 
2073.000000	57.770895 
2072.000000	57.753229 
2071.000000	57.747673 
2070.000000	57.751679 
2069.000000	57.761549 
2068.000000	57.773184 
2067.000000	57.782840 
2066.000000	57.787513 
2065.000000	57.785344 
2064.000000	57.775759 
2063.000000	57.759499 
2062.000000	57.738137 
2061.000000	57.713961 
2060.000000	57.689785 
2059.000000	57.668399 
2058.000000	57.652354 
2057.000000	57.643413 
2056.000000	57.642459 
2055.000000	57.649087 
2054.000000	57.661724 
2053.000000	57.677745 
2052.000000	57.694125 
2051.000000	57.707929 
2050.000000	57.716679 
2049.000000	57.718896 
2048.000000	57.714200 
2047.000000	57.703137 
2046.000000	57.687330 
2045.000000	57.668495 
2044.000000	57.648086 
2043.000000	57.627153 
2042.000000	57.606506 
2041.000000	57.586503 
2040.000000	57.567262 
2039.000000	57.548999 
2038.000000	57.532119 
2037.000000	57.517051 
2036.000000	57.504248 
2035.000000	57.493662 
2034.000000	57.485055 
2033.000000	57.477807 
2032.000000	57.471513 
2031.000000	57.465839 
2030.000000	57.460689 
2029.000000	57.456421 
2028.000000	57.453632 
2027.000000	57.452750 
2026.000000	57.454156 
2025.000000	57.457637 
2024.000000	57.462835 
2023.000000	57.468891 
2022.000000	57.475185 
2021.000000	57.481384 
2020.000000	57.487845 
2019.000000	57.495188 
2018.000000	57.504367 
2017.000000	57.516312 
2016.000000	57.531332 
2015.000000	57.549023 
2014.000000	57.568192 
2013.000000	57.587122 
2012.000000	57.603740 
2011.000000	57.616162 
2010.000000	57.622790 
2009.000000	57.622623 
2008.000000	57.615280 
2007.000000	57.601070 
2006.000000	57.580876 
2005.000000	57.556104 
2004.000000	57.528686 
2003.000000	57.500720 
2002.000000	57.474422 
2001.000000	57.451629 
2000.000000	57.433938 
1999.000000	57.421875 
1998.000000	57.415151 
1997.000000	57.412362 
1996.000000	57.411313 
1995.000000	57.409477 
1994.000000	57.404518 
1993.000000	57.394909 
1992.000000	57.380056 
1991.000000	57.360577 
1990.000000	57.338047 
1989.000000	57.314682 
1988.000000	57.292580 
1987.000000	57.273364 
1986.000000	57.257938 
1985.000000	57.246255 
1984.000000	57.237362 
1983.000000	57.229876 
1982.000000	57.222318 
1981.000000	57.213425 
1980.000000	57.202839 
1979.000000	57.190942 
1978.000000	57.179188 
1977.000000	57.169437 
1976.000000	57.163977 
1975.000000	57.164621 
1974.000000	57.172513 
1973.000000	57.187676 
1972.000000	57.208752 
1971.000000	57.233214 
1970.000000	57.257604 
1969.000000	57.278275 
1968.000000	57.291936 
1967.000000	57.296204 
1966.000000	57.290101 
1965.000000	57.274127 
1964.000000	57.250332 
1963.000000	57.221603 
1962.000000	57.191467 
1961.000000	57.163166 
1960.000000	57.139372 
1959.000000	57.121849 
1958.000000	57.111454 
1957.000000	57.108187 
1956.000000	57.111382 
1955.000000	57.120060 
1954.000000	57.132863 
1953.000000	57.148361 
1952.000000	57.164955 
1951.000000	57.180881 
1950.000000	57.194471 
1949.000000	57.204008 
1948.000000	57.208347 
1947.000000	57.206797 
1946.000000	57.199549 
1945.000000	57.187414 
1944.000000	57.171916 
1943.000000	57.154440 
1942.000000	57.136344 
1941.000000	57.118225 
1940.000000	57.100129 
1939.000000	57.081389 
1938.000000	57.060885 
1937.000000	57.037496 
1936.000000	57.010817 
1935.000000	56.981182 
1934.000000	56.949853 
1933.000000	56.918668 
1932.000000	56.889843 
1931.000000	56.865453 
1930.000000	56.847190 
1929.000000	56.835961 
1928.000000	56.831979 
1927.000000	56.834888 
1926.000000	56.843972 
1925.000000	56.858181 
1924.000000	56.876420 
1923.000000	56.897234 
1922.000000	56.919169 
1921.000000	56.940412 
1920.000000	56.959271 
1919.000000	56.973838 
1918.000000	56.982660 
1917.000000	56.984925 
1916.000000	56.980490 
1915.000000	56.970167 
1914.000000	56.955194 
1913.000000	56.937146 
1912.000000	56.917405 
1911.000000	56.897139 
1910.000000	56.877040 
1909.000000	56.857299 
1908.000000	56.837940 
1907.000000	56.819248 
1906.000000	56.801676 
1905.000000	56.786084 
1904.000000	56.773447 
1903.000000	56.764888 
1902.000000	56.761002 
1901.000000	56.761932 
1900.000000	56.767010 
1899.000000	56.774854 
1898.000000	56.783652 
1897.000000	56.791520 
1896.000000	56.796669 
1895.000000	56.797933 
1894.000000	56.794810 
1893.000000	56.787514 
1892.000000	56.776547 
1891.000000	56.762766 
1890.000000	56.746935 
1889.000000	56.729769 
1888.000000	56.711816 
1887.000000	56.693649 
1886.000000	56.676054 
1885.000000	56.660032 
1884.000000	56.646895 
1883.000000	56.638050 
1882.000000	56.634664 
1881.000000	56.637454 
1880.000000	56.646537 
1879.000000	56.661081 
1878.000000	56.679534 
1877.000000	56.699848 
1876.000000	56.719827 
1875.000000	56.737399 
1874.000000	56.750798 
1873.000000	56.758880 
1872.000000	56.760978 
1871.000000	56.757164 
1870.000000	56.747889 
1869.000000	56.734108 
1868.000000	56.716895 
1867.000000	56.697726 
1866.000000	56.678104 
1865.000000	56.659579 
1864.000000	56.643271 
1863.000000	56.629943 
1862.000000	56.619739 
1861.000000	56.612181 
1860.000000	56.606316 
1859.000000	56.600713 
1858.000000	56.594061 
1857.000000	56.585478 
1856.000000	56.574988 
1855.000000	56.563186 
1854.000000	56.551766 
1853.000000	56.542682 
1852.000000	56.538009 
1851.000000	56.539058 
1850.000000	56.546235 
1849.000000	56.558513 
1848.000000	56.573724 
1847.000000	56.588697 
1846.000000	56.599950 
1845.000000	56.604242 
1844.000000	56.599378 
1843.000000	56.584429 
1842.000000	56.559896 
1841.000000	56.527924 
1840.000000	56.491613 
1839.000000	56.454753 
1838.000000	56.421065 
1837.000000	56.393647 
1836.000000	56.374621 
1835.000000	56.364893 
1834.000000	56.364202 
1833.000000	56.371426 
1832.000000	56.384682 
1831.000000	56.401872 
1830.000000	56.420898 
1829.000000	56.439924 
1828.000000	56.457304 
1827.000000	56.471872 
1826.000000	56.482791 
1825.000000	56.489562 
1824.000000	56.492042 
1823.000000	56.490468 
1822.000000	56.485342 
1821.000000	56.477689 
1820.000000	56.468582 
1819.000000	56.459116 
1818.000000	56.450104 
1817.000000	56.441831 
1816.000000	56.433796 
1815.000000	56.425094 
1814.000000	56.414532 
1813.000000	56.401252 
1812.000000	56.385183 
1811.000000	56.366991 
1810.000000	56.348323 
1809.000000	56.331086 
1808.000000	56.317400 
1807.000000	56.308794 
1806.000000	56.305885 
1805.000000	56.308412 
1804.000000	56.315255 
1803.000000	56.324911 
1802.000000	56.335711 
1801.000000	56.346273 
1800.000000	56.355643 
1799.000000	56.363105 
1798.000000	56.368398 
1797.000000	56.371402 
1796.000000	56.372046 
1795.000000	56.370234 
1794.000000	56.366086 
1793.000000	56.359958 
1792.000000	56.352734 
1791.000000	56.345343 
1790.000000	56.338763 
1789.000000	56.333541 
1788.000000	56.329703 
1787.000000	56.326389 
1786.000000	56.322312 
1785.000000	56.315851 
1784.000000	56.305670 
1783.000000	56.291341 
1782.000000	56.273341 
1781.000000	56.253290 
1780.000000	56.233572 
1779.000000	56.217026 
1778.000000	56.206154 
1777.000000	56.202650 
1776.000000	56.206727 
1775.000000	56.217360 
1774.000000	56.232333 
1773.000000	56.248736 
1772.000000	56.263589 
1771.000000	56.274366 
1770.000000	56.279635 
1769.000000	56.278920 
1768.000000	56.272840 
1767.000000	56.262540 
1766.000000	56.249284 
1765.000000	56.234169 
1764.000000	56.217789 
1763.000000	56.200361 
1762.000000	56.181788 
1761.000000	56.162118 
1760.000000	56.141781 
1759.000000	56.121778 
1758.000000	56.103539 
1757.000000	56.088638 
1756.000000	56.078267 
1755.000000	56.072735 
1754.000000	56.071114 
1753.000000	56.071305 
1752.000000	56.070446 
1751.000000	56.065464 
1750.000000	56.054115 
1749.000000	56.035399 
1748.000000	56.010293 
1747.000000	55.981445 
1746.000000	55.952882 
1745.000000	55.928874 
1744.000000	55.913543 
1743.000000	55.909609 
1742.000000	55.917859 
1741.000000	55.937004 
1740.000000	55.963850 
1739.000000	55.993914 
1738.000000	56.022238 
1737.000000	56.044411 
1736.000000	56.057024 
1735.000000	56.058144 
1734.000000	56.047821 
1733.000000	56.027674 
1732.000000	56.000208 
1731.000000	55.968213 
1730.000000	55.934953 
1729.000000	55.903077 
1728.000000	55.874848 
1727.000000	55.851554 
1726.000000	55.834054 
1725.000000	55.822467 
1724.000000	55.816507 
1723.000000	55.815243 
1722.000000	55.817198 
1721.000000	55.820393 
1720.000000	55.822730 
1719.000000	55.821871 
1718.000000	55.815768 
1717.000000	55.803179 
1716.000000	55.783963 
1715.000000	55.759310 
1714.000000	55.731773 
1713.000000	55.704927 
1712.000000	55.683255 
1711.000000	55.671143 
1710.000000	55.672430 
1709.000000	55.689978 
1708.000000	55.724906 
1707.000000	55.776500 
1706.000000	55.841684 
1705.000000	55.915451 
1704.000000	55.991053 
1703.000000	56.060981 
1702.000000	56.117606 
1701.000000	56.154727 
1700.000000	56.168103 
1699.000000	56.156563 
1698.000000	56.121945 
1697.000000	56.068849 
1696.000000	56.003999 
1695.000000	55.935215 
1694.000000	55.869817 
1693.000000	55.814051 
1692.000000	55.771875 
1691.000000	55.744862 
1690.000000	55.731940 
1689.000000	55.730128 
1688.000000	55.735325 
1687.000000	55.743312 
1686.000000	55.750417 
1685.000000	55.754160 
1684.000000	55.753660 
1683.000000	55.749702 
1682.000000	55.744099 
1681.000000	55.739235 
1680.000000	55.737495 
1679.000000	55.740356 
1678.000000	55.748152 
1677.000000	55.759716 
1676.000000	55.772614 
1675.000000	55.783510 
1674.000000	55.789566 
1673.000000	55.788016 
1672.000000	55.777168 
1671.000000	55.756330 
1670.000000	55.725955 
1669.000000	55.687379 
1668.000000	55.642437 
1667.000000	55.593752 
1666.000000	55.544257 
1665.000000	55.497622 
1664.000000	55.457973 
1663.000000	55.429983 
1662.000000	55.418157 
1661.000000	55.426192 
1660.000000	55.455946 
1659.000000	55.506682 
1658.000000	55.574846 
1657.000000	55.653858 
1656.000000	55.735445 
1655.000000	55.810928 
1654.000000	55.872702 
1653.000000	55.915451 
1652.000000	55.936574 
1651.000000	55.936145 
1650.000000	55.916213 
1649.000000	55.880236 
1648.000000	55.832076 
1647.000000	55.775737 
1646.000000	55.714797 
1645.000000	55.653333 
1644.000000	55.595207 
1643.000000	55.544734 
1642.000000	55.505418 
1641.000000	55.480003 
1640.000000	55.468869 
1639.000000	55.469989 
1638.000000	55.478715 
1637.000000	55.488371 
1636.000000	55.492067 
1635.000000	55.484008 
1634.000000	55.461192 
1633.000000	55.424070 
1632.000000	55.376195 
1631.000000	55.323529 
1630.000000	55.272340 
1629.000000	55.228161 
1628.000000	55.194592 
1627.000000	55.172872 
1626.000000	55.162000 
1625.000000	55.159521 
1624.000000	55.162763 
1623.000000	55.169439 
1622.000000	55.177807 
1621.000000	55.187153 
1620.000000	55.197048 
1619.000000	55.207395 
1618.000000	55.217361 
1617.000000	55.225872 
1616.000000	55.231285 
1615.000000	55.232048 
1614.000000	55.227541 
1613.000000	55.217742 
1612.000000	55.203342 
1611.000000	55.185461 
1610.000000	55.165767 
1609.000000	55.145502 
1608.000000	55.125188 
1607.000000	55.104899 
1606.000000	55.084300 
1605.000000	55.062770 
1604.000000	55.039811 
1603.000000	55.015182 
1602.000000	54.989361 
1601.000000	54.963231 
1600.000000	54.938197 
1599.000000	54.915809 
1598.000000	54.897665 
1597.000000	54.884719 
1596.000000	54.877471 
1595.000000	54.875826 
1594.000000	54.879283 
1593.000000	54.886651 
1592.000000	54.896688 
1591.000000	54.907965 
1590.000000	54.919552 
1589.000000	54.930663 
1588.000000	54.941105 
1587.000000	54.950714 
1586.000000	54.959726 
1585.000000	54.968500 
1584.000000	54.977369 
1583.000000	54.986166 
1582.000000	54.994487 
1581.000000	55.001616 
1580.000000	55.006694 
1579.000000	55.008959 
1578.000000	55.007767 
1577.000000	55.002808 
1576.000000	54.994344 
1575.000000	54.983210 
1574.000000	54.969930 
1573.000000	54.955434 
1572.000000	54.940462 
1571.000000	54.926586 
1570.000000	54.915642 
1569.000000	54.910469 
1568.000000	54.913902 
1567.000000	54.928755 
1566.000000	54.956936 
1565.000000	54.998350 
1564.000000	55.050516 
1563.000000	55.108046 
1562.000000	55.163860 
1561.000000	55.209493 
1560.000000	55.237293 
1559.000000	55.241560 
1558.000000	55.220293 
1557.000000	55.175399 
1556.000000	55.112433 
1555.000000	55.039572 
1554.000000	54.965829 
1553.000000	54.899597 
1552.000000	54.847407 
1551.000000	54.813599 
1550.000000	54.800248 
1549.000000	54.807424 
1548.000000	54.833173 
1547.000000	54.873847 
1546.000000	54.924464 
1545.000000	54.978370 
1544.000000	55.028510 
1543.000000	55.067777 
1542.000000	55.090475 
1541.000000	55.093073 
1540.000000	55.074834 
1539.000000	55.037808 
1538.000000	54.986286 
1537.000000	54.926323 
1536.000000	54.864430 
1535.000000	54.806923 
1534.000000	54.758667 
1533.000000	54.722738 
1532.000000	54.700231 
1531.000000	54.690790 
1530.000000	54.692411 
1529.000000	54.702186 
1528.000000	54.716610 
1527.000000	54.732251 
1526.000000	54.745626 
1525.000000	54.753589 
1524.000000	54.753637 
1523.000000	54.744291 
1522.000000	54.725313 
1521.000000	54.698109 
1520.000000	54.665112 
1519.000000	54.629921 
1518.000000	54.596471 
1517.000000	54.568934 
1516.000000	54.551124 
1515.000000	54.545998 
1514.000000	54.554820 
1513.000000	54.576969 
1512.000000	54.609870 
1511.000000	54.649138 
1510.000000	54.689049 
1509.000000	54.723596 
1508.000000	54.747629 
1507.000000	54.757714 
1506.000000	54.752874 
1505.000000	54.734158 
1504.000000	54.704070 
1503.000000	54.666113 
1502.000000	54.624080 
1501.000000	54.581403 
1500.000000	54.540777 
1499.000000	54.504299 
1498.000000	54.473352 
1497.000000	54.448843 
1496.000000	54.431080 
1495.000000	54.419827 
1494.000000	54.414010 
1493.000000	54.411530 
1492.000000	54.409790 
1491.000000	54.405522 
1490.000000	54.395890 
1489.000000	54.378771 
1488.000000	54.353570 
1487.000000	54.321217 
1486.000000	54.284381 
1485.000000	54.246473 
1484.000000	54.211330 
1483.000000	54.182195 
1482.000000	54.161429 
1481.000000	54.150438 
1480.000000	54.149508 
1479.000000	54.157853 
1478.000000	54.173922 
1477.000000	54.195404 
1476.000000	54.219460 
1475.000000	54.242801 
1474.000000	54.262423 
1473.000000	54.275822 
1472.000000	54.281759 
1471.000000	54.280161 
1470.000000	54.272222 
1469.000000	54.259991 
1468.000000	54.246234 
1467.000000	54.233694 
1466.000000	54.224491 
1465.000000	54.219365 
1464.000000	54.218196 
1463.000000	54.219341 
1462.000000	54.220390 
1461.000000	54.218435 
1460.000000	54.210686 
1459.000000	54.195237 
1458.000000	54.171156 
1457.000000	54.138994 
1456.000000	54.100632 
1455.000000	54.058933 
1454.000000	54.017376 
1453.000000	53.979325 
1452.000000	53.947758 
1451.000000	53.924393 
1450.000000	53.909373 
1449.000000	53.901290 
1448.000000	53.897786 
1447.000000	53.895998 
1446.000000	53.893589 
1445.000000	53.889274 
1444.000000	53.883075 
1443.000000	53.876352 
1442.000000	53.871393 
1441.000000	53.870463 
1440.000000	53.874897 
1439.000000	53.884768 
1438.000000	53.898191 
1437.000000	53.911972 
1436.000000	53.921842 
1435.000000	53.923630 
1434.000000	53.914189 
1433.000000	53.892612 
1432.000000	53.860378 
1431.000000	53.821206 
1430.000000	53.780770 
1429.000000	53.745317 
1428.000000	53.720521 
1427.000000	53.710103 
1426.000000	53.715062 
1425.000000	53.733730 
1424.000000	53.761696 
1423.000000	53.792858 
1422.000000	53.820943 
1421.000000	53.840661 
1420.000000	53.848838 
1419.000000	53.844809 
1418.000000	53.830575 
1417.000000	53.809738 
1416.000000	53.786587 
1415.000000	53.764700 
1414.000000	53.746271 
1413.000000	53.731536 
1412.000000	53.719139 
1411.000000	53.706765 
1410.000000	53.692078 
1409.000000	53.673839 
1408.000000	53.652334 
1407.000000	53.629779 
1406.000000	53.609323 
1405.000000	53.594732 
1404.000000	53.588914 
1403.000000	53.593778 
1402.000000	53.608965 
1401.000000	53.632497 
1400.000000	53.661131 
1399.000000	53.691101 
1398.000000	53.719210 
1397.000000	53.743147 
1396.000000	53.761625 
1395.000000	53.774476 
1394.000000	53.782224 
1393.000000	53.785705 
1392.000000	53.785610 
1391.000000	53.782296 
1390.000000	53.775477 
1389.000000	53.764748 
1388.000000	53.749537 
1387.000000	53.729438 
1386.000000	53.704547 
1385.000000	53.675508 
1384.000000	53.643584 
1383.000000	53.610515 
1382.000000	53.578233 
1381.000000	53.548526 
1380.000000	53.522658 
1379.000000	53.501439 
1378.000000	53.485059 
1377.000000	53.472876 
1376.000000	53.464269 
1375.000000	53.458285 
1374.000000	53.454494 
1373.000000	53.452730 
1372.000000	53.453373 
1371.000000	53.456830 
1370.000000	53.463411 
1369.000000	53.472852 
1368.000000	53.483843 
1367.000000	53.494334 
1366.000000	53.501677 
1365.000000	53.503370 
1364.000000	53.497385 
1363.000000	53.482770 
1362.000000	53.459954 
1361.000000	53.430700 
1360.000000	53.397583 
1359.000000	53.363561 
1358.000000	53.331375 
1357.000000	53.303003 
1356.000000	53.279614 
1355.000000	53.261613 
1354.000000	53.248858 
1353.000000	53.240942 
1352.000000	53.237771 
1351.000000	53.239202 
1350.000000	53.244876 
1349.000000	53.254222 
1348.000000	53.265953 
1347.000000	53.278493 
1346.000000	53.289794 
1345.000000	53.298020 
1344.000000	53.301763 
1343.000000	53.300619 
1342.000000	53.295087 
1341.000000	53.286480 
1340.000000	53.276681 
1339.000000	53.267359 
1338.000000	53.259825 
1337.000000	53.254389 
1336.000000	53.250408 
1335.000000	53.246641 
1334.000000	53.241610 
1333.000000	53.234052 
1332.000000	53.223419 
1331.000000	53.210091 
1330.000000	53.195357 
1329.000000	53.180909 
1328.000000	53.168582 
1327.000000	53.159832 
1326.000000	53.155255 
1325.000000	53.154659 
1324.000000	53.156924 
1323.000000	53.160142 
1322.000000	53.162264 
1321.000000	53.161358 
1320.000000	53.156185 
1319.000000	53.146529 
1318.000000	53.133130 
1317.000000	53.117465 
1316.000000	53.101277 
1315.000000	53.086233 
1314.000000	53.073287 
1313.000000	53.062534 
1312.000000	53.053450 
1311.000000	53.045296 
1310.000000	53.037309 
1309.000000	53.028845 
1308.000000	53.019666 
1307.000000	53.009819 
1306.000000	52.999329 
1305.000000	52.988266 
1304.000000	52.976536 
1303.000000	52.964186 
1302.000000	52.951216 
1301.000000	52.937865 
1300.000000	52.924489 
1299.000000	52.911758 
1298.000000	52.900266 
1297.000000	52.890801 
1296.000000	52.883934 
1295.000000	52.880144 
1294.000000	52.879452 
1293.000000	52.881622 
1292.000000	52.885985 
1291.000000	52.891564 
1290.000000	52.897191 
1289.000000	52.901434 
1288.000000	52.902936 
1287.000000	52.900433 
1286.000000	52.893161 
1285.000000	52.880430 
1284.000000	52.861881 
1283.000000	52.837514 
1282.000000	52.807950 
1281.000000	52.774047 
1280.000000	52.737212 
1279.000000	52.699112 
1278.000000	52.661848 
1277.000000	52.627968 
1276.000000	52.599930 
1275.000000	52.579879 
1274.000000	52.569270 
1273.000000	52.568483 
1272.000000	52.576589 
1271.000000	52.591395 
1270.000000	52.609515 
1269.000000	52.627038 
1268.000000	52.640271 
1267.000000	52.646231 
1266.000000	52.643489 
1265.000000	52.632403 
1264.000000	52.615189 
1263.000000	52.595329 
1262.000000	52.576756 
1261.000000	52.562999 
1260.000000	52.556300 
1259.000000	52.557373 
1258.000000	52.565431 
1257.000000	52.578473 
1256.000000	52.593851 
1255.000000	52.609086 
1254.000000	52.621722 
1253.000000	52.629923 
1252.000000	52.632498 
1251.000000	52.628827 
1250.000000	52.618718 
1249.000000	52.602553 
1248.000000	52.581286 
1247.000000	52.556371 
1246.000000	52.529716 
1245.000000	52.503252 
1244.000000	52.479147 
1243.000000	52.459168 
1242.000000	52.444362 
1241.000000	52.435135 
1240.000000	52.431178 
1239.000000	52.431893 
1238.000000	52.436375 
1237.000000	52.443838 
1236.000000	52.453589 
1235.000000	52.464985 
1234.000000	52.477312 
1233.000000	52.489566 
1232.000000	52.500391 
1231.000000	52.508258 
1230.000000	52.511835 
1229.000000	52.510356 
1228.000000	52.503776 
1227.000000	52.492856 
1226.000000	52.479195 
1225.000000	52.464628 
1224.000000	52.450847 
1223.000000	52.438855 
1222.000000	52.429080 
1221.000000	52.421116 
1220.000000	52.414345 
1219.000000	52.408194 
1218.000000	52.402448 
1217.000000	52.397751 
1216.000000	52.395057 
1215.000000	52.395248 
1214.000000	52.398777 
1213.000000	52.405190 
1212.000000	52.413058 
1211.000000	52.420353 
1210.000000	52.424526 
1209.000000	52.423667 
1208.000000	52.416491 
1207.000000	52.402973 
1206.000000	52.383971 
1205.000000	52.361249 
1204.000000	52.336859 
1203.000000	52.312731 
1202.000000	52.290272 
1201.000000	52.270221 
1200.000000	52.252602 
1199.000000	52.237057 
1198.000000	52.222943 
1197.000000	52.209830 
1196.000000	52.197456 
1195.000000	52.185869 
1194.000000	52.175354 
1193.000000	52.166342 
1192.000000	52.159261 
1191.000000	52.154493 
1190.000000	52.152156 
1189.000000	52.152228 
1188.000000	52.154159 
1187.000000	52.157187 
1186.000000	52.160310 
1185.000000	52.162551 
1184.000000	52.163147 
1183.000000	52.161741 
1182.000000	52.158451 
1181.000000	52.153658 
1180.000000	52.147746 
1179.000000	52.140951 
1178.000000	52.133250 
1177.000000	52.124309 
1176.000000	52.113676 
1175.000000	52.100753 
1174.000000	52.085518 
1173.000000	52.068352 
1172.000000	52.050280 
1171.000000	52.032780 
1170.000000	52.017617 
1169.000000	52.006411 
1168.000000	52.000260 
1167.000000	51.999664 
1166.000000	52.004265 
1165.000000	52.012920 
1164.000000	52.023959 
1163.000000	52.035379 
1162.000000	52.045011 
1161.000000	52.050948 
1160.000000	52.051591 
1159.000000	52.046036 
1158.000000	52.034568 
1157.000000	52.018547 
1156.000000	52.000570 
1155.000000	51.983952 
1154.000000	51.971983 
1153.000000	51.967334 
1152.000000	51.971125 
1151.000000	51.982545 
1150.000000	51.998925 
1149.000000	52.016401 
1148.000000	52.030658 
1147.000000	52.037906 
1146.000000	52.035737 
1145.000000	52.023696 
1144.000000	52.003240 
1143.000000	51.977372 
1142.000000	51.950001 
1141.000000	51.924729 
1140.000000	51.904439 
1139.000000	51.890349 
1138.000000	51.882004 
1137.000000	51.877570 
1136.000000	51.874566 
1135.000000	51.870560 
1134.000000	51.864027 
1133.000000	51.854515 
1132.000000	51.842761 
1131.000000	51.830124 
1130.000000	51.818203 
1129.000000	51.807951 
1128.000000	51.799058 
1127.000000	51.790094 
1126.000000	51.779007 
1125.000000	51.763796 
1124.000000	51.743197 
1123.000000	51.717352 
1122.000000	51.688146 
1121.000000	51.658749 
1120.000000	51.633191 
1119.000000	51.615071 
1118.000000	51.606750 
1117.000000	51.608538 
1116.000000	51.618671 
1115.000000	51.633691 
1114.000000	51.649475 
1113.000000	51.662158 
1112.000000	51.668953 
1111.000000	51.669263 
1110.000000	51.664280 
1109.000000	51.656508 
1108.000000	51.648783 
1107.000000	51.643276 
1106.000000	51.640319 
1105.000000	51.638603 
1104.000000	51.634907 
1103.000000	51.625394 
1102.000000	51.606416 
1101.000000	51.576161 
1100.000000	51.535248 
1099.000000	51.486754 
1098.000000	51.436090 
1097.000000	51.389694 
1096.000000	51.353907 
1095.000000	51.333427 
1094.000000	51.330447 
1093.000000	51.344108 
1092.000000	51.370835 
1091.000000	51.404857 
1090.000000	51.439619 
1089.000000	51.468801 
1088.000000	51.487231 
1087.000000	51.491689 
1086.000000	51.480889 
1085.000000	51.455545 
1084.000000	51.417565 
1083.000000	51.370072 
1082.000000	51.316475 
1081.000000	51.260685 
1080.000000	51.206779 
1079.000000	51.158881 
1078.000000	51.121091 
1077.000000	51.096916 
1076.000000	51.088714 
1075.000000	51.097202 
1074.000000	51.121044 
1073.000000	51.156687 
1072.000000	51.198720 
1071.000000	51.240825 
1070.000000	51.276588 
1069.000000	51.301026 
1068.000000	51.311278 
1067.000000	51.307249 
1066.000000	51.291346 
1065.000000	51.267719 
1064.000000	51.241040 
1063.000000	51.215672 
1062.000000	51.194667 
1061.000000	51.179313 
1060.000000	51.169180 
1059.000000	51.162958 
1058.000000	51.158952 
1057.000000	51.156067 
1056.000000	51.154017 
1055.000000	51.153421 
1054.000000	51.155614 
1053.000000	51.161694 
1052.000000	51.172327 
1051.000000	51.186990 
1050.000000	51.204133 
1049.000000	51.221108 
1048.000000	51.234841 
1047.000000	51.242852 
1046.000000	51.243209 
1045.000000	51.235365 
1044.000000	51.219725 
1043.000000	51.197814 
1042.000000	51.171922 
1041.000000	51.144528 
1040.000000	51.117825 
1039.000000	51.093626 
1038.000000	51.073217 
1037.000000	51.057529 
1036.000000	51.046943 
1035.000000	51.041483 
1034.000000	51.041221 
1033.000000	51.046180 
1032.000000	51.056122 
1031.000000	51.070451 
1030.000000	51.087951 
1029.000000	51.106810 
1028.000000	51.124715 
1027.000000	51.139307 
1026.000000	51.148629 
1025.000000	51.151514 
1024.000000	51.147913 
1023.000000	51.138663 
1022.000000	51.125431 
1021.000000	51.110076 
1020.000000	51.094436 
1019.000000	51.079726 
1018.000000	51.066446 
1017.000000	51.054310 
1016.000000	51.042675 
1015.000000	51.030683 
1014.000000	51.017522 
1013.000000	51.002335 
1012.000000	50.984430 
1011.000000	50.962901 
1010.000000	50.936913 
1009.000000	50.905394 
1008.000000	50.867629 
1007.000000	50.823569 
1006.000000	50.774264 
1005.000000	50.721764 
1004.000000	50.669336 
1003.000000	50.620388 
1002.000000	50.578331 
1001.000000	50.545430 
1000.000000	50.522875 
999.000000	 50.510120 
998.000000	 50.505948 
997.000000	 50.508093 
996.000000	 50.515079 
995.000000	 50.525999 
994.000000	 50.541067 
993.000000	 50.560879 
992.000000	 50.586032 
991.000000	 50.616025 
990.000000	 50.649213 
989.000000	 50.682258 
988.000000	 50.710916 
987.000000	 50.730681 
986.000000	 50.737929 
985.000000	 50.730800 
984.000000	 50.709486 
983.000000	 50.676274 
982.000000	 50.634717 
981.000000	 50.589108 
980.000000	 50.543546 
979.000000	 50.501894 
978.000000	 50.467085 
977.000000	 50.441479 
976.000000	 50.427031 
975.000000	 50.424981 
974.000000	 50.436162 
973.000000	 50.460219 
972.000000	 50.494933 
971.000000	 50.536561 
970.000000	 50.579524 
969.000000	 50.617957 
968.000000	 50.646424 
967.000000	 50.661683 
966.000000	 50.663328 
965.000000	 50.653934 
964.000000	 50.638365 
963.000000	 50.622200 
962.000000	 50.610375 
961.000000	 50.605368 
960.000000	 50.606727 
959.000000	 50.610947 
958.000000	 50.612378 
957.000000	 50.604915 
956.000000	 50.583791 
955.000000	 50.546550 
954.000000	 50.494170 
953.000000	 50.431108 
952.000000	 50.364446 
951.000000	 50.302052 
950.000000	 50.251054 
949.000000	 50.216388 
948.000000	 50.200009 
947.000000	 50.200843 
946.000000	 50.215148 
945.000000	 50.237321 
944.000000	 50.261378 
943.000000	 50.281691 
942.000000	 50.294613 
941.000000	 50.298666 
940.000000	 50.294613 
939.000000	 50.284481 
938.000000	 50.271201 
937.000000	 50.257492 
936.000000	 50.245141 
935.000000	 50.234460 
934.000000	 50.224590 
933.000000	 50.213980 
932.000000	 50.200462 
931.000000	 50.181865 
930.000000	 50.155711 
929.000000	 50.119709 
928.000000	 50.071859 
927.000000	 50.011324 
926.000000	 49.938654 
925.000000	 49.856996 
924.000000	 49.771952 
923.000000	 49.691295 
922.000000	 49.623847 
921.000000	 49.577736 
920.000000	 49.558830 
919.000000	 49.568819 
918.000000	 49.604320 
917.000000	 49.657464 
916.000000	 49.716830 
915.000000	 49.770116 
914.000000	 49.806714 
913.000000	 49.819779 
912.000000	 49.807286 
911.000000	 49.772286 
910.000000	 49.721217 
909.000000	 49.662375 
908.000000	 49.603724 
907.000000	 49.551296 
906.000000	 49.508357 
905.000000	 49.475765 
904.000000	 49.452900 
903.000000	 49.438285 
902.000000	 49.430871 
901.000000	 49.430036 
900.000000	 49.436235 
899.000000	 49.450111 
898.000000	 49.472498 
897.000000	 49.503111 
896.000000	 49.540257 
895.000000	 49.581027 
894.000000	 49.621009 
893.000000	 49.656057 
892.000000	 49.681544 
891.000000	 49.693465 
890.000000	 49.688839 
889.000000	 49.666571 
888.000000	 49.627757 
887.000000	 49.575328 
886.000000	 49.514603 
885.000000	 49.452328 
884.000000	 49.396181 
883.000000	 49.353694 
882.000000	 49.330806 
881.000000	 49.330687 
880.000000	 49.353075 
879.000000	 49.394202 
878.000000	 49.447035 
877.000000	 49.502587 
876.000000	 49.550986 
875.000000	 49.583315 
874.000000	 49.592924 
873.000000	 49.576711 
872.000000	 49.535179 
871.000000	 49.472451 
870.000000	 49.395275 
869.000000	 49.312186 
868.000000	 49.232482 
867.000000	 49.164795 
866.000000	 49.115991 
865.000000	 49.090361 
864.000000	 49.089312 
863.000000	 49.111247 
862.000000	 49.151563 
861.000000	 49.204039 
860.000000	 49.261665 
859.000000	 49.317932 
858.000000	 49.367189 
857.000000	 49.405694 
856.000000	 49.431419 
855.000000	 49.444150 
854.000000	 49.444890 
853.000000	 49.435138 
852.000000	 49.416542 
851.000000	 49.390840 
850.000000	 49.359893 
849.000000	 49.325704 
848.000000	 49.290704 
847.000000	 49.257493 
846.000000	 49.228644 
845.000000	 49.206399 
844.000000	 49.191832 
843.000000	 49.184441 
842.000000	 49.181842 
841.000000	 49.180650 
840.000000	 49.176740 
839.000000	 49.166584 
838.000000	 49.147772 
837.000000	 49.119138 
836.000000	 49.081373 
835.000000	 49.036812 
834.000000	 48.989033 
833.000000	 48.941540 
832.000000	 48.897719 
831.000000	 48.859977 
830.000000	 48.830032 
829.000000	 48.808526 
828.000000	 48.795366 
827.000000	 48.789858 
826.000000	 48.791003 
825.000000	 48.797488 
824.000000	 48.807740 
823.000000	 48.819565 
822.000000	 48.830413 
821.000000	 48.837447 
820.000000	 48.837804 
819.000000	 48.829030 
818.000000	 48.809552 
817.000000	 48.779273 
816.000000	 48.739838 
815.000000	 48.694944 
814.000000	 48.649740 
813.000000	 48.610496 
812.000000	 48.583340 
811.000000	 48.573398 
810.000000	 48.583388 
809.000000	 48.613095 
808.000000	 48.659276 
807.000000	 48.716163 
806.000000	 48.776435 
805.000000	 48.832964 
804.000000	 48.879694 
803.000000	 48.913264 
802.000000	 48.933124 
801.000000	 48.941278 
800.000000	 48.941516 
799.000000	 48.937654 
798.000000	 48.932504 
797.000000	 48.926734 
796.000000	 48.919057 
795.000000	 48.906731 
794.000000	 48.886895 
793.000000	 48.857641 
792.000000	 48.819303 
791.000000	 48.774671 
790.000000	 48.728990 
789.000000	 48.688364 
788.000000	 48.658680 
787.000000	 48.644232 
786.000000	 48.646688 
785.000000	 48.664617 
784.000000	 48.693823 
783.000000	 48.728227 
782.000000	 48.761153 
781.000000	 48.786592 
780.000000	 48.800277 
779.000000	 48.800134 
778.000000	 48.786354 
777.000000	 48.760795 
776.000000	 48.726797 
775.000000	 48.688220 
774.000000	 48.648548 
773.000000	 48.610234 
772.000000	 48.574757 
771.000000	 48.542547 
770.000000	 48.512887 
769.000000	 48.484325 
768.000000	 48.455238 
767.000000	 48.424482 
766.000000	 48.391389 
765.000000	 48.356056 
764.000000	 48.319077 
763.000000	 48.281431 
762.000000	 48.244404 
761.000000	 48.209428 
760.000000	 48.177719 
759.000000	 48.150420 
758.000000	 48.128414 
757.000000	 48.112487 
756.000000	 48.103117 
755.000000	 48.100376 
754.000000	 48.103642 
753.000000	 48.111701 
752.000000	 48.122906 
751.000000	 48.134803 
750.000000	 48.144769 
749.000000	 48.149657 
748.000000	 48.146605 
747.000000	 48.132920 
746.000000	 48.106765 
745.000000	 48.066973 
744.000000	 48.013401 
743.000000	 47.947454 
742.000000	 47.872042 
741.000000	 47.791862 
740.000000	 47.713088 
739.000000	 47.642970 
738.000000	 47.588753 
737.000000	 47.556853 
736.000000	 47.551417 
735.000000	 47.573375 
734.000000	 47.619605 
733.000000	 47.683405 
732.000000	 47.755026 
731.000000	 47.823190 
730.000000	 47.877335 
729.000000	 47.909021 
728.000000	 47.913861 
727.000000	 47.891664 
726.000000	 47.847127 
725.000000	 47.788262 
724.000000	 47.724914 
723.000000	 47.666835 
722.000000	 47.621679 
721.000000	 47.594261 
720.000000	 47.585511 
719.000000	 47.593021 
718.000000	 47.611784 
717.000000	 47.635936 
716.000000	 47.659468 
715.000000	 47.677445 
714.000000	 47.686195 
713.000000	 47.683310 
712.000000	 47.667813 
711.000000	 47.639894 
710.000000	 47.600507 
709.000000	 47.551274 
708.000000	 47.495031 
707.000000	 47.435021 
706.000000	 47.374773 
705.000000	 47.317314 
704.000000	 47.265458 
703.000000	 47.220492 
702.000000	 47.182893 
701.000000	 47.151780 
700.000000	 47.125196 
699.000000	 47.100639 
698.000000	 47.075486 
697.000000	 47.047495 
696.000000	 47.014856 
695.000000	 46.976757 
694.000000	 46.933078 
693.000000	 46.885061 
692.000000	 46.834731 
691.000000	 46.785378 
690.000000	 46.741080 
689.000000	 46.706318 
688.000000	 46.685123 
687.000000	 46.680212 
686.000000	 46.692156 
685.000000	 46.719002 
684.000000	 46.756219 
683.000000	 46.797585 
682.000000	 46.836400 
681.000000	 46.866774 
680.000000	 46.884799 
679.000000	 46.888470 
678.000000	 46.878433 
677.000000	 46.857380 
676.000000	 46.829509 
675.000000	 46.799445 
674.000000	 46.771478 
673.000000	 46.749353 
672.000000	 46.735334 
671.000000	 46.730589 
670.000000	 46.734428 
669.000000	 46.745204 
668.000000	 46.759867 
667.000000	 46.774721 
666.000000	 46.785783 
665.000000	 46.789216 
664.000000	 46.782064 
663.000000	 46.762657 
662.000000	 46.731257 
661.000000	 46.690130 
660.000000	 46.643161 
659.000000	 46.595525 
658.000000	 46.552634 
657.000000	 46.519541 
656.000000	 46.500492 
655.000000	 46.498227 
654.000000	 46.513509 
653.000000	 46.544671 
652.000000	 46.588706 
651.000000	 46.640777 
650.000000	 46.694755 
649.000000	 46.743583 
648.000000	 46.780347 
647.000000	 46.799015 
646.000000	 46.795129 
645.000000	 46.766543 
644.000000	 46.713733 
643.000000	 46.640324 
642.000000	 46.552753 
641.000000	 46.459484 
640.000000	 46.369838 
639.000000	 46.292805 
638.000000	 46.235680 
637.000000	 46.202850 
636.000000	 46.195459 
635.000000	 46.210694 
634.000000	 46.242356 
633.000000	 46.281957 
632.000000	 46.319818 
631.000000	 46.346378 
630.000000	 46.353626 
629.000000	 46.336150 
628.000000	 46.291923 
627.000000	 46.222186 
626.000000	 46.131443 
625.000000	 46.026992 
624.000000	 45.917797 
623.000000	 45.813202 
622.000000	 45.722007 
621.000000	 45.651268 
620.000000	 45.605683 
619.000000	 45.586752 
618.000000	 45.593452 
617.000000	 45.622181 
616.000000	 45.667695 
615.000000	 45.723438 
614.000000	 45.782399 
613.000000	 45.837187 
612.000000	 45.881247 
611.000000	 45.909357 
610.000000	 45.918321 
609.000000	 45.907139 
608.000000	 45.877742 
607.000000	 45.834279 
606.000000	 45.782232 
605.000000	 45.726943 
604.000000	 45.673155 
603.000000	 45.623707 
602.000000	 45.579147 
601.000000	 45.537567 
600.000000	 45.495796 
599.000000	 45.450472 
598.000000	 45.399332 
597.000000	 45.342397 
596.000000	 45.281457 
595.000000	 45.220685 
594.000000	 45.164871 
593.000000	 45.119643 
592.000000	 45.089125 
591.000000	 45.076441 
590.000000	 45.082831 
589.000000	 45.107388 
588.000000	 45.147204 
587.000000	 45.197653 
586.000000	 45.253396 
585.000000	 45.307946 
584.000000	 45.354175 
583.000000	 45.386123 
582.000000	 45.399737 
581.000000	 45.394158 
580.000000	 45.371937 
579.000000	 45.339703 
578.000000	 45.306348 
577.000000	 45.281863 
576.000000	 45.273900 
575.000000	 45.285248 
574.000000	 45.312309 
573.000000	 45.345425 
572.000000	 45.371246 
571.000000	 45.376563 
570.000000	 45.351505 
569.000000	 45.293617 
568.000000	 45.207405 
567.000000	 45.103764 
566.000000	 44.995689 
565.000000	 44.895792 
564.000000	 44.811177 
563.000000	 44.742059 
562.000000	 44.681572 
561.000000	 44.619083 
560.000000	 44.543266 
559.000000	 44.446516 
558.000000	 44.328141 
557.000000	 44.194817 
556.000000	 44.060850 
555.000000	 43.944501 
554.000000	 43.863296 
553.000000	 43.828749 
552.000000	 43.844795 
551.000000	 43.906331 
550.000000	 44.000077 
549.000000	 44.107007 
548.000000	 44.206595 
547.000000	 44.280910 
546.000000	 44.317173 
545.000000	 44.310498 
544.000000	 44.263386 
543.000000	 44.185709 
542.000000	 44.090938 
541.000000	 43.994617 
540.000000	 43.911719 
539.000000	 43.853974 
538.000000	 43.829298 
537.000000	 43.839740 
536.000000	 43.883442 
535.000000	 43.953180 
534.000000	 44.039630 
533.000000	 44.129347 
532.000000	 44.206333 
531.000000	 44.254398 
530.000000	 44.260549 
529.000000	 44.215345 
528.000000	 44.114542 
527.000000	 43.962121 
526.000000	 43.770146 
525.000000	 43.556833 
524.000000	 43.343424 
523.000000	 43.151164 
522.000000	 42.997121 
521.000000	 42.891359 
520.000000	 42.834830 
519.000000	 42.819857 
518.000000	 42.831540 
517.000000	 42.851376 
516.000000	 42.861104 
515.000000	 42.845177 
514.000000	 42.794799 
513.000000	 42.706680 
512.000000	 42.586636 
511.000000	 42.444252 
510.000000	 42.296361 
509.000000	 42.160892 
508.000000	 42.058777 
507.000000	 42.007970 
506.000000	 42.025041 
505.000000	 42.121577 
504.000000	 42.302131 
503.000000	 42.561578 
502.000000	 42.884659 
501.000000	 43.247008 
500.000000	 43.615484 
499.000000	 43.952655 
498.000000	 44.223523 
497.000000	 44.401264 
496.000000	 44.471812 
495.000000	 44.435977 
494.000000	 44.308400 
493.000000	 44.114804 
492.000000	 43.888235 
491.000000	 43.663144 
490.000000	 43.472552 
489.000000	 43.340659 
488.000000	 43.283581 
487.000000	 43.303203 
486.000000	 43.390607 
485.000000	 43.524742 
484.000000	 43.676376 
483.000000	 43.813967 
482.000000	 43.909978 
481.000000	 43.945336 
480.000000	 43.912553 
479.000000	 43.814563 
478.000000	 43.662691 
477.000000	 43.471789 
476.000000	 43.257212 
475.000000	 43.029713 
474.000000	 42.795062 
473.000000	 42.554402 
472.000000	 42.307233 
471.000000	 42.056632 
470.000000	 41.811275 
469.000000	 41.584563 
468.000000	 41.392087 
467.000000	 41.247963 
466.000000	 41.159820 
465.000000	 41.123604 
464.000000	 41.123676 
463.000000	 41.135859 
462.000000	 41.132307 
461.000000	 41.086745 
460.000000	 40.981721 
459.000000	 40.811395 
458.000000	 40.584540 
457.000000	 40.319466 
456.000000	 40.044212 
455.000000	 39.787364 
454.000000	 39.577078 
453.000000	 39.434862 
452.000000	 39.373755 
451.000000	 39.397239 
450.000000	 39.497566 
449.000000	 39.658403 
448.000000	 39.852809 
447.000000	 40.047168 
446.000000	 40.206623 
445.000000	 40.301728 
444.000000	 40.314173 
443.000000	 40.240740 
442.000000	 40.097737 
441.000000	 39.915370 
440.000000	 39.732718 
439.000000	 39.584207 
438.000000	 39.491534 
437.000000	 39.454793 
436.000000	 39.453673 
435.000000	 39.452314 
434.000000	 39.408874 
433.000000	 39.290523 
432.000000	 39.085960 
431.000000	 38.810372 
430.000000	 38.496947 
429.000000	 38.196492 
428.000000	 37.965774 
427.000000	 37.851405 
426.000000	 37.874102 
425.000000	 38.027787 
424.000000	 38.276886 
423.000000	 38.575983 
422.000000	 38.884234 
421.000000	 39.171719 
420.000000	 39.421081 
419.000000	 39.642286 
418.000000	 39.865398 
417.000000	 40.103793 
416.000000	 40.343618 
415.000000	 40.549206 
414.000000	 40.666246 
413.000000	 40.646791 
412.000000	 40.458679 
411.000000	 40.084886 
410.000000	 39.533996 
409.000000	 38.866209 
408.000000	 38.153076 
407.000000	 37.488245 
406.000000	 36.921000 
405.000000	 36.424756 
404.000000	 35.915851 
403.000000	 35.252141 
402.000000	 34.327435 
401.000000	 33.110952 
400.000000	 31.694579 
399.000000	 30.321598 
398.000000	 29.268050 
397.000000	 28.716731 
396.000000	 28.797602 
395.000000	 29.497575 
394.000000	 30.855226 
393.000000	 32.964634 
392.000000	 35.969352 
391.000000	 39.990210 
390.000000	 44.944024 
389.000000	 50.475478 
388.000000	 55.865502 
387.000000	 60.178017 
386.000000	 62.502193 
385.000000	 62.201619 
384.000000	 59.166526 
383.000000	 53.849506 
382.000000	 47.209715 
381.000000	 40.458178 
380.000000	 34.771823 
379.000000	 31.031084 
378.000000	 29.509019 
377.000000	 30.062484 
376.000000	 32.140064 
375.000000	 35.221600 
374.000000	 39.110136 
373.000000	 43.905448 
372.000000	 50.077199 
371.000000	 57.894349 
370.000000	 67.146062 

