PE IR       SPECTRUM    SPECTRUM    ASCII       PEDS        1.60        
  -1
C-9CEE~1.ASC
17/03/27
19:46:50.00
17/03/27
19:46:50.00
tln
$C-4040-8_t0065$<tbV0>[-10.4,0.0,8.0,0.0,27,1,0]
370.000000
64









2002,4.07    
MIRTGS : RIGHTBACK : INTERNAL 2
MIR : ON : INTERNAL 2
OPTKBR

0.200000
8
8.000000
FILLER
RATIO
SPECTRUM
UNLOCKED 256

DOUBLE
64
COMBINED
1
0
0


1.000000
RATIO


1
0
TRUE
51149
0
LEFT NOT FITTED RIGHT NOT FITTED 0
NONE
NONE
15600
12.000000
4.427000
51148
TRUE
1 0 8 72 0 0 0 0 

15798.010000






#HDR
-1
-1
#GR
CM-1
%T
0.00002384185791015625
0.0
5000.000000
-1.000000
4631
8
90.842032
37.896466
#DATA
5000.000000	64.760661 
4999.000000	64.809250 
4998.000000	64.843058 
4997.000000	64.859867 
4996.000000	64.862847 
4995.000000	64.859342 
4994.000000	64.858484 
4993.000000	64.869093 
4992.000000	64.895749 
4991.000000	64.937925 
4990.000000	64.988684 
4989.000000	65.036702 
4988.000000	65.068984 
4987.000000	65.075182 
4986.000000	65.049338 
4985.000000	64.991950 
4984.000000	64.910864 
4983.000000	64.819765 
4982.000000	64.735174 
4981.000000	64.672994 
4980.000000	64.645648 
4979.000000	64.659643 
4978.000000	64.715790 
4977.000000	64.808893 
4976.000000	64.929008 
4975.000000	65.062999 
4974.000000	65.197181 
4973.000000	65.318489 
4972.000000	65.415596 
4971.000000	65.479946 
4970.000000	65.506339 
4969.000000	65.493130 
4968.000000	65.442872 
4967.000000	65.360999 
4966.000000	65.256309 
4965.000000	65.138030 
4964.000000	65.015816 
4963.000000	64.897084 
4962.000000	64.787387 
4961.000000	64.689278 
4960.000000	64.603281 
4959.000000	64.528942 
4958.000000	64.465951 
4957.000000	64.415717 
4956.000000	64.381504 
4955.000000	64.367485 
4954.000000	64.377832 
4953.000000	64.415192 
4952.000000	64.479517 
4951.000000	64.566612 
4950.000000	64.669013 
4949.000000	64.776682 
4948.000000	64.879226 
4947.000000	64.967703 
4946.000000	65.035963 
4945.000000	65.081477 
4944.000000	65.105342 
4943.000000	65.110969 
4942.000000	65.103435 
4941.000000	65.088582 
4940.000000	65.071678 
4939.000000	65.057516 
4938.000000	65.049052 
4937.000000	65.048170 
4936.000000	65.055346 
4935.000000	65.070843 
4934.000000	65.093541 
4933.000000	65.121412 
4932.000000	65.151524 
4931.000000	65.180659 
4930.000000	65.204739 
4929.000000	65.219283 
4928.000000	65.220332 
4927.000000	65.205025 
4926.000000	65.172219 
4925.000000	65.123081 
4924.000000	65.060901 
4923.000000	64.991235 
4922.000000	64.921665 
4921.000000	64.860439 
4920.000000	64.814329 
4919.000000	64.787817 
4918.000000	64.782786 
4917.000000	64.798069 
4916.000000	64.827728 
4915.000000	64.864826 
4914.000000	64.902853 
4913.000000	64.937925 
4912.000000	64.968514 
4911.000000	64.996623 
4910.000000	65.026021 
4909.000000	65.061616 
4908.000000	65.107297 
4907.000000	65.164113 
4906.000000	65.229177 
4905.000000	65.296602 
4904.000000	65.359234 
4903.000000	65.409326 
4902.000000	65.440511 
4901.000000	65.449476 
4900.000000	65.436339 
4899.000000	65.404176 
4898.000000	65.357184 
4897.000000	65.299701 
4896.000000	65.233469 
4895.000000	65.157794 
4894.000000	65.068268 
4893.000000	64.959144 
4892.000000	64.824080 
4891.000000	64.659047 
4890.000000	64.464640 
4889.000000	64.246439 
4888.000000	64.017438 
4887.000000	63.794517 
4886.000000	63.599324 
4885.000000	63.451838 
4884.000000	63.370585 
4883.000000	63.367104 
4882.000000	63.446092 
4881.000000	63.602280 
4880.000000	63.823127 
4879.000000	64.089655 
4878.000000	64.379572 
4877.000000	64.669346 
4876.000000	64.937186 
4875.000000	65.164923 
4874.000000	65.339565 
4873.000000	65.453314 
4872.000000	65.504240 
4871.000000	65.494656 
4870.000000	65.431761 
4869.000000	65.325021 
4868.000000	65.186619 
4867.000000	65.028500 
4866.000000	64.864158 
4865.000000	64.705443 
4864.000000	64.562845 
4863.000000	64.444351 
4862.000000	64.355826 
4861.000000	64.300608 
4860.000000	64.278650 
4859.000000	64.287924 
4858.000000	64.323806 
4857.000000	64.380526 
4856.000000	64.449810 
4855.000000	64.524054 
4854.000000	64.595603 
4853.000000	64.659094 
4852.000000	64.710831 
4851.000000	64.749956 
4850.000000	64.777684 
4849.000000	64.796781 
4848.000000	64.810585 
4847.000000	64.821028 
4846.000000	64.827990 
4845.000000	64.830183 
4844.000000	64.825344 
4843.000000	64.810729 
4842.000000	64.784288 
4841.000000	64.745998 
4840.000000	64.698290 
4839.000000	64.645791 
4838.000000	64.594435 
4837.000000	64.550018 
4836.000000	64.517354 
4835.000000	64.499759 
4834.000000	64.498186 
4833.000000	64.510989 
4832.000000	64.535164 
4831.000000	64.566946 
4830.000000	64.602947 
4829.000000	64.640212 
4828.000000	64.676737 
4827.000000	64.710831 
4826.000000	64.741683 
4825.000000	64.768528 
4824.000000	64.790773 
4823.000000	64.807462 
4822.000000	64.818000 
4821.000000	64.822268 
4820.000000	64.820766 
4819.000000	64.814782 
4818.000000	64.806103 
4817.000000	64.796733 
4816.000000	64.788508 
4815.000000	64.782762 
4814.000000	64.779949 
4813.000000	64.779806 
4812.000000	64.781594 
4811.000000	64.784383 
4810.000000	64.787578 
4809.000000	64.790797 
4808.000000	64.794468 
4807.000000	64.798784 
4806.000000	64.803743 
4805.000000	64.808082 
4804.000000	64.809966 
4803.000000	64.806461 
4802.000000	64.794778 
4801.000000	64.772748 
4800.000000	64.739322 
4799.000000	64.695882 
4798.000000	64.646172 
4797.000000	64.595961 
4796.000000	64.551877 
4795.000000	64.520740 
4794.000000	64.508152 
4793.000000	64.517211 
4792.000000	64.547681 
4791.000000	64.595794 
4790.000000	64.654970 
4789.000000	64.716815 
4788.000000	64.773011 
4787.000000	64.816403 
4786.000000	64.842987 
4785.000000	64.852452 
4784.000000	64.848065 
4783.000000	64.835381 
4782.000000	64.820528 
4781.000000	64.809179 
4780.000000	64.804005 
4779.000000	64.804673 
4778.000000	64.807081 
4777.000000	64.805436 
4776.000000	64.793038 
4775.000000	64.764833 
4774.000000	64.718794 
4773.000000	64.656758 
4772.000000	64.584350 
4771.000000	64.509725 
4770.000000	64.441704 
4769.000000	64.387655 
4768.000000	64.352035 
4767.000000	64.335751 
4766.000000	64.336299 
4765.000000	64.348912 
4764.000000	64.368128 
4763.000000	64.389681 
4762.000000	64.411163 
4761.000000	64.432811 
4760.000000	64.457035 
4759.000000	64.487266 
4758.000000	64.526176 
4757.000000	64.574289 
4756.000000	64.629459 
4755.000000	64.686846 
4754.000000	64.739966 
4753.000000	64.782071 
4752.000000	64.808464 
4751.000000	64.816975 
4750.000000	64.809441 
4749.000000	64.790034 
4748.000000	64.764142 
4747.000000	64.736676 
4746.000000	64.710974 
4745.000000	64.687991 
4744.000000	64.666295 
4743.000000	64.643335 
4742.000000	64.616894 
4741.000000	64.585542 
4740.000000	64.549350 
4739.000000	64.510202 
4738.000000	64.471197 
4737.000000	64.435243 
4736.000000	64.404654 
4735.000000	64.380288 
4734.000000	64.361763 
4733.000000	64.348244 
4732.000000	64.338946 
4731.000000	64.333438 
4730.000000	64.332056 
4729.000000	64.335727 
4728.000000	64.345693 
4727.000000	64.361953 
4726.000000	64.383959 
4725.000000	64.410018 
4724.000000	64.438128 
4723.000000	64.466094 
4722.000000	64.492344 
4721.000000	64.516258 
4720.000000	64.538407 
4719.000000	64.560127 
4718.000000	64.583349 
4717.000000	64.609932 
4716.000000	64.641237 
4715.000000	64.677643 
4714.000000	64.718294 
4713.000000	64.760899 
4712.000000	64.802312 
4711.000000	64.838814 
4710.000000	64.866757 
4709.000000	64.882898 
4708.000000	64.885115 
4707.000000	64.872407 
4706.000000	64.845371 
4705.000000	64.805817 
4704.000000	64.756751 
4703.000000	64.702081 
4702.000000	64.646220 
4701.000000	64.593768 
4700.000000	64.548945 
4699.000000	64.515519 
4698.000000	64.496493 
4697.000000	64.493680 
4696.000000	64.507603 
4695.000000	64.536929 
4694.000000	64.578175 
4693.000000	64.626097 
4692.000000	64.674162 
4691.000000	64.715838 
4690.000000	64.745616 
4689.000000	64.760041 
4688.000000	64.757990 
4687.000000	64.741086 
4686.000000	64.712953 
4685.000000	64.678335 
4684.000000	64.641928 
4683.000000	64.607667 
4682.000000	64.577913 
4681.000000	64.553356 
4680.000000	64.533138 
4679.000000	64.515233 
4678.000000	64.497470 
4677.000000	64.477705 
4676.000000	64.455342 
4675.000000	64.430594 
4674.000000	64.405941 
4673.000000	64.384698 
4672.000000	64.371705 
4671.000000	64.371609 
4670.000000	64.388394 
4669.000000	64.424324 
4668.000000	64.478826 
4667.000000	64.548110 
4666.000000	64.625215 
4665.000000	64.700913 
4664.000000	64.765667 
4663.000000	64.811253 
4662.000000	64.832544 
4661.000000	64.828395 
4660.000000	64.802002 
4659.000000	64.759993 
4658.000000	64.711141 
4657.000000	64.664387 
4656.000000	64.627623 
4655.000000	64.606189 
4654.000000	64.602613 
4653.000000	64.616489 
4652.000000	64.645361 
4651.000000	64.685273 
4650.000000	64.731764 
4649.000000	64.780664 
4648.000000	64.828205 
4647.000000	64.871549 
4646.000000	64.908337 
4645.000000	64.936900 
4644.000000	64.955973 
4643.000000	64.964699 
4642.000000	64.962887 
4641.000000	64.950609 
4640.000000	64.928913 
4639.000000	64.899134 
4638.000000	64.863491 
4637.000000	64.824748 
4636.000000	64.786219 
4635.000000	64.751338 
4634.000000	64.723563 
4633.000000	64.705634 
4632.000000	64.699292 
4631.000000	64.704394 
4630.000000	64.718794 
4629.000000	64.738512 
4628.000000	64.758133 
4627.000000	64.771723 
4626.000000	64.774203 
4625.000000	64.762687 
4624.000000	64.737272 
4623.000000	64.701247 
4622.000000	64.660310 
4621.000000	64.621734 
4620.000000	64.592170 
4619.000000	64.576315 
4618.000000	64.575314 
4617.000000	64.586806 
4616.000000	64.605426 
4615.000000	64.624381 
4614.000000	64.637446 
4613.000000	64.640355 
4612.000000	64.632773 
4611.000000	64.617800 
4610.000000	64.601707 
4609.000000	64.591598 
4608.000000	64.594125 
4607.000000	64.613270 
4606.000000	64.649724 
4605.000000	64.700603 
4604.000000	64.760327 
4603.000000	64.821553 
4602.000000	64.876675 
4601.000000	64.918828 
4600.000000	64.942955 
4599.000000	64.946198 
4598.000000	64.927887 
4597.000000	64.889645 
4596.000000	64.834690 
4595.000000	64.768433 
4594.000000	64.697337 
4593.000000	64.629054 
4592.000000	64.571619 
4591.000000	64.533042 
4590.000000	64.520072 
4589.000000	64.537191 
4588.000000	64.585590 
4587.000000	64.662647 
4586.000000	64.761996 
4585.000000	64.873695 
4584.000000	64.985585 
4583.000000	65.084934 
4582.000000	65.160727 
4581.000000	65.204787 
4580.000000	65.212988 
4579.000000	65.185952 
4578.000000	65.128636 
4577.000000	65.049529 
4576.000000	64.959144 
4575.000000	64.868426 
4574.000000	64.787077 
4573.000000	64.722776 
4572.000000	64.680290 
4571.000000	64.661669 
4570.000000	64.666247 
4569.000000	64.691233 
4568.000000	64.732289 
4567.000000	64.784169 
4566.000000	64.841103 
4565.000000	64.897203 
4564.000000	64.946889 
4563.000000	64.984989 
4562.000000	65.007019 
4561.000000	65.009856 
4560.000000	64.991688 
4559.000000	64.952588 
4558.000000	64.894318 
4557.000000	64.820480 
4556.000000	64.736175 
4555.000000	64.647889 
4554.000000	64.562439 
4553.000000	64.486575 
4552.000000	64.426016 
4551.000000	64.384961 
4550.000000	64.365458 
4549.000000	64.367794 
4548.000000	64.389967 
4547.000000	64.428591 
4546.000000	64.479327 
4545.000000	64.537906 
4544.000000	64.599752 
4543.000000	64.660978 
4542.000000	64.718818 
4541.000000	64.771652 
4540.000000	64.818477 
4539.000000	64.858508 
4538.000000	64.891433 
4537.000000	64.916038 
4536.000000	64.930796 
4535.000000	64.932966 
4534.000000	64.919853 
4533.000000	64.889049 
4532.000000	64.840102 
4531.000000	64.775204 
4530.000000	64.699339 
4529.000000	64.620804 
4528.000000	64.549946 
4527.000000	64.497947 
4526.000000	64.474606 
4525.000000	64.486575 
4524.000000	64.535784 
4523.000000	64.619207 
4522.000000	64.729356 
4521.000000	64.855575 
4520.000000	64.986109 
4519.000000	65.110158 
4518.000000	65.219688 
4517.000000	65.310072 
4516.000000	65.380358 
4515.000000	65.432119 
4514.000000	65.468096 
4513.000000	65.491771 
4512.000000	65.504884 
4511.000000	65.508675 
4510.000000	65.501904 
4509.000000	65.483260 
4508.000000	65.450286 
4507.000000	65.402269 
4506.000000	65.339660 
4505.000000	65.265321 
4504.000000	65.183949 
4503.000000	65.101456 
4502.000000	65.024566 
4501.000000	64.959716 
4500.000000	64.911961 
4499.000000	64.884257 
4498.000000	64.877438 
4497.000000	64.890193 
4496.000000	64.919281 
4495.000000	64.960098 
4494.000000	65.007257 
4493.000000	65.055346 
4492.000000	65.099263 
4491.000000	65.134954 
4490.000000	65.159440 
4489.000000	65.171694 
4488.000000	65.172004 
4487.000000	65.162515 
4486.000000	65.147757 
4485.000000	65.133190 
4484.000000	65.124607 
4483.000000	65.126323 
4482.000000	65.140962 
4481.000000	65.167498 
4480.000000	65.202331 
4479.000000	65.238499 
4478.000000	65.267968 
4477.000000	65.282583 
4476.000000	65.276527 
4475.000000	65.246677 
4474.000000	65.193438 
4473.000000	65.120458 
4472.000000	65.034246 
4471.000000	64.943051 
4470.000000	64.855623 
4469.000000	64.780545 
4468.000000	64.725351 
4467.000000	64.695906 
4466.000000	64.695835 
4465.000000	64.726352 
4464.000000	64.785671 
4463.000000	64.868712 
4462.000000	64.967155 
4461.000000	65.069699 
4460.000000	65.163898 
4459.000000	65.237736 
4458.000000	65.282273 
4457.000000	65.292501 
4456.000000	65.269303 
4455.000000	65.218615 
4454.000000	65.150856 
4453.000000	65.078949 
4452.000000	65.015530 
4451.000000	64.971375 
4450.000000	64.952540 
4449.000000	64.960002 
4448.000000	64.989137 
4447.000000	65.031552 
4446.000000	65.076780 
4445.000000	65.114903 
4444.000000	65.139579 
4443.000000	65.149664 
4442.000000	65.149354 
4441.000000	65.146660 
4440.000000	65.150856 
4439.000000	65.169286 
4438.000000	65.205264 
4437.000000	65.256619 
4436.000000	65.316033 
4435.000000	65.372872 
4434.000000	65.416431 
4433.000000	65.438747 
4432.000000	65.437173 
4431.000000	65.414857 
4430.000000	65.379381 
4429.000000	65.340518 
4428.000000	65.308213 
4427.000000	65.288805 
4426.000000	65.283703 
4425.000000	65.288424 
4424.000000	65.294885 
4423.000000	65.292978 
4422.000000	65.273952 
4421.000000	65.232634 
4420.000000	65.169358 
4419.000000	65.089178 
4418.000000	65.000605 
4417.000000	64.913272 
4416.000000	64.835453 
4415.000000	64.775252 
4414.000000	64.739131 
4413.000000	64.727854 
4412.000000	64.737558 
4411.000000	64.761281 
4410.000000	64.790701 
4409.000000	64.821648 
4408.000000	64.851760 
4407.000000	64.878010 
4406.000000	64.896273 
4405.000000	64.899373 
4404.000000	64.879846 
4403.000000	64.831590 
4402.000000	64.752984 
4401.000000	64.646506 
4400.000000	64.521002 
4399.000000	64.398622 
4398.000000	64.297723 
4397.000000	64.227318 
4396.000000	64.182496 
4395.000000	64.141607 
4394.000000	64.080095 
4393.000000	63.978481 
4392.000000	63.836097 
4391.000000	63.671565 
4390.000000	63.541173 
4389.000000	63.524842 
4388.000000	63.705897 
4387.000000	64.140200 
4386.000000	64.827322 
4385.000000	65.695881 
4384.000000	66.604375 
4383.000000	67.372107 
4382.000000	67.815947 
4381.000000	67.807602 
4380.000000	67.307257 
4379.000000	66.392874 
4378.000000	65.235996 
4377.000000	64.085626 
4376.000000	63.200306 
4375.000000	62.806606 
4374.000000	63.057565 
4373.000000	63.985109 
4372.000000	65.519475 
4371.000000	67.457842 
4370.000000	69.517874 
4369.000000	71.366333 
4368.000000	72.687101 
4367.000000	73.239350 
4366.000000	72.904157 
4365.000000	71.708869 
4364.000000	69.818449 
4363.000000	67.493057 
4362.000000	65.033698 
4361.000000	62.728881 
4360.000000	60.807394 
4359.000000	59.428620 
4358.000000	58.665728 
4357.000000	58.523392 
4356.000000	58.940148 
4355.000000	59.793782 
4354.000000	60.930657 
4353.000000	62.155604 
4352.000000	63.295745 
4351.000000	64.210796 
4350.000000	64.835786 
4349.000000	65.173840 
4348.000000	65.293264 
4347.000000	65.294003 
4346.000000	65.279078 
4345.000000	65.323138 
4344.000000	65.455222 
4343.000000	65.662097 
4342.000000	65.894699 
4341.000000	66.101837 
4340.000000	66.234827 
4339.000000	66.272091 
4338.000000	66.213035 
4337.000000	66.077518 
4336.000000	65.900468 
4335.000000	65.720844 
4334.000000	65.570592 
4333.000000	65.467190 
4332.000000	65.409684 
4331.000000	65.381121 
4330.000000	65.364980 
4329.000000	65.348243 
4328.000000	65.319466 
4327.000000	65.274477 
4326.000000	65.216493 
4325.000000	65.155434 
4324.000000	65.101766 
4323.000000	65.065741 
4322.000000	65.051293 
4321.000000	65.058064 
4320.000000	65.085458 
4319.000000	65.128755 
4318.000000	65.178394 
4317.000000	65.223741 
4316.000000	65.256071 
4315.000000	65.269231 
4314.000000	65.260481 
4313.000000	65.230917 
4312.000000	65.184473 
4311.000000	65.127706 
4310.000000	65.068268 
4309.000000	65.013504 
4308.000000	64.969038 
4307.000000	64.937448 
4306.000000	64.918351 
4305.000000	64.909076 
4304.000000	64.906096 
4303.000000	64.906787 
4302.000000	64.909982 
4301.000000	64.915704 
4300.000000	64.925003 
4299.000000	64.938545 
4298.000000	64.956617 
4297.000000	64.978313 
4296.000000	65.001893 
4295.000000	65.024256 
4294.000000	65.042757 
4293.000000	65.055179 
4292.000000	65.061616 
4291.000000	65.063881 
4290.000000	65.066409 
4289.000000	65.074682 
4288.000000	65.095043 
4287.000000	65.132808 
4286.000000	65.191602 
4285.000000	65.272116 
4284.000000	65.371346 
4283.000000	65.482831 
4282.000000	65.596938 
4281.000000	65.702366 
4280.000000	65.787672 
4279.000000	65.843272 
4278.000000	65.863251 
4277.000000	65.846228 
4276.000000	65.796113 
4275.000000	65.720510 
4274.000000	65.629386 
4273.000000	65.532374 
4272.000000	65.437459 
4271.000000	65.349483 
4270.000000	65.270614 
4269.000000	65.200734 
4268.000000	65.138888 
4267.000000	65.084981 
4266.000000	65.040159 
4265.000000	65.007638 
4264.000000	64.991044 
4263.000000	64.994192 
4262.000000	65.018653 
4261.000000	65.063071 
4260.000000	65.122199 
4259.000000	65.187668 
4258.000000	65.249061 
4257.000000	65.296125 
4256.000000	65.320587 
4255.000000	65.317749 
4254.000000	65.287470 
4253.000000	65.233683 
4252.000000	65.163445 
4251.000000	65.085530 
4250.000000	65.008592 
4249.000000	64.939594 
4248.000000	64.882516 
4247.000000	64.838242 
4246.000000	64.805078 
4245.000000	64.779758 
4244.000000	64.759039 
4243.000000	64.740324 
4242.000000	64.723587 
4241.000000	64.710021 
4240.000000	64.702939 
4239.000000	64.705562 
4238.000000	64.720964 
4237.000000	64.750218 
4236.000000	64.792656 
4235.000000	64.845418 
4234.000000	64.904308 
4233.000000	64.964485 
4232.000000	65.021157 
4231.000000	65.070557 
4230.000000	65.109944 
4229.000000	65.137910 
4228.000000	65.153884 
4227.000000	65.158057 
4226.000000	65.151429 
4225.000000	65.135741 
4224.000000	65.114140 
4223.000000	65.090608 
4222.000000	65.070438 
4221.000000	65.058493 
4220.000000	65.057444 
4219.000000	65.066671 
4218.000000	65.082263 
4217.000000	65.097427 
4216.000000	65.104341 
4215.000000	65.095806 
4214.000000	65.067243 
4213.000000	65.018057 
4212.000000	64.951992 
4211.000000	64.876437 
4210.000000	64.800238 
4209.000000	64.732456 
4208.000000	64.680147 
4207.000000	64.647626 
4206.000000	64.635920 
4205.000000	64.643025 
4204.000000	64.664554 
4203.000000	64.695072 
4202.000000	64.729285 
4201.000000	64.762854 
4200.000000	64.793157 
4199.000000	64.819359 
4198.000000	64.842486 
4197.000000	64.866232 
4196.000000	64.895415 
4195.000000	64.935469 
4194.000000	64.989304 
4193.000000	65.056467 
4192.000000	65.130615 
4191.000000	65.201020 
4190.000000	65.253305 
4189.000000	65.272593 
4188.000000	65.247535 
4187.000000	65.173339 
4186.000000	65.054249 
4185.000000	64.903020 
4184.000000	64.739847 
4183.000000	64.587712 
4182.000000	64.468908 
4181.000000	64.400029 
4180.000000	64.389801 
4179.000000	64.437603 
4178.000000	64.534497 
4177.000000	64.665603 
4176.000000	64.813208 
4175.000000	64.960217 
4174.000000	65.091395 
4173.000000	65.195012 
4172.000000	65.263175 
4171.000000	65.292119 
4170.000000	65.282559 
4169.000000	65.239238 
4168.000000	65.170860 
4167.000000	65.088605 
4166.000000	65.005397 
4165.000000	64.932870 
4164.000000	64.880275 
4163.000000	64.852166 
4162.000000	64.848470 
4161.000000	64.864563 
4160.000000	64.892292 
4159.000000	64.922714 
4158.000000	64.947795 
4157.000000	64.962792 
4156.000000	64.966106 
4155.000000	64.960122 
4154.000000	64.949035 
4153.000000	64.938545 
4152.000000	64.933252 
4151.000000	64.936828 
4150.000000	64.950752 
4149.000000	64.975237 
4148.000000	65.009450 
4147.000000	65.051674 
4146.000000	65.099596 
4145.000000	65.149879 
4144.000000	65.198183 
4143.000000	65.240025 
4142.000000	65.270829 
4141.000000	65.286612 
4140.000000	65.284204 
4139.000000	65.262126 
4138.000000	65.220570 
4137.000000	65.162014 
4136.000000	65.090775 
4135.000000	65.012335 
4134.000000	64.932632 
4133.000000	64.858031 
4132.000000	64.793896 
4131.000000	64.743924 
4130.000000	64.709758 
4129.000000	64.691114 
4128.000000	64.685702 
4127.000000	64.689636 
4126.000000	64.698147 
4125.000000	64.706182 
4124.000000	64.709520 
4123.000000	64.705061 
4122.000000	64.691686 
4121.000000	64.669704 
4120.000000	64.641165 
4119.000000	64.609146 
4118.000000	64.577150 
4117.000000	64.548635 
4116.000000	64.526653 
4115.000000	64.513540 
4114.000000	64.510560 
4113.000000	64.517903 
4112.000000	64.534711 
4111.000000	64.559483 
4110.000000	64.589762 
4109.000000	64.623117 
4108.000000	64.656734 
4107.000000	64.688849 
4106.000000	64.718365 
4105.000000	64.745593 
4104.000000	64.771819 
4103.000000	64.799094 
4102.000000	64.829993 
4101.000000	64.866304 
4100.000000	64.908289 
4099.000000	64.954495 
4098.000000	65.001940 
4097.000000	65.046715 
4096.000000	65.085172 
4095.000000	65.114545 
4094.000000	65.133929 
4093.000000	65.144133 
4092.000000	65.147709 
4091.000000	65.147614 
4090.000000	65.146732 
4089.000000	65.146780 
4088.000000	65.147995 
4087.000000	65.149736 
4086.000000	65.150809 
4085.000000	65.150260 
4084.000000	65.148019 
4083.000000	65.145373 
4082.000000	65.144848 
4081.000000	65.149092 
4080.000000	65.160417 
4079.000000	65.179562 
4078.000000	65.205621 
4077.000000	65.236449 
4076.000000	65.268325 
4075.000000	65.297174 
4074.000000	65.318369 
4073.000000	65.328240 
4072.000000	65.323638 
4071.000000	65.302562 
4070.000000	65.264344 
4069.000000	65.210103 
4068.000000	65.142607 
4067.000000	65.066194 
4066.000000	64.986681 
4065.000000	64.910650 
4064.000000	64.844584 
4063.000000	64.794206 
4062.000000	64.763617 
4061.000000	64.755105 
4060.000000	64.768385 
4059.000000	64.801168 
4058.000000	64.849400 
4057.000000	64.908170 
4056.000000	64.972043 
4055.000000	65.035271 
4054.000000	65.092253 
4053.000000	65.137672 
4052.000000	65.167140 
4051.000000	65.177392 
4050.000000	65.166902 
4049.000000	65.136361 
4048.000000	65.089249 
4047.000000	65.031051 
4046.000000	64.968514 
4045.000000	64.908552 
4044.000000	64.857435 
4043.000000	64.819383 
4042.000000	64.796400 
4041.000000	64.787936 
4040.000000	64.791488 
4039.000000	64.803218 
4038.000000	64.818906 
4037.000000	64.834785 
4036.000000	64.847898 
4035.000000	64.856147 
4034.000000	64.858436 
4033.000000	64.854288 
4032.000000	64.844274 
4031.000000	64.829182 
4030.000000	64.811015 
4029.000000	64.792370 
4028.000000	64.776802 
4027.000000	64.768409 
4026.000000	64.771533 
4025.000000	64.789366 
4024.000000	64.824056 
4023.000000	64.876031 
4022.000000	64.943647 
4021.000000	65.023088 
4020.000000	65.108823 
4019.000000	65.194463 
4018.000000	65.273427 
4017.000000	65.339660 
4016.000000	65.388226 
4015.000000	65.415954 
4014.000000	65.421724 
4013.000000	65.406632 
4012.000000	65.373420 
4011.000000	65.326166 
4010.000000	65.270185 
4009.000000	65.211224 
4008.000000	65.154838 
4007.000000	65.105605 
4006.000000	65.066909 
4005.000000	65.040183 
4004.000000	65.025138 
4003.000000	65.019822 
4002.000000	65.021038 
4001.000000	65.025162 
4000.000000	65.028595 
3999.000000	65.028810 
3998.000000	65.024304 
3997.000000	65.014886 
3996.000000	65.001201 
3995.000000	64.984321 
3994.000000	64.965176 
3993.000000	64.944076 
3992.000000	64.920735 
3991.000000	64.894175 
3990.000000	64.863324 
3989.000000	64.827632 
3988.000000	64.787817 
3987.000000	64.745736 
3986.000000	64.704394 
3985.000000	64.667463 
3984.000000	64.638757 
3983.000000	64.621233 
3982.000000	64.616394 
3981.000000	64.623904 
3980.000000	64.641642 
3979.000000	64.666509 
3978.000000	64.695024 
3977.000000	64.723873 
3976.000000	64.750552 
3975.000000	64.773702 
3974.000000	64.793348 
3973.000000	64.809894 
3972.000000	64.824295 
3971.000000	64.837098 
3970.000000	64.848756 
3969.000000	64.859652 
3968.000000	64.869785 
3967.000000	64.879322 
3966.000000	64.888429 
3965.000000	64.897322 
3964.000000	64.906120 
3963.000000	64.914894 
3962.000000	64.923524 
3961.000000	64.931654 
3960.000000	64.938926 
3959.000000	64.945173 
3958.000000	64.950799 
3957.000000	64.956641 
3956.000000	64.964056 
3955.000000	64.974331 
3954.000000	64.988279 
3953.000000	65.006017 
3952.000000	65.026688 
3951.000000	65.048623 
3950.000000	65.069913 
3949.000000	65.088462 
3948.000000	65.102767 
3947.000000	65.111708 
3946.000000	65.114593 
3945.000000	65.110898 
3944.000000	65.100145 
3943.000000	65.082192 
3942.000000	65.057563 
3941.000000	65.027570 
3940.000000	64.994692 
3939.000000	64.962148 
3938.000000	64.933824 
3937.000000	64.912891 
3936.000000	64.901208 
3935.000000	64.898395 
3934.000000	64.901852 
3933.000000	64.906764 
3932.000000	64.907455 
3931.000000	64.898800 
3930.000000	64.877653 
3929.000000	64.843964 
3928.000000	64.801073 
3927.000000	64.754629 
3926.000000	64.711618 
3925.000000	64.678335 
3924.000000	64.659523 
3923.000000	64.657187 
3922.000000	64.670801 
3921.000000	64.697456 
3920.000000	64.732980 
3919.000000	64.772796 
3918.000000	64.812636 
3917.000000	64.849019 
3916.000000	64.879536 
3915.000000	64.902663 
3914.000000	64.917397 
3913.000000	64.923214 
3912.000000	64.919734 
3911.000000	64.906764 
3910.000000	64.884781 
3909.000000	64.855337 
3908.000000	64.821243 
3907.000000	64.786362 
3906.000000	64.755725 
3905.000000	64.734673 
3904.000000	64.728116 
3903.000000	64.739322 
3902.000000	64.769506 
3901.000000	64.817285 
3900.000000	64.878654 
3899.000000	64.947628 
3898.000000	65.017032 
3897.000000	65.079879 
3896.000000	65.130472 
3895.000000	65.165281 
3894.000000	65.183496 
3893.000000	65.186190 
3892.000000	65.176200 
3891.000000	65.156841 
3890.000000	65.131402 
3889.000000	65.102434 
3888.000000	65.072154 
3887.000000	65.042042 
3886.000000	65.013718 
3885.000000	64.988636 
3884.000000	64.968633 
3883.000000	64.955472 
3882.000000	64.950299 
3881.000000	64.953970 
3880.000000	64.966440 
3879.000000	64.986944 
3878.000000	65.013742 
3877.000000	65.044760 
3876.000000	65.077614 
3875.000000	65.110254 
3874.000000	65.140795 
3873.000000	65.167903 
3872.000000	65.190267 
3871.000000	65.206813 
3870.000000	65.216279 
3869.000000	65.217494 
3868.000000	65.209197 
3867.000000	65.190529 
3866.000000	65.161538 
3865.000000	65.123581 
3864.000000	65.079736 
3863.000000	65.033960 
3862.000000	64.991259 
3861.000000	64.956879 
3860.000000	64.935040 
3859.000000	64.928221 
3858.000000	64.936280 
3857.000000	64.956378 
3856.000000	64.983415 
3855.000000	65.011239 
3854.000000	65.033936 
3853.000000	65.047025 
3852.000000	65.048742 
3851.000000	65.040302 
3850.000000	65.025138 
3849.000000	65.007925 
3848.000000	64.993429 
3847.000000	64.985084 
3846.000000	64.984822 
3845.000000	64.992499 
3844.000000	65.006637 
3843.000000	65.024685 
3842.000000	65.044021 
3841.000000	65.061902 
3840.000000	65.076303 
3839.000000	65.085506 
3838.000000	65.088152 
3837.000000	65.082907 
3836.000000	65.068793 
3835.000000	65.045356 
3834.000000	65.012788 
3833.000000	64.972615 
3832.000000	64.927840 
3831.000000	64.882946 
3830.000000	64.843392 
3829.000000	64.814949 
3828.000000	64.802455 
3827.000000	64.809083 
3826.000000	64.835500 
3825.000000	64.879608 
3824.000000	64.936637 
3823.000000	64.999985 
3822.000000	65.062308 
3821.000000	65.116786 
3820.000000	65.158224 
3819.000000	65.183949 
3818.000000	65.194106 
3817.000000	65.191531 
3816.000000	65.180802 
3815.000000	65.167188 
3814.000000	65.155196 
3813.000000	65.148305 
3812.000000	65.147924 
3811.000000	65.153789 
3810.000000	65.163850 
3809.000000	65.175485 
3808.000000	65.185546 
3807.000000	65.191578 
3806.000000	65.191602 
3805.000000	65.184688 
3804.000000	65.170884 
3803.000000	65.151119 
3802.000000	65.127229 
3801.000000	65.101480 
3800.000000	65.076661 
3799.000000	65.055346 
3798.000000	65.040016 
3797.000000	65.032649 
3796.000000	65.034604 
3795.000000	65.046310 
3794.000000	65.067172 
3793.000000	65.095758 
3792.000000	65.130114 
3791.000000	65.167975 
3790.000000	65.206861 
3789.000000	65.244221 
3788.000000	65.277934 
3787.000000	65.306329 
3786.000000	65.327930 
3785.000000	65.341472 
3784.000000	65.346074 
3783.000000	65.341091 
3782.000000	65.326547 
3781.000000	65.302944 
3780.000000	65.271663 
3779.000000	65.234756 
3778.000000	65.194988 
3777.000000	65.155649 
3776.000000	65.120339 
3775.000000	65.092539 
3774.000000	65.074896 
3773.000000	65.069198 
3772.000000	65.075898 
3771.000000	65.094089 
3770.000000	65.121483 
3769.000000	65.154695 
3768.000000	65.189838 
3767.000000	65.222644 
3766.000000	65.249133 
3765.000000	65.265774 
3764.000000	65.269875 
3763.000000	65.260243 
3762.000000	65.237188 
3761.000000	65.202879 
3760.000000	65.160822 
3759.000000	65.115904 
3758.000000	65.073204 
3757.000000	65.037417 
3756.000000	65.011644 
3755.000000	64.997172 
3754.000000	64.992928 
3753.000000	64.996099 
3752.000000	65.002775 
3751.000000	65.008974 
3750.000000	65.011715 
3749.000000	65.009784 
3748.000000	65.003943 
3747.000000	64.996314 
3746.000000	64.989566 
3745.000000	64.985871 
3744.000000	64.986062 
3743.000000	64.989328 
3742.000000	64.993834 
3741.000000	64.997315 
3740.000000	64.998245 
3739.000000	64.996504 
3738.000000	64.993739 
3737.000000	64.993143 
3736.000000	64.998197 
3735.000000	65.011787 
3734.000000	65.035486 
3733.000000	65.068840 
3732.000000	65.109324 
3731.000000	65.152525 
3730.000000	65.193533 
3729.000000	65.227580 
3728.000000	65.251374 
3727.000000	65.263223 
3726.000000	65.263271 
3725.000000	65.253090 
3724.000000	65.235328 
3723.000000	65.213036 
3722.000000	65.188717 
3721.000000	65.164327 
3720.000000	65.141415 
3719.000000	65.120601 
3718.000000	65.102243 
3717.000000	65.086507 
3716.000000	65.073704 
3715.000000	65.063977 
3714.000000	65.057373 
3713.000000	65.053629 
3712.000000	65.051960 
3711.000000	65.050792 
3710.000000	65.048027 
3709.000000	65.041255 
3708.000000	65.028262 
3707.000000	65.007495 
3706.000000	64.978933 
3705.000000	64.943766 
3704.000000	64.905261 
3703.000000	64.867663 
3702.000000	64.836096 
3701.000000	64.814972 
3700.000000	64.807724 
3699.000000	64.815759 
3698.000000	64.838480 
3697.000000	64.872813 
3696.000000	64.914584 
3695.000000	64.959263 
3694.000000	65.002870 
3693.000000	65.042638 
3692.000000	65.077304 
3691.000000	65.106821 
3690.000000	65.132021 
3689.000000	65.153861 
3688.000000	65.172934 
3687.000000	65.189218 
3686.000000	65.202307 
3685.000000	65.211606 
3684.000000	65.216994 
3683.000000	65.218901 
3682.000000	65.218710 
3681.000000	65.218186 
3680.000000	65.219259 
3679.000000	65.223073 
3678.000000	65.229868 
3677.000000	65.238475 
3676.000000	65.246725 
3675.000000	65.251779 
3674.000000	65.251111 
3673.000000	65.242886 
3672.000000	65.226721 
3671.000000	65.203738 
3670.000000	65.176391 
3669.000000	65.147781 
3668.000000	65.120935 
3667.000000	65.098452 
3666.000000	65.081524 
3665.000000	65.070748 
3664.000000	65.065956 
3663.000000	65.066480 
3662.000000	65.071392 
3661.000000	65.079832 
3660.000000	65.091085 
3659.000000	65.104174 
3658.000000	65.117621 
3657.000000	65.129566 
3656.000000	65.137934 
3655.000000	65.140771 
3654.000000	65.136480 
3653.000000	65.124559 
3652.000000	65.105366 
3651.000000	65.080404 
3650.000000	65.051889 
3649.000000	65.022230 
3648.000000	64.993524 
3647.000000	64.967465 
3646.000000	64.944863 
3645.000000	64.925861 
3644.000000	64.910078 
3643.000000	64.897108 
3642.000000	64.886474 
3641.000000	64.877748 
3640.000000	64.870381 
3639.000000	64.863538 
3638.000000	64.856505 
3637.000000	64.848232 
3636.000000	64.838075 
3635.000000	64.825534 
3634.000000	64.811015 
3633.000000	64.795732 
3632.000000	64.781546 
3631.000000	64.770793 
3630.000000	64.765596 
3629.000000	64.767169 
3628.000000	64.775633 
3627.000000	64.789843 
3626.000000	64.807605 
3625.000000	64.826440 
3624.000000	64.843893 
3623.000000	64.858675 
3622.000000	64.870524 
3621.000000	64.880704 
3620.000000	64.891505 
3619.000000	64.905595 
3618.000000	64.925026 
3617.000000	64.950323 
3616.000000	64.980769 
3615.000000	65.013217 
3614.000000	65.043115 
3613.000000	65.064597 
3612.000000	65.072584 
3611.000000	65.062999 
3610.000000	65.034079 
3609.000000	64.987230 
3608.000000	64.926958 
3607.000000	64.860391 
3606.000000	64.795804 
3605.000000	64.741516 
3604.000000	64.704346 
3603.000000	64.687919 
3602.000000	64.692234 
3601.000000	64.713597 
3600.000000	64.745712 
3599.000000	64.780974 
3598.000000	64.812803 
3597.000000	64.836096 
3596.000000	64.849114 
3595.000000	64.853239 
3594.000000	64.852380 
3593.000000	64.851403 
3592.000000	64.854598 
3591.000000	64.864540 
3590.000000	64.881324 
3589.000000	64.902687 
3588.000000	64.924979 
3587.000000	64.944386 
3586.000000	64.958262 
3585.000000	64.966177 
3584.000000	64.969968 
3583.000000	64.973282 
3582.000000	64.980483 
3581.000000	64.995169 
3580.000000	65.019321 
3579.000000	65.052533 
3578.000000	65.092253 
3577.000000	65.133905 
3576.000000	65.171861 
3575.000000	65.200352 
3574.000000	65.214753 
3573.000000	65.212249 
3572.000000	65.191841 
3571.000000	65.154743 
3570.000000	65.104055 
3569.000000	65.044474 
3568.000000	64.982032 
3567.000000	64.922928 
3566.000000	64.873123 
3565.000000	64.837217 
3564.000000	64.818072 
3563.000000	64.816188 
3562.000000	64.829444 
3561.000000	64.853858 
3560.000000	64.884209 
3559.000000	64.915251 
3558.000000	64.942383 
3557.000000	64.962458 
3556.000000	64.974117 
3555.000000	64.977574 
3554.000000	64.974069 
3553.000000	64.965534 
3552.000000	64.953875 
3551.000000	64.940810 
3550.000000	64.927530 
3549.000000	64.915180 
3548.000000	64.904642 
3547.000000	64.897060 
3546.000000	64.893317 
3545.000000	64.894056 
3544.000000	64.899325 
3543.000000	64.908146 
3542.000000	64.919018 
3541.000000	64.929866 
3540.000000	64.938521 
3539.000000	64.943528 
3538.000000	64.944219 
3537.000000	64.940643 
3536.000000	64.933729 
3535.000000	64.924907 
3534.000000	64.915895 
3533.000000	64.908242 
3532.000000	64.903140 
3531.000000	64.901399 
3530.000000	64.903140 
3529.000000	64.907908 
3528.000000	64.914608 
3527.000000	64.921784 
3526.000000	64.928007 
3525.000000	64.932394 
3524.000000	64.934420 
3523.000000	64.934301 
3522.000000	64.932870 
3521.000000	64.931511 
3520.000000	64.931988 
3519.000000	64.935946 
3518.000000	64.944481 
3517.000000	64.957594 
3516.000000	64.974594 
3515.000000	64.993858 
3514.000000	65.013408 
3513.000000	65.030860 
3512.000000	65.044283 
3511.000000	65.052270 
3510.000000	65.054178 
3509.000000	65.050268 
3508.000000	65.041351 
3507.000000	65.028905 
3506.000000	65.014815 
3505.000000	65.000891 
3504.000000	64.988732 
3503.000000	64.978837 
3502.000000	64.970755 
3501.000000	64.963054 
3500.000000	64.953875 
3499.000000	64.941596 
3498.000000	64.925622 
3497.000000	64.906978 
3496.000000	64.888453 
3495.000000	64.874410 
3494.000000	64.869999 
3493.000000	64.879846 
3492.000000	64.906859 
3491.000000	64.951300 
3490.000000	65.010452 
3489.000000	65.079045 
3488.000000	65.150117 
3487.000000	65.215945 
3486.000000	65.269589 
3485.000000	65.306377 
3484.000000	65.323877 
3483.000000	65.322375 
3482.000000	65.304231 
3481.000000	65.273165 
3480.000000	65.233802 
3479.000000	65.190911 
3478.000000	65.148901 
3477.000000	65.111780 
3476.000000	65.082693 
3475.000000	65.064263 
3474.000000	65.057802 
3473.000000	65.063452 
3472.000000	65.079545 
3471.000000	65.103006 
3470.000000	65.129399 
3469.000000	65.153861 
3468.000000	65.172052 
3467.000000	65.181517 
3466.000000	65.181994 
3465.000000	65.176105 
3464.000000	65.168571 
3463.000000	65.165472 
3462.000000	65.172672 
3461.000000	65.194082 
3460.000000	65.231132 
3459.000000	65.281629 
3458.000000	65.340375 
3457.000000	65.399932 
3456.000000	65.452361 
3455.000000	65.490198 
3454.000000	65.508413 
3453.000000	65.504527 
3452.000000	65.479326 
3451.000000	65.436172 
3450.000000	65.380597 
3449.000000	65.319061 
3448.000000	65.258026 
3447.000000	65.203166 
3446.000000	65.158987 
3445.000000	65.127897 
3444.000000	65.110468 
3443.000000	65.105485 
3442.000000	65.110445 
3441.000000	65.121984 
3440.000000	65.136718 
3439.000000	65.151476 
3438.000000	65.163683 
3437.000000	65.171623 
3436.000000	65.174603 
3435.000000	65.172410 
3434.000000	65.165472 
3433.000000	65.154814 
3432.000000	65.141963 
3431.000000	65.128922 
3430.000000	65.118169 
3429.000000	65.112090 
3428.000000	65.112996 
3427.000000	65.122580 
3426.000000	65.141391 
3425.000000	65.168404 
3424.000000	65.200877 
3423.000000	65.234875 
3422.000000	65.265679 
3421.000000	65.288662 
3420.000000	65.300273 
3419.000000	65.299010 
3418.000000	65.285229 
3417.000000	65.261173 
3416.000000	65.230584 
3415.000000	65.197753 
3414.000000	65.166592 
3413.000000	65.140008 
3412.000000	65.119409 
3411.000000	65.104794 
3410.000000	65.095043 
3409.000000	65.088725 
3408.000000	65.084099 
3407.000000	65.080618 
3406.000000	65.078639 
3405.000000	65.079998 
3404.000000	65.086793 
3403.000000	65.101337 
3402.000000	65.124940 
3401.000000	65.157914 
3400.000000	65.198945 
3399.000000	65.245747 
3398.000000	65.295243 
3397.000000	65.344500 
3396.000000	65.391087 
3395.000000	65.433359 
3394.000000	65.470266 
3393.000000	65.500879 
3392.000000	65.524268 
3391.000000	65.539097 
3390.000000	65.543889 
3389.000000	65.537047 
3388.000000	65.517473 
3387.000000	65.485239 
3386.000000	65.441727 
3385.000000	65.389943 
3384.000000	65.334081 
3383.000000	65.278697 
3382.000000	65.228176 
3381.000000	65.185856 
3380.000000	65.153861 
3379.000000	65.132975 
3378.000000	65.122914 
3377.000000	65.122437 
3376.000000	65.130233 
3375.000000	65.144681 
3374.000000	65.164422 
3373.000000	65.187788 
3372.000000	65.213322 
3371.000000	65.239357 
3370.000000	65.264105 
3369.000000	65.285539 
3368.000000	65.301609 
3367.000000	65.310502 
3366.000000	65.310811 
3365.000000	65.301918 
3364.000000	65.284276 
3363.000000	65.259671 
3362.000000	65.231013 
3361.000000	65.201759 
3360.000000	65.175318 
3359.000000	65.154170 
3358.000000	65.139675 
3357.000000	65.131258 
3356.000000	65.126633 
3355.000000	65.122103 
3354.000000	65.113854 
3353.000000	65.098929 
3352.000000	65.075922 
3351.000000	65.045690 
3350.000000	65.011310 
3349.000000	64.977407 
3348.000000	64.948725 
3347.000000	64.929270 
3346.000000	64.921164 
3345.000000	64.924383 
3344.000000	64.936995 
3343.000000	64.955711 
3342.000000	64.976644 
3341.000000	64.996361 
3340.000000	65.012431 
3339.000000	65.023851 
3338.000000	65.030622 
3337.000000	65.033769 
3336.000000	65.034818 
3335.000000	65.035748 
3334.000000	65.038442 
3333.000000	65.044832 
3332.000000	65.056276 
3331.000000	65.073800 
3330.000000	65.097618 
3329.000000	65.126538 
3328.000000	65.158081 
3327.000000	65.188622 
3326.000000	65.213942 
3325.000000	65.230226 
3324.000000	65.234804 
3323.000000	65.227150 
3322.000000	65.208578 
3321.000000	65.182542 
3320.000000	65.153098 
3319.000000	65.124511 
3318.000000	65.099811 
3317.000000	65.080308 
3316.000000	65.065717 
3315.000000	65.054535 
3314.000000	65.045046 
3313.000000	65.036129 
3312.000000	65.027999 
3311.000000	65.022182 
3310.000000	65.021467 
3309.000000	65.028572 
3308.000000	65.045142 
3307.000000	65.071010 
3306.000000	65.103936 
3305.000000	65.140104 
3304.000000	65.174770 
3303.000000	65.203404 
3302.000000	65.222740 
3301.000000	65.231156 
3300.000000	65.229129 
3299.000000	65.218448 
3298.000000	65.201926 
3297.000000	65.182137 
3296.000000	65.161037 
3295.000000	65.139603 
3294.000000	65.118002 
3293.000000	65.096116 
3292.000000	65.073966 
3291.000000	65.052294 
3290.000000	65.032601 
3289.000000	65.017151 
3288.000000	65.008449 
3287.000000	65.008592 
3286.000000	65.018415 
3285.000000	65.037345 
3284.000000	65.063285 
3283.000000	65.092968 
3282.000000	65.122342 
3281.000000	65.147614 
3280.000000	65.165758 
3279.000000	65.175366 
3278.000000	65.176701 
3277.000000	65.171575 
3276.000000	65.162754 
3275.000000	65.153527 
3274.000000	65.146636 
3273.000000	65.143775 
3272.000000	65.145039 
3271.000000	65.149140 
3270.000000	65.153717 
3269.000000	65.155744 
3268.000000	65.152621 
3267.000000	65.142846 
3266.000000	65.126824 
3265.000000	65.106534 
3264.000000	65.086030 
3263.000000	65.069913 
3262.000000	65.062999 
3261.000000	65.069007 
3260.000000	65.089583 
3259.000000	65.123796 
3258.000000	65.168046 
3257.000000	65.216898 
3256.000000	65.263962 
3255.000000	65.303254 
3254.000000	65.330195 
3253.000000	65.342330 
3252.000000	65.339589 
3251.000000	65.324139 
3250.000000	65.299463 
3249.000000	65.269494 
3248.000000	65.238142 
3247.000000	65.208292 
3246.000000	65.181779 
3245.000000	65.159106 
3244.000000	65.139889 
3243.000000	65.123295 
3242.000000	65.108466 
3241.000000	65.095090 
3240.000000	65.083074 
3239.000000	65.073513 
3238.000000	65.067553 
3237.000000	65.066885 
3236.000000	65.072894 
3235.000000	65.086269 
3234.000000	65.106701 
3233.000000	65.132188 
3232.000000	65.159320 
3231.000000	65.183591 
3230.000000	65.200209 
3229.000000	65.205311 
3228.000000	65.196752 
3227.000000	65.174818 
3226.000000	65.142226 
3225.000000	65.103816 
3224.000000	65.065383 
3223.000000	65.032219 
3222.000000	65.008044 
3221.000000	64.994502 
3220.000000	64.990997 
3219.000000	64.995217 
3218.000000	65.004062 
3217.000000	65.014505 
3216.000000	65.024542 
3215.000000	65.033626 
3214.000000	65.042614 
3213.000000	65.052700 
3212.000000	65.065264 
3211.000000	65.080857 
3210.000000	65.099167 
3209.000000	65.118837 
3208.000000	65.137982 
3207.000000	65.154838 
3206.000000	65.168142 
3205.000000	65.177392 
3204.000000	65.182781 
3203.000000	65.185070 
3202.000000	65.184736 
3201.000000	65.181612 
3200.000000	65.174984 
3199.000000	65.163683 
3198.000000	65.146613 
3197.000000	65.123558 
3196.000000	65.095448 
3195.000000	65.064716 
3194.000000	65.034961 
3193.000000	65.010523 
3192.000000	64.995455 
3191.000000	64.992880 
3190.000000	65.004158 
3189.000000	65.028691 
3188.000000	65.064191 
3187.000000	65.107059 
3186.000000	65.153026 
3185.000000	65.197873 
3184.000000	65.237879 
3183.000000	65.270423 
3182.000000	65.293860 
3181.000000	65.307974 
3180.000000	65.313386 
3179.000000	65.311861 
3178.000000	65.305972 
3177.000000	65.298628 
3176.000000	65.292787 
3175.000000	65.290498 
3174.000000	65.292859 
3173.000000	65.299177 
3172.000000	65.307283 
3171.000000	65.314030 
3170.000000	65.316009 
3169.000000	65.310525 
3168.000000	65.296554 
3167.000000	65.275001 
3166.000000	65.248823 
3165.000000	65.222382 
3164.000000	65.200829 
3163.000000	65.188360 
3162.000000	65.187573 
3161.000000	65.198922 
3160.000000	65.220403 
3159.000000	65.248203 
3158.000000	65.277290 
3157.000000	65.302324 
3156.000000	65.318894 
3155.000000	65.324378 
3154.000000	65.318155 
3153.000000	65.300989 
3152.000000	65.275192 
3151.000000	65.243840 
3150.000000	65.210080 
3149.000000	65.176582 
3148.000000	65.145158 
3147.000000	65.116691 
3146.000000	65.091395 
3145.000000	65.069127 
3144.000000	65.049862 
3143.000000	65.034174 
3142.000000	65.023279 
3141.000000	65.019154 
3140.000000	65.023994 
3139.000000	65.039849 
3138.000000	65.068030 
3137.000000	65.108036 
3136.000000	65.157198 
3135.000000	65.210413 
3134.000000	65.261292 
3133.000000	65.302252 
3132.000000	65.326094 
3131.000000	65.327095 
3130.000000	65.302467 
3129.000000	65.253067 
3128.000000	65.183424 
3127.000000	65.101122 
3126.000000	65.015673 
3125.000000	64.937019 
3124.000000	64.873766 
3123.000000	64.831709 
3122.000000	64.813184 
3121.000000	64.816784 
3120.000000	64.838075 
3119.000000	64.870429 
3118.000000	64.906597 
3117.000000	64.939999 
3116.000000	64.965987 
3115.000000	64.982008 
3114.000000	64.988660 
3113.000000	64.988946 
3112.000000	64.987969 
3111.000000	64.991283 
3110.000000	65.004038 
3109.000000	65.029454 
3108.000000	65.068173 
3107.000000	65.118169 
3106.000000	65.174698 
3105.000000	65.231871 
3104.000000	65.283584 
3103.000000	65.324807 
3102.000000	65.352559 
3101.000000	65.366530 
3100.000000	65.368580 
3099.000000	65.362310 
3098.000000	65.351581 
3097.000000	65.339589 
3096.000000	65.328097 
3095.000000	65.317487 
3094.000000	65.306496 
3093.000000	65.292906 
3092.000000	65.274572 
3091.000000	65.250396 
3090.000000	65.220189 
3089.000000	65.184998 
3088.000000	65.146660 
3087.000000	65.107750 
3086.000000	65.071129 
3085.000000	65.039730 
3084.000000	65.015935 
3083.000000	65.001416 
3082.000000	64.997005 
3081.000000	65.002632 
3080.000000	65.016722 
3079.000000	65.036988 
3078.000000	65.060305 
3077.000000	65.083456 
3076.000000	65.103149 
3075.000000	65.117239 
3074.000000	65.125012 
3073.000000	65.127468 
3072.000000	65.126490 
3071.000000	65.124845 
3070.000000	65.125489 
3069.000000	65.130734 
3068.000000	65.141773 
3067.000000	65.158510 
3066.000000	65.179562 
3065.000000	65.202999 
3064.000000	65.226769 
3063.000000	65.249133 
3062.000000	65.268945 
3061.000000	65.285825 
3060.000000	65.299749 
3059.000000	65.311002 
3058.000000	65.319609 
3057.000000	65.325498 
3056.000000	65.328240 
3055.000000	65.327143 
3054.000000	65.321230 
3053.000000	65.310215 
3052.000000	65.293931 
3051.000000	65.272736 
3050.000000	65.247368 
3049.000000	65.218758 
3048.000000	65.188241 
3047.000000	65.157198 
3046.000000	65.127396 
3045.000000	65.100336 
3044.000000	65.078186 
3043.000000	65.063190 
3042.000000	65.057373 
3041.000000	65.062046 
3040.000000	65.077257 
3039.000000	65.101718 
3038.000000	65.132212 
3037.000000	65.164279 
3036.000000	65.192985 
3035.000000	65.213990 
3034.000000	65.224218 
3033.000000	65.222549 
3032.000000	65.210485 
3031.000000	65.191411 
3030.000000	65.170049 
3029.000000	65.151190 
3028.000000	65.138673 
3027.000000	65.134739 
3026.000000	65.139842 
3025.000000	65.152478 
3024.000000	65.170049 
3023.000000	65.189242 
3022.000000	65.207028 
3021.000000	65.220999 
3020.000000	65.229535 
3019.000000	65.231752 
3018.000000	65.227389 
3017.000000	65.216636 
3016.000000	65.199995 
3015.000000	65.178179 
3014.000000	65.152287 
3013.000000	65.123438 
3012.000000	65.092706 
3011.000000	65.060877 
3010.000000	65.028762 
3009.000000	64.996647 
3008.000000	64.964866 
3007.000000	64.933609 
3006.000000	64.903664 
3005.000000	64.876222 
3004.000000	64.853572 
3003.000000	64.838242 
3002.000000	64.833092 
3001.000000	64.840197 
3000.000000	64.860606 
2999.000000	64.893555 
2998.000000	64.936399 
2997.000000	64.984726 
2996.000000	65.033102 
2995.000000	65.075874 
2994.000000	65.108394 
2993.000000	65.127682 
2992.000000	65.133237 
2991.000000	65.126562 
2990.000000	65.111112 
2989.000000	65.091586 
2988.000000	65.072751 
2987.000000	65.058636 
2986.000000	65.051698 
2985.000000	65.052771 
2984.000000	65.061020 
2983.000000	65.074396 
2982.000000	65.090227 
2981.000000	65.105986 
2980.000000	65.119695 
2979.000000	65.130591 
2978.000000	65.139031 
2977.000000	65.146350 
2976.000000	65.154385 
2975.000000	65.165162 
2974.000000	65.179991 
2973.000000	65.199446 
2972.000000	65.222930 
2971.000000	65.248990 
2970.000000	65.275430 
2969.000000	65.299582 
2968.000000	65.319180 
2967.000000	65.332245 
2966.000000	65.337824 
2965.000000	65.335631 
2964.000000	65.326046 
2963.000000	65.309786 
2962.000000	65.288186 
2961.000000	65.262484 
2960.000000	65.233826 
2959.000000	65.203380 
2958.000000	65.172243 
2957.000000	65.141487 
2956.000000	65.112328 
2955.000000	65.085816 
2954.000000	65.063047 
2953.000000	65.044617 
2952.000000	65.030884 
2951.000000	65.021753 
2950.000000	65.017104 
2949.000000	65.016341 
2948.000000	65.019011 
2947.000000	65.024757 
2946.000000	65.033650 
2945.000000	65.045571 
2944.000000	65.060305 
2943.000000	65.077185 
2942.000000	65.094757 
2941.000000	65.111064 
2940.000000	65.123438 
2939.000000	65.128970 
2938.000000	65.125060 
2937.000000	65.110278 
2936.000000	65.084600 
2935.000000	65.049672 
2934.000000	65.008807 
2933.000000	64.966416 
2932.000000	64.926934 
2931.000000	64.893984 
2930.000000	64.869642 
2929.000000	64.854311 
2928.000000	64.846467 
2927.000000	64.843297 
2926.000000	64.841485 
2925.000000	64.838027 
2924.000000	64.830446 
2923.000000	64.817786 
2922.000000	64.800047 
2921.000000	64.778637 
2920.000000	64.755582 
2919.000000	64.733552 
2918.000000	64.715027 
2917.000000	64.702463 
2916.000000	64.697384 
2915.000000	64.700794 
2914.000000	64.712619 
2913.000000	64.732265 
2912.000000	64.758348 
2911.000000	64.789247 
2910.000000	64.822936 
2909.000000	64.857792 
2908.000000	64.892387 
2907.000000	64.925837 
2906.000000	64.957523 
2905.000000	64.987063 
2904.000000	65.014004 
2903.000000	65.037727 
2902.000000	65.057706 
2901.000000	65.073275 
2900.000000	65.083980 
2899.000000	65.089964 
2898.000000	65.092062 
2897.000000	65.091609 
2896.000000	65.090084 
2895.000000	65.089297 
2894.000000	65.090584 
2893.000000	65.094757 
2892.000000	65.101790 
2891.000000	65.111184 
2890.000000	65.121889 
2889.000000	65.132737 
2888.000000	65.142440 
2887.000000	65.150046 
2886.000000	65.154695 
2885.000000	65.155935 
2884.000000	65.153503 
2883.000000	65.147233 
2882.000000	65.137529 
2881.000000	65.125370 
2880.000000	65.112280 
2879.000000	65.100145 
2878.000000	65.090990 
2877.000000	65.086460 
2876.000000	65.087413 
2875.000000	65.093564 
2874.000000	65.103745 
2873.000000	65.115904 
2872.000000	65.127658 
2871.000000	65.136718 
2870.000000	65.141463 
2869.000000	65.141367 
2868.000000	65.136814 
2867.000000	65.129137 
2866.000000	65.120148 
2865.000000	65.111565 
2864.000000	65.104770 
2863.000000	65.100145 
2862.000000	65.097475 
2861.000000	65.095281 
2860.000000	65.091753 
2859.000000	65.084815 
2858.000000	65.072584 
2857.000000	65.053963 
2856.000000	65.028834 
2855.000000	64.998841 
2854.000000	64.966821 
2853.000000	64.936923 
2852.000000	64.913821 
2851.000000	64.901733 
2850.000000	64.903521 
2849.000000	64.920067 
2848.000000	64.949941 
2847.000000	64.989471 
2846.000000	65.033459 
2845.000000	65.076088 
2844.000000	65.112233 
2843.000000	65.138220 
2842.000000	65.152406 
2841.000000	65.155315 
2840.000000	65.149211 
2839.000000	65.137171 
2838.000000	65.122437 
2837.000000	65.107631 
2836.000000	65.094447 
2835.000000	65.083479 
2834.000000	65.074801 
2833.000000	65.068268 
2832.000000	65.063953 
2831.000000	65.062212 
2830.000000	65.063858 
2829.000000	65.069603 
2828.000000	65.080165 
2827.000000	65.095663 
2826.000000	65.115761 
2825.000000	65.139102 
2824.000000	65.164065 
2823.000000	65.188717 
2822.000000	65.211081 
2821.000000	65.229368 
2820.000000	65.242242 
2819.000000	65.249133 
2818.000000	65.249943 
2817.000000	65.245199 
2816.000000	65.236163 
2815.000000	65.224790 
2814.000000	65.213251 
2813.000000	65.203762 
2812.000000	65.198349 
2811.000000	65.198230 
2810.000000	65.203857 
2809.000000	65.214467 
2808.000000	65.228247 
2807.000000	65.242838 
2806.000000	65.255737 
2805.000000	65.264892 
2804.000000	65.268731 
2803.000000	65.266609 
2802.000000	65.258955 
2801.000000	65.246748 
2800.000000	65.231275 
2799.000000	65.213584 
2798.000000	65.194439 
2797.000000	65.174174 
2796.000000	65.152740 
2795.000000	65.130066 
2794.000000	65.106177 
2793.000000	65.081572 
2792.000000	65.057206 
2791.000000	65.034270 
2790.000000	65.013861 
2789.000000	64.996910 
2788.000000	64.984107 
2787.000000	64.975380 
2786.000000	64.970445 
2785.000000	64.968585 
2784.000000	64.969587 
2783.000000	64.973282 
2782.000000	64.980316 
2781.000000	64.991545 
2780.000000	65.008044 
2779.000000	65.030360 
2778.000000	65.058493 
2777.000000	65.091204 
2776.000000	65.126204 
2775.000000	65.160274 
2774.000000	65.189933 
2773.000000	65.212011 
2772.000000	65.224289 
2771.000000	65.226054 
2770.000000	65.217947 
2769.000000	65.201783 
2768.000000	65.180063 
2767.000000	65.155363 
2766.000000	65.129542 
2765.000000	65.103459 
2764.000000	65.077257 
2763.000000	65.050530 
2762.000000	65.023016 
2761.000000	64.995217 
2760.000000	64.968752 
2759.000000	64.946293 
2758.000000	64.930820 
2757.000000	64.925169 
2756.000000	64.931011 
2755.000000	64.948439 
2754.000000	64.975428 
2753.000000	65.008425 
2752.000000	65.042686 
2751.000000	65.073776 
2750.000000	65.098047 
2749.000000	65.113735 
2748.000000	65.120697 
2747.000000	65.120697 
2746.000000	65.116572 
2745.000000	65.111279 
2744.000000	65.107226 
2743.000000	65.105605 
2742.000000	65.106415 
2741.000000	65.108489 
2740.000000	65.110182 
2739.000000	65.109920 
2738.000000	65.106725 
2737.000000	65.100550 
2736.000000	65.092587 
2735.000000	65.084528 
2734.000000	65.078568 
2733.000000	65.076732 
2732.000000	65.080475 
2731.000000	65.090394 
2730.000000	65.105938 
2729.000000	65.125846 
2728.000000	65.147995 
2727.000000	65.170264 
2726.000000	65.190196 
2725.000000	65.205717 
2724.000000	65.215182 
2723.000000	65.217590 
2722.000000	65.212607 
2721.000000	65.200591 
2720.000000	65.182709 
2719.000000	65.161013 
2718.000000	65.138053 
2717.000000	65.116691 
2716.000000	65.099763 
2715.000000	65.089464 
2714.000000	65.087103 
2713.000000	65.092897 
2712.000000	65.105748 
2711.000000	65.123414 
2710.000000	65.143060 
2709.000000	65.161681 
2708.000000	65.176630 
2707.000000	65.185904 
2706.000000	65.188407 
2705.000000	65.184116 
2704.000000	65.173578 
2703.000000	65.157604 
2702.000000	65.137338 
2701.000000	65.113854 
2700.000000	65.088129 
2699.000000	65.060997 
2698.000000	65.033388 
2697.000000	65.006566 
2696.000000	64.982008 
2695.000000	64.961481 
2694.000000	64.946627 
2693.000000	64.938926 
2692.000000	64.939546 
2691.000000	64.948916 
2690.000000	64.966607 
2689.000000	64.991474 
2688.000000	65.021634 
2687.000000	65.054750 
2686.000000	65.088272 
2685.000000	65.119862 
2684.000000	65.147614 
2683.000000	65.170288 
2682.000000	65.187406 
2681.000000	65.199398 
2680.000000	65.207219 
2679.000000	65.212559 
2678.000000	65.217018 
2677.000000	65.222525 
2676.000000	65.230154 
2675.000000	65.240836 
2674.000000	65.254116 
2673.000000	65.268969 
2672.000000	65.283179 
2671.000000	65.294575 
2670.000000	65.300679 
2669.000000	65.299749 
2668.000000	65.290927 
2667.000000	65.274786 
2666.000000	65.253210 
2665.000000	65.228796 
2664.000000	65.204668 
2663.000000	65.183711 
2662.000000	65.167903 
2661.000000	65.158033 
2660.000000	65.153479 
2659.000000	65.152525 
2658.000000	65.152978 
2657.000000	65.152621 
2656.000000	65.149807 
2655.000000	65.143728 
2654.000000	65.134644 
2653.000000	65.123581 
2652.000000	65.112018 
2651.000000	65.101528 
2650.000000	65.093493 
2649.000000	65.088939 
2648.000000	65.088343 
2647.000000	65.091657 
2646.000000	65.098428 
2645.000000	65.107870 
2644.000000	65.118980 
2643.000000	65.130853 
2642.000000	65.142512 
2641.000000	65.153217 
2640.000000	65.162372 
2639.000000	65.169501 
2638.000000	65.174436 
2637.000000	65.177035 
2636.000000	65.177392 
2635.000000	65.175724 
2634.000000	65.172433 
2633.000000	65.168190 
2632.000000	65.163946 
2631.000000	65.160822 
2630.000000	65.159869 
2629.000000	65.162038 
2628.000000	65.167951 
2627.000000	65.177512 
2626.000000	65.190029 
2625.000000	65.204000 
2624.000000	65.217685 
2623.000000	65.229463 
2622.000000	65.238189 
2621.000000	65.243315 
2620.000000	65.245413 
2619.000000	65.245747 
2618.000000	65.246057 
2617.000000	65.248107 
2616.000000	65.252947 
2615.000000	65.260863 
2614.000000	65.270996 
2613.000000	65.281796 
2612.000000	65.291166 
2611.000000	65.297150 
2610.000000	65.298318 
2609.000000	65.294146 
2608.000000	65.285158 
2607.000000	65.272736 
2606.000000	65.258765 
2605.000000	65.245294 
2604.000000	65.234065 
2603.000000	65.226197 
2602.000000	65.222191 
2601.000000	65.221834 
2600.000000	65.224194 
2599.000000	65.227818 
2598.000000	65.230870 
2597.000000	65.231490 
2596.000000	65.227723 
2595.000000	65.218377 
2594.000000	65.202617 
2593.000000	65.181040 
2592.000000	65.155243 
2591.000000	65.128159 
2590.000000	65.103507 
2589.000000	65.085053 
2588.000000	65.075850 
2587.000000	65.077471 
2586.000000	65.089726 
2585.000000	65.110301 
2584.000000	65.135407 
2583.000000	65.160393 
2582.000000	65.180873 
2581.000000	65.193581 
2580.000000	65.197110 
2579.000000	65.192008 
2578.000000	65.180492 
2577.000000	65.165662 
2576.000000	65.150809 
2575.000000	65.138506 
2574.000000	65.130209 
2573.000000	65.126228 
2572.000000	65.125656 
2571.000000	65.127277 
2570.000000	65.129756 
2569.000000	65.132093 
2568.000000	65.133786 
2567.000000	65.134596 
2566.000000	65.134859 
2565.000000	65.135121 
2564.000000	65.136146 
2563.000000	65.138721 
2562.000000	65.143537 
2561.000000	65.151166 
2560.000000	65.161848 
2559.000000	65.175509 
2558.000000	65.191555 
2557.000000	65.208888 
2556.000000	65.225934 
2555.000000	65.240955 
2554.000000	65.252137 
2553.000000	65.257906 
2552.000000	65.257358 
2551.000000	65.250515 
2550.000000	65.238380 
2549.000000	65.222716 
2548.000000	65.205907 
2547.000000	65.190458 
2546.000000	65.178394 
2545.000000	65.170860 
2544.000000	65.168023 
2543.000000	65.168762 
2542.000000	65.171265 
2541.000000	65.173101 
2540.000000	65.171813 
2539.000000	65.165567 
2538.000000	65.153765 
2537.000000	65.136981 
2536.000000	65.116572 
2535.000000	65.094709 
2534.000000	65.073847 
2533.000000	65.056276 
2532.000000	65.043306 
2531.000000	65.035867 
2530.000000	65.034103 
2529.000000	65.037965 
2528.000000	65.047287 
2527.000000	65.061974 
2526.000000	65.081977 
2525.000000	65.107297 
2524.000000	65.137720 
2523.000000	65.172362 
2522.000000	65.209603 
2521.000000	65.247225 
2520.000000	65.282320 
2519.000000	65.311765 
2518.000000	65.332460 
2517.000000	65.342378 
2516.000000	65.340447 
2515.000000	65.326833 
2514.000000	65.302824 
2513.000000	65.270853 
2512.000000	65.233564 
2511.000000	65.193510 
2510.000000	65.152502 
2509.000000	65.111923 
2508.000000	65.072441 
2507.000000	65.034413 
2506.000000	64.998388 
2505.000000	64.965343 
2504.000000	64.936971 
2503.000000	64.915275 
2502.000000	64.902448 
2501.000000	64.899992 
2500.000000	64.908409 
2499.000000	64.926695 
2498.000000	64.952397 
2497.000000	64.981937 
2496.000000	65.011525 
2495.000000	65.037941 
2494.000000	65.059089 
2493.000000	65.074419 
2492.000000	65.084910 
2491.000000	65.092587 
2490.000000	65.099811 
2489.000000	65.108585 
2488.000000	65.120005 
2487.000000	65.134167 
2486.000000	65.150070 
2485.000000	65.166115 
2484.000000	65.180683 
2483.000000	65.192341 
2482.000000	65.200686 
2481.000000	65.205836 
2480.000000	65.208363 
2479.000000	65.208983 
2478.000000	65.208435 
2477.000000	65.207076 
2476.000000	65.204691 
2475.000000	65.200901 
2474.000000	65.195369 
2473.000000	65.187835 
2472.000000	65.178298 
2471.000000	65.166902 
2470.000000	65.154170 
2469.000000	65.140938 
2468.000000	65.128254 
2467.000000	65.117120 
2466.000000	65.108489 
2465.000000	65.103220 
2464.000000	65.101957 
2463.000000	65.104770 
2462.000000	65.111660 
2461.000000	65.122199 
2460.000000	65.135836 
2459.000000	65.151715 
2458.000000	65.168881 
2457.000000	65.186214 
2456.000000	65.202617 
2455.000000	65.217137 
2454.000000	65.229034 
2453.000000	65.237736 
2452.000000	65.243053 
2451.000000	65.245270 
2450.000000	65.245008 
2449.000000	65.243220 
2448.000000	65.240788 
2447.000000	65.238308 
2446.000000	65.235829 
2445.000000	65.232777 
2444.000000	65.227866 
2443.000000	65.219449 
2442.000000	65.206360 
2441.000000	65.188431 
2440.000000	65.166616 
2439.000000	65.142989 
2438.000000	65.120434 
2437.000000	65.101957 
2436.000000	65.089988 
2435.000000	65.085887 
2434.000000	65.089416 
2433.000000	65.099549 
2432.000000	65.114164 
2431.000000	65.131688 
2430.000000	65.151047 
2429.000000	65.172410 
2428.000000	65.196633 
2427.000000	65.224814 
2426.000000	65.257525 
2425.000000	65.293979 
2424.000000	65.331840 
2423.000000	65.366935 
2422.000000	65.394306 
2421.000000	65.408873 
2420.000000	65.406847 
2419.000000	65.386152 
2418.000000	65.347051 
2417.000000	65.292048 
2416.000000	65.225553 
2415.000000	65.152955 
2414.000000	65.080332 
2413.000000	65.013408 
2412.000000	64.957308 
2411.000000	64.916324 
2410.000000	64.893603 
2409.000000	64.890742 
2408.000000	64.907622 
2407.000000	64.941883 
2406.000000	64.989233 
2405.000000	65.043210 
2404.000000	65.096998 
2403.000000	65.143585 
2402.000000	65.178155 
2401.000000	65.197992 
2400.000000	65.203523 
2399.000000	65.197801 
2398.000000	65.185737 
2397.000000	65.172624 
2396.000000	65.163207 
2395.000000	65.160536 
2394.000000	65.165567 
2393.000000	65.177273 
2392.000000	65.192937 
2391.000000	65.209102 
2390.000000	65.222358 
2389.000000	65.230226 
2388.000000	65.231251 
2387.000000	65.225243 
2386.000000	65.213108 
2385.000000	65.196585 
2384.000000	65.177488 
2383.000000	65.157604 
2382.000000	65.138840 
2381.000000	65.122556 
2380.000000	65.109682 
2379.000000	65.100598 
2378.000000	65.095281 
2377.000000	65.093350 
2376.000000	65.094423 
2375.000000	65.097999 
2374.000000	65.103483 
2373.000000	65.110373 
2372.000000	65.118074 
2371.000000	65.126132 
2370.000000	65.133738 
2369.000000	65.140247 
2368.000000	65.145254 
2367.000000	65.148615 
2366.000000	65.150690 
2365.000000	65.152192 
2364.000000	65.154051 
2363.000000	65.157341 
2362.000000	65.162968 
2361.000000	65.171408 
2360.000000	65.182423 
2359.000000	65.195178 
2358.000000	65.208196 
2357.000000	65.219759 
2356.000000	65.228033 
2355.000000	65.231633 
2354.000000	65.229845 
2353.000000	65.222573 
2352.000000	65.210628 
2351.000000	65.195322 
2350.000000	65.178489 
2349.000000	65.162086 
2348.000000	65.147924 
2347.000000	65.137314 
2346.000000	65.131044 
2345.000000	65.129160 
2344.000000	65.131068 
2343.000000	65.135788 
2342.000000	65.142440 
2341.000000	65.150356 
2340.000000	65.159440 
2339.000000	65.170001 
2338.000000	65.182518 
2337.000000	65.197396 
2336.000000	65.214610 
2335.000000	65.233683 
2334.000000	65.253615 
2333.000000	65.273261 
2332.000000	65.291500 
2331.000000	65.307617 
2330.000000	65.321564 
2329.000000	65.333604 
2328.000000	65.344285 
2327.000000	65.353822 
2326.000000	65.362000 
2325.000000	65.367698 
2324.000000	65.369415 
2323.000000	65.365409 
2322.000000	65.354633 
2321.000000	65.336728 
2320.000000	65.312767 
2319.000000	65.284895 
2318.000000	65.255928 
2317.000000	65.228748 
2316.000000	65.205550 
2315.000000	65.187907 
2314.000000	65.176320 
2313.000000	65.170645 
2312.000000	65.170216 
2311.000000	65.174436 
2310.000000	65.182781 
2309.000000	65.194845 
2308.000000	65.210151 
2307.000000	65.227890 
2306.000000	65.246820 
2305.000000	65.265250 
2304.000000	65.281152 
2303.000000	65.292763 
2302.000000	65.298724 
2301.000000	65.298819 
2300.000000	65.293526 
2299.000000	65.284323 
2298.000000	65.273118 
2297.000000	65.261769 
2296.000000	65.251803 
2295.000000	65.244174 
2294.000000	65.238952 
2293.000000	65.236115 
2292.000000	65.234875 
2291.000000	65.234565 
2290.000000	65.234112 
2289.000000	65.232825 
2288.000000	65.230011 
2287.000000	65.224909 
2286.000000	65.217208 
2285.000000	65.206909 
2284.000000	65.194511 
2283.000000	65.180921 
2282.000000	65.167546 
2281.000000	65.156006 
2280.000000	65.147876 
2279.000000	65.144276 
2278.000000	65.145468 
2277.000000	65.150809 
2276.000000	65.158677 
2275.000000	65.166950 
2274.000000	65.173268 
2273.000000	65.175795 
2272.000000	65.173625 
2271.000000	65.167164 
2270.000000	65.157818 
2269.000000	65.147852 
2268.000000	65.139579 
2267.000000	65.135097 
2266.000000	65.135717 
2265.000000	65.141844 
2264.000000	65.153050 
2263.000000	65.168380 
2262.000000	65.186810 
2261.000000	65.207290 
2260.000000	65.229058 
2259.000000	65.251564 
2258.000000	65.274190 
2257.000000	65.296268 
2256.000000	65.317010 
2255.000000	65.335488 
2254.000000	65.350723 
2253.000000	65.361976 
2252.000000	65.368771 
2251.000000	65.371060 
2250.000000	65.369272 
2249.000000	65.363860 
2248.000000	65.355110 
2247.000000	65.343356 
2246.000000	65.329003 
2245.000000	65.312623 
2244.000000	65.295267 
2243.000000	65.278530 
2242.000000	65.264272 
2241.000000	65.254473 
2240.000000	65.250658 
2239.000000	65.253400 
2238.000000	65.262150 
2237.000000	65.275239 
2236.000000	65.290117 
2235.000000	65.303969 
2234.000000	65.314126 
2233.000000	65.318632 
2232.000000	65.316438 
2231.000000	65.307497 
2230.000000	65.292787 
2229.000000	65.274024 
2228.000000	65.253138 
2227.000000	65.232157 
2226.000000	65.212988 
2225.000000	65.197539 
2224.000000	65.187382 
2223.000000	65.183615 
2222.000000	65.186882 
2221.000000	65.197014 
2220.000000	65.212774 
2219.000000	65.232062 
2218.000000	65.251994 
2217.000000	65.269303 
2216.000000	65.281009 
2215.000000	65.284943 
2214.000000	65.280222 
2213.000000	65.267515 
2212.000000	65.249013 
2211.000000	65.227794 
2210.000000	65.207386 
2209.000000	65.190815 
2208.000000	65.180230 
2207.000000	65.176248 
2206.000000	65.177965 
2205.000000	65.183281 
2204.000000	65.189385 
2203.000000	65.193438 
2202.000000	65.193247 
2201.000000	65.187692 
2200.000000	65.176796 
2199.000000	65.161657 
2198.000000	65.143895 
2197.000000	65.125370 
2196.000000	65.107822 
2195.000000	65.092229 
2194.000000	65.079045 
2193.000000	65.068364 
2192.000000	65.059900 
2191.000000	65.053200 
2190.000000	65.048122 
2189.000000	65.044569 
2188.000000	65.042996 
2187.000000	65.043950 
2186.000000	65.048360 
2185.000000	65.056753 
2184.000000	65.069317 
2183.000000	65.085554 
2182.000000	65.104460 
2181.000000	65.124630 
2180.000000	65.144348 
2179.000000	65.161943 
2178.000000	65.176105 
2177.000000	65.186166 
2176.000000	65.192270 
2175.000000	65.195226 
2174.000000	65.196180 
2173.000000	65.196466 
2172.000000	65.197229 
2171.000000	65.199398 
2170.000000	65.203452 
2169.000000	65.209364 
2168.000000	65.217113 
2167.000000	65.226268 
2166.000000	65.236544 
2165.000000	65.247368 
2164.000000	65.257740 
2163.000000	65.266585 
2162.000000	65.272164 
2161.000000	65.273475 
2160.000000	65.269923 
2159.000000	65.262317 
2158.000000	65.252637 
2157.000000	65.244126 
2156.000000	65.240597 
2155.000000	65.245389 
2154.000000	65.260672 
2153.000000	65.286374 
2152.000000	65.319967 
2151.000000	65.356659 
2150.000000	65.390491 
2149.000000	65.415406 
2148.000000	65.426683 
2147.000000	65.422034 
2146.000000	65.402126 
2145.000000	65.370535 
2144.000000	65.332841 
2143.000000	65.295338 
2142.000000	65.263366 
2141.000000	65.240645 
2140.000000	65.228080 
2139.000000	65.224170 
2138.000000	65.225672 
2137.000000	65.228486 
2136.000000	65.229082 
2135.000000	65.225028 
2134.000000	65.215849 
2133.000000	65.202569 
2132.000000	65.187668 
2131.000000	65.173673 
2130.000000	65.163087 
2129.000000	65.157628 
2128.000000	65.158176 
2127.000000	65.164637 
2126.000000	65.176200 
2125.000000	65.191817 
2124.000000	65.210103 
2123.000000	65.229821 
2122.000000	65.249490 
2121.000000	65.267467 
2120.000000	65.281963 
2119.000000	65.291142 
2118.000000	65.293407 
2117.000000	65.287709 
2116.000000	65.273904 
2115.000000	65.252995 
2114.000000	65.226769 
2113.000000	65.197682 
2112.000000	65.168595 
2111.000000	65.142250 
2110.000000	65.120792 
2109.000000	65.105700 
2108.000000	65.097570 
2107.000000	65.096259 
2106.000000	65.100860 
2105.000000	65.109992 
2104.000000	65.121626 
2103.000000	65.133905 
2102.000000	65.144729 
2101.000000	65.152597 
2100.000000	65.156412 
2099.000000	65.155935 
2098.000000	65.151667 
2097.000000	65.144920 
2096.000000	65.137553 
2095.000000	65.131902 
2094.000000	65.130329 
2093.000000	65.134716 
2092.000000	65.146231 
2091.000000	65.165305 
2090.000000	65.191626 
2089.000000	65.223979 
2088.000000	65.260338 
2087.000000	65.298199 
2086.000000	65.334677 
2085.000000	65.366697 
2084.000000	65.391230 
2083.000000	65.405559 
2082.000000	65.407848 
2081.000000	65.397453 
2080.000000	65.375137 
2079.000000	65.342760 
2078.000000	65.303587 
2077.000000	65.261888 
2076.000000	65.222430 
2075.000000	65.189933 
2074.000000	65.168237 
2073.000000	65.159773 
2072.000000	65.164875 
2071.000000	65.181684 
2070.000000	65.206432 
2069.000000	65.233922 
2068.000000	65.258479 
2067.000000	65.275144 
2066.000000	65.280437 
2065.000000	65.273022 
2064.000000	65.253686 
2063.000000	65.224862 
2062.000000	65.190219 
2061.000000	65.153837 
2060.000000	65.119576 
2059.000000	65.090274 
2058.000000	65.067863 
2057.000000	65.053200 
2056.000000	65.046477 
2055.000000	65.047192 
2054.000000	65.054464 
2053.000000	65.066862 
2052.000000	65.082645 
2051.000000	65.099954 
2050.000000	65.116310 
2049.000000	65.129566 
2048.000000	65.138030 
2047.000000	65.140867 
2046.000000	65.138316 
2045.000000	65.131640 
2044.000000	65.122890 
2043.000000	65.114474 
2042.000000	65.108704 
2041.000000	65.107512 
2040.000000	65.112066 
2039.000000	65.122866 
2038.000000	65.139627 
2037.000000	65.161585 
2036.000000	65.187740 
2035.000000	65.216755 
2034.000000	65.247058 
2033.000000	65.277004 
2032.000000	65.304589 
2031.000000	65.328049 
2030.000000	65.345501 
2029.000000	65.355730 
2028.000000	65.357589 
2027.000000	65.351200 
2026.000000	65.336942 
2025.000000	65.315651 
2024.000000	65.288186 
2023.000000	65.255665 
2022.000000	65.219449 
2021.000000	65.181279 
2020.000000	65.143275 
2019.000000	65.108084 
2018.000000	65.078425 
2017.000000	65.056920 
2016.000000	65.045428 
2015.000000	65.044307 
2014.000000	65.052628 
2013.000000	65.068125 
2012.000000	65.087461 
2011.000000	65.107059 
2010.000000	65.123939 
2009.000000	65.136289 
2008.000000	65.143728 
2007.000000	65.147233 
2006.000000	65.148615 
2005.000000	65.150022 
2004.000000	65.153121 
2003.000000	65.158772 
2002.000000	65.167236 
2001.000000	65.178132 
2000.000000	65.190935 
1999.000000	65.204954 
1998.000000	65.219831 
1997.000000	65.235161 
1996.000000	65.250587 
1995.000000	65.265631 
1994.000000	65.279722 
1993.000000	65.292143 
1992.000000	65.302205 
1991.000000	65.309381 
1990.000000	65.313267 
1989.000000	65.313816 
1988.000000	65.311336 
1987.000000	65.306305 
1986.000000	65.299391 
1985.000000	65.291237 
1984.000000	65.282797 
1983.000000	65.274810 
1982.000000	65.268158 
1981.000000	65.263700 
1980.000000	65.262103 
1979.000000	65.264081 
1978.000000	65.270018 
1977.000000	65.279746 
1976.000000	65.292572 
1975.000000	65.307307 
1974.000000	65.322136 
1973.000000	65.335083 
1972.000000	65.344095 
1971.000000	65.347599 
1970.000000	65.344548 
1969.000000	65.334725 
1968.000000	65.318489 
1967.000000	65.296959 
1966.000000	65.271615 
1965.000000	65.244102 
1964.000000	65.216422 
1963.000000	65.190410 
1962.000000	65.168023 
1961.000000	65.150976 
1960.000000	65.140533 
1959.000000	65.137362 
1958.000000	65.141201 
1957.000000	65.150833 
1956.000000	65.164279 
1955.000000	65.179109 
1954.000000	65.192699 
1953.000000	65.202999 
1952.000000	65.208673 
1951.000000	65.209317 
1950.000000	65.205740 
1949.000000	65.199375 
1948.000000	65.192055 
1947.000000	65.185523 
1946.000000	65.180993 
1945.000000	65.179038 
1944.000000	65.179491 
1943.000000	65.181589 
1942.000000	65.184426 
1941.000000	65.187215 
1940.000000	65.189433 
1939.000000	65.191149 
1938.000000	65.192723 
1937.000000	65.194916 
1936.000000	65.198254 
1935.000000	65.203022 
1934.000000	65.209078 
1933.000000	65.215754 
1932.000000	65.221858 
1931.000000	65.226149 
1930.000000	65.227603 
1929.000000	65.225768 
1928.000000	65.220904 
1927.000000	65.214180 
1926.000000	65.207290 
1925.000000	65.202355 
1924.000000	65.201163 
1923.000000	65.205049 
1922.000000	65.214228 
1921.000000	65.227818 
1920.000000	65.243935 
1919.000000	65.260004 
1918.000000	65.273404 
1917.000000	65.281891 
1916.000000	65.284228 
1915.000000	65.280294 
1914.000000	65.271115 
1913.000000	65.258336 
1912.000000	65.244102 
1911.000000	65.230321 
1910.000000	65.218520 
1909.000000	65.209627 
1908.000000	65.203905 
1907.000000	65.201044 
1906.000000	65.200400 
1905.000000	65.201187 
1904.000000	65.202760 
1903.000000	65.204548 
1902.000000	65.206384 
1901.000000	65.208458 
1900.000000	65.211296 
1899.000000	65.215468 
1898.000000	65.221667 
1897.000000	65.230321 
1896.000000	65.241622 
1895.000000	65.254926 
1894.000000	65.269184 
1893.000000	65.282702 
1892.000000	65.293598 
1891.000000	65.300273 
1890.000000	65.301704 
1889.000000	65.297842 
1888.000000	65.289735 
1887.000000	65.279054 
1886.000000	65.267920 
1885.000000	65.258216 
1884.000000	65.251135 
1883.000000	65.246844 
1882.000000	65.244340 
1881.000000	65.241932 
1880.000000	65.237736 
1879.000000	65.230083 
1878.000000	65.217924 
1877.000000	65.201139 
1876.000000	65.180587 
1875.000000	65.157675 
1874.000000	65.134096 
1873.000000	65.111327 
1872.000000	65.090656 
1871.000000	65.073037 
1870.000000	65.059089 
1869.000000	65.049290 
1868.000000	65.044045 
1867.000000	65.043497 
1866.000000	65.047669 
1865.000000	65.055799 
1864.000000	65.067052 
1863.000000	65.079879 
1862.000000	65.092873 
1861.000000	65.104603 
1860.000000	65.114355 
1859.000000	65.122103 
1858.000000	65.128779 
1857.000000	65.135693 
1856.000000	65.144491 
1855.000000	65.156555 
1854.000000	65.172553 
1853.000000	65.192413 
1852.000000	65.214967 
1851.000000	65.238571 
1850.000000	65.261316 
1849.000000	65.281701 
1848.000000	65.298485 
1847.000000	65.311193 
1846.000000	65.319919 
1845.000000	65.325236 
1844.000000	65.327954 
1843.000000	65.328764 
1842.000000	65.328431 
1841.000000	65.327453 
1840.000000	65.325999 
1839.000000	65.324020 
1838.000000	65.321469 
1837.000000	65.318083 
1836.000000	65.313696 
1835.000000	65.307855 
1834.000000	65.300154 
1833.000000	65.289926 
1832.000000	65.276598 
1831.000000	65.259790 
1830.000000	65.239334 
1829.000000	65.215873 
1828.000000	65.190839 
1827.000000	65.166592 
1826.000000	65.145826 
1825.000000	65.131568 
1824.000000	65.126371 
1823.000000	65.131878 
1822.000000	65.147972 
1821.000000	65.173077 
1820.000000	65.204167 
1819.000000	65.237116 
1818.000000	65.267658 
1817.000000	65.292310 
1816.000000	65.308952 
1815.000000	65.317130 
1814.000000	65.317749 
1813.000000	65.312957 
1812.000000	65.304803 
1811.000000	65.295314 
1810.000000	65.285325 
1809.000000	65.274786 
1808.000000	65.262794 
1807.000000	65.248441 
1806.000000	65.230965 
1805.000000	65.210390 
1804.000000	65.187692 
1803.000000	65.164804 
1802.000000	65.144157 
1801.000000	65.127849 
1800.000000	65.117573 
1799.000000	65.113949 
1798.000000	65.116500 
1797.000000	65.123653 
1796.000000	65.133213 
1795.000000	65.142869 
1794.000000	65.150523 
1793.000000	65.154767 
1792.000000	65.154814 
1791.000000	65.150809 
1790.000000	65.143513 
1789.000000	65.134310 
1788.000000	65.124750 
1787.000000	65.116238 
1786.000000	65.109944 
1785.000000	65.106463 
1784.000000	65.105938 
1783.000000	65.107965 
1782.000000	65.112018 
1781.000000	65.117502 
1780.000000	65.123915 
1779.000000	65.130949 
1778.000000	65.138316 
1777.000000	65.145993 
1776.000000	65.153813 
1775.000000	65.161705 
1774.000000	65.169858 
1773.000000	65.178227 
1772.000000	65.186715 
1771.000000	65.194940 
1770.000000	65.202164 
1769.000000	65.207338 
1768.000000	65.209126 
1767.000000	65.206289 
1766.000000	65.198016 
1765.000000	65.184307 
1764.000000	65.166091 
1763.000000	65.145277 
1762.000000	65.124368 
1761.000000	65.106153 
1760.000000	65.093040 
1759.000000	65.086531 
1758.000000	65.086889 
1757.000000	65.093231 
1756.000000	65.103602 
1755.000000	65.115475 
1754.000000	65.126132 
1753.000000	65.133500 
1752.000000	65.135931 
1751.000000	65.132451 
1750.000000	65.122652 
1749.000000	65.106606 
1748.000000	65.084910 
1747.000000	65.058612 
1746.000000	65.029025 
1745.000000	64.997839 
1744.000000	64.966893 
1743.000000	64.938187 
1742.000000	64.913344 
1741.000000	64.893603 
1740.000000	64.879775 
1739.000000	64.872169 
1738.000000	64.870715 
1737.000000	64.875221 
1736.000000	64.885044 
1735.000000	64.899516 
1734.000000	64.917778 
1733.000000	64.939045 
1732.000000	64.962315 
1731.000000	64.986515 
1730.000000	65.010786 
1729.000000	65.034413 
1728.000000	65.056777 
1727.000000	65.077376 
1726.000000	65.096235 
1725.000000	65.113139 
1724.000000	65.127968 
1723.000000	65.139961 
1722.000000	65.148162 
1721.000000	65.151071 
1720.000000	65.147209 
1719.000000	65.135192 
1718.000000	65.114402 
1717.000000	65.085077 
1716.000000	65.048599 
1715.000000	65.007615 
1714.000000	64.965963 
1713.000000	64.928102 
1712.000000	64.898562 
1711.000000	64.881277 
1710.000000	64.879155 
1709.000000	64.893150 
1708.000000	64.922380 
1707.000000	64.963936 
1706.000000	65.013957 
1705.000000	65.068006 
1704.000000	65.122056 
1703.000000	65.172934 
1702.000000	65.218448 
1701.000000	65.257382 
1700.000000	65.288996 
1699.000000	65.312790 
1698.000000	65.327954 
1697.000000	65.333700 
1696.000000	65.329122 
1695.000000	65.314102 
1694.000000	65.289568 
1693.000000	65.258026 
1692.000000	65.223145 
1691.000000	65.189504 
1690.000000	65.161776 
1689.000000	65.143871 
1688.000000	65.137982 
1687.000000	65.144157 
1686.000000	65.160369 
1685.000000	65.183043 
1684.000000	65.207958 
1683.000000	65.230989 
1682.000000	65.248799 
1681.000000	65.259385 
1680.000000	65.262103 
1679.000000	65.257596 
1678.000000	65.247392 
1677.000000	65.233731 
1676.000000	65.218806 
1675.000000	65.204811 
1674.000000	65.193939 
1673.000000	65.187740 
1672.000000	65.187263 
1671.000000	65.192532 
1670.000000	65.202808 
1669.000000	65.216183 
1668.000000	65.229749 
1667.000000	65.239906 
1666.000000	65.243172 
1665.000000	65.236806 
1664.000000	65.219497 
1663.000000	65.191698 
1662.000000	65.155649 
1661.000000	65.115356 
1660.000000	65.075659 
1659.000000	65.041351 
1658.000000	65.016341 
1657.000000	65.002846 
1656.000000	65.001177 
1655.000000	65.009665 
1654.000000	65.025210 
1653.000000	65.043878 
1652.000000	65.061879 
1651.000000	65.076088 
1650.000000	65.084838 
1649.000000	65.087604 
1648.000000	65.085244 
1647.000000	65.079116 
1646.000000	65.070962 
1645.000000	65.062189 
1644.000000	65.053749 
1643.000000	65.046048 
1642.000000	65.038990 
1641.000000	65.032362 
1640.000000	65.025973 
1639.000000	65.020084 
1638.000000	65.015172 
1637.000000	65.011858 
1636.000000	65.010857 
1635.000000	65.012621 
1634.000000	65.017151 
1633.000000	65.023994 
1632.000000	65.032076 
1631.000000	65.040111 
1630.000000	65.046858 
1629.000000	65.051579 
1628.000000	65.054106 
1627.000000	65.055084 
1626.000000	65.055847 
1625.000000	65.057992 
1624.000000	65.063214 
1623.000000	65.072560 
1622.000000	65.086126 
1621.000000	65.102720 
1620.000000	65.120148 
1619.000000	65.135383 
1618.000000	65.145301 
1617.000000	65.147256 
1616.000000	65.139603 
1615.000000	65.122151 
1614.000000	65.096259 
1613.000000	65.064477 
1612.000000	65.030121 
1611.000000	64.996719 
1610.000000	64.967393 
1609.000000	64.944434 
1608.000000	64.929223 
1607.000000	64.922285 
1606.000000	64.923429 
1605.000000	64.931845 
1604.000000	64.946341 
1603.000000	64.965248 
1602.000000	64.986491 
1601.000000	65.007662 
1600.000000	65.026044 
1599.000000	65.038919 
1598.000000	65.044140 
1597.000000	65.040493 
1596.000000	65.028309 
1595.000000	65.009379 
1594.000000	64.986896 
1593.000000	64.964890 
1592.000000	64.947295 
1591.000000	64.937043 
1590.000000	64.935326 
1589.000000	64.941430 
1588.000000	64.952683 
1587.000000	64.965367 
1586.000000	64.975786 
1585.000000	64.981245 
1584.000000	64.981007 
1583.000000	64.976286 
1582.000000	64.969968 
1581.000000	64.965558 
1580.000000	64.966249 
1579.000000	64.973974 
1578.000000	64.988780 
1577.000000	65.008759 
1576.000000	65.030980 
1575.000000	65.052103 
1574.000000	65.069437 
1573.000000	65.081238 
1572.000000	65.087485 
1571.000000	65.088772 
1570.000000	65.086293 
1569.000000	65.080761 
1568.000000	65.072250 
1567.000000	65.059852 
1566.000000	65.042591 
1565.000000	65.019559 
1564.000000	64.991116 
1563.000000	64.958810 
1562.000000	64.925527 
1561.000000	64.894866 
1560.000000	64.870429 
1559.000000	64.854741 
1558.000000	64.848637 
1557.000000	64.850997 
1556.000000	64.859056 
1555.000000	64.869332 
1554.000000	64.878368 
1553.000000	64.883732 
1552.000000	64.884448 
1551.000000	64.880824 
1550.000000	64.874458 
1549.000000	64.867305 
1548.000000	64.861345 
1547.000000	64.857840 
1546.000000	64.857316 
1545.000000	64.859819 
1544.000000	64.864706 
1543.000000	64.871382 
1542.000000	64.879131 
1541.000000	64.887404 
1540.000000	64.895868 
1539.000000	64.904117 
1538.000000	64.911866 
1537.000000	64.918804 
1536.000000	64.924478 
1535.000000	64.928317 
1534.000000	64.929580 
1533.000000	64.927959 
1532.000000	64.923357 
1531.000000	64.915990 
1530.000000	64.906668 
1529.000000	64.896607 
1528.000000	64.887619 
1527.000000	64.881682 
1526.000000	64.880824 
1525.000000	64.886689 
1524.000000	64.900159 
1523.000000	64.921092 
1522.000000	64.948081 
1521.000000	64.978718 
1520.000000	65.009999 
1519.000000	65.038895 
1518.000000	65.062880 
1517.000000	65.080618 
1516.000000	65.091872 
1515.000000	65.097665 
1514.000000	65.099883 
1513.000000	65.100932 
1512.000000	65.103030 
1511.000000	65.107846 
1510.000000	65.116310 
1509.000000	65.128397 
1508.000000	65.143465 
1507.000000	65.160250 
1506.000000	65.177369 
1505.000000	65.193319 
1504.000000	65.207004 
1503.000000	65.217494 
1502.000000	65.224027 
1501.000000	65.225982 
1500.000000	65.222716 
1499.000000	65.213799 
1498.000000	65.199160 
1497.000000	65.179419 
1496.000000	65.156054 
1495.000000	65.131258 
1494.000000	65.107822 
1493.000000	65.088438 
1492.000000	65.075325 
1491.000000	65.069341 
1490.000000	65.070176 
1489.000000	65.076518 
1488.000000	65.086436 
1487.000000	65.097475 
1486.000000	65.107440 
1485.000000	65.114617 
1484.000000	65.118026 
1483.000000	65.117096 
1482.000000	65.111541 
1481.000000	65.101122 
1480.000000	65.085935 
1479.000000	65.066313 
1478.000000	65.043139 
1477.000000	65.017867 
1476.000000	64.992523 
1475.000000	64.969706 
1474.000000	64.952182 
1473.000000	64.942216 
1472.000000	64.941167 
1471.000000	64.949083 
1470.000000	64.964652 
1469.000000	64.985299 
1468.000000	65.007853 
1467.000000	65.028595 
1466.000000	65.044236 
1465.000000	65.051889 
1464.000000	65.049600 
1463.000000	65.036439 
1462.000000	65.011787 
1461.000000	64.976215 
1460.000000	64.931106 
1459.000000	64.879417 
1458.000000	64.825344 
1457.000000	64.774417 
1456.000000	64.732909 
1455.000000	64.706683 
1454.000000	64.699983 
1453.000000	64.714431 
1452.000000	64.748263 
1451.000000	64.796900 
1450.000000	64.853501 
1449.000000	64.910531 
1448.000000	64.961004 
1447.000000	64.999747 
1446.000000	65.023922 
1445.000000	65.033268 
1444.000000	65.029478 
1443.000000	65.015459 
1442.000000	64.994502 
1441.000000	64.969873 
1440.000000	64.944458 
1439.000000	64.920687 
1438.000000	64.900851 
1437.000000	64.887166 
1436.000000	64.881777 
1435.000000	64.886188 
1434.000000	64.901089 
1433.000000	64.925861 
1432.000000	64.958810 
1431.000000	64.996838 
1430.000000	65.036463 
1429.000000	65.074110 
1428.000000	65.106821 
1427.000000	65.132451 
1426.000000	65.149927 
1425.000000	65.159344 
1424.000000	65.161442 
1423.000000	65.157341 
1422.000000	65.148258 
1421.000000	65.135407 
1420.000000	65.119934 
1419.000000	65.102767 
1418.000000	65.084767 
1417.000000	65.066671 
1416.000000	65.049147 
1415.000000	65.032863 
1414.000000	65.018177 
1413.000000	65.005469 
1412.000000	64.995074 
1411.000000	64.987730 
1410.000000	64.984297 
1409.000000	64.985609 
1408.000000	64.992380 
1407.000000	65.004682 
1406.000000	65.021800 
1405.000000	65.042042 
1404.000000	65.062999 
1403.000000	65.081930 
1402.000000	65.096068 
1401.000000	65.103578 
1400.000000	65.103769 
1399.000000	65.097403 
1398.000000	65.086317 
1397.000000	65.073180 
1396.000000	65.060973 
1395.000000	65.052175 
1394.000000	65.048313 
1393.000000	65.049791 
1392.000000	65.056037 
1391.000000	65.065670 
1390.000000	65.077185 
1389.000000	65.088939 
1388.000000	65.099644 
1387.000000	65.108394 
1386.000000	65.114736 
1385.000000	65.118432 
1384.000000	65.119290 
1383.000000	65.117454 
1382.000000	65.112853 
1381.000000	65.105628 
1380.000000	65.096139 
1379.000000	65.084815 
1378.000000	65.072345 
1377.000000	65.059733 
1376.000000	65.047979 
1375.000000	65.037846 
1374.000000	65.029859 
1373.000000	65.024232 
1372.000000	65.020608 
1371.000000	65.018248 
1370.000000	65.016365 
1369.000000	65.014362 
1368.000000	65.012240 
1367.000000	65.010237 
1366.000000	65.009284 
1365.000000	65.010571 
1364.000000	65.015316 
1363.000000	65.024399 
1362.000000	65.038228 
1361.000000	65.056371 
1360.000000	65.077662 
1359.000000	65.100312 
1358.000000	65.122151 
1357.000000	65.140986 
1356.000000	65.154743 
1355.000000	65.161919 
1354.000000	65.161728 
1353.000000	65.154170 
1352.000000	65.139961 
1351.000000	65.120387 
1350.000000	65.097188 
1349.000000	65.072035 
1348.000000	65.046787 
1347.000000	65.022993 
1346.000000	65.001893 
1345.000000	64.984226 
1344.000000	64.970493 
1343.000000	64.960741 
1342.000000	64.954423 
1341.000000	64.950919 
1340.000000	64.949440 
1339.000000	64.949440 
1338.000000	64.950561 
1337.000000	64.953017 
1336.000000	64.957499 
1335.000000	64.964842 
1334.000000	64.975762 
1333.000000	64.990496 
1332.000000	65.008425 
1331.000000	65.027904 
1330.000000	65.046477 
1329.000000	65.061140 
1328.000000	65.068936 
1327.000000	65.067863 
1326.000000	65.057206 
1325.000000	65.037798 
1324.000000	65.011763 
1323.000000	64.982223 
1322.000000	64.952540 
1321.000000	64.925718 
1320.000000	64.904165 
1319.000000	64.889049 
1318.000000	64.880871 
1317.000000	64.879512 
1316.000000	64.884686 
1315.000000	64.895772 
1314.000000	64.912247 
1313.000000	64.933323 
1312.000000	64.958119 
1311.000000	64.985203 
1310.000000	65.012860 
1309.000000	65.039014 
1308.000000	65.061593 
1307.000000	65.078973 
1306.000000	65.090155 
1305.000000	65.094900 
1304.000000	65.093803 
1303.000000	65.087819 
1302.000000	65.078067 
1301.000000	65.065693 
1300.000000	65.051507 
1299.000000	65.036058 
1298.000000	65.019893 
1297.000000	65.003490 
1296.000000	64.987492 
1295.000000	64.972996 
1294.000000	64.961171 
1293.000000	64.953255 
1292.000000	64.950513 
1291.000000	64.953637 
1290.000000	64.962625 
1289.000000	64.976501 
1288.000000	64.993262 
1287.000000	65.010166 
1286.000000	65.024185 
1285.000000	65.032553 
1284.000000	65.033435 
1283.000000	65.026164 
1282.000000	65.011501 
1281.000000	64.991474 
1280.000000	64.969015 
1279.000000	64.947152 
1278.000000	64.928555 
1277.000000	64.914965 
1276.000000	64.907383 
1275.000000	64.905619 
1274.000000	64.908790 
1273.000000	64.915943 
1272.000000	64.926171 
1271.000000	64.938902 
1270.000000	64.953732 
1269.000000	64.970397 
1268.000000	64.988350 
1267.000000	65.006470 
1266.000000	65.023207 
1265.000000	65.036749 
1264.000000	65.045309 
1263.000000	65.047645 
1262.000000	65.043377 
1261.000000	65.033221 
1260.000000	65.018820 
1259.000000	65.002655 
1258.000000	64.987349 
1257.000000	64.975285 
1256.000000	64.967966 
1255.000000	64.966011 
1254.000000	64.968848 
1253.000000	64.974999 
1252.000000	64.982390 
1251.000000	64.988851 
1250.000000	64.992570 
1249.000000	64.992403 
1248.000000	64.988040 
1247.000000	64.980077 
1246.000000	64.969348 
1245.000000	64.956879 
1244.000000	64.943718 
1243.000000	64.930391 
1242.000000	64.916849 
1241.000000	64.902639 
1240.000000	64.887166 
1239.000000	64.869904 
1238.000000	64.850640 
1237.000000	64.829826 
1236.000000	64.808392 
1235.000000	64.787983 
1234.000000	64.770245 
1233.000000	64.756941 
1232.000000	64.749240 
1231.000000	64.747881 
1230.000000	64.752960 
1229.000000	64.763784 
1228.000000	64.778947 
1227.000000	64.796590 
1226.000000	64.814710 
1225.000000	64.831233 
1224.000000	64.844465 
1223.000000	64.853382 
1222.000000	64.858055 
1221.000000	64.859390 
1220.000000	64.859056 
1219.000000	64.859056 
1218.000000	64.861416 
1217.000000	64.867496 
1216.000000	64.877796 
1215.000000	64.892005 
1214.000000	64.909219 
1213.000000	64.928174 
1212.000000	64.947700 
1211.000000	64.967083 
1210.000000	64.986252 
1209.000000	65.005707 
1208.000000	65.026044 
1207.000000	65.047359 
1206.000000	65.068912 
1205.000000	65.089106 
1204.000000	65.105438 
1203.000000	65.115070 
1202.000000	65.115356 
1201.000000	65.104746 
1200.000000	65.082979 
1199.000000	65.051174 
1198.000000	65.011763 
1197.000000	64.968109 
1196.000000	64.923954 
1195.000000	64.882445 
1194.000000	64.846181 
1193.000000	64.816284 
1192.000000	64.792537 
1191.000000	64.773702 
1190.000000	64.757752 
1189.000000	64.743018 
1188.000000	64.728450 
1187.000000	64.714550 
1186.000000	64.702701 
1185.000000	64.695215 
1184.000000	64.694428 
1183.000000	64.702057 
1182.000000	64.718174 
1181.000000	64.741468 
1180.000000	64.769268 
1179.000000	64.798188 
1178.000000	64.824628 
1177.000000	64.845848 
1176.000000	64.860105 
1175.000000	64.867186 
1174.000000	64.868092 
1173.000000	64.864897 
1172.000000	64.860343 
1171.000000	64.857172 
1170.000000	64.857459 
1169.000000	64.862775 
1168.000000	64.873719 
1167.000000	64.890122 
1166.000000	64.911103 
1165.000000	64.934945 
1164.000000	64.959502 
1163.000000	64.982604 
1162.000000	65.002274 
1161.000000	65.016722 
1160.000000	65.024662 
1159.000000	65.025687 
1158.000000	65.020275 
1157.000000	65.009546 
1156.000000	64.995241 
1155.000000	64.979505 
1154.000000	64.964509 
1153.000000	64.952254 
1152.000000	64.944148 
1151.000000	64.940786 
1150.000000	64.941430 
1149.000000	64.944219 
1148.000000	64.946007 
1147.000000	64.943146 
1146.000000	64.931941 
1145.000000	64.909672 
1144.000000	64.875245 
1143.000000	64.829730 
1142.000000	64.776396 
1141.000000	64.720678 
1140.000000	64.668893 
1139.000000	64.627408 
1138.000000	64.601540 
1137.000000	64.594531 
1136.000000	64.606714 
1135.000000	64.635491 
1134.000000	64.676070 
1133.000000	64.722108 
1132.000000	64.766788 
1131.000000	64.804124 
1130.000000	64.829635 
1129.000000	64.841198 
1128.000000	64.838862 
1127.000000	64.825034 
1126.000000	64.803504 
1125.000000	64.778900 
1124.000000	64.755797 
1123.000000	64.737796 
1122.000000	64.727210 
1121.000000	64.724898 
1120.000000	64.730572 
1119.000000	64.742255 
1118.000000	64.756751 
1117.000000	64.770817 
1116.000000	64.781188 
1115.000000	64.784908 
1114.000000	64.779496 
1113.000000	64.763259 
1112.000000	64.735579 
1111.000000	64.696335 
1110.000000	64.646673 
1109.000000	64.588737 
1108.000000	64.526391 
1107.000000	64.464855 
1106.000000	64.410471 
1105.000000	64.369821 
1104.000000	64.348149 
1103.000000	64.348435 
1102.000000	64.369916 
1101.000000	64.407658 
1100.000000	64.453840 
1099.000000	64.498972 
1098.000000	64.534854 
1097.000000	64.555859 
1096.000000	64.561700 
1095.000000	64.557361 
1094.000000	64.552497 
1093.000000	64.558744 
1092.000000	64.586734 
1091.000000	64.642763 
1090.000000	64.727091 
1089.000000	64.833068 
1088.000000	64.948630 
1087.000000	65.058469 
1086.000000	65.148043 
1085.000000	65.206146 
1084.000000	65.227270 
1083.000000	65.212154 
1082.000000	65.167236 
1081.000000	65.102553 
1080.000000	65.029215 
1079.000000	64.956855 
1078.000000	64.892768 
1077.000000	64.840292 
1076.000000	64.799880 
1075.000000	64.769268 
1074.000000	64.745879 
1073.000000	64.727139 
1072.000000	64.711618 
1071.000000	64.699339 
1070.000000	64.690947 
1069.000000	64.688205 
1068.000000	64.692687 
1067.000000	64.705538 
1066.000000	64.726495 
1065.000000	64.754104 
1064.000000	64.785647 
1063.000000	64.817309 
1062.000000	64.845085 
1061.000000	64.865469 
1060.000000	64.876389 
1059.000000	64.877271 
1058.000000	64.869499 
1057.000000	64.856433 
1056.000000	64.842152 
1055.000000	64.830493 
1054.000000	64.823794 
1053.000000	64.823031 
1052.000000	64.827084 
1051.000000	64.833021 
1050.000000	64.837145 
1049.000000	64.836502 
1048.000000	64.829540 
1047.000000	64.816856 
1046.000000	64.800810 
1045.000000	64.784526 
1044.000000	64.771533 
1043.000000	64.764666 
1042.000000	64.765548 
1041.000000	64.774084 
1040.000000	64.789366 
1039.000000	64.809918 
1038.000000	64.833831 
1037.000000	64.858913 
1036.000000	64.882659 
1035.000000	64.902114 
1034.000000	64.914083 
1033.000000	64.915060 
1032.000000	64.902353 
1031.000000	64.874267 
1030.000000	64.830803 
1029.000000	64.773726 
1028.000000	64.707255 
1027.000000	64.636421 
1026.000000	64.566683 
1025.000000	64.502286 
1024.000000	64.445424 
1023.000000	64.396524 
1022.000000	64.353942 
1021.000000	64.316606 
1020.000000	64.283514 
1019.000000	64.257216 
1018.000000	64.243054 
1017.000000	64.248919 
1016.000000	64.282512 
1015.000000	64.349031 
1014.000000	64.448547 
1013.000000	64.574146 
1012.000000	64.712333 
1011.000000	64.845156 
1010.000000	64.954257 
1009.000000	65.024995 
1008.000000	65.050363 
1007.000000	65.033245 
1006.000000	64.985728 
1005.000000	64.926409 
1004.000000	64.875078 
1003.000000	64.848828 
1002.000000	64.856195 
1001.000000	64.896702 
1000.000000	64.959931 
999.000000	 65.029811 
998.000000	 65.087771 
997.000000	 65.118980 
996.000000	 65.114879 
995.000000	 65.075039 
994.000000	 65.006637 
993.000000	 64.921975 
992.000000	 64.834713 
991.000000	 64.755630 
990.000000	 64.691019 
989.000000	 64.642286 
988.000000	 64.606595 
987.000000	 64.578914 
986.000000	 64.554548 
985.000000	 64.531087 
984.000000	 64.508390 
983.000000	 64.488148 
982.000000	 64.472007 
981.000000	 64.460587 
980.000000	 64.452600 
979.000000	 64.445066 
978.000000	 64.433383 
977.000000	 64.413022 
976.000000	 64.381194 
975.000000	 64.337968 
974.000000	 64.285778 
973.000000	 64.229846 
972.000000	 64.176321 
971.000000	 64.132118 
970.000000	 64.102458 
969.000000	 64.091753 
968.000000	 64.102220 
967.000000	 64.134907 
966.000000	 64.189076 
965.000000	 64.263033 
964.000000	 64.353704 
963.000000	 64.457201 
962.000000	 64.568519 
961.000000	 64.682030 
960.000000	 64.791560 
959.000000	 64.891624 
958.000000	 64.977908 
957.000000	 65.047216 
956.000000	 65.097308 
955.000000	 65.127730 
954.000000	 65.138936 
953.000000	 65.132379 
952.000000	 65.109825 
951.000000	 65.074253 
950.000000	 65.028476 
949.000000	 64.975643 
948.000000	 64.918208 
947.000000	 64.858937 
946.000000	 64.799976 
945.000000	 64.743351 
944.000000	 64.690899 
943.000000	 64.644265 
942.000000	 64.605522 
941.000000	 64.576959 
940.000000	 64.561343 
939.000000	 64.560747 
938.000000	 64.576530 
937.000000	 64.608240 
936.000000	 64.653515 
935.000000	 64.707565 
934.000000	 64.764380 
933.000000	 64.817643 
932.000000	 64.861536 
931.000000	 64.891695 
930.000000	 64.906430 
929.000000	 64.906859 
928.000000	 64.896106 
927.000000	 64.878559 
926.000000	 64.859580 
925.000000	 64.844155 
924.000000	 64.835953 
923.000000	 64.836573 
922.000000	 64.845752 
921.000000	 64.861011 
920.000000	 64.878606 
919.000000	 64.893937 
918.000000	 64.902043 
917.000000	 64.898896 
916.000000	 64.882183 
915.000000	 64.851927 
914.000000	 64.810299 
913.000000	 64.761757 
912.000000	 64.712500 
911.000000	 64.668726 
910.000000	 64.635396 
909.000000	 64.615201 
908.000000	 64.608216 
907.000000	 64.611983 
906.000000	 64.622306 
905.000000	 64.634203 
904.000000	 64.642930 
903.000000	 64.644765 
902.000000	 64.637684 
901.000000	 64.620757 
900.000000	 64.594435 
899.000000	 64.560174 
898.000000	 64.520335 
897.000000	 64.477658 
896.000000	 64.435338 
895.000000	 64.396667 
894.000000	 64.364981 
893.000000	 64.343380 
892.000000	 64.334392 
891.000000	 64.339232 
890.000000	 64.358115 
889.000000	 64.389443 
888.000000	 64.430546 
887.000000	 64.477801 
886.000000	 64.527058 
885.000000	 64.574193 
884.000000	 64.615321 
883.000000	 64.646887 
882.000000	 64.666461 
881.000000	 64.672780 
880.000000	 64.665961 
879.000000	 64.647531 
878.000000	 64.620351 
877.000000	 64.588356 
876.000000	 64.555692 
875.000000	 64.525938 
874.000000	 64.501214 
873.000000	 64.482092 
872.000000	 64.467406 
871.000000	 64.455103 
870.000000	 64.442825 
869.000000	 64.429235 
868.000000	 64.414381 
867.000000	 64.399838 
866.000000	 64.388394 
865.000000	 64.383077 
864.000000	 64.385843 
863.000000	 64.397025 
862.000000	 64.414358 
861.000000	 64.434242 
860.000000	 64.452099 
859.000000	 64.464473 
858.000000	 64.469575 
857.000000	 64.468240 
856.000000	 64.463543 
855.000000	 64.459514 
854.000000	 64.459872 
853.000000	 64.466047 
852.000000	 64.476323 
851.000000	 64.485859 
850.000000	 64.488029 
849.000000	 64.476490 
848.000000	 64.447164 
847.000000	 64.400219 
846.000000	 64.340662 
845.000000	 64.277172 
844.000000	 64.220237 
843.000000	 64.179611 
842.000000	 64.161586 
841.000000	 64.167618 
840.000000	 64.193797 
839.000000	 64.231872 
838.000000	 64.271330 
837.000000	 64.301657 
836.000000	 64.315247 
835.000000	 64.308142 
834.000000	 64.281892 
833.000000	 64.241743 
832.000000	 64.196538 
831.000000	 64.155530 
830.000000	 64.127445 
829.000000	 64.118218 
828.000000	 64.130353 
827.000000	 64.162898 
826.000000	 64.211726 
825.000000	 64.271116 
824.000000	 64.334321 
823.000000	 64.394950 
822.000000	 64.448189 
821.000000	 64.491295 
820.000000	 64.523243 
819.000000	 64.544415 
818.000000	 64.556050 
817.000000	 64.559483 
816.000000	 64.555954 
815.000000	 64.546251 
814.000000	 64.530658 
813.000000	 64.509439 
812.000000	 64.483809 
811.000000	 64.455509 
810.000000	 64.426708 
809.000000	 64.399886 
808.000000	 64.377808 
807.000000	 64.362668 
806.000000	 64.356017 
805.000000	 64.358067 
804.000000	 64.367985 
803.000000	 64.383578 
802.000000	 64.401769 
801.000000	 64.418482 
800.000000	 64.429473 
799.000000	 64.430189 
798.000000	 64.416384 
797.000000	 64.384555 
796.000000	 64.332890 
795.000000	 64.261484 
794.000000	 64.172983 
793.000000	 64.072513 
792.000000	 63.967299 
791.000000	 63.866019 
790.000000	 63.778090 
789.000000	 63.711452 
788.000000	 63.672399 
787.000000	 63.664531 
786.000000	 63.688802 
785.000000	 63.742351 
784.000000	 63.820099 
783.000000	 63.914585 
782.000000	 64.017820 
781.000000	 64.121460 
780.000000	 64.218497 
779.000000	 64.303040 
778.000000	 64.371299 
777.000000	 64.421653 
776.000000	 64.454197 
775.000000	 64.470601 
774.000000	 64.473176 
773.000000	 64.464449 
772.000000	 64.446687 
771.000000	 64.422059 
770.000000	 64.392876 
769.000000	 64.361834 
768.000000	 64.332365 
767.000000	 64.308261 
766.000000	 64.293599 
765.000000	 64.291262 
764.000000	 64.301586 
763.000000	 64.321517 
762.000000	 64.344310 
761.000000	 64.361453 
760.000000	 64.363694 
759.000000	 64.344906 
758.000000	 64.303398 
757.000000	 64.243793 
756.000000	 64.176893 
755.000000	 64.116740 
754.000000	 64.077782 
753.000000	 64.069867 
752.000000	 64.096307 
751.000000	 64.150667 
750.000000	 64.218211 
749.000000	 64.279174 
748.000000	 64.314007 
747.000000	 64.308524 
746.000000	 64.257383 
745.000000	 64.166545 
744.000000	 64.051795 
743.000000	 63.935112 
742.000000	 63.838958 
741.000000	 63.781046 
740.000000	 63.769817 
739.000000	 63.803148 
738.000000	 63.868832 
737.000000	 63.948178 
736.000000	 64.020419 
735.000000	 64.068007 
734.000000	 64.080214 
733.000000	 64.054203 
732.000000	 63.995051 
731.000000	 63.912844 
730.000000	 63.819861 
729.000000	 63.726735 
728.000000	 63.640522 
727.000000	 63.564515 
726.000000	 63.498115 
725.000000	 63.438940 
724.000000	 63.384556 
723.000000	 63.334584 
722.000000	 63.291049 
721.000000	 63.257646 
720.000000	 63.238978 
719.000000	 63.238120 
718.000000	 63.256478 
717.000000	 63.292527 
716.000000	 63.341903 
715.000000	 63.397645 
714.000000	 63.452506 
713.000000	 63.500165 
712.000000	 63.536238 
711.000000	 63.559079 
710.000000	 63.569521 
709.000000	 63.570690 
708.000000	 63.567209 
707.000000	 63.564300 
706.000000	 63.566517 
705.000000	 63.577270 
704.000000	 63.598704 
703.000000	 63.631367 
702.000000	 63.674616 
701.000000	 63.726758 
700.000000	 63.785338 
699.000000	 63.847064 
698.000000	 63.908362 
697.000000	 63.964915 
696.000000	 64.012980 
695.000000	 64.047884 
694.000000	 64.065217 
693.000000	 64.060544 
692.000000	 64.031004 
691.000000	 63.975000 
690.000000	 63.893079 
689.000000	 63.788294 
688.000000	 63.666391 
687.000000	 63.534617 
686.000000	 63.401341 
685.000000	 63.274860 
684.000000	 63.163232 
683.000000	 63.074016 
682.000000	 63.013935 
681.000000	 62.987446 
680.000000	 62.996721 
679.000000	 63.040900 
678.000000	 63.115715 
677.000000	 63.212394 
676.000000	 63.319182 
675.000000	 63.422298 
674.000000	 63.508415 
673.000000	 63.566088 
672.000000	 63.588523 
671.000000	 63.574147 
670.000000	 63.527417 
669.000000	 63.457608 
668.000000	 63.377428 
667.000000	 63.300490 
666.000000	 63.238763 
665.000000	 63.200736 
664.000000	 63.190507 
663.000000	 63.207936 
662.000000	 63.248944 
661.000000	 63.306856 
660.000000	 63.372945 
659.000000	 63.437724 
658.000000	 63.492035 
657.000000	 63.528156 
656.000000	 63.539838 
655.000000	 63.523316 
654.000000	 63.477897 
653.000000	 63.406157 
652.000000	 63.312625 
651.000000	 63.204336 
650.000000	 63.089919 
649.000000	 62.979555 
648.000000	 62.883830 
647.000000	 62.812447 
646.000000	 62.773370 
645.000000	 62.770557 
644.000000	 62.803339 
643.000000	 62.865328 
642.000000	 62.944936 
641.000000	 63.027572 
640.000000	 63.098096 
639.000000	 63.144397 
638.000000	 63.159084 
637.000000	 63.141632 
636.000000	 63.097953 
635.000000	 63.039398 
634.000000	 62.979841 
633.000000	 62.932372 
632.000000	 62.906289 
631.000000	 62.905263 
630.000000	 62.927222 
629.000000	 62.966084 
628.000000	 63.013648 
627.000000	 63.061928 
626.000000	 63.104987 
625.000000	 63.139820 
624.000000	 63.166761 
623.000000	 63.187527 
622.000000	 63.205099 
621.000000	 63.222074 
620.000000	 63.239908 
619.000000	 63.259124 
618.000000	 63.278460 
617.000000	 63.295364 
616.000000	 63.306689 
615.000000	 63.309788 
614.000000	 63.303446 
613.000000	 63.288640 
612.000000	 63.268423 
611.000000	 63.247275 
610.000000	 63.230085 
609.000000	 63.221120 
608.000000	 63.221859 
607.000000	 63.230323 
606.000000	 63.241291 
605.000000	 63.247442 
604.000000	 63.240790 
603.000000	 63.214874 
602.000000	 63.166403 
601.000000	 63.096499 
600.000000	 63.011026 
599.000000	 62.919306 
598.000000	 62.831687 
597.000000	 62.757492 
596.000000	 62.702822 
595.000000	 62.669563 
594.000000	 62.655472 
593.000000	 62.655091 
592.000000	 62.661385 
591.000000	 62.667346 
590.000000	 62.667202 
589.000000	 62.657332 
588.000000	 62.636280 
587.000000	 62.604451 
586.000000	 62.563085 
585.000000	 62.513852 
584.000000	 62.458133 
583.000000	 62.397074 
582.000000	 62.331581 
581.000000	 62.262940 
580.000000	 62.193417 
579.000000	 62.126398 
578.000000	 62.066674 
577.000000	 62.019658 
576.000000	 61.990737 
575.000000	 61.984181 
574.000000	 62.002372 
573.000000	 62.044334 
572.000000	 62.106156 
571.000000	 62.181305 
570.000000	 62.261986 
569.000000	 62.339544 
568.000000	 62.406992 
567.000000	 62.459540 
566.000000	 62.496304 
565.000000	 62.519550 
564.000000	 62.534618 
563.000000	 62.548232 
562.000000	 62.566518 
561.000000	 62.593889 
560.000000	 62.631201 
559.000000	 62.676072 
558.000000	 62.722754 
557.000000	 62.764501 
556.000000	 62.794494 
555.000000	 62.807750 
554.000000	 62.802720 
553.000000	 62.781715 
552.000000	 62.750315 
551.000000	 62.715458 
550.000000	 62.683606 
549.000000	 62.657928 
548.000000	 62.637686 
547.000000	 62.617635 
546.000000	 62.589573 
545.000000	 62.544488 
544.000000	 62.475752 
543.000000	 62.381458 
542.000000	 62.265682 
541.000000	 62.138032 
540.000000	 62.011456 
539.000000	 61.899256 
538.000000	 61.811351 
537.000000	 61.753082 
536.000000	 61.723399 
535.000000	 61.717081 
534.000000	 61.725616 
533.000000	 61.741709 
532.000000	 61.761307 
531.000000	 61.784291 
530.000000	 61.813735 
529.000000	 61.852836 
528.000000	 61.902213 
527.000000	 61.956882 
526.000000	 62.005853 
525.000000	 62.034058 
524.000000	 62.025809 
523.000000	 61.969470 
522.000000	 61.861300 
521.000000	 61.707448 
520.000000	 61.524081 
519.000000	 61.333680 
518.000000	 61.161470 
517.000000	 61.030125 
516.000000	 60.955691 
515.000000	 60.944509 
514.000000	 60.992550 
513.000000	 61.087179 
512.000000	 61.210298 
511.000000	 61.342096 
510.000000	 61.465287 
509.000000	 61.567187 
508.000000	 61.641407 
507.000000	 61.686563 
506.000000	 61.705374 
505.000000	 61.701679 
504.000000	 61.679410 
503.000000	 61.641287 
502.000000	 61.589884 
501.000000	 61.528396 
500.000000	 61.461472 
499.000000	 61.395311 
498.000000	 61.335968 
497.000000	 61.288094 
496.000000	 61.253666 
495.000000	 61.231112 
494.000000	 61.214661 
493.000000	 61.195945 
492.000000	 61.165785 
491.000000	 61.116909 
490.000000	 61.046147 
489.000000	 60.955667 
488.000000	 60.852980 
487.000000	 60.749173 
486.000000	 60.655307 
485.000000	 60.580468 
484.000000	 60.530376 
483.000000	 60.504889 
482.000000	 60.499167 
481.000000	 60.503077 
480.000000	 60.504102 
479.000000	 60.489130 
478.000000	 60.447692 
477.000000	 60.374498 
476.000000	 60.269999 
475.000000	 60.143327 
474.000000	 60.009908 
473.000000	 59.891176 
472.000000	 59.809637 
471.000000	 59.784984 
470.000000	 59.828853 
469.000000	 59.939622 
468.000000	 60.101747 
467.000000	 60.288619 
466.000000	 60.468792 
465.000000	 60.609126 
464.000000	 60.685944 
463.000000	 60.691332 
462.000000	 60.635375 
461.000000	 60.545039 
460.000000	 60.454821 
459.000000	 60.396480 
458.000000	 60.389375 
457.000000	 60.437440 
456.000000	 60.525584 
455.000000	 60.624003 
454.000000	 60.698771 
453.000000	 60.722923 
452.000000	 60.685539 
451.000000	 60.595560 
450.000000	 60.480690 
449.000000	 60.379123 
448.000000	 60.328555 
447.000000	 60.354566 
446.000000	 60.459280 
445.000000	 60.617995 
444.000000	 60.782098 
443.000000	 60.888814 
442.000000	 60.878467 
441.000000	 60.709142 
440.000000	 60.356926 
439.000000	 59.829878 
438.000000	 59.169316 
437.000000	 58.448934 
436.000000	 57.757186 
435.000000	 57.187390 
434.000000	 56.821393 
433.000000	 56.713485 
432.000000	 56.879186 
431.000000	 57.292914 
430.000000	 57.889771 
429.000000	 58.583116 
428.000000	 59.280633 
427.000000	 59.902453 
426.000000	 60.395526 
425.000000	 60.732078 
424.000000	 60.907745 
423.000000	 60.928368 
422.000000	 60.800671 
421.000000	 60.531497 
420.000000	 60.128617 
419.000000	 59.616565 
418.000000	 59.046864 
417.000000	 58.496451 
416.000000	 58.066296 
415.000000	 57.885074 
414.000000	 58.083271 
413.000000	 58.757805 
412.000000	 59.941220 
411.000000	 61.588954 
410.000000	 63.567590 
409.000000	 65.676784 
408.000000	 67.679452 
407.000000	 69.312906 
406.000000	 70.375680 
405.000000	 70.793986 
404.000000	 70.617079 
403.000000	 70.012187 
402.000000	 69.201087 
401.000000	 68.404078 
400.000000	 67.778182 
399.000000	 67.396402 
398.000000	 67.228674 
397.000000	 67.174339 
396.000000	 67.107367 
395.000000	 66.932845 
394.000000	 66.632676 
393.000000	 66.279244 
392.000000	 66.055274 
391.000000	 66.212272 
390.000000	 67.003583 
389.000000	 68.605113 
388.000000	 71.118426 
387.000000	 74.480152 
386.000000	 78.490805 
385.000000	 82.741856 
384.000000	 86.677265 
383.000000	 89.609575 
382.000000	 90.842032 
381.000000	 89.805912 
380.000000	 86.139512 
379.000000	 79.894256 
378.000000	 71.576333 
377.000000	 62.140107 
376.000000	 52.835988 
375.000000	 44.984126 
374.000000	 39.770269 
373.000000	 37.896466 
372.000000	 39.439749 
371.000000	 43.811750 
370.000000	 49.861359 

