PE IR       SPECTRUM    SPECTRUM    ASCII       PEDS        1.60        
  -1
C-1AE0~1.ASC
17/03/27
15:59:14.00
17/03/27
15:59:14.00
tln
$C-4040-8_t0019$<tbV0>[-5.2,-10.4,8.0,0.0,27,1,0]
370.000000
64









2002,4.07    
MIRTGS : RIGHTBACK : INTERNAL 2
MIR : ON : INTERNAL 2
OPTKBR

0.200000
8
8.000000
FILLER
RATIO
SPECTRUM
UNLOCKED 256

DOUBLE
64
COMBINED
1
0
0


1.000000
RATIO


1
0
TRUE
51149
0
LEFT NOT FITTED RIGHT NOT FITTED 0
NONE
NONE
15600
12.000000
4.427000
51148
TRUE
1 0 8 72 0 0 0 0 

15798.010000






#HDR
-1
-1
#GR
CM-1
%T
0.00002384185791015625
0.0
5000.000000
-1.000000
4631
8
72.230935
31.012654
#DATA
5000.000000	63.669991 
4999.000000	63.553810 
4998.000000	63.447690 
4997.000000	63.365674 
4996.000000	63.323259 
4995.000000	63.334321 
4994.000000	63.407325 
4993.000000	63.541388 
4992.000000	63.726162 
4991.000000	63.942575 
4990.000000	64.165806 
4989.000000	64.368915 
4988.000000	64.529275 
4987.000000	64.632654 
4986.000000	64.675378 
4985.000000	64.664101 
4984.000000	64.611792 
4983.000000	64.533638 
4982.000000	64.442825 
4981.000000	64.347743 
4980.000000	64.251017 
4979.000000	64.151549 
4978.000000	64.048242 
4977.000000	63.943099 
4976.000000	63.845109 
4975.000000	63.768100 
4974.000000	63.728356 
4973.000000	63.738203 
4972.000000	63.801836 
4971.000000	63.910841 
4970.000000	64.044189 
4969.000000	64.171814 
4968.000000	64.260077 
4967.000000	64.280986 
4966.000000	64.220094 
4965.000000	64.079737 
4964.000000	63.878107 
4963.000000	63.645792 
4962.000000	63.418412 
4961.000000	63.228058 
4960.000000	63.096117 
4959.000000	63.029885 
4958.000000	63.022470 
4957.000000	63.058519 
4956.000000	63.119792 
4955.000000	63.190007 
4954.000000	63.257646 
4953.000000	63.315105 
4952.000000	63.357520 
4951.000000	63.378953 
4950.000000	63.372445 
4949.000000	63.328361 
4948.000000	63.238787 
4947.000000	63.100934 
4946.000000	62.921118 
4945.000000	62.714529 
4944.000000	62.506461 
4943.000000	62.326908 
4942.000000	62.207770 
4941.000000	62.174701 
4940.000000	62.243771 
4939.000000	62.417054 
4938.000000	62.681508 
4937.000000	63.011193 
4936.000000	63.370275 
4935.000000	63.719439 
4934.000000	64.020776 
4933.000000	64.243435 
4932.000000	64.368486 
4931.000000	64.390611 
4930.000000	64.319300 
4929.000000	64.175939 
4928.000000	63.991498 
4927.000000	63.800644 
4926.000000	63.636064 
4925.000000	63.522481 
4924.000000	63.473987 
4923.000000	63.492155 
4922.000000	63.567638 
4921.000000	63.683629 
4920.000000	63.819718 
4919.000000	63.957524 
4918.000000	64.083003 
4917.000000	64.189696 
4916.000000	64.276504 
4915.000000	64.347839 
4914.000000	64.408707 
4913.000000	64.464473 
4912.000000	64.518475 
4911.000000	64.571738 
4910.000000	64.624094 
4909.000000	64.673781 
4908.000000	64.720487 
4907.000000	64.762496 
4906.000000	64.798378 
4905.000000	64.823579 
4904.000000	64.831328 
4903.000000	64.814829 
4902.000000	64.769577 
4901.000000	64.694476 
4900.000000	64.593338 
4899.000000	64.476680 
4898.000000	64.359736 
4897.000000	64.259862 
4896.000000	64.192390 
4895.000000	64.166331 
4894.000000	64.182424 
4893.000000	64.232778 
4892.000000	64.303278 
4891.000000	64.376640 
4890.000000	64.437818 
4889.000000	64.476537 
4888.000000	64.490962 
4887.000000	64.487195 
4886.000000	64.477252 
4885.000000	64.474153 
4884.000000	64.488291 
4883.000000	64.524769 
4882.000000	64.580678 
4881.000000	64.646577 
4880.000000	64.707398 
4879.000000	64.747142 
4878.000000	64.751577 
4877.000000	64.712333 
4876.000000	64.627814 
4875.000000	64.503955 
4874.000000	64.352774 
4873.000000	64.190292 
4872.000000	64.034152 
4871.000000	63.900685 
4870.000000	63.803148 
4869.000000	63.749504 
4868.000000	63.741564 
4867.000000	63.774943 
4866.000000	63.840341 
4865.000000	63.925623 
4864.000000	64.016962 
4863.000000	64.102482 
4862.000000	64.172744 
4861.000000	64.222836 
4860.000000	64.251470 
4859.000000	64.261102 
4858.000000	64.255642 
4857.000000	64.240336 
4856.000000	64.220476 
4855.000000	64.200735 
4854.000000	64.184761 
4853.000000	64.175176 
4852.000000	64.174175 
4851.000000	64.182710 
4850.000000	64.200806 
4849.000000	64.226937 
4848.000000	64.258384 
4847.000000	64.290690 
4846.000000	64.318680 
4845.000000	64.337730 
4844.000000	64.344978 
4843.000000	64.340353 
4842.000000	64.326953 
4841.000000	64.309763 
4840.000000	64.294958 
4839.000000	64.288687 
4838.000000	64.295411 
4837.000000	64.316892 
4836.000000	64.351654 
4835.000000	64.395976 
4834.000000	64.443969 
4833.000000	64.489769 
4832.000000	64.527177 
4831.000000	64.551401 
4830.000000	64.558529 
4829.000000	64.546537 
4828.000000	64.514517 
4827.000000	64.462709 
4826.000000	64.392280 
4825.000000	64.305686 
4824.000000	64.206480 
4823.000000	64.099979 
4822.000000	63.991904 
4821.000000	63.888382 
4820.000000	63.795113 
4819.000000	63.717103 
4818.000000	63.657641 
4817.000000	63.618278 
4816.000000	63.598585 
4815.000000	63.596796 
4814.000000	63.609766 
4813.000000	63.633918 
4812.000000	63.664865 
4811.000000	63.698720 
4810.000000	63.731551 
4809.000000	63.760375 
4808.000000	63.782715 
4807.000000	63.797068 
4806.000000	63.802528 
4805.000000	63.798904 
4804.000000	63.786721 
4803.000000	63.767075 
4802.000000	63.741588 
4801.000000	63.712453 
4800.000000	63.682079 
4799.000000	63.653850 
4798.000000	63.631629 
4797.000000	63.620066 
4796.000000	63.623809 
4795.000000	63.647079 
4794.000000	63.692426 
4793.000000	63.760471 
4792.000000	63.849043 
4791.000000	63.952946 
4790.000000	64.064431 
4789.000000	64.174270 
4788.000000	64.273238 
4787.000000	64.353251 
4786.000000	64.408779 
4785.000000	64.438176 
4784.000000	64.443492 
4783.000000	64.430141 
4782.000000	64.405202 
4781.000000	64.376735 
4780.000000	64.351224 
4779.000000	64.333653 
4778.000000	64.325451 
4777.000000	64.325737 
4776.000000	64.331102 
4775.000000	64.337420 
4774.000000	64.340424 
4773.000000	64.337158 
4772.000000	64.326667 
4771.000000	64.310050 
4770.000000	64.290070 
4769.000000	64.269948 
4768.000000	64.252591 
4767.000000	64.239740 
4766.000000	64.231324 
4765.000000	64.225745 
4764.000000	64.221000 
4763.000000	64.215397 
4762.000000	64.208078 
4761.000000	64.199376 
4760.000000	64.191246 
4759.000000	64.186000 
4758.000000	64.185380 
4757.000000	64.189577 
4756.000000	64.197373 
4755.000000	64.206051 
4754.000000	64.211845 
4753.000000	64.211034 
4752.000000	64.201092 
4751.000000	64.181280 
4750.000000	64.153218 
4749.000000	64.120221 
4748.000000	64.086198 
4747.000000	64.054894 
4746.000000	64.029073 
4745.000000	64.009904 
4744.000000	63.996815 
4743.000000	63.987994 
4742.000000	63.981080 
4741.000000	63.973712 
4740.000000	63.964033 
4739.000000	63.951039 
4738.000000	63.934350 
4737.000000	63.914227 
4736.000000	63.891458 
4735.000000	63.866877 
4734.000000	63.841509 
4733.000000	63.816285 
4732.000000	63.792371 
4731.000000	63.771176 
4730.000000	63.754701 
4729.000000	63.744735 
4728.000000	63.743519 
4727.000000	63.752651 
4726.000000	63.773655 
4725.000000	63.806939 
4724.000000	63.852214 
4723.000000	63.907742 
4722.000000	63.970828 
4721.000000	64.037728 
4720.000000	64.104080 
4719.000000	64.165520 
4718.000000	64.217925 
4717.000000	64.257884 
4716.000000	64.283227 
4715.000000	64.293384 
4714.000000	64.288687 
4713.000000	64.270424 
4712.000000	64.240479 
4711.000000	64.201378 
4710.000000	64.156293 
4709.000000	64.109086 
4708.000000	64.064335 
4707.000000	64.027190 
4706.000000	64.003062 
4705.000000	63.996601 
4704.000000	64.010858 
4703.000000	64.046335 
4702.000000	64.100670 
4701.000000	64.168572 
4700.000000	64.241957 
4699.000000	64.311814 
4698.000000	64.369487 
4697.000000	64.408826 
4696.000000	64.426803 
4695.000000	64.424777 
4694.000000	64.407944 
4693.000000	64.384102 
4692.000000	64.361953 
4691.000000	64.348530 
4690.000000	64.347910 
4689.000000	64.359974 
4688.000000	64.380979 
4687.000000	64.404511 
4686.000000	64.423561 
4685.000000	64.432287 
4684.000000	64.427590 
4683.000000	64.409804 
4682.000000	64.382028 
4681.000000	64.349126 
4680.000000	64.315676 
4679.000000	64.284443 
4678.000000	64.255428 
4677.000000	64.226245 
4676.000000	64.192795 
4675.000000	64.151048 
4674.000000	64.098739 
4673.000000	64.036464 
4672.000000	63.968443 
4671.000000	63.901019 
4670.000000	63.842344 
4669.000000	63.799238 
4668.000000	63.777351 
4667.000000	63.779544 
4666.000000	63.805842 
4665.000000	63.853144 
4664.000000	63.916420 
4663.000000	63.989758 
4662.000000	64.066982 
4661.000000	64.142251 
4660.000000	64.210605 
4659.000000	64.267945 
4658.000000	64.311480 
4657.000000	64.339590 
4656.000000	64.352059 
4655.000000	64.349794 
4654.000000	64.335203 
4653.000000	64.311480 
4652.000000	64.282584 
4651.000000	64.252710 
4650.000000	64.226031 
4649.000000	64.206171 
4648.000000	64.196348 
4647.000000	64.198231 
4646.000000	64.212775 
4645.000000	64.238667 
4644.000000	64.272904 
4643.000000	64.310097 
4642.000000	64.343810 
4641.000000	64.367222 
4640.000000	64.373850 
4639.000000	64.360189 
4638.000000	64.326238 
4637.000000	64.276194 
4636.000000	64.217376 
4635.000000	64.159250 
4634.000000	64.111566 
4633.000000	64.082050 
4632.000000	64.074778 
4631.000000	64.089035 
4630.000000	64.119720 
4629.000000	64.159035 
4628.000000	64.198398 
4627.000000	64.230275 
4626.000000	64.249753 
4625.000000	64.255428 
4624.000000	64.249157 
4623.000000	64.234232 
4622.000000	64.214682 
4621.000000	64.193630 
4620.000000	64.173126 
4619.000000	64.153671 
4618.000000	64.135432 
4617.000000	64.119124 
4616.000000	64.106822 
4615.000000	64.102029 
4614.000000	64.109539 
4613.000000	64.134240 
4612.000000	64.179468 
4611.000000	64.245223 
4610.000000	64.327406 
4609.000000	64.417839 
4608.000000	64.505839 
4607.000000	64.580059 
4606.000000	64.631533 
4605.000000	64.655303 
4604.000000	64.651894 
4603.000000	64.626717 
4602.000000	64.588189 
4601.000000	64.545178 
4600.000000	64.505004 
4599.000000	64.471507 
4598.000000	64.444708 
4597.000000	64.421224 
4596.000000	64.396452 
4595.000000	64.366102 
4594.000000	64.328360 
4593.000000	64.284014 
4592.000000	64.236211 
4591.000000	64.189195 
4590.000000	64.146280 
4589.000000	64.109587 
4588.000000	64.078426 
4587.000000	64.051365 
4586.000000	64.027023 
4585.000000	64.005374 
4584.000000	63.988018 
4583.000000	63.977909 
4582.000000	63.978362 
4581.000000	63.990950 
4580.000000	64.014244 
4579.000000	64.044046 
4578.000000	64.074230 
4577.000000	64.098429 
4576.000000	64.111852 
4575.000000	64.113044 
4574.000000	64.104247 
4573.000000	64.090657 
4572.000000	64.078760 
4571.000000	64.073777 
4570.000000	64.078164 
4569.000000	64.090967 
4568.000000	64.108157 
4567.000000	64.123725 
4566.000000	64.131641 
4565.000000	64.128947 
4564.000000	64.115309 
4563.000000	64.093542 
4562.000000	64.067244 
4561.000000	64.040017 
4560.000000	64.012765 
4559.000000	63.983464 
4558.000000	63.947486 
4557.000000	63.899326 
4556.000000	63.834810 
4555.000000	63.753151 
4554.000000	63.658308 
4553.000000	63.558816 
4552.000000	63.466000 
4551.000000	63.391470 
4550.000000	63.344073 
4549.000000	63.327884 
4548.000000	63.341069 
4547.000000	63.376998 
4546.000000	63.426041 
4545.000000	63.478755 
4544.000000	63.528418 
4543.000000	63.572883 
4542.000000	63.614273 
4541.000000	63.657617 
4540.000000	63.707995 
4539.000000	63.768005 
4538.000000	63.836336 
4537.000000	63.906812 
4536.000000	63.970279 
4535.000000	64.016079 
4534.000000	64.036059 
4533.000000	64.025640 
4532.000000	63.985610 
4531.000000	63.921737 
4530.000000	63.843631 
4529.000000	63.763093 
4528.000000	63.691544 
4527.000000	63.638448 
4526.000000	63.610053 
4525.000000	63.608598 
4524.000000	63.632678 
4523.000000	63.677573 
4522.000000	63.736557 
4521.000000	63.802695 
4520.000000	63.869690 
4519.000000	63.932585 
4518.000000	63.988041 
4517.000000	64.033627 
4516.000000	64.068436 
4515.000000	64.091777 
4514.000000	64.104294 
4513.000000	64.108324 
4512.000000	64.106988 
4511.000000	64.105105 
4510.000000	64.106583 
4509.000000	64.114212 
4508.000000	64.128398 
4507.000000	64.147639 
4506.000000	64.168691 
4505.000000	64.188075 
4504.000000	64.202308 
4503.000000	64.209747 
4502.000000	64.209127 
4501.000000	64.199852 
4500.000000	64.180755 
4499.000000	64.150476 
4498.000000	64.106035 
4497.000000	64.044070 
4496.000000	63.962316 
4495.000000	63.861250 
4494.000000	63.745665 
4493.000000	63.624334 
4492.000000	63.509416 
4491.000000	63.413667 
4490.000000	63.345694 
4489.000000	63.310050 
4488.000000	63.303828 
4487.000000	63.321471 
4486.000000	63.356494 
4485.000000	63.404965 
4484.000000	63.468718 
4483.000000	63.551807 
4482.000000	63.654446 
4481.000000	63.774085 
4480.000000	63.903045 
4479.000000	64.030742 
4478.000000	64.143371 
4477.000000	64.230990 
4476.000000	64.291262 
4475.000000	64.328408 
4474.000000	64.352941 
4473.000000	64.376640 
4472.000000	64.408779 
4471.000000	64.454078 
4470.000000	64.511919 
4469.000000	64.574956 
4468.000000	64.631724 
4467.000000	64.675736 
4466.000000	64.706707 
4465.000000	64.728522 
4464.000000	64.748811 
4463.000000	64.773464 
4462.000000	64.809274 
4461.000000	64.854621 
4460.000000	64.912223 
4459.000000	64.988970 
4458.000000	65.103983 
4457.000000	65.285038 
4456.000000	65.564584 
4455.000000	65.970420 
4454.000000	66.514563 
4453.000000	67.183852 
4452.000000	67.938160 
4451.000000	68.716216 
4450.000000	69.443368 
4449.000000	70.049691 
4448.000000	70.475888 
4447.000000	70.687818 
4446.000000	70.672726 
4445.000000	70.442080 
4444.000000	70.016455 
4443.000000	69.421887 
4442.000000	68.682837 
4441.000000	67.823195 
4440.000000	66.871047 
4439.000000	65.862822 
4438.000000	64.850163 
4437.000000	63.895392 
4436.000000	63.063907 
4435.000000	62.413311 
4434.000000	61.975646 
4433.000000	61.756563 
4432.000000	61.729335 
4431.000000	61.847472 
4430.000000	62.046146 
4429.000000	62.265586 
4428.000000	62.456345 
4427.000000	62.593936 
4426.000000	62.669253 
4425.000000	62.696695 
4424.000000	62.701416 
4423.000000	62.711739 
4422.000000	62.745833 
4421.000000	62.809300 
4420.000000	62.894344 
4419.000000	62.980580 
4418.000000	63.042426 
4417.000000	63.058638 
4416.000000	63.019633 
4415.000000	62.934041 
4414.000000	62.827348 
4413.000000	62.725543 
4412.000000	62.649130 
4411.000000	62.614011 
4410.000000	62.625741 
4409.000000	62.676239 
4408.000000	62.745785 
4407.000000	62.817955 
4406.000000	62.875390 
4405.000000	62.897539 
4404.000000	62.867212 
4403.000000	62.776136 
4402.000000	62.624216 
4401.000000	62.418627 
4400.000000	62.172579 
4399.000000	61.907744 
4398.000000	61.642265 
4397.000000	61.392402 
4396.000000	61.160135 
4395.000000	60.931253 
4394.000000	60.686469 
4393.000000	60.407280 
4392.000000	60.096788 
4391.000000	59.781455 
4390.000000	59.536266 
4389.000000	59.470319 
4388.000000	59.708380 
4387.000000	60.354065 
4386.000000	61.451935 
4385.000000	62.964963 
4384.000000	64.759659 
4383.000000	66.636514 
4382.000000	68.372416 
4381.000000	69.776368 
4380.000000	70.737981 
4379.000000	71.247434 
4378.000000	71.396636 
4377.000000	71.337604 
4376.000000	71.244120 
4375.000000	71.246552 
4374.000000	71.408724 
4373.000000	71.697807 
4372.000000	72.019457 
4371.000000	72.230935 
4370.000000	72.207260 
4369.000000	71.863460 
4368.000000	71.196913 
4367.000000	70.271635 
4366.000000	69.203925 
4365.000000	68.126678 
4364.000000	67.152905 
4363.000000	66.358900 
4362.000000	65.770959 
4361.000000	65.375518 
4360.000000	65.131759 
4359.000000	64.989376 
4358.000000	64.905333 
4357.000000	64.844870 
4356.000000	64.790654 
4355.000000	64.735722 
4354.000000	64.685034 
4353.000000	64.637112 
4352.000000	64.590287 
4351.000000	64.542889 
4350.000000	64.492225 
4349.000000	64.432525 
4348.000000	64.358282 
4347.000000	64.269590 
4346.000000	64.168119 
4345.000000	64.055275 
4344.000000	63.933587 
4343.000000	63.804721 
4342.000000	63.672494 
4341.000000	63.544249 
4340.000000	63.427352 
4339.000000	63.327860 
4338.000000	63.248610 
4337.000000	63.188338 
4336.000000	63.142371 
4335.000000	63.104009 
4334.000000	63.070225 
4333.000000	63.043260 
4332.000000	63.026499 
4331.000000	63.024711 
4330.000000	63.044166 
4329.000000	63.090896 
4328.000000	63.166856 
4327.000000	63.269948 
4326.000000	63.394379 
4325.000000	63.531160 
4324.000000	63.669133 
4323.000000	63.796925 
4322.000000	63.905549 
4321.000000	63.988995 
4320.000000	64.044308 
4319.000000	64.072012 
4318.000000	64.075875 
4317.000000	64.061450 
4316.000000	64.035129 
4315.000000	64.002919 
4314.000000	63.970994 
4313.000000	63.943195 
4312.000000	63.921451 
4311.000000	63.905167 
4310.000000	63.892507 
4309.000000	63.879728 
4308.000000	63.862276 
4307.000000	63.835930 
4306.000000	63.797879 
4305.000000	63.746953 
4304.000000	63.684630 
4303.000000	63.614368 
4302.000000	63.542294 
4301.000000	63.475894 
4300.000000	63.423538 
4299.000000	63.392543 
4298.000000	63.387942 
4297.000000	63.411545 
4296.000000	63.461208 
4295.000000	63.530683 
4294.000000	63.610768 
4293.000000	63.691234 
4292.000000	63.762378 
4291.000000	63.816261 
4290.000000	63.848423 
4289.000000	63.858246 
4288.000000	63.848614 
4287.000000	63.824510 
4286.000000	63.791942 
4285.000000	63.756537 
4284.000000	63.722372 
4283.000000	63.691997 
4282.000000	63.665699 
4281.000000	63.642501 
4280.000000	63.620805 
4279.000000	63.599586 
4278.000000	63.578581 
4277.000000	63.558745 
4276.000000	63.541603 
4275.000000	63.529157 
4274.000000	63.522791 
4273.000000	63.522958 
4272.000000	63.529157 
4271.000000	63.540124 
4270.000000	63.553738 
4269.000000	63.568115 
4268.000000	63.582110 
4267.000000	63.595056 
4266.000000	63.606929 
4265.000000	63.617730 
4264.000000	63.627219 
4263.000000	63.634419 
4262.000000	63.637661 
4261.000000	63.635063 
4260.000000	63.624858 
4259.000000	63.606309 
4258.000000	63.580203 
4257.000000	63.549089 
4256.000000	63.516831 
4255.000000	63.487410 
4254.000000	63.463997 
4253.000000	63.448309 
4252.000000	63.440370 
4251.000000	63.438534 
4250.000000	63.440299 
4249.000000	63.443350 
4248.000000	63.446283 
4247.000000	63.449287 
4246.000000	63.453912 
4245.000000	63.462066 
4244.000000	63.475394 
4243.000000	63.493943 
4242.000000	63.516211 
4241.000000	63.538765 
4240.000000	63.557958 
4239.000000	63.570404 
4238.000000	63.574862 
4237.000000	63.572239 
4236.000000	63.566040 
4235.000000	63.560867 
4234.000000	63.561964 
4233.000000	63.573026 
4232.000000	63.596200 
4231.000000	63.631391 
4230.000000	63.676834 
4229.000000	63.729596 
4228.000000	63.786005 
4227.000000	63.842344 
4226.000000	63.895010 
4225.000000	63.940548 
4224.000000	63.975453 
4223.000000	63.996410 
4222.000000	64.000248 
4221.000000	63.984847 
4220.000000	63.950204 
4219.000000	63.898563 
4218.000000	63.835215 
4217.000000	63.767361 
4216.000000	63.703489 
4215.000000	63.651418 
4214.000000	63.616919 
4213.000000	63.602662 
4212.000000	63.608169 
4211.000000	63.629698 
4210.000000	63.661313 
4209.000000	63.696169 
4208.000000	63.727378 
4207.000000	63.750028 
4206.000000	63.761115 
4205.000000	63.760924 
4204.000000	63.752365 
4203.000000	63.740229 
4202.000000	63.729739 
4201.000000	63.724780 
4200.000000	63.726568 
4199.000000	63.733077 
4198.000000	63.739562 
4197.000000	63.739514 
4196.000000	63.726687 
4195.000000	63.696908 
4194.000000	63.649749 
4193.000000	63.588953 
4192.000000	63.522005 
4191.000000	63.458156 
4190.000000	63.406443 
4189.000000	63.372826 
4188.000000	63.359522 
4187.000000	63.363981 
4186.000000	63.381028 
4185.000000	63.404536 
4184.000000	63.429713 
4183.000000	63.454413 
4182.000000	63.479113 
4181.000000	63.505959 
4180.000000	63.537311 
4179.000000	63.573622 
4178.000000	63.613891 
4177.000000	63.655114 
4176.000000	63.693714 
4175.000000	63.726472 
4174.000000	63.752055 
4173.000000	63.771367 
4172.000000	63.787341 
4171.000000	63.804030 
4170.000000	63.825106 
4169.000000	63.852572 
4168.000000	63.886427 
4167.000000	63.924384 
4166.000000	63.962960 
4165.000000	63.997554 
4164.000000	64.024877 
4163.000000	64.042091 
4162.000000	64.047193 
4161.000000	64.038848 
4160.000000	64.016389 
4159.000000	63.980031 
4158.000000	63.930892 
4157.000000	63.871407 
4156.000000	63.806176 
4155.000000	63.740587 
4154.000000	63.680648 
4153.000000	63.631081 
4152.000000	63.594794 
4151.000000	63.572168 
4150.000000	63.561248 
4149.000000	63.558435 
4148.000000	63.559508 
4147.000000	63.561320 
4146.000000	63.562703 
4145.000000	63.564538 
4144.000000	63.569235 
4143.000000	63.580012 
4142.000000	63.600063 
4141.000000	63.630318 
4140.000000	63.669824 
4139.000000	63.716220 
4138.000000	63.766336 
4137.000000	63.817048 
4136.000000	63.865900 
4135.000000	63.911604 
4134.000000	63.953757 
4133.000000	63.992238 
4132.000000	64.026856 
4131.000000	64.057254 
4130.000000	64.082837 
4129.000000	64.103031 
4128.000000	64.117240 
4127.000000	64.125394 
4126.000000	64.127850 
4125.000000	64.125895 
4124.000000	64.120817 
4123.000000	64.113759 
4122.000000	64.105534 
4121.000000	64.096832 
4120.000000	64.087295 
4119.000000	64.075708 
4118.000000	64.060544 
4117.000000	64.040184 
4116.000000	64.013051 
4115.000000	63.978171 
4114.000000	63.934993 
4113.000000	63.884091 
4112.000000	63.827109 
4111.000000	63.766908 
4110.000000	63.707160 
4109.000000	63.651990 
4108.000000	63.605499 
4107.000000	63.570857 
4106.000000	63.549566 
4105.000000	63.541340 
4104.000000	63.544321 
4103.000000	63.555574 
4102.000000	63.570809 
4101.000000	63.586616 
4100.000000	63.600444 
4099.000000	63.611960 
4098.000000	63.622331 
4097.000000	63.634777 
4096.000000	63.653087 
4095.000000	63.680982 
4094.000000	63.720870 
4093.000000	63.772678 
4092.000000	63.833475 
4091.000000	63.898229 
4090.000000	63.960480 
4089.000000	64.013648 
4088.000000	64.052295 
4087.000000	64.073586 
4086.000000	64.077711 
4085.000000	64.067721 
4084.000000	64.048314 
4083.000000	64.025163 
4082.000000	64.002799 
4081.000000	63.984107 
4080.000000	63.969111 
4079.000000	63.956093 
4078.000000	63.941645 
4077.000000	63.922643 
4076.000000	63.897061 
4075.000000	63.864898 
4074.000000	63.828659 
4073.000000	63.792419 
4072.000000	63.761401 
4071.000000	63.740229 
4070.000000	63.732576 
4069.000000	63.740062 
4068.000000	63.762331 
4067.000000	63.797044 
4066.000000	63.840746 
4065.000000	63.889408 
4064.000000	63.939094 
4063.000000	63.986206 
4062.000000	64.028024 
4061.000000	64.062523 
4060.000000	64.088368 
4059.000000	64.104509 
4058.000000	64.110565 
4057.000000	64.106273 
4056.000000	64.091992 
4055.000000	64.068078 
4054.000000	64.035272 
4053.000000	63.994622 
4052.000000	63.947629 
4051.000000	63.896656 
4050.000000	63.844561 
4049.000000	63.795185 
4048.000000	63.752818 
4047.000000	63.721823 
4046.000000	63.705801 
4045.000000	63.706970 
4044.000000	63.725352 
4043.000000	63.758873 
4042.000000	63.803291 
4041.000000	63.852930 
4040.000000	63.901805 
4039.000000	63.944339 
4038.000000	63.976502 
4037.000000	63.996481 
4036.000000	64.004635 
4035.000000	64.003252 
4034.000000	63.995862 
4033.000000	63.986277 
4032.000000	63.977813 
4031.000000	63.972949 
4030.000000	63.972616 
4029.000000	63.976693 
4028.000000	63.983964 
4027.000000	63.992905 
4026.000000	64.001989 
4025.000000	64.009928 
4024.000000	64.015984 
4023.000000	64.019918 
4022.000000	64.022016 
4021.000000	64.022779 
4020.000000	64.022803 
4019.000000	64.022517 
4018.000000	64.022421 
4017.000000	64.023017 
4016.000000	64.024996 
4015.000000	64.029097 
4014.000000	64.036178 
4013.000000	64.047050 
4012.000000	64.062643 
4011.000000	64.083623 
4010.000000	64.109992 
4009.000000	64.140772 
4008.000000	64.174008 
4007.000000	64.206933 
4006.000000	64.236116 
4005.000000	64.257812 
4004.000000	64.268946 
4003.000000	64.267110 
4002.000000	64.251494 
4001.000000	64.222478 
4000.000000	64.181733 
3999.000000	64.131641 
3998.000000	64.075255 
3997.000000	64.015793 
3996.000000	63.956427 
3995.000000	63.900423 
3994.000000	63.850760 
3993.000000	63.810205 
3992.000000	63.781166 
3991.000000	63.764810 
3990.000000	63.760995 
3989.000000	63.767480 
3988.000000	63.779973 
3987.000000	63.792800 
3986.000000	63.799905 
3985.000000	63.796234 
3984.000000	63.778924 
3983.000000	63.748526 
3982.000000	63.708758 
3981.000000	63.665914 
3980.000000	63.627195 
3979.000000	63.598918 
3978.000000	63.584923 
3977.000000	63.585734 
3976.000000	63.598442 
3975.000000	63.617682 
3974.000000	63.637328 
3973.000000	63.652396 
3972.000000	63.660240 
3971.000000	63.660740 
3970.000000	63.656234 
3969.000000	63.649940 
3968.000000	63.645291 
3967.000000	63.644075 
3966.000000	63.646888 
3965.000000	63.652753 
3964.000000	63.660502 
3963.000000	63.669800 
3962.000000	63.681721 
3961.000000	63.698577 
3960.000000	63.723587 
3959.000000	63.759660 
3958.000000	63.807988 
3957.000000	63.867068 
3956.000000	63.932800 
3955.000000	63.998937 
3954.000000	64.058613 
3953.000000	64.105510 
3952.000000	64.135718 
3951.000000	64.147901 
3950.000000	64.143514 
3949.000000	64.125514 
3948.000000	64.097762 
3947.000000	64.063405 
3946.000000	64.024424 
3945.000000	63.981246 
3944.000000	63.934183 
3943.000000	63.883066 
3942.000000	63.829159 
3941.000000	63.774561 
3940.000000	63.722705 
3939.000000	63.677525 
3938.000000	63.642549 
3937.000000	63.620233 
3936.000000	63.610959 
3935.000000	63.613724 
3934.000000	63.626027 
3933.000000	63.645124 
3932.000000	63.668441 
3931.000000	63.694381 
3930.000000	63.722157 
3929.000000	63.751339 
3928.000000	63.781046 
3927.000000	63.809466 
3926.000000	63.833665 
3925.000000	63.849711 
3924.000000	63.853526 
3923.000000	63.842296 
3922.000000	63.815617 
3921.000000	63.775682 
3920.000000	63.727712 
3919.000000	63.679099 
3918.000000	63.637900 
3917.000000	63.610863 
3916.000000	63.602232 
3915.000000	63.612604 
3914.000000	63.639259 
3913.000000	63.676714 
3912.000000	63.718366 
3911.000000	63.758015 
3910.000000	63.791346 
3909.000000	63.816666 
3908.000000	63.834953 
3907.000000	63.848710 
3906.000000	63.861131 
3905.000000	63.874983 
3904.000000	63.891553 
3903.000000	63.910007 
3902.000000	63.928198 
3901.000000	63.943314 
3900.000000	63.952827 
3899.000000	63.955163 
3898.000000	63.950133 
3897.000000	63.938760 
3896.000000	63.922953 
3895.000000	63.904309 
3894.000000	63.883948 
3893.000000	63.861989 
3892.000000	63.837885 
3891.000000	63.810372 
3890.000000	63.778805 
3889.000000	63.743114 
3888.000000	63.703870 
3887.000000	63.662672 
3886.000000	63.621854 
3885.000000	63.584280 
3884.000000	63.552403 
3883.000000	63.528776 
3882.000000	63.515043 
3881.000000	63.513064 
3880.000000	63.524389 
3879.000000	63.550138 
3878.000000	63.590264 
3877.000000	63.643503 
3876.000000	63.707089 
3875.000000	63.776373 
3874.000000	63.845539 
3873.000000	63.908457 
3872.000000	63.959646 
3871.000000	63.995456 
3870.000000	64.014577 
3869.000000	64.018154 
3868.000000	64.009404 
3867.000000	63.992810 
3866.000000	63.973450 
3865.000000	63.956165 
3864.000000	63.945007 
3863.000000	63.943171 
3862.000000	63.952565 
3861.000000	63.974428 
3860.000000	64.008450 
3859.000000	64.053392 
3858.000000	64.105868 
3857.000000	64.160943 
3856.000000	64.212203 
3855.000000	64.252638 
3854.000000	64.276289 
3853.000000	64.279246 
3852.000000	64.261031 
3851.000000	64.224886 
3850.000000	64.176964 
3849.000000	64.124774 
3848.000000	64.075660 
3847.000000	64.035248 
3846.000000	64.006853 
3845.000000	63.991165 
3844.000000	63.986754 
3843.000000	63.990616 
3842.000000	63.999533 
3841.000000	64.010405 
3840.000000	64.020657 
3839.000000	64.028263 
3838.000000	64.031457 
3837.000000	64.028811 
3836.000000	64.018869 
3835.000000	64.000725 
3834.000000	63.973903 
3833.000000	63.939118 
3832.000000	63.898468 
3831.000000	63.855361 
3830.000000	63.814210 
3829.000000	63.779830 
3828.000000	63.756084 
3827.000000	63.745927 
3826.000000	63.750672 
3825.000000	63.769578 
3824.000000	63.799786 
3823.000000	63.836789 
3822.000000	63.875365 
3821.000000	63.909983 
3820.000000	63.935804 
3819.000000	63.949608 
3818.000000	63.950562 
3817.000000	63.940477 
3816.000000	63.923501 
3815.000000	63.905382 
3814.000000	63.892483 
3813.000000	63.890600 
3812.000000	63.903546 
3811.000000	63.932776 
3810.000000	63.976359 
3809.000000	64.030075 
3808.000000	64.087462 
3807.000000	64.141488 
3806.000000	64.185214 
3805.000000	64.213633 
3804.000000	64.223289 
3803.000000	64.212965 
3802.000000	64.183020 
3801.000000	64.135622 
3800.000000	64.073729 
3799.000000	64.000964 
3798.000000	63.921284 
3797.000000	63.839340 
3796.000000	63.759684 
3795.000000	63.686800 
3794.000000	63.624787 
3793.000000	63.576793 
3792.000000	63.544559 
3791.000000	63.528275 
3790.000000	63.526010 
3789.000000	63.534402 
3788.000000	63.549065 
3787.000000	63.565659 
3786.000000	63.580393 
3785.000000	63.590979 
3784.000000	63.596129 
3783.000000	63.596320 
3782.000000	63.592958 
3781.000000	63.588333 
3780.000000	63.584780 
3779.000000	63.584256 
3778.000000	63.587999 
3777.000000	63.596272 
3776.000000	63.608336 
3775.000000	63.622617 
3774.000000	63.637065 
3773.000000	63.649964 
3772.000000	63.660669 
3771.000000	63.669562 
3770.000000	63.678073 
3769.000000	63.687872 
3768.000000	63.700199 
3767.000000	63.715457 
3766.000000	63.732886 
3765.000000	63.750410 
3764.000000	63.765335 
3763.000000	63.775467 
3762.000000	63.780093 
3761.000000	63.780593 
3760.000000	63.780641 
3759.000000	63.785386 
3758.000000	63.800215 
3757.000000	63.829326 
3756.000000	63.874125 
3755.000000	63.932681 
3754.000000	63.999748 
3753.000000	64.068245 
3752.000000	64.130187 
3751.000000	64.178872 
3750.000000	64.209532 
3749.000000	64.220404 
3748.000000	64.212417 
3747.000000	64.188933 
3746.000000	64.154887 
3745.000000	64.115881 
3744.000000	64.077425 
3743.000000	64.044451 
3742.000000	64.020490 
3741.000000	64.007687 
3740.000000	64.006423 
3739.000000	64.015293 
3738.000000	64.031434 
3737.000000	64.051103 
3736.000000	64.069771 
3735.000000	64.083147 
3734.000000	64.088225 
3733.000000	64.083647 
3732.000000	64.069676 
3731.000000	64.048218 
3730.000000	64.022159 
3729.000000	63.994812 
3728.000000	63.968682 
3727.000000	63.945364 
3726.000000	63.925385 
3725.000000	63.908648 
3724.000000	63.894820 
3723.000000	63.883876 
3722.000000	63.876438 
3721.000000	63.873767 
3720.000000	63.877058 
3719.000000	63.887524 
3718.000000	63.905739 
3717.000000	63.930773 
3716.000000	63.960123 
3715.000000	63.989710 
3714.000000	64.014458 
3713.000000	64.029216 
3712.000000	64.029908 
3711.000000	64.014339 
3710.000000	63.982605 
3709.000000	63.937520 
3708.000000	63.884162 
3707.000000	63.828182 
3706.000000	63.774991 
3705.000000	63.728809 
3704.000000	63.692116 
3703.000000	63.665580 
3702.000000	63.648605 
3701.000000	63.639903 
3700.000000	63.638162 
3699.000000	63.642549 
3698.000000	63.652706 
3697.000000	63.668322 
3696.000000	63.688492 
3695.000000	63.711380 
3694.000000	63.733911 
3693.000000	63.751983 
3692.000000	63.761591 
3691.000000	63.759636 
3690.000000	63.744950 
3689.000000	63.718891 
3688.000000	63.685297 
3687.000000	63.649964 
3686.000000	63.619518 
3685.000000	63.600111 
3684.000000	63.596415 
3683.000000	63.610601 
3682.000000	63.642454 
3681.000000	63.689041 
3680.000000	63.745403 
3679.000000	63.805198 
3678.000000	63.861799 
3677.000000	63.909125 
3676.000000	63.942599 
3675.000000	63.959336 
3674.000000	63.958787 
3673.000000	63.942050 
3672.000000	63.911938 
3671.000000	63.872051 
3670.000000	63.826608 
3669.000000	63.779640 
3668.000000	63.734936 
3667.000000	63.695311 
3666.000000	63.662719 
3665.000000	63.637995 
3664.000000	63.620972 
3663.000000	63.610625 
3662.000000	63.605403 
3661.000000	63.603782 
3660.000000	63.604640 
3659.000000	63.607549 
3658.000000	63.612842 
3657.000000	63.621926 
3656.000000	63.636612 
3655.000000	63.658499 
3654.000000	63.687849 
3653.000000	63.722968 
3652.000000	63.759732 
3651.000000	63.792347 
3650.000000	63.814067 
3649.000000	63.819432 
3648.000000	63.805103 
3647.000000	63.771080 
3646.000000	63.720655 
3645.000000	63.659906 
3644.000000	63.596177 
3643.000000	63.536715 
3642.000000	63.487267 
3641.000000	63.451290 
3640.000000	63.430094 
3639.000000	63.423109 
3638.000000	63.428592 
3637.000000	63.444399 
3636.000000	63.468265 
3635.000000	63.497972 
3634.000000	63.530826 
3633.000000	63.563346 
3632.000000	63.591504 
3631.000000	63.611149 
3630.000000	63.618993 
3629.000000	63.613390 
3628.000000	63.595247 
3627.000000	63.567686 
3626.000000	63.535308 
3625.000000	63.502979 
3624.000000	63.474607 
3623.000000	63.452148 
3622.000000	63.435602 
3621.000000	63.423347 
3620.000000	63.413286 
3619.000000	63.403558 
3618.000000	63.393568 
3617.000000	63.383650 
3616.000000	63.375043 
3615.000000	63.368868 
3614.000000	63.365197 
3613.000000	63.362717 
3612.000000	63.358688 
3611.000000	63.349890 
3610.000000	63.333606 
3609.000000	63.309025 
3608.000000	63.277959 
3607.000000	63.244724 
3606.000000	63.215112 
3605.000000	63.194966 
3604.000000	63.188624 
3603.000000	63.197851 
3602.000000	63.221549 
3601.000000	63.255763 
3600.000000	63.294935 
3599.000000	63.333225 
3598.000000	63.366031 
3597.000000	63.390588 
3596.000000	63.406610 
3595.000000	63.415932 
3594.000000	63.421583 
3593.000000	63.426876 
3592.000000	63.434028 
3591.000000	63.443660 
3590.000000	63.454437 
3589.000000	63.464069 
3588.000000	63.469624 
3587.000000	63.468980 
3586.000000	63.461041 
3585.000000	63.446640 
3584.000000	63.427758 
3583.000000	63.407230 
3582.000000	63.387870 
3581.000000	63.371896 
3580.000000	63.360190 
3579.000000	63.352108 
3578.000000	63.346266 
3577.000000	63.340640 
3576.000000	63.333415 
3575.000000	63.323307 
3574.000000	63.310003 
3573.000000	63.293933 
3572.000000	63.275909 
3571.000000	63.257050 
3570.000000	63.238143 
3569.000000	63.219881 
3568.000000	63.203263 
3567.000000	63.189482 
3566.000000	63.179612 
3565.000000	63.174605 
3564.000000	63.175129 
3563.000000	63.181185 
3562.000000	63.191485 
3561.000000	63.204026 
3560.000000	63.216280 
3559.000000	63.226127 
3558.000000	63.232111 
3557.000000	63.234162 
3556.000000	63.233423 
3555.000000	63.232159 
3554.000000	63.233065 
3553.000000	63.238406 
3552.000000	63.249254 
3551.000000	63.265395 
3550.000000	63.285279 
3549.000000	63.306689 
3548.000000	63.327050 
3547.000000	63.344573 
3546.000000	63.357901 
3545.000000	63.366651 
3544.000000	63.370585 
3543.000000	63.369417 
3542.000000	63.362622 
3541.000000	63.349652 
3540.000000	63.329815 
3539.000000	63.303089 
3538.000000	63.269853 
3537.000000	63.230895 
3536.000000	63.187742 
3535.000000	63.142204 
3534.000000	63.097047 
3533.000000	63.055396 
3532.000000	63.020873 
3531.000000	62.996959 
3530.000000	62.986445 
3529.000000	62.990784 
3528.000000	63.009500 
3527.000000	63.039827 
3526.000000	63.077497 
3525.000000	63.117122 
3524.000000	63.153243 
3523.000000	63.181161 
3522.000000	63.197779 
3521.000000	63.201832 
3520.000000	63.193941 
3519.000000	63.176155 
3518.000000	63.151335 
3517.000000	63.122510 
3516.000000	63.092470 
3515.000000	63.063573 
3514.000000	63.037896 
3513.000000	63.017201 
3512.000000	63.003301 
3511.000000	62.997674 
3510.000000	63.001275 
3509.000000	63.014006 
3508.000000	63.034605 
3507.000000	63.060426 
3506.000000	63.087725 
3505.000000	63.112211 
3504.000000	63.129878 
3503.000000	63.137626 
3502.000000	63.133883 
3501.000000	63.118982 
3500.000000	63.095164 
3499.000000	63.065791 
3498.000000	63.034701 
3497.000000	63.005661 
3496.000000	62.981677 
3495.000000	62.964701 
3494.000000	62.955403 
3493.000000	62.953257 
3492.000000	62.957072 
3491.000000	62.965178 
3490.000000	62.975907 
3489.000000	62.987565 
3488.000000	62.999081 
3487.000000	63.009881 
3486.000000	63.020253 
3485.000000	63.030910 
3484.000000	63.042330 
3483.000000	63.054847 
3482.000000	63.067889 
3481.000000	63.080072 
3480.000000	63.089346 
3479.000000	63.093519 
3478.000000	63.090920 
3477.000000	63.080978 
3476.000000	63.064765 
3475.000000	63.044857 
3474.000000	63.025331 
3473.000000	63.010597 
3472.000000	63.005113 
3471.000000	63.012003 
3470.000000	63.032388 
3469.000000	63.064837 
3468.000000	63.105511 
3467.000000	63.148736 
3466.000000	63.188076 
3465.000000	63.217377 
3464.000000	63.232159 
3463.000000	63.230156 
3462.000000	63.211989 
3461.000000	63.180565 
3460.000000	63.140511 
3459.000000	63.096904 
3458.000000	63.054513 
3457.000000	63.016867 
3456.000000	62.985801 
3455.000000	62.961888 
3454.000000	62.944626 
3453.000000	62.933492 
3452.000000	62.928652 
3451.000000	62.930893 
3450.000000	62.941384 
3449.000000	62.960910 
3448.000000	62.989115 
3447.000000	63.023710 
3446.000000	63.060355 
3445.000000	63.093423 
3444.000000	63.116836 
3443.000000	63.125753 
3442.000000	63.117480 
3441.000000	63.092398 
3440.000000	63.053894 
3439.000000	63.007545 
3438.000000	62.959909 
3437.000000	62.917375 
3436.000000	62.884783 
3435.000000	62.864589 
3434.000000	62.856888 
3433.000000	62.859749 
3432.000000	62.869977 
3431.000000	62.883973 
3430.000000	62.898278 
3429.000000	62.910127 
3428.000000	62.917613 
3427.000000	62.919473 
3426.000000	62.915182 
3425.000000	62.904405 
3424.000000	62.887740 
3423.000000	62.866306 
3422.000000	62.842059 
3421.000000	62.817502 
3420.000000	62.795448 
3419.000000	62.778735 
3418.000000	62.769412 
3417.000000	62.768173 
3416.000000	62.774181 
3415.000000	62.785220 
3414.000000	62.797760 
3413.000000	62.807989 
3412.000000	62.812447 
3411.000000	62.808966 
3410.000000	62.797188 
3409.000000	62.778544 
3408.000000	62.755870 
3407.000000	62.732625 
3406.000000	62.711763 
3405.000000	62.695074 
3404.000000	62.683176 
3403.000000	62.675356 
3402.000000	62.670135 
3401.000000	62.666296 
3400.000000	62.663030 
3399.000000	62.660741 
3398.000000	62.660527 
3397.000000	62.664389 
3396.000000	62.673878 
3395.000000	62.690448 
3394.000000	62.714409 
3393.000000	62.745428 
3392.000000	62.782216 
3391.000000	62.823271 
3390.000000	62.866973 
3389.000000	62.911725 
3388.000000	62.955856 
3387.000000	62.997484 
3386.000000	63.034391 
3385.000000	63.063955 
3384.000000	63.083577 
3383.000000	63.091254 
3382.000000	63.086032 
3381.000000	63.068795 
3380.000000	63.041782 
3379.000000	63.008689 
3378.000000	62.973523 
3377.000000	62.940239 
3376.000000	62.911677 
3375.000000	62.889313 
3374.000000	62.873339 
3373.000000	62.862801 
3372.000000	62.856483 
3371.000000	62.853360 
3370.000000	62.852978 
3369.000000	62.855410 
3368.000000	62.860894 
3367.000000	62.869381 
3366.000000	62.880015 
3365.000000	62.890863 
3364.000000	62.899303 
3363.000000	62.902307 
3362.000000	62.897324 
3361.000000	62.882924 
3360.000000	62.859177 
3359.000000	62.827968 
3358.000000	62.792277 
3357.000000	62.755894 
3356.000000	62.722730 
3355.000000	62.696123 
3354.000000	62.678289 
3353.000000	62.669801 
3352.000000	62.669658 
3351.000000	62.675309 
3350.000000	62.683272 
3349.000000	62.689971 
3348.000000	62.691998 
3347.000000	62.687444 
3346.000000	62.675833 
3345.000000	62.658643 
3344.000000	62.638497 
3343.000000	62.619280 
3342.000000	62.604832 
3341.000000	62.598657 
3340.000000	62.603139 
3339.000000	62.618875 
3338.000000	62.644505 
3337.000000	62.677001 
3336.000000	62.712264 
3335.000000	62.745571 
3334.000000	62.772750 
3333.000000	62.791109 
3332.000000	62.799978 
3331.000000	62.800645 
3330.000000	62.795901 
3329.000000	62.789320 
3328.000000	62.784242 
3327.000000	62.783026 
3326.000000	62.786412 
3325.000000	62.793302 
3324.000000	62.801289 
3323.000000	62.808036 
3322.000000	62.811470 
3321.000000	62.810611 
3320.000000	62.805724 
3319.000000	62.798476 
3318.000000	62.790846 
3317.000000	62.784600 
3316.000000	62.780427 
3315.000000	62.777876 
3314.000000	62.775278 
3313.000000	62.770318 
3312.000000	62.760591 
3311.000000	62.744641 
3310.000000	62.721943 
3309.000000	62.693119 
3308.000000	62.659668 
3307.000000	62.623620 
3306.000000	62.586998 
3305.000000	62.551712 
3304.000000	62.519025 
3303.000000	62.490010 
3302.000000	62.465786 
3301.000000	62.447762 
3300.000000	62.437295 
3299.000000	62.435579 
3298.000000	62.443375 
3297.000000	62.460637 
3296.000000	62.485909 
3295.000000	62.516975 
3294.000000	62.550663 
3293.000000	62.583661 
3292.000000	62.612962 
3291.000000	62.636375 
3290.000000	62.652897 
3289.000000	62.662601 
3288.000000	62.666344 
3287.000000	62.665724 
3286.000000	62.662577 
3285.000000	62.658882 
3284.000000	62.656402 
3283.000000	62.656569 
3282.000000	62.660336 
3281.000000	62.668061 
3280.000000	62.679505 
3279.000000	62.693333 
3278.000000	62.707304 
3277.000000	62.718391 
3276.000000	62.723445 
3275.000000	62.719464 
3274.000000	62.704491 
3273.000000	62.678313 
3272.000000	62.642359 
3271.000000	62.599611 
3270.000000	62.554121 
3269.000000	62.510442 
3268.000000	62.472248 
3267.000000	62.442088 
3266.000000	62.420558 
3265.000000	62.406706 
3264.000000	62.398052 
3263.000000	62.391400 
3262.000000	62.383556 
3261.000000	62.371897 
3260.000000	62.355470 
3259.000000	62.335038 
3258.000000	62.313055 
3257.000000	62.292718 
3256.000000	62.277626 
3255.000000	62.270617 
3254.000000	62.273383 
3253.000000	62.285876 
3252.000000	62.306189 
3251.000000	62.330770 
3250.000000	62.355256 
3249.000000	62.375569 
3248.000000	62.388229 
3247.000000	62.391448 
3246.000000	62.385249 
3245.000000	62.371730 
3244.000000	62.354326 
3243.000000	62.337350 
3242.000000	62.325167 
3241.000000	62.321186 
3240.000000	62.327432 
3239.000000	62.343668 
3238.000000	62.368202 
3237.000000	62.397313 
3236.000000	62.426400 
3235.000000	62.450742 
3234.000000	62.466239 
3233.000000	62.470841 
3232.000000	62.464690 
3231.000000	62.450551 
3230.000000	62.433004 
3229.000000	62.417697 
3228.000000	62.410163 
3227.000000	62.414526 
3226.000000	62.432789 
3225.000000	62.464261 
3224.000000	62.506008 
3223.000000	62.553334 
3222.000000	62.600994 
3221.000000	62.644004 
3220.000000	62.678742 
3219.000000	62.703156 
3218.000000	62.717080 
3217.000000	62.721943 
3216.000000	62.719845 
3215.000000	62.713408 
3214.000000	62.704253 
3213.000000	62.693214 
3212.000000	62.679576 
3211.000000	62.662434 
3210.000000	62.639999 
3209.000000	62.610888 
3208.000000	62.574243 
3207.000000	62.530684 
3206.000000	62.482118 
3205.000000	62.431955 
3204.000000	62.384200 
3203.000000	62.342739 
3202.000000	62.310624 
3201.000000	62.289690 
3200.000000	62.280082 
3199.000000	62.280368 
3198.000000	62.288260 
3197.000000	62.301301 
3196.000000	62.317299 
3195.000000	62.334632 
3194.000000	62.352085 
3193.000000	62.368988 
3192.000000	62.384152 
3191.000000	62.396621 
3190.000000	62.405180 
3189.000000	62.409234 
3188.000000	62.408685 
3187.000000	62.404561 
3186.000000	62.399172 
3185.000000	62.395453 
3184.000000	62.396812 
3183.000000	62.405371 
3182.000000	62.421560 
3181.000000	62.443518 
3180.000000	62.467479 
3179.000000	62.488102 
3178.000000	62.499952 
3177.000000	62.498688 
3176.000000	62.482500 
3175.000000	62.452030 
3174.000000	62.410593 
3173.000000	62.363266 
3172.000000	62.315821 
3171.000000	62.273550 
3170.000000	62.240386 
3169.000000	62.218427 
3168.000000	62.207818 
3167.000000	62.207317 
3166.000000	62.214517 
3165.000000	62.226653 
3164.000000	62.240934 
3163.000000	62.254905 
3162.000000	62.266850 
3161.000000	62.275290 
3160.000000	62.279415 
3159.000000	62.278795 
3158.000000	62.273836 
3157.000000	62.265634 
3156.000000	62.256073 
3155.000000	62.247562 
3154.000000	62.242579 
3153.000000	62.243390 
3152.000000	62.251281 
3151.000000	62.266182 
3150.000000	62.286376 
3149.000000	62.308907 
3148.000000	62.329697 
3147.000000	62.344431 
3146.000000	62.349343 
3145.000000	62.342214 
3144.000000	62.322545 
3143.000000	62.291765 
3142.000000	62.252950 
3141.000000	62.210226 
3140.000000	62.167549 
3139.000000	62.128281 
3138.000000	62.094664 
3137.000000	62.067723 
3136.000000	62.047338 
3135.000000	62.032771 
3134.000000	62.023210 
3133.000000	62.018489 
3132.000000	62.018799 
3131.000000	62.025094 
3130.000000	62.037968 
3129.000000	62.057566 
3128.000000	62.082767 
3127.000000	62.111401 
3126.000000	62.140035 
3125.000000	62.165307 
3124.000000	62.184476 
3123.000000	62.196421 
3122.000000	62.201833 
3121.000000	62.202858 
3120.000000	62.202596 
3119.000000	62.204074 
3118.000000	62.209343 
3117.000000	62.218880 
3116.000000	62.231326 
3115.000000	62.244105 
3114.000000	62.254166 
3113.000000	62.259054 
3112.000000	62.257695 
3111.000000	62.250757 
3110.000000	62.240552 
3109.000000	62.230134 
3108.000000	62.222623 
3107.000000	62.220549 
3106.000000	62.224936 
3105.000000	62.235450 
3104.000000	62.250065 
3103.000000	62.266206 
3102.000000	62.280488 
3101.000000	62.289643 
3100.000000	62.291002 
3099.000000	62.282705 
3098.000000	62.264800 
3097.000000	62.239241 
3096.000000	62.209892 
3095.000000	62.181830 
3094.000000	62.160325 
3093.000000	62.150073 
3092.000000	62.153482 
3091.000000	62.170100 
3090.000000	62.196516 
3089.000000	62.226819 
3088.000000	62.253928 
3087.000000	62.271356 
3086.000000	62.274670 
3085.000000	62.262821 
3084.000000	62.238168 
3083.000000	62.206077 
3082.000000	62.173247 
3081.000000	62.146258 
3080.000000	62.129712 
3079.000000	62.125492 
3078.000000	62.132835 
3077.000000	62.148714 
3076.000000	62.169027 
3075.000000	62.189316 
3074.000000	62.205958 
3073.000000	62.216520 
3072.000000	62.219691 
3071.000000	62.215471 
3070.000000	62.204575 
3069.000000	62.188410 
3068.000000	62.168669 
3067.000000	62.147355 
3066.000000	62.126588 
3065.000000	62.108612 
3064.000000	62.095522 
3063.000000	62.088847 
3062.000000	62.089228 
3061.000000	62.096118 
3060.000000	62.107968 
3059.000000	62.122344 
3058.000000	62.136626 
3057.000000	62.148380 
3056.000000	62.155842 
3055.000000	62.157940 
3054.000000	62.154531 
3053.000000	62.146019 
3052.000000	62.133431 
3051.000000	62.117910 
3050.000000	62.100553 
3049.000000	62.082672 
3048.000000	62.065172 
3047.000000	62.048768 
3046.000000	62.033700 
3045.000000	62.019991 
3044.000000	62.007570 
3043.000000	61.996436 
3042.000000	61.986708 
3041.000000	61.978530 
3040.000000	61.972236 
3039.000000	61.968159 
3038.000000	61.966300 
3037.000000	61.966371 
3036.000000	61.967611 
3035.000000	61.969041 
3034.000000	61.969494 
3033.000000	61.968398 
3032.000000	61.965656 
3031.000000	61.962366 
3030.000000	61.960315 
3029.000000	61.961936 
3028.000000	61.969590 
3027.000000	61.984825 
3026.000000	62.007880 
3025.000000	62.037301 
3024.000000	62.070322 
3023.000000	62.103080 
3022.000000	62.131571 
3021.000000	62.152194 
3020.000000	62.162733 
3019.000000	62.162446 
3018.000000	62.152194 
3017.000000	62.133884 
3016.000000	62.109851 
3015.000000	62.082314 
3014.000000	62.052941 
3013.000000	62.022686 
3012.000000	61.992049 
3011.000000	61.961460 
3010.000000	61.931562 
3009.000000	61.903619 
3008.000000	61.879539 
3007.000000	61.861324 
3006.000000	61.850857 
3005.000000	61.849164 
3004.000000	61.856150 
3003.000000	61.870288 
3002.000000	61.889028 
3001.000000	61.908984 
3000.000000	61.926746 
2999.000000	61.939382 
2998.000000	61.945080 
2997.000000	61.943340 
2996.000000	61.934828 
2995.000000	61.921286 
2994.000000	61.904668 
2993.000000	61.887121 
2992.000000	61.870145 
2991.000000	61.854672 
2990.000000	61.840915 
2989.000000	61.828732 
2988.000000	61.817622 
2987.000000	61.807012 
2986.000000	61.796426 
2985.000000	61.785483 
2984.000000	61.773872 
2983.000000	61.761522 
2982.000000	61.748385 
2981.000000	61.734628 
2980.000000	61.720800 
2979.000000	61.707639 
2978.000000	61.696290 
2977.000000	61.688113 
2976.000000	61.684393 
2975.000000	61.685991 
2974.000000	61.692976 
2973.000000	61.704778 
2972.000000	61.719894 
2971.000000	61.736345 
2970.000000	61.751985 
2969.000000	61.764931 
2968.000000	61.773848 
2967.000000	61.778044 
2966.000000	61.777544 
2965.000000	61.772847 
2964.000000	61.764621 
2963.000000	61.753487 
2962.000000	61.740064 
2961.000000	61.724805 
2960.000000	61.708235 
2959.000000	61.690950 
2958.000000	61.673712 
2957.000000	61.657404 
2956.000000	61.642837 
2955.000000	61.630702 
2954.000000	61.621332 
2953.000000	61.614418 
2952.000000	61.609292 
2951.000000	61.605167 
2950.000000	61.601400 
2949.000000	61.597537 
2948.000000	61.593747 
2947.000000	61.590647 
2946.000000	61.589217 
2945.000000	61.590385 
2944.000000	61.594605 
2943.000000	61.601948 
2942.000000	61.611485 
2941.000000	61.621642 
2940.000000	61.629986 
2939.000000	61.633992 
2938.000000	61.631250 
2937.000000	61.619973 
2936.000000	61.599612 
2935.000000	61.571002 
2934.000000	61.536431 
2933.000000	61.499309 
2932.000000	61.463308 
2931.000000	61.431598 
2930.000000	61.406350 
2929.000000	61.388301 
2928.000000	61.376476 
2927.000000	61.368608 
2926.000000	61.361789 
2925.000000	61.353325 
2924.000000	61.341190 
2923.000000	61.324620 
2922.000000	61.304283 
2921.000000	61.282086 
2920.000000	61.259937 
2919.000000	61.239933 
2918.000000	61.223411 
2917.000000	61.210989 
2916.000000	61.202311 
2915.000000	61.196565 
2914.000000	61.192703 
2913.000000	61.189842 
2912.000000	61.187338 
2911.000000	61.184954 
2910.000000	61.182498 
2909.000000	61.180281 
2908.000000	61.178731 
2907.000000	61.178374 
2906.000000	61.179804 
2905.000000	61.183524 
2904.000000	61.189842 
2903.000000	61.198997 
2902.000000	61.211085 
2901.000000	61.226058 
2900.000000	61.243796 
2899.000000	61.264181 
2898.000000	61.287474 
2897.000000	61.313819 
2896.000000	61.343526 
2895.000000	61.376667 
2894.000000	61.413049 
2893.000000	61.451840 
2892.000000	61.491513 
2891.000000	61.530017 
2890.000000	61.564803 
2889.000000	61.593580 
2888.000000	61.614346 
2887.000000	61.626029 
2886.000000	61.628365 
2885.000000	61.621952 
2884.000000	61.607956 
2883.000000	61.587977 
2882.000000	61.563658 
2881.000000	61.536979 
2880.000000	61.509823 
2879.000000	61.484050 
2878.000000	61.461424 
2877.000000	61.443686 
2876.000000	61.432290 
2875.000000	61.428165 
2874.000000	61.431622 
2873.000000	61.442065 
2872.000000	61.458182 
2871.000000	61.477923 
2870.000000	61.498713 
2869.000000	61.517977 
2868.000000	61.533284 
2867.000000	61.542630 
2866.000000	61.544919 
2865.000000	61.539554 
2864.000000	61.526799 
2863.000000	61.507296 
2862.000000	61.482477 
2861.000000	61.453700 
2860.000000	61.422562 
2859.000000	61.390113 
2858.000000	61.357116 
2857.000000	61.324000 
2856.000000	61.290764 
2855.000000	61.257672 
2854.000000	61.225295 
2853.000000	61.195087 
2852.000000	61.169171 
2851.000000	61.150312 
2850.000000	61.141061 
2849.000000	61.143517 
2848.000000	61.158657 
2847.000000	61.185812 
2846.000000	61.222815 
2845.000000	61.266136 
2844.000000	61.311483 
2843.000000	61.354327 
2842.000000	61.390686 
2841.000000	61.417722 
2840.000000	61.433744 
2839.000000	61.438560 
2838.000000	61.432933 
2837.000000	61.418485 
2836.000000	61.397314 
2835.000000	61.371660 
2834.000000	61.343765 
2833.000000	61.315941 
2832.000000	61.290335 
2831.000000	61.269140 
2830.000000	61.254191 
2829.000000	61.247038 
2828.000000	61.248588 
2827.000000	61.258864 
2826.000000	61.277079 
2825.000000	61.301398 
2824.000000	61.329364 
2823.000000	61.358261 
2822.000000	61.385345 
2821.000000	61.408376 
2820.000000	61.425924 
2819.000000	61.437344 
2818.000000	61.442732 
2817.000000	61.442804 
2816.000000	61.438727 
2815.000000	61.431670 
2814.000000	61.422634 
2813.000000	61.412096 
2812.000000	61.400222 
2811.000000	61.386704 
2810.000000	61.370849 
2809.000000	61.352181 
2808.000000	61.330723 
2807.000000	61.307120 
2806.000000	61.282801 
2805.000000	61.259603 
2804.000000	61.239337 
2803.000000	61.223387 
2802.000000	61.212491 
2801.000000	61.206531 
2800.000000	61.204695 
2799.000000	61.205720 
2798.000000	61.208224 
2797.000000	61.211085 
2796.000000	61.213493 
2795.000000	61.214923 
2794.000000	61.215043 
2793.000000	61.213707 
2792.000000	61.210775 
2791.000000	61.206007 
2790.000000	61.198997 
2789.000000	61.189365 
2788.000000	61.177039 
2787.000000	61.162209 
2786.000000	61.145567 
2785.000000	61.128401 
2784.000000	61.112380 
2783.000000	61.099386 
2782.000000	61.090922 
2781.000000	61.087799 
2780.000000	61.090135 
2779.000000	61.097049 
2778.000000	61.107063 
2777.000000	61.118245 
2776.000000	61.128854 
2775.000000	61.137533 
2774.000000	61.143469 
2773.000000	61.146259 
2772.000000	61.146068 
2771.000000	61.143207 
2770.000000	61.138081 
2769.000000	61.130952 
2768.000000	61.122226 
2767.000000	61.112308 
2766.000000	61.101913 
2765.000000	61.091876 
2764.000000	61.083316 
2763.000000	61.077165 
2762.000000	61.074113 
2761.000000	61.074352 
2760.000000	61.077332 
2759.000000	61.082005 
2758.000000	61.086916 
2757.000000	61.090779 
2756.000000	61.092543 
2755.000000	61.091804 
2754.000000	61.088633 
2753.000000	61.083650 
2752.000000	61.077499 
2751.000000	61.070990 
2750.000000	61.064720 
2749.000000	61.059236 
2748.000000	61.054706 
2747.000000	61.051416 
2746.000000	61.049485 
2745.000000	61.049151 
2744.000000	61.050629 
2743.000000	61.053848 
2742.000000	61.058449 
2741.000000	61.063742 
2740.000000	61.068844 
2739.000000	61.072707 
2738.000000	61.074233 
2737.000000	61.072826 
2736.000000	61.068344 
2735.000000	61.060810 
2734.000000	61.050748 
2733.000000	61.038732 
2732.000000	61.025452 
2731.000000	61.011528 
2730.000000	60.997319 
2729.000000	60.983347 
2728.000000	60.969781 
2727.000000	60.956859 
2726.000000	60.944485 
2725.000000	60.932302 
2724.000000	60.919904 
2723.000000	60.906791 
2722.000000	60.892558 
2721.000000	60.877037 
2720.000000	60.860919 
2719.000000	60.845541 
2718.000000	60.832905 
2717.000000	60.825252 
2716.000000	60.824418 
2715.000000	60.831594 
2714.000000	60.846519 
2713.000000	60.867500 
2712.000000	60.891771 
2711.000000	60.916161 
2710.000000	60.937643 
2709.000000	60.954236 
2708.000000	60.965180 
2707.000000	60.971188 
2706.000000	60.974025 
2705.000000	60.975813 
2704.000000	60.978388 
2703.000000	60.982823 
2702.000000	60.988998 
2701.000000	60.995817 
2700.000000	61.001801 
2699.000000	61.005187 
2698.000000	61.004924 
2697.000000	61.000490 
2696.000000	60.992336 
2695.000000	60.981225 
2694.000000	60.968232 
2693.000000	60.954165 
2692.000000	60.939693 
2691.000000	60.924983 
2690.000000	60.910058 
2689.000000	60.894680 
2688.000000	60.878753 
2687.000000	60.862350 
2686.000000	60.845756 
2685.000000	60.829544 
2684.000000	60.814499 
2683.000000	60.801410 
2682.000000	60.791110 
2681.000000	60.784196 
2680.000000	60.781240 
2679.000000	60.782241 
2678.000000	60.786771 
2677.000000	60.793828 
2676.000000	60.802006 
2675.000000	60.809445 
2674.000000	60.814499 
2673.000000	60.815739 
2672.000000	60.812568 
2671.000000	60.805225 
2670.000000	60.794425 
2669.000000	60.781502 
2668.000000	60.767555 
2667.000000	60.753440 
2666.000000	60.739374 
2665.000000	60.725140 
2664.000000	60.710215 
2663.000000	60.694265 
2662.000000	60.677313 
2661.000000	60.659885 
2660.000000	60.643005 
2659.000000	60.628104 
2658.000000	60.616374 
2657.000000	60.608458 
2656.000000	60.604286 
2655.000000	60.602998 
2654.000000	60.603427 
2653.000000	60.604357 
2652.000000	60.604786 
2651.000000	60.604476 
2650.000000	60.603690 
2649.000000	60.602998 
2648.000000	60.602927 
2647.000000	60.603499 
2646.000000	60.604286 
2645.000000	60.604166 
2644.000000	60.601663 
2643.000000	60.595440 
2642.000000	60.584712 
2641.000000	60.569691 
2640.000000	60.551786 
2639.000000	60.533189 
2638.000000	60.516738 
2637.000000	60.505080 
2636.000000	60.500264 
2635.000000	60.503315 
2634.000000	60.513854 
2633.000000	60.530400 
2632.000000	60.550665 
2631.000000	60.572099 
2630.000000	60.592317 
2629.000000	60.609507 
2628.000000	60.622596 
2627.000000	60.631108 
2626.000000	60.634875 
2625.000000	60.633993 
2624.000000	60.628437 
2623.000000	60.618162 
2622.000000	60.602903 
2621.000000	60.582685 
2620.000000	60.557723 
2619.000000	60.528969 
2618.000000	60.497951 
2617.000000	60.466694 
2616.000000	60.437464 
2615.000000	60.412311 
2614.000000	60.392999 
2613.000000	60.380387 
2612.000000	60.374760 
2611.000000	60.375571 
2610.000000	60.381793 
2609.000000	60.392093 
2608.000000	60.404896 
2607.000000	60.418605 
2606.000000	60.431742 
2605.000000	60.442900 
2604.000000	60.451078 
2603.000000	60.455560 
2602.000000	60.456204 
2601.000000	60.453271 
2600.000000	60.447645 
2599.000000	60.440254 
2598.000000	60.432147 
2597.000000	60.423970 
2596.000000	60.415863 
2595.000000	60.407400 
2594.000000	60.397839 
2593.000000	60.386228 
2592.000000	60.371923 
2591.000000	60.354948 
2590.000000	60.336208 
2589.000000	60.317397 
2588.000000	60.300636 
2587.000000	60.288023 
2586.000000	60.281229 
2585.000000	60.280919 
2584.000000	60.286498 
2583.000000	60.296201 
2582.000000	60.307645 
2581.000000	60.318112 
2580.000000	60.325169 
2579.000000	60.327219 
2578.000000	60.323643 
2577.000000	60.314869 
2576.000000	60.302090 
2575.000000	60.286879 
2574.000000	60.270786 
2573.000000	60.255265 
2572.000000	60.241413 
2571.000000	60.229873 
2570.000000	60.220742 
2569.000000	60.213780 
2568.000000	60.208582 
2567.000000	60.204482 
2566.000000	60.201120 
2565.000000	60.198283 
2564.000000	60.196185 
2563.000000	60.195374 
2562.000000	60.196590 
2561.000000	60.200381 
2560.000000	60.206866 
2559.000000	60.215640 
2558.000000	60.225939 
2557.000000	60.236525 
2556.000000	60.246157 
2555.000000	60.253906 
2554.000000	60.259437 
2553.000000	60.262966 
2552.000000	60.265064 
2551.000000	60.266423 
2550.000000	60.267686 
2549.000000	60.268926 
2548.000000	60.269594 
2547.000000	60.268568 
2546.000000	60.264587 
2545.000000	60.256433 
2544.000000	60.243678 
2543.000000	60.226655 
2542.000000	60.206580 
2541.000000	60.185408 
2540.000000	60.165309 
2539.000000	60.148572 
2538.000000	60.136985 
2537.000000	60.131740 
2536.000000	60.133242 
2535.000000	60.141038 
2534.000000	60.154080 
2533.000000	60.170841 
2532.000000	60.189509 
2531.000000	60.208177 
2530.000000	60.225105 
2529.000000	60.238790 
2528.000000	60.247993 
2527.000000	60.251522 
2526.000000	60.248470 
2525.000000	60.238122 
2524.000000	60.220408 
2523.000000	60.195922 
2522.000000	60.166358 
2521.000000	60.134196 
2520.000000	60.102486 
2519.000000	60.074543 
2518.000000	60.052943 
2517.000000	60.039258 
2516.000000	60.033583 
2515.000000	60.034370 
2514.000000	60.038900 
2513.000000	60.043764 
2512.000000	60.045766 
2511.000000	60.042452 
2510.000000	60.032868 
2509.000000	60.017347 
2508.000000	59.997606 
2507.000000	59.975695 
2506.000000	59.953927 
2505.000000	59.934091 
2504.000000	59.917378 
2503.000000	59.904384 
2502.000000	59.895253 
2501.000000	59.889960 
2500.000000	59.888315 
2499.000000	59.890198 
2498.000000	59.895086 
2497.000000	59.902095 
2496.000000	59.909725 
2495.000000	59.916210 
2494.000000	59.919452 
2493.000000	59.917759 
2492.000000	59.910130 
2491.000000	59.896540 
2490.000000	59.878277 
2489.000000	59.857630 
2488.000000	59.837388 
2487.000000	59.820461 
2486.000000	59.809017 
2485.000000	59.804415 
2484.000000	59.806895 
2483.000000	59.815597 
2482.000000	59.829020 
2481.000000	59.845209 
2480.000000	59.862112 
2479.000000	59.877943 
2478.000000	59.891343 
2477.000000	59.901356 
2476.000000	59.907388 
2475.000000	59.909176 
2474.000000	59.906888 
2473.000000	59.900712 
2472.000000	59.890913 
2471.000000	59.877872 
2470.000000	59.862112 
2469.000000	59.844207 
2468.000000	59.824848 
2467.000000	59.804868 
2466.000000	59.785151 
2465.000000	59.766459 
2464.000000	59.749364 
2463.000000	59.734153 
2462.000000	59.720969 
2461.000000	59.709358 
2460.000000	59.699010 
2459.000000	59.689354 
2458.000000	59.680175 
2457.000000	59.671711 
2456.000000	59.664607 
2455.000000	59.659790 
2454.000000	59.658408 
2453.000000	59.661173 
2452.000000	59.668278 
2451.000000	59.679007 
2450.000000	59.692072 
2449.000000	59.705781 
2448.000000	59.718441 
2447.000000	59.728574 
2446.000000	59.735465 
2445.000000	59.739422 
2444.000000	59.741353 
2443.000000	59.742522 
2442.000000	59.744143 
2441.000000	59.747123 
2440.000000	59.751844 
2439.000000	59.757995 
2438.000000	59.765172 
2437.000000	59.772777 
2436.000000	59.780645 
2435.000000	59.788608 
2434.000000	59.796476 
2433.000000	59.803915 
2432.000000	59.810161 
2431.000000	59.814357 
2430.000000	59.815502 
2429.000000	59.812808 
2428.000000	59.806394 
2427.000000	59.796905 
2426.000000	59.785604 
2425.000000	59.773659 
2424.000000	59.762287 
2423.000000	59.751558 
2422.000000	59.740352 
2421.000000	59.726572 
2420.000000	59.707593 
2419.000000	59.681057 
2418.000000	59.645676 
2417.000000	59.601783 
2416.000000	59.551405 
2415.000000	59.497880 
2414.000000	59.445095 
2413.000000	59.396457 
2412.000000	59.354257 
2411.000000	59.319329 
2410.000000	59.291076 
2409.000000	59.267973 
2408.000000	59.248447 
2407.000000	59.231138 
2406.000000	59.216070 
2405.000000	59.203720 
2404.000000	59.195971 
2403.000000	59.194564 
2402.000000	59.201431 
2401.000000	59.217333 
2400.000000	59.242272 
2399.000000	59.274864 
2398.000000	59.312915 
2397.000000	59.353685 
2396.000000	59.394168 
2395.000000	59.431600 
2394.000000	59.463667 
2393.000000	59.488868 
2392.000000	59.506368 
2391.000000	59.516119 
2390.000000	59.518980 
2389.000000	59.516358 
2388.000000	59.510135 
2387.000000	59.502267 
2386.000000	59.494829 
2385.000000	59.489417 
2384.000000	59.487175 
2383.000000	59.488415 
2382.000000	59.492993 
2381.000000	59.500169 
2380.000000	59.508895 
2379.000000	59.517931 
2378.000000	59.526228 
2377.000000	59.532999 
2376.000000	59.537744 
2375.000000	59.540271 
2374.000000	59.540557 
2373.000000	59.538698 
2372.000000	59.534907 
2371.000000	59.529304 
2370.000000	59.522151 
2369.000000	59.513831 
2368.000000	59.505009 
2367.000000	59.496283 
2366.000000	59.488177 
2365.000000	59.481120 
2364.000000	59.475278 
2363.000000	59.470152 
2362.000000	59.464788 
2361.000000	59.458255 
2360.000000	59.449720 
2359.000000	59.438776 
2358.000000	59.425425 
2357.000000	59.410262 
2356.000000	59.394264 
2355.000000	59.378480 
2354.000000	59.363961 
2353.000000	59.351205 
2352.000000	59.340381 
2351.000000	59.331178 
2350.000000	59.323358 
2349.000000	59.316706 
2348.000000	59.311485 
2347.000000	59.308195 
2346.000000	59.307575 
2345.000000	59.310245 
2344.000000	59.316420 
2343.000000	59.325742 
2342.000000	59.336853 
2341.000000	59.347915 
2340.000000	59.356808 
2339.000000	59.361577 
2338.000000	59.360790 
2337.000000	59.353756 
2336.000000	59.340739 
2335.000000	59.322857 
2334.000000	59.301686 
2333.000000	59.279084 
2332.000000	59.256792 
2331.000000	59.236311 
2330.000000	59.218788 
2329.000000	59.205079 
2328.000000	59.195709 
2327.000000	59.190917 
2326.000000	59.190678 
2325.000000	59.194493 
2324.000000	59.201383 
2323.000000	59.209966 
2322.000000	59.218382 
2321.000000	59.224867 
2320.000000	59.227728 
2319.000000	59.225869 
2318.000000	59.219050 
2317.000000	59.207987 
2316.000000	59.194135 
2315.000000	59.179472 
2314.000000	59.166049 
2313.000000	59.155583 
2312.000000	59.149098 
2311.000000	59.146809 
2310.000000	59.148240 
2309.000000	59.152269 
2308.000000	59.157562 
2307.000000	59.162712 
2306.000000	59.166574 
2305.000000	59.168362 
2304.000000	59.167671 
2303.000000	59.164476 
2302.000000	59.158825 
2301.000000	59.151124 
2300.000000	59.141731 
2299.000000	59.130859 
2298.000000	59.118533 
2297.000000	59.104776 
2296.000000	59.089660 
2295.000000	59.073400 
2294.000000	59.056353 
2293.000000	59.039163 
2292.000000	59.022665 
2291.000000	59.007906 
2290.000000	58.995795 
2289.000000	58.987069 
2288.000000	58.981800 
2287.000000	58.979582 
2286.000000	58.979511 
2285.000000	58.980178 
2284.000000	58.980345 
2283.000000	58.978986 
2282.000000	58.975625 
2281.000000	58.970403 
2280.000000	58.963942 
2279.000000	58.957242 
2278.000000	58.951163 
2277.000000	58.946442 
2276.000000	58.943676 
2275.000000	58.943343 
2274.000000	58.945798 
2273.000000	58.951282 
2272.000000	58.959937 
2271.000000	58.971571 
2270.000000	58.985853 
2269.000000	59.001779 
2268.000000	59.017968 
2267.000000	59.032583 
2266.000000	59.043860 
2265.000000	59.050178 
2264.000000	59.050440 
2263.000000	59.044289 
2262.000000	59.032440 
2261.000000	59.015989 
2260.000000	58.996462 
2259.000000	58.975267 
2258.000000	58.953523 
2257.000000	58.931803 
2256.000000	58.910202 
2255.000000	58.888506 
2254.000000	58.866500 
2253.000000	58.844089 
2252.000000	58.821582 
2251.000000	58.799576 
2250.000000	58.779072 
2249.000000	58.761072 
2248.000000	58.746504 
2247.000000	58.735966 
2246.000000	58.729624 
2245.000000	58.726882 
2244.000000	58.726763 
2243.000000	58.727908 
2242.000000	58.728957 
2241.000000	58.728718 
2240.000000	58.726596 
2239.000000	58.722424 
2238.000000	58.716917 
2237.000000	58.711004 
2236.000000	58.705782 
2235.000000	58.702135 
2234.000000	58.700537 
2233.000000	58.700895 
2232.000000	58.702325 
2231.000000	58.703494 
2230.000000	58.702969 
2229.000000	58.699512 
2228.000000	58.692574 
2227.000000	58.682513 
2226.000000	58.670473 
2225.000000	58.658337 
2224.000000	58.648204 
2223.000000	58.642148 
2222.000000	58.641505 
2221.000000	58.646893 
2220.000000	58.657741 
2219.000000	58.672809 
2218.000000	58.690094 
2217.000000	58.707761 
2216.000000	58.724069 
2215.000000	58.738279 
2214.000000	58.750247 
2213.000000	58.760309 
2212.000000	58.769392 
2211.000000	58.777976 
2210.000000	58.785963 
2209.000000	58.792424 
2208.000000	58.795785 
2207.000000	58.794212 
2206.000000	58.786225 
2205.000000	58.771276 
2204.000000	58.750152 
2203.000000	58.724784 
2202.000000	58.697819 
2201.000000	58.672022 
2200.000000	58.649706 
2199.000000	58.631944 
2198.000000	58.618283 
2197.000000	58.607125 
2196.000000	58.596014 
2195.000000	58.582448 
2194.000000	58.564567 
2193.000000	58.541536 
2192.000000	58.514189 
2191.000000	58.484363 
2190.000000	58.454966 
2189.000000	58.428835 
2188.000000	58.408403 
2187.000000	58.395195 
2186.000000	58.389639 
2185.000000	58.390831 
2184.000000	58.397030 
2183.000000	58.406257 
2182.000000	58.416724 
2181.000000	58.426737 
2180.000000	58.435440 
2179.000000	58.442544 
2178.000000	58.448457 
2177.000000	58.453726 
2176.000000	58.459091 
2175.000000	58.465099 
2174.000000	58.472108 
2173.000000	58.480334 
2172.000000	58.489489 
2171.000000	58.499145 
2170.000000	58.508872 
2169.000000	58.518314 
2168.000000	58.527040 
2167.000000	58.534479 
2166.000000	58.540368 
2165.000000	58.544325 
2164.000000	58.545994 
2163.000000	58.544421 
2162.000000	58.538818 
2161.000000	58.527708 
2160.000000	58.509612 
2159.000000	58.482742 
2158.000000	58.446168 
2157.000000	58.399629 
2156.000000	58.344459 
2155.000000	58.283305 
2154.000000	58.220219 
2153.000000	58.159971 
2152.000000	58.107399 
2151.000000	58.066534 
2150.000000	58.039569 
2149.000000	58.027076 
2148.000000	58.027791 
2147.000000	58.039259 
2146.000000	58.058428 
2145.000000	58.082556 
2144.000000	58.109760 
2143.000000	58.138895 
2142.000000	58.169436 
2141.000000	58.200883 
2140.000000	58.232283 
2139.000000	58.261871 
2138.000000	58.287215 
2137.000000	58.305954 
2136.000000	58.316016 
2135.000000	58.316874 
2134.000000	58.309197 
2133.000000	58.295154 
2132.000000	58.277416 
2131.000000	58.259010 
2130.000000	58.242058 
2129.000000	58.227586 
2128.000000	58.215308 
2127.000000	58.204221 
2126.000000	58.192896 
2125.000000	58.180189 
2124.000000	58.165812 
2123.000000	58.150529 
2122.000000	58.135843 
2121.000000	58.123469 
2120.000000	58.114886 
2119.000000	58.110976 
2118.000000	58.111548 
2117.000000	58.115601 
2116.000000	58.121657 
2115.000000	58.128285 
2114.000000	58.134508 
2113.000000	58.140182 
2112.000000	58.145546 
2111.000000	58.150935 
2110.000000	58.156561 
2109.000000	58.162212 
2108.000000	58.166790 
2107.000000	58.168888 
2106.000000	58.167362 
2105.000000	58.161592 
2104.000000	58.151984 
2103.000000	58.139848 
2102.000000	58.127284 
2101.000000	58.116245 
2100.000000	58.108305 
2099.000000	58.103895 
2098.000000	58.102178 
2097.000000	58.101248 
2096.000000	58.098983 
2095.000000	58.093404 
2094.000000	58.083391 
2093.000000	58.069086 
2092.000000	58.051753 
2091.000000	58.033323 
2090.000000	58.015847 
2089.000000	58.000850 
2088.000000	57.988762 
2087.000000	57.979059 
2086.000000	57.970261 
2085.000000	57.960581 
2084.000000	57.948231 
2083.000000	57.931971 
2082.000000	57.911372 
2081.000000	57.886624 
2080.000000	57.858896 
2079.000000	57.829809 
2078.000000	57.801508 
2077.000000	57.776021 
2076.000000	57.755470 
2075.000000	57.741761 
2074.000000	57.736229 
2073.000000	57.739543 
2072.000000	57.751512 
2071.000000	57.771039 
2070.000000	57.796216 
2069.000000	57.824397 
2068.000000	57.852530 
2067.000000	57.877469 
2066.000000	57.896590 
2065.000000	57.907915 
2064.000000	57.910537 
2063.000000	57.904481 
2062.000000	57.890868 
2061.000000	57.871651 
2060.000000	57.849311 
2059.000000	57.826375 
2058.000000	57.805538 
2057.000000	57.788896 
2056.000000	57.778000 
2055.000000	57.773232 
2054.000000	57.774162 
2053.000000	57.779335 
2052.000000	57.786417 
2051.000000	57.792806 
2050.000000	57.795929 
2049.000000	57.793831 
2048.000000	57.785558 
2047.000000	57.771468 
2046.000000	57.753157 
2045.000000	57.732987 
2044.000000	57.713508 
2043.000000	57.696938 
2042.000000	57.684588 
2041.000000	57.676768 
2040.000000	57.672739 
2039.000000	57.671070 
2038.000000	57.670235 
2037.000000	57.669091 
2036.000000	57.667303 
2035.000000	57.665181 
2034.000000	57.663559 
2033.000000	57.663393 
2032.000000	57.665324 
2031.000000	57.669329 
2030.000000	57.674431 
2029.000000	57.679152 
2028.000000	57.681584 
2027.000000	57.680201 
2026.000000	57.674098 
2025.000000	57.663154 
2024.000000	57.648086 
2023.000000	57.630181 
2022.000000	57.611203 
2021.000000	57.592964 
2020.000000	57.577037 
2019.000000	57.564520 
2018.000000	57.556128 
2017.000000	57.552337 
2016.000000	57.553172 
2015.000000	57.558488 
2014.000000	57.567954 
2013.000000	57.580876 
2012.000000	57.596278 
2011.000000	57.612633 
2010.000000	57.628202 
2009.000000	57.640981 
2008.000000	57.649207 
2007.000000	57.651519 
2006.000000	57.647514 
2005.000000	57.637739 
2004.000000	57.623720 
2003.000000	57.607531 
2002.000000	57.591581 
2001.000000	57.577729 
2000.000000	57.567238 
1999.000000	57.560181 
1998.000000	57.555532 
1997.000000	57.551550 
1996.000000	57.546091 
1995.000000	57.537436 
1994.000000	57.524609 
1993.000000	57.507824 
1992.000000	57.488226 
1991.000000	57.467651 
1990.000000	57.448124 
1989.000000	57.431268 
1988.000000	57.417869 
1987.000000	57.407760 
1986.000000	57.400131 
1985.000000	57.393646 
1984.000000	57.387065 
1983.000000	57.379484 
1982.000000	57.370781 
1981.000000	57.361412 
1980.000000	57.352328 
1979.000000	57.344722 
1978.000000	57.339811 
1977.000000	57.338190 
1976.000000	57.340097 
1975.000000	57.345366 
1974.000000	57.353377 
1973.000000	57.363533 
1972.000000	57.374930 
1971.000000	57.386541 
1970.000000	57.397246 
1969.000000	57.405972 
1968.000000	57.411742 
1967.000000	57.413697 
1966.000000	57.411313 
1965.000000	57.404589 
1964.000000	57.393717 
1963.000000	57.379412 
1962.000000	57.362508 
1961.000000	57.343959 
1960.000000	57.324624 
1959.000000	57.305335 
1958.000000	57.286810 
1957.000000	57.269787 
1956.000000	57.255148 
1955.000000	57.243609 
1954.000000	57.235884 
1953.000000	57.232260 
1952.000000	57.232356 
1951.000000	57.235264 
1950.000000	57.239317 
1949.000000	57.242751 
1948.000000	57.243967 
1947.000000	57.242107 
1946.000000	57.237100 
1945.000000	57.229566 
1944.000000	57.220697 
1943.000000	57.211637 
1942.000000	57.203078 
1941.000000	57.195210 
1940.000000	57.187747 
1939.000000	57.180070 
1938.000000	57.171750 
1937.000000	57.162475 
1936.000000	57.152533 
1935.000000	57.142519 
1934.000000	57.133054 
1933.000000	57.124638 
1932.000000	57.117366 
1931.000000	57.110929 
1930.000000	57.104825 
1929.000000	57.098698 
1928.000000	57.092595 
1927.000000	57.087182 
1926.000000	57.083415 
1925.000000	57.082223 
1924.000000	57.084035 
1923.000000	57.088398 
1922.000000	57.094120 
1921.000000	57.099437 
1920.000000	57.102513 
1919.000000	57.102084 
1918.000000	57.097768 
1917.000000	57.090282 
1916.000000	57.081031 
1915.000000	57.071685 
1914.000000	57.063579 
1913.000000	57.057285 
1912.000000	57.052493 
1911.000000	57.048082 
1910.000000	57.042551 
1909.000000	57.034611 
1908.000000	57.023668 
1907.000000	57.010006 
1906.000000	56.994605 
1905.000000	56.978797 
1904.000000	56.963872 
1903.000000	56.950759 
1902.000000	56.939673 
1901.000000	56.930351 
1900.000000	56.922245 
1899.000000	56.915020 
1898.000000	56.908440 
1897.000000	56.902670 
1896.000000	56.897997 
1895.000000	56.894850 
1894.000000	56.893134 
1893.000000	56.892514 
1892.000000	56.892156 
1891.000000	56.890797 
1890.000000	56.887197 
1889.000000	56.880092 
1888.000000	56.868696 
1887.000000	56.852865 
1886.000000	56.832885 
1885.000000	56.809616 
1884.000000	56.784176 
1883.000000	56.758046 
1882.000000	56.732606 
1881.000000	56.709527 
1880.000000	56.690311 
1879.000000	56.676340 
1878.000000	56.668519 
1877.000000	56.667232 
1876.000000	56.672143 
1875.000000	56.682157 
1874.000000	56.695485 
1873.000000	56.709885 
1872.000000	56.723189 
1871.000000	56.733536 
1870.000000	56.739783 
1869.000000	56.741642 
1868.000000	56.739807 
1867.000000	56.735610 
1866.000000	56.730461 
1865.000000	56.725788 
1864.000000	56.722092 
1863.000000	56.719160 
1862.000000	56.715869 
1861.000000	56.710863 
1860.000000	56.702685 
1859.000000	56.690502 
1858.000000	56.674242 
1857.000000	56.654977 
1856.000000	56.634688 
1855.000000	56.615734 
1854.000000	56.600642 
1853.000000	56.591129 
1852.000000	56.588244 
1851.000000	56.591868 
1850.000000	56.600975 
1849.000000	56.613731 
1848.000000	56.627917 
1847.000000	56.641101 
1846.000000	56.650996 
1845.000000	56.655716 
1844.000000	56.653881 
1843.000000	56.644797 
1842.000000	56.628346 
1841.000000	56.605362 
1840.000000	56.577491 
1839.000000	56.547260 
1838.000000	56.517648 
1837.000000	56.491684 
1836.000000	56.472182 
1835.000000	56.460905 
1834.000000	56.458330 
1833.000000	56.463623 
1832.000000	56.474709 
1831.000000	56.488656 
1830.000000	56.502270 
1829.000000	56.512665 
1828.000000	56.517815 
1827.000000	56.516671 
1826.000000	56.509423 
1825.000000	56.497144 
1824.000000	56.481480 
1823.000000	56.464385 
1822.000000	56.447696 
1821.000000	56.432819 
1820.000000	56.420683 
1819.000000	56.411671 
1818.000000	56.405544 
1817.000000	56.401705 
1816.000000	56.399250 
1815.000000	56.397080 
1814.000000	56.394267 
1813.000000	56.390118 
1812.000000	56.384682 
1811.000000	56.378340 
1810.000000	56.371974 
1809.000000	56.366491 
1808.000000	56.362795 
1807.000000	56.361269 
1806.000000	56.362056 
1805.000000	56.364583 
1804.000000	56.367993 
1803.000000	56.371307 
1802.000000	56.373739 
1801.000000	56.374645 
1800.000000	56.373691 
1799.000000	56.370854 
1798.000000	56.366348 
1797.000000	56.360268 
1796.000000	56.352853 
1795.000000	56.344246 
1794.000000	56.334590 
1793.000000	56.324100 
1792.000000	56.313228 
1791.000000	56.302642 
1790.000000	56.292772 
1789.000000	56.283903 
1788.000000	56.275796 
1787.000000	56.268000 
1786.000000	56.259727 
1785.000000	56.250166 
1784.000000	56.238794 
1783.000000	56.225681 
1782.000000	56.211423 
1781.000000	56.197357 
1780.000000	56.184959 
1779.000000	56.175708 
1778.000000	56.170606 
1777.000000	56.169843 
1776.000000	56.172800 
1775.000000	56.177926 
1774.000000	56.183314 
1773.000000	56.186938 
1772.000000	56.187367 
1771.000000	56.184005 
1770.000000	56.177449 
1769.000000	56.169271 
1768.000000	56.161594 
1767.000000	56.156539 
1766.000000	56.155705 
1765.000000	56.159710 
1764.000000	56.168055 
1763.000000	56.179428 
1762.000000	56.191825 
1761.000000	56.203055 
1760.000000	56.211161 
1759.000000	56.214880 
1758.000000	56.213450 
1757.000000	56.206774 
1756.000000	56.195139 
1755.000000	56.179094 
1754.000000	56.159210 
1753.000000	56.136417 
1752.000000	56.111502 
1751.000000	56.085515 
1750.000000	56.059598 
1749.000000	56.035161 
1748.000000	56.013631 
1747.000000	55.996298 
1746.000000	55.984044 
1745.000000	55.977153 
1744.000000	55.975651 
1743.000000	55.979204 
1742.000000	55.987167 
1741.000000	55.998468 
1740.000000	56.011724 
1739.000000	56.025123 
1738.000000	56.036615 
1737.000000	56.043982 
1736.000000	56.045198 
1735.000000	56.038665 
1734.000000	56.023859 
1733.000000	56.001400 
1732.000000	55.972552 
1731.000000	55.939650 
1730.000000	55.905461 
1729.000000	55.873394 
1728.000000	55.846834 
1727.000000	55.828881 
1726.000000	55.822038 
1725.000000	55.827474 
1724.000000	55.845117 
1723.000000	55.872845 
1722.000000	55.906891 
1721.000000	55.941724 
1720.000000	55.970788 
1719.000000	55.987668 
1718.000000	55.987405 
1717.000000	55.967617 
1716.000000	55.929112 
1715.000000	55.876135 
1714.000000	55.815744 
1713.000000	55.756545 
1712.000000	55.707097 
1711.000000	55.674195 
1710.000000	55.661940 
1709.000000	55.671453 
1708.000000	55.701208 
1707.000000	55.747509 
1706.000000	55.805182 
1705.000000	55.868577 
1704.000000	55.932044 
1703.000000	55.990099 
1702.000000	56.037950 
1701.000000	56.071567 
1700.000000	56.088066 
1699.000000	56.086039 
1698.000000	56.066060 
1697.000000	56.030702 
1696.000000	55.984473 
1695.000000	55.933761 
1694.000000	55.885529 
1693.000000	55.846619 
1692.000000	55.822086 
1691.000000	55.814576 
1690.000000	55.823516 
1689.000000	55.845189 
1688.000000	55.873465 
1687.000000	55.901265 
1686.000000	55.921483 
1685.000000	55.928730 
1684.000000	55.920362 
1683.000000	55.896854 
1682.000000	55.861258 
1681.000000	55.818462 
1680.000000	55.774092 
1679.000000	55.733036 
1678.000000	55.698871 
1677.000000	55.672860 
1676.000000	55.654358 
1675.000000	55.641031 
1674.000000	55.630326 
1673.000000	55.619907 
1672.000000	55.608081 
1671.000000	55.594396 
1670.000000	55.579495 
1669.000000	55.564761 
1668.000000	55.551433 
1667.000000	55.540680 
1666.000000	55.532979 
1665.000000	55.528640 
1664.000000	55.527663 
1663.000000	55.530786 
1662.000000	55.539250 
1661.000000	55.555105 
1660.000000	55.580306 
1659.000000	55.616331 
1658.000000	55.663037 
1657.000000	55.718111 
1656.000000	55.776977 
1655.000000	55.833578 
1654.000000	55.880737 
1653.000000	55.912089 
1652.000000	55.922722 
1651.000000	55.910420 
1650.000000	55.875754 
1649.000000	55.822443 
1648.000000	55.756425 
1647.000000	55.684804 
1646.000000	55.614662 
1645.000000	55.552506 
1644.000000	55.502963 
1643.000000	55.468940 
1642.000000	55.450391 
1641.000000	55.445480 
1640.000000	55.450081 
1639.000000	55.458903 
1638.000000	55.466008 
1637.000000	55.465912 
1636.000000	55.454826 
1635.000000	55.431246 
1634.000000	55.396461 
1633.000000	55.354046 
1632.000000	55.309295 
1631.000000	55.267906 
1630.000000	55.234646 
1629.000000	55.212426 
1628.000000	55.202293 
1627.000000	55.203509 
1626.000000	55.213904 
1625.000000	55.230641 
1624.000000	55.251216 
1623.000000	55.273485 
1622.000000	55.295562 
1621.000000	55.315876 
1620.000000	55.332660 
1619.000000	55.343961 
1618.000000	55.347585 
1617.000000	55.341410 
1616.000000	55.323767 
1615.000000	55.294299 
1614.000000	55.254721 
1613.000000	55.208277 
1612.000000	55.159425 
1611.000000	55.113029 
1610.000000	55.073690 
1609.000000	55.044627 
1608.000000	55.027008 
1607.000000	55.019903 
1606.000000	55.020666 
1605.000000	55.025362 
1604.000000	55.029797 
1603.000000	55.030250 
1602.000000	55.024337 
1601.000000	55.011129 
1600.000000	54.991364 
1599.000000	54.967045 
1598.000000	54.940962 
1597.000000	54.915738 
1596.000000	54.893517 
1595.000000	54.875683 
1594.000000	54.862570 
1593.000000	54.853844 
1592.000000	54.848408 
1591.000000	54.845237 
1590.000000	54.843354 
1589.000000	54.841971 
1588.000000	54.840755 
1587.000000	54.839491 
1586.000000	54.838371 
1585.000000	54.837679 
1584.000000	54.837822 
1583.000000	54.839015 
1582.000000	54.841446 
1581.000000	54.844927 
1580.000000	54.849219 
1579.000000	54.853987 
1578.000000	54.858756 
1577.000000	54.862833 
1576.000000	54.865574 
1575.000000	54.866576 
1574.000000	54.864954 
1573.000000	54.860210 
1572.000000	54.852128 
1571.000000	54.841566 
1570.000000	54.830455 
1569.000000	54.822087 
1568.000000	54.820370 
1567.000000	54.829263 
1566.000000	54.852032 
1565.000000	54.889750 
1564.000000	54.940915 
1563.000000	55.000686 
1562.000000	55.061864 
1561.000000	55.115723 
1560.000000	55.153846 
1559.000000	55.170035 
1558.000000	55.161619 
1557.000000	55.130076 
1556.000000	55.080819 
1555.000000	55.021643 
1554.000000	54.960989 
1553.000000	54.906415 
1552.000000	54.863548 
1551.000000	54.836130 
1550.000000	54.826116 
1549.000000	54.834365 
1548.000000	54.860496 
1547.000000	54.903006 
1546.000000	54.958796 
1545.000000	55.022668 
1544.000000	55.087471 
1543.000000	55.144762 
1542.000000	55.185699 
1541.000000	55.203032 
1540.000000	55.192279 
1539.000000	55.152845 
1538.000000	55.087947 
1537.000000	55.004620 
1536.000000	54.911994 
1535.000000	54.819869 
1534.000000	54.736733 
1533.000000	54.668784 
1532.000000	54.619455 
1531.000000	54.589891 
1530.000000	54.579091 
1529.000000	54.584693 
1528.000000	54.603433 
1527.000000	54.631876 
1526.000000	54.665851 
1525.000000	54.700636 
1524.000000	54.731702 
1523.000000	54.755020 
1522.000000	54.767656 
1521.000000	54.768490 
1520.000000	54.758381 
1519.000000	54.740190 
1518.000000	54.718303 
1517.000000	54.697751 
1516.000000	54.683685 
1515.000000	54.679822 
1514.000000	54.688024 
1513.000000	54.707455 
1512.000000	54.735326 
1511.000000	54.766917 
1510.000000	54.796862 
1509.000000	54.820036 
1508.000000	54.832601 
1507.000000	54.832720 
1506.000000	54.820704 
1505.000000	54.798698 
1504.000000	54.769754 
1503.000000	54.737234 
1502.000000	54.704523 
1501.000000	54.673552 
1500.000000	54.644942 
1499.000000	54.618167 
1498.000000	54.592204 
1497.000000	54.566192 
1496.000000	54.539871 
1495.000000	54.513740 
1494.000000	54.488897 
1493.000000	54.466366 
1492.000000	54.446697 
1491.000000	54.429364 
1490.000000	54.412937 
1489.000000	54.395413 
1488.000000	54.375004 
1487.000000	54.350876 
1486.000000	54.323482 
1485.000000	54.294657 
1484.000000	54.267263 
1483.000000	54.244256 
1482.000000	54.228353 
1481.000000	54.221296 
1480.000000	54.223513 
1479.000000	54.233741 
1478.000000	54.249787 
1477.000000	54.268908 
1476.000000	54.288291 
1475.000000	54.305410 
1474.000000	54.318428 
1473.000000	54.326224 
1472.000000	54.328465 
1471.000000	54.325318 
1470.000000	54.317259 
1469.000000	54.304933 
1468.000000	54.289436 
1467.000000	54.272198 
1466.000000	54.255270 
1465.000000	54.240703 
1464.000000	54.230737 
1463.000000	54.226970 
1462.000000	54.230141 
1461.000000	54.239511 
1460.000000	54.253125 
1459.000000	54.267787 
1458.000000	54.279828 
1457.000000	54.285788 
1456.000000	54.283189 
1455.000000	54.270911 
1454.000000	54.249429 
1453.000000	54.220747 
1452.000000	54.187917 
1451.000000	54.154348 
1450.000000	54.122972 
1449.000000	54.095935 
1448.000000	54.074406 
1447.000000	54.058694 
1446.000000	54.048681 
1445.000000	54.043912 
1444.000000	54.043722 
1443.000000	54.047465 
1442.000000	54.054284 
1441.000000	54.062771 
1440.000000	54.070973 
1439.000000	54.076528 
1438.000000	54.076933 
1437.000000	54.069924 
1436.000000	54.053759 
1435.000000	54.027652 
1434.000000	53.992080 
1433.000000	53.948760 
1432.000000	53.900647 
1431.000000	53.851723 
1430.000000	53.806424 
1429.000000	53.769135 
1428.000000	53.743648 
1427.000000	53.732419 
1426.000000	53.736019 
1425.000000	53.752970 
1424.000000	53.779792 
1423.000000	53.811478 
1422.000000	53.842377 
1421.000000	53.867220 
1420.000000	53.882193 
1419.000000	53.885388 
1418.000000	53.877353 
1417.000000	53.860592 
1416.000000	53.838515 
1415.000000	53.814601 
1414.000000	53.791379 
1413.000000	53.769969 
1412.000000	53.750133 
1411.000000	53.730702 
1410.000000	53.710556 
1409.000000	53.689122 
1408.000000	53.666973 
1407.000000	53.645777 
1406.000000	53.627729 
1405.000000	53.615307 
1404.000000	53.609728 
1403.000000	53.611159 
1402.000000	53.618049 
1401.000000	53.627967 
1400.000000	53.638076 
1399.000000	53.646087 
1398.000000	53.650879 
1397.000000	53.652334 
1396.000000	53.651475 
1395.000000	53.649592 
1394.000000	53.647732 
1393.000000	53.646278 
1392.000000	53.644800 
1391.000000	53.642010 
1390.000000	53.636193 
1389.000000	53.625679 
1388.000000	53.609395 
1387.000000	53.587031 
1386.000000	53.559494 
1385.000000	53.528833 
1384.000000	53.498125 
1383.000000	53.471183 
1382.000000	53.451824 
1381.000000	53.443098 
1380.000000	53.446745 
1379.000000	53.462839 
1378.000000	53.489398 
1377.000000	53.522586 
1376.000000	53.557085 
1375.000000	53.587102 
1374.000000	53.607296 
1373.000000	53.613877 
1372.000000	53.605198 
1371.000000	53.582072 
1370.000000	53.547477 
1369.000000	53.505730 
1368.000000	53.461623 
1367.000000	53.419303 
1366.000000	53.381562 
1365.000000	53.349494 
1364.000000	53.322720 
1363.000000	53.299689 
1362.000000	53.278422 
1361.000000	53.257155 
1360.000000	53.234958 
1359.000000	53.211927 
1358.000000	53.189110 
1357.000000	53.168487 
1356.000000	53.152084 
1355.000000	53.141689 
1354.000000	53.138494 
1353.000000	53.142428 
1352.000000	53.152680 
1351.000000	53.167295 
1350.000000	53.183603 
1349.000000	53.198981 
1348.000000	53.210830 
1347.000000	53.217267 
1346.000000	53.217577 
1345.000000	53.212213 
1344.000000	53.202414 
1343.000000	53.190279 
1342.000000	53.178143 
1341.000000	53.168034 
1340.000000	53.161072 
1339.000000	53.157496 
1338.000000	53.156638 
1337.000000	53.157234 
1336.000000	53.157973 
1335.000000	53.157830 
1334.000000	53.156352 
1333.000000	53.154015 
1332.000000	53.151941 
1331.000000	53.151559 
1330.000000	53.154134 
1329.000000	53.160405 
1328.000000	53.170180 
1327.000000	53.182554 
1326.000000	53.195786 
1325.000000	53.207993 
1324.000000	53.217077 
1323.000000	53.221535 
1322.000000	53.220129 
1321.000000	53.212261 
1320.000000	53.197669 
1319.000000	53.176593 
1318.000000	53.149414 
1317.000000	53.116869 
1316.000000	53.079915 
1315.000000	53.040242 
1314.000000	52.999782 
1313.000000	52.960896 
1312.000000	52.925968 
1311.000000	52.897381 
1310.000000	52.876853 
1309.000000	52.865195 
1308.000000	52.862358 
1307.000000	52.867436 
1306.000000	52.878689 
1305.000000	52.894186 
1304.000000	52.911686 
1303.000000	52.929139 
1302.000000	52.944684 
1301.000000	52.956867 
1300.000000	52.964329 
1299.000000	52.966046 
1298.000000	52.961397 
1297.000000	52.950334 
1296.000000	52.933406 
1295.000000	52.911829 
1294.000000	52.887654 
1293.000000	52.862906 
1292.000000	52.839899 
1291.000000	52.819967 
1290.000000	52.803730 
1289.000000	52.790355 
1288.000000	52.778148 
1287.000000	52.764749 
1286.000000	52.747821 
1285.000000	52.725601 
1284.000000	52.697277 
1283.000000	52.663469 
1282.000000	52.626109 
1281.000000	52.588009 
1280.000000	52.552533 
1279.000000	52.522802 
1278.000000	52.501535 
1277.000000	52.490282 
1276.000000	52.489781 
1275.000000	52.499604 
1274.000000	52.518582 
1273.000000	52.544879 
1272.000000	52.576494 
1271.000000	52.610945 
1270.000000	52.645397 
1269.000000	52.677011 
1268.000000	52.702903 
1267.000000	52.720427 
1266.000000	52.727532 
1265.000000	52.723145 
1264.000000	52.707386 
1263.000000	52.682042 
1262.000000	52.649927 
1261.000000	52.614665 
1260.000000	52.579975 
1259.000000	52.549171 
1258.000000	52.524399 
1257.000000	52.506422 
1256.000000	52.494788 
1255.000000	52.488136 
1254.000000	52.484750 
1253.000000	52.483224 
1252.000000	52.482700 
1251.000000	52.483105 
1250.000000	52.484965 
1249.000000	52.488756 
1248.000000	52.494621 
1247.000000	52.501773 
1246.000000	52.508497 
1245.000000	52.512407 
1244.000000	52.511024 
1243.000000	52.502489 
1242.000000	52.486443 
1241.000000	52.464127 
1240.000000	52.438354 
1239.000000	52.412819 
1238.000000	52.391338 
1237.000000	52.376842 
1236.000000	52.370476 
1235.000000	52.371430 
1234.000000	52.377104 
1233.000000	52.384090 
1232.000000	52.388954 
1231.000000	52.389264 
1230.000000	52.383899 
1229.000000	52.373600 
1228.000000	52.360200 
1227.000000	52.345967 
1226.000000	52.332687 
1225.000000	52.321076 
1224.000000	52.310609 
1223.000000	52.299952 
1222.000000	52.287292 
1221.000000	52.271318 
1220.000000	52.251482 
1219.000000	52.228498 
1218.000000	52.204227 
1217.000000	52.180600 
1216.000000	52.159714 
1215.000000	52.142739 
1214.000000	52.130126 
1213.000000	52.121186 
1212.000000	52.114939 
1211.000000	52.110505 
1210.000000	52.107572 
1209.000000	52.106523 
1208.000000	52.108573 
1207.000000	52.115058 
1206.000000	52.126932 
1205.000000	52.144336 
1204.000000	52.166199 
1203.000000	52.190113 
1202.000000	52.213001 
1201.000000	52.231383 
1200.000000	52.242255 
1199.000000	52.243566 
1198.000000	52.234649 
1197.000000	52.216315 
1196.000000	52.190494 
1195.000000	52.159881 
1194.000000	52.127528 
1193.000000	52.096176 
1192.000000	52.068090 
1191.000000	52.044582 
1190.000000	52.026343 
1189.000000	52.013039 
1188.000000	52.003645 
1187.000000	51.996803 
1186.000000	51.990818 
1185.000000	51.984238 
1184.000000	51.975941 
1183.000000	51.965594 
1182.000000	51.953411 
1181.000000	51.940369 
1180.000000	51.927733 
1179.000000	51.916909 
1178.000000	51.908946 
1177.000000	51.904463 
1176.000000	51.903247 
1175.000000	51.904535 
1174.000000	51.907110 
1173.000000	51.909613 
1172.000000	51.910901 
1171.000000	51.910042 
1170.000000	51.906585 
1169.000000	51.900362 
1168.000000	51.891398 
1167.000000	51.879811 
1166.000000	51.865625 
1165.000000	51.849198 
1164.000000	51.830983 
1163.000000	51.811838 
1162.000000	51.792860 
1161.000000	51.774859 
1160.000000	51.758694 
1159.000000	51.744580 
1158.000000	51.732707 
1157.000000	51.722931 
1156.000000	51.715469 
1155.000000	51.710462 
1154.000000	51.708698 
1153.000000	51.710963 
1152.000000	51.718139 
1151.000000	51.730489 
1150.000000	51.747584 
1149.000000	51.768040 
1148.000000	51.789712 
1147.000000	51.810026 
1146.000000	51.826500 
1145.000000	51.837086 
1144.000000	51.840710 
1143.000000	51.837301 
1142.000000	51.827883 
1141.000000	51.813960 
1140.000000	51.797270 
1139.000000	51.779222 
1138.000000	51.760888 
1137.000000	51.742815 
1136.000000	51.725435 
1135.000000	51.709055 
1134.000000	51.694059 
1133.000000	51.680922 
1132.000000	51.670217 
1131.000000	51.662254 
1130.000000	51.656579 
1129.000000	51.652073 
1128.000000	51.646828 
1127.000000	51.639032 
1126.000000	51.627373 
1125.000000	51.611638 
1124.000000	51.592755 
1123.000000	51.572823 
1122.000000	51.554632 
1121.000000	51.540827 
1120.000000	51.532912 
1119.000000	51.531076 
1118.000000	51.533603 
1117.000000	51.537489 
1116.000000	51.538920 
1115.000000	51.534008 
1114.000000	51.519942 
1113.000000	51.495432 
1112.000000	51.461386 
1111.000000	51.420664 
1110.000000	51.377511 
1109.000000	51.337027 
1108.000000	51.303839 
1107.000000	51.281285 
1106.000000	51.270627 
1105.000000	51.271033 
1104.000000	51.279377 
1103.000000	51.291036 
1102.000000	51.300454 
1101.000000	51.302504 
1100.000000	51.293683 
1099.000000	51.272487 
1098.000000	51.240229 
1097.000000	51.200342 
1096.000000	51.158142 
1095.000000	51.119470 
1094.000000	51.089859 
1093.000000	51.073408 
1092.000000	51.071977 
1091.000000	51.084971 
1090.000000	51.109576 
1089.000000	51.141667 
1088.000000	51.176285 
1087.000000	51.208806 
1086.000000	51.235604 
1085.000000	51.254749 
1084.000000	51.265621 
1083.000000	51.269245 
1082.000000	51.267457 
1081.000000	51.262617 
1080.000000	51.256823 
1079.000000	51.251149 
1078.000000	51.246571 
1077.000000	51.242709 
1076.000000	51.238512 
1075.000000	51.232504 
1074.000000	51.223421 
1073.000000	51.210761 
1072.000000	51.195216 
1071.000000	51.178669 
1070.000000	51.163768 
1069.000000	51.153731 
1068.000000	51.151490 
1067.000000	51.158690 
1066.000000	51.175308 
1065.000000	51.199483 
1064.000000	51.227831 
1063.000000	51.256036 
1062.000000	51.280045 
1061.000000	51.296639 
1060.000000	51.304554 
1059.000000	51.304507 
1058.000000	51.299262 
1057.000000	51.293063 
1056.000000	51.290464 
1055.000000	51.295375 
1054.000000	51.309967 
1053.000000	51.334333 
1052.000000	51.366138 
1051.000000	51.401400 
1050.000000	51.434993 
1049.000000	51.461982 
1048.000000	51.478147 
1047.000000	51.481270 
1046.000000	51.470708 
1045.000000	51.447653 
1044.000000	51.414227 
1043.000000	51.372957 
1042.000000	51.326060 
1041.000000	51.275348 
1040.000000	51.221895 
1039.000000	51.166558 
1038.000000	51.110124 
1037.000000	51.053977 
1036.000000	50.999855 
1035.000000	50.950479 
1034.000000	50.908875 
1033.000000	50.878262 
1032.000000	50.860905 
1031.000000	50.857996 
1030.000000	50.868558 
1029.000000	50.890064 
1028.000000	50.918149 
1027.000000	50.948238 
1026.000000	50.976109 
1025.000000	50.998735 
1024.000000	51.014971 
1023.000000	51.024913 
1022.000000	51.029205 
1021.000000	51.028561 
1020.000000	51.023268 
1019.000000	51.012682 
1018.000000	50.996065 
1017.000000	50.972342 
1016.000000	50.941109 
1015.000000	50.902748 
1014.000000	50.858712 
1013.000000	50.810933 
1012.000000	50.761771 
1011.000000	50.713443 
1010.000000	50.668048 
1009.000000	50.627350 
1008.000000	50.593233 
1007.000000	50.567841 
1006.000000	50.553464 
1005.000000	50.552487 
1004.000000	50.566530 
1003.000000	50.595402 
1002.000000	50.637316 
1001.000000	50.688028 
1000.000000	50.742578 
999.000000	 50.795769 
998.000000	 50.843977 
997.000000	 50.885581 
996.000000	 50.920772 
995.000000	 50.951623 
994.000000	 50.979995 
993.000000	 51.006627 
992.000000	 51.029729 
991.000000	 51.045322 
990.000000	 51.047730 
989.000000	 51.031637 
988.000000	 50.993394 
987.000000	 50.932955 
986.000000	 50.854301 
985.000000	 50.765252 
984.000000	 50.675725 
983.000000	 50.595808 
982.000000	 50.533151 
981.000000	 50.491666 
980.000000	 50.471138 
979.000000	 50.467538 
978.000000	 50.474643 
977.000000	 50.485634 
976.000000	 50.494861 
975.000000	 50.498771 
974.000000	 50.495624 
973.000000	 50.485682 
972.000000	 50.469899 
971.000000	 50.449728 
970.000000	 50.425863 
969.000000	 50.398731 
968.000000	 50.368666 
967.000000	 50.336480 
966.000000	 50.304055 
965.000000	 50.274372 
964.000000	 50.251603 
963.000000	 50.239586 
962.000000	 50.240802 
961.000000	 50.254964 
960.000000	 50.278615 
959.000000	 50.305509 
958.000000	 50.327849 
957.000000	 50.338292 
956.000000	 50.331592 
955.000000	 50.306153 
954.000000	 50.264334 
953.000000	 50.211310 
952.000000	 50.153827 
951.000000	 50.098228 
950.000000	 50.049114 
949.000000	 50.008344 
948.000000	 49.975776 
947.000000	 49.949789 
946.000000	 49.929094 
945.000000	 49.913811 
944.000000	 49.905514 
943.000000	 49.906730 
942.000000	 49.919676 
941.000000	 49.944472 
940.000000	 49.978613 
939.000000	 50.016307 
938.000000	 50.050306 
937.000000	 50.073385 
936.000000	 50.080847 
935.000000	 50.072002 
934.000000	 50.050234 
933.000000	 50.022292 
932.000000	 49.995946 
931.000000	 49.977731 
930.000000	 49.970722 
929.000000	 49.973416 
928.000000	 49.980258 
927.000000	 49.983334 
926.000000	 49.974966 
925.000000	 49.949836 
924.000000	 49.907064 
923.000000	 49.849987 
922.000000	 49.785304 
921.000000	 49.720954 
920.000000	 49.664211 
919.000000	 49.619960 
918.000000	 49.589538 
917.000000	 49.571251 
916.000000	 49.561715 
915.000000	 49.556899 
914.000000	 49.553632 
913.000000	 49.550318 
912.000000	 49.546623 
911.000000	 49.543738 
910.000000	 49.542880 
909.000000	 49.545407 
908.000000	 49.551272 
907.000000	 49.559783 
906.000000	 49.569559 
905.000000	 49.579143 
904.000000	 49.587559 
903.000000	 49.594497 
902.000000	 49.600338 
901.000000	 49.605941 
900.000000	 49.612283 
899.000000	 49.619984 
898.000000	 49.629354 
897.000000	 49.640417 
896.000000	 49.652671 
895.000000	 49.665594 
894.000000	 49.678111 
893.000000	 49.689173 
892.000000	 49.697327 
891.000000	 49.700856 
890.000000	 49.697828 
889.000000	 49.686717 
888.000000	 49.666452 
887.000000	 49.636602 
886.000000	 49.598169 
885.000000	 49.553608 
884.000000	 49.507164 
883.000000	 49.464082 
882.000000	 49.429917 
881.000000	 49.409413 
880.000000	 49.405503 
879.000000	 49.418783 
878.000000	 49.446821 
877.000000	 49.484801 
876.000000	 49.526166 
875.000000	 49.564242 
874.000000	 49.593210 
873.000000	 49.609470 
872.000000	 49.611806 
871.000000	 49.601650 
870.000000	 49.581980 
869.000000	 49.556732 
868.000000	 49.529767 
867.000000	 49.503993 
866.000000	 49.480915 
865.000000	 49.460697 
864.000000	 49.442982 
863.000000	 49.427032 
862.000000	 49.412608 
861.000000	 49.400186 
860.000000	 49.391174 
859.000000	 49.387311 
858.000000	 49.389910 
857.000000	 49.399328 
856.000000	 49.414229 
855.000000	 49.431824 
854.000000	 49.448108 
853.000000	 49.458956 
852.000000	 49.461078 
851.000000	 49.453139 
850.000000	 49.436116 
849.000000	 49.413394 
848.000000	 49.389696 
847.000000	 49.370026 
846.000000	 49.358057 
845.000000	 49.355220 
844.000000	 49.359917 
843.000000	 49.368119 
842.000000	 49.374055 
841.000000	 49.371933 
840.000000	 49.357318 
839.000000	 49.328660 
838.000000	 49.287390 
837.000000	 49.237442 
836.000000	 49.184250 
835.000000	 49.133467 
834.000000	 49.089646 
833.000000	 49.055242 
832.000000	 49.030232 
831.000000	 49.012470 
830.000000	 48.998522 
829.000000	 48.984742 
828.000000	 48.968076 
827.000000	 48.946905 
826.000000	 48.921227 
825.000000	 48.892498 
824.000000	 48.862886 
823.000000	 48.834776 
822.000000	 48.810291 
821.000000	 48.790979 
820.000000	 48.777580 
819.000000	 48.770284 
818.000000	 48.768877 
817.000000	 48.773193 
816.000000	 48.783159 
815.000000	 48.798871 
814.000000	 48.820352 
813.000000	 48.847293 
812.000000	 48.878812 
811.000000	 48.912739 
810.000000	 48.946070 
809.000000	 48.975014 
808.000000	 48.995637 
807.000000	 49.004840 
806.000000	 49.001049 
805.000000	 48.984694 
804.000000	 48.958802 
803.000000	 48.927855 
802.000000	 48.897171 
801.000000	 48.871397 
800.000000	 48.853850 
799.000000	 48.845338 
798.000000	 48.844313 
797.000000	 48.847341 
796.000000	 48.850035 
795.000000	 48.848509 
794.000000	 48.840427 
793.000000	 48.825693 
792.000000	 48.806214 
791.000000	 48.784971 
790.000000	 48.764991 
789.000000	 48.748517 
788.000000	 48.736095 
787.000000	 48.726773 
786.000000	 48.718357 
785.000000	 48.708462 
784.000000	 48.695230 
783.000000	 48.678207 
782.000000	 48.658394 
781.000000	 48.637676 
780.000000	 48.618531 
779.000000	 48.603129 
778.000000	 48.592495 
777.000000	 48.585987 
776.000000	 48.581552 
775.000000	 48.576283 
774.000000	 48.567056 
773.000000	 48.551058 
772.000000	 48.527121 
771.000000	 48.496055 
770.000000	 48.460531 
769.000000	 48.424601 
768.000000	 48.393130 
767.000000	 48.370814 
766.000000	 48.361515 
765.000000	 48.367238 
764.000000	 48.387885 
763.000000	 48.420977 
762.000000	 48.462295 
761.000000	 48.506140 
760.000000	 48.546099 
759.000000	 48.576259 
758.000000	 48.591947 
757.000000	 48.590660 
756.000000	 48.572516 
755.000000	 48.539853 
754.000000	 48.497366 
753.000000	 48.449921 
752.000000	 48.402690 
751.000000	 48.358607 
750.000000	 48.318815 
749.000000	 48.281407 
748.000000	 48.242664 
747.000000	 48.197674 
746.000000	 48.142266 
745.000000	 48.074173 
744.000000	 47.994160 
743.000000	 47.906351 
742.000000	 47.817707 
741.000000	 47.736907 
740.000000	 47.672724 
739.000000	 47.632098 
738.000000	 47.618794 
737.000000	 47.633004 
736.000000	 47.671222 
735.000000	 47.726941 
734.000000	 47.791576 
733.000000	 47.855806 
732.000000	 47.911095 
731.000000	 47.950172 
730.000000	 47.968316 
729.000000	 47.963523 
728.000000	 47.936606 
727.000000	 47.890663 
726.000000	 47.830533 
725.000000	 47.762036 
724.000000	 47.691011 
723.000000	 47.623038 
722.000000	 47.562527 
721.000000	 47.512435 
720.000000	 47.474265 
719.000000	 47.448229 
718.000000	 47.433066 
717.000000	 47.426271 
716.000000	 47.424364 
715.000000	 47.423481 
714.000000	 47.419595 
713.000000	 47.409296 
712.000000	 47.390103 
711.000000	 47.361135 
710.000000	 47.323250 
709.000000	 47.278952 
708.000000	 47.232437 
707.000000	 47.188711 
706.000000	 47.152495 
705.000000	 47.127604 
704.000000	 47.115898 
703.000000	 47.117233 
702.000000	 47.129869 
701.000000	 47.150540 
700.000000	 47.175049 
699.000000	 47.199153 
698.000000	 47.218894 
697.000000	 47.231602 
696.000000	 47.235631 
695.000000	 47.231054 
694.000000	 47.218966 
693.000000	 47.201490 
692.000000	 47.181415 
691.000000	 47.160768 
690.000000	 47.140574 
689.000000	 47.120594 
688.000000	 47.099542 
687.000000	 47.075796 
686.000000	 47.048068 
685.000000	 47.016263 
684.000000	 46.981477 
683.000000	 46.945977 
682.000000	 46.912407 
681.000000	 46.883296 
680.000000	 46.859955 
679.000000	 46.842050 
678.000000	 46.827650 
677.000000	 46.813869 
676.000000	 46.797966 
675.000000	 46.778154 
674.000000	 46.754670 
673.000000	 46.729588 
672.000000	 46.706748 
671.000000	 46.690464 
670.000000	 46.684551 
669.000000	 46.690845 
668.000000	 46.708536 
667.000000	 46.734333 
666.000000	 46.762609 
665.000000	 46.786904 
664.000000	 46.800708 
663.000000	 46.799159 
662.000000	 46.779608 
661.000000	 46.742630 
660.000000	 46.691966 
659.000000	 46.634221 
658.000000	 46.577692 
657.000000	 46.530961 
656.000000	 46.501779 
655.000000	 46.495127 
654.000000	 46.512532 
653.000000	 46.551132 
652.000000	 46.604752 
651.000000	 46.664309 
650.000000	 46.719408 
649.000000	 46.760225 
648.000000	 46.779179 
647.000000	 46.772527 
646.000000	 46.740579 
645.000000	 46.687865 
644.000000	 46.622109 
643.000000	 46.552586 
642.000000	 46.488499 
641.000000	 46.437239 
640.000000	 46.403479 
639.000000	 46.388316 
638.000000	 46.389698 
637.000000	 46.403074 
636.000000	 46.422743 
635.000000	 46.442580 
634.000000	 46.457123 
633.000000	 46.462774 
632.000000	 46.457648 
631.000000	 46.441364 
630.000000	 46.414208 
629.000000	 46.376705 
628.000000	 46.328902 
627.000000	 46.270608 
626.000000	 46.201777 
625.000000	 46.123385 
624.000000	 46.037578 
623.000000	 45.948624 
622.000000	 45.862054 
621.000000	 45.783805 
620.000000	 45.719242 
619.000000	 45.671510 
618.000000	 45.641350 
617.000000	 45.626807 
616.000000	 45.623660 
615.000000	 45.626544 
614.000000	 45.629596 
613.000000	 45.627427 
612.000000	 45.616078 
611.000000	 45.593595 
610.000000	 45.559334 
609.000000	 45.513534 
608.000000	 45.457458 
607.000000	 45.393109 
606.000000	 45.323228 
605.000000	 45.251178 
604.000000	 45.180630 
603.000000	 45.115327 
602.000000	 45.058655 
601.000000	 45.013236 
600.000000	 44.979786 
599.000000	 44.957661 
598.000000	 44.944906 
597.000000	 44.939208 
596.000000	 44.937896 
595.000000	 44.939470 
594.000000	 44.942903 
593.000000	 44.948911 
592.000000	 44.958662 
591.000000	 44.974374 
590.000000	 44.997501 
589.000000	 45.029497 
588.000000	 45.070695 
587.000000	 45.121192 
586.000000	 45.180559 
585.000000	 45.247840 
584.000000	 45.321416 
583.000000	 45.398426 
582.000000	 45.474720 
581.000000	 45.544695 
580.000000	 45.601725 
579.000000	 45.639276 
578.000000	 45.651912 
577.000000	 45.636725 
576.000000	 45.593309 
575.000000	 45.523595 
574.000000	 45.431280 
573.000000	 45.321607 
572.000000	 45.200848 
571.000000	 45.075821 
570.000000	 44.953775 
569.000000	 44.842553 
568.000000	 44.749593 
567.000000	 44.681596 
566.000000	 44.642686 
565.000000	 44.633412 
564.000000	 44.650173 
563.000000	 44.685316 
562.000000	 44.728279 
561.000000	 44.766426 
560.000000	 44.788241 
559.000000	 44.785070 
558.000000	 44.753217 
557.000000	 44.693613 
556.000000	 44.612264 
555.000000	 44.518709 
554.000000	 44.422960 
553.000000	 44.333219 
552.000000	 44.255399 
551.000000	 44.192671 
550.000000	 44.144916 
549.000000	 44.110035 
548.000000	 44.086003 
547.000000	 44.071698 
546.000000	 44.066977 
545.000000	 44.072413 
544.000000	 44.087481 
543.000000	 44.110059 
542.000000	 44.135713 
541.000000	 44.158244 
540.000000	 44.169473 
539.000000	 44.162392 
538.000000	 44.132828 
537.000000	 44.081187 
536.000000	 44.012880 
535.000000	 43.937039 
534.000000	 43.865466 
533.000000	 43.807721 
532.000000	 43.769264 
531.000000	 43.748569 
530.000000	 43.738675 
529.000000	 43.725967 
528.000000	 43.694210 
527.000000	 43.628168 
526.000000	 43.518185 
525.000000	 43.362045 
524.000000	 43.166661 
523.000000	 42.946887 
522.000000	 42.723798 
521.000000	 42.520260 
520.000000	 42.357707 
519.000000	 42.252397 
518.000000	 42.212796 
517.000000	 42.239022 
516.000000	 42.322063 
515.000000	 42.446255 
514.000000	 42.590761 
513.000000	 42.731618 
512.000000	 42.846918 
511.000000	 42.917561 
510.000000	 42.933988 
509.000000	 42.894530 
508.000000	 42.810416 
507.000000	 42.701387 
506.000000	 42.594861 
505.000000	 42.519736 
504.000000	 42.500877 
503.000000	 42.554163 
502.000000	 42.681741 
501.000000	 42.871952 
500.000000	 43.099975 
499.000000	 43.333315 
498.000000	 43.538379 
497.000000	 43.687701 
496.000000	 43.764591 
495.000000	 43.766045 
494.000000	 43.702077 
493.000000	 43.592786 
492.000000	 43.462610 
491.000000	 43.335652 
490.000000	 43.232154 
489.000000	 43.164992 
488.000000	 43.140339 
487.000000	 43.157219 
486.000000	 43.210721 
485.000000	 43.292927 
484.000000	 43.394780 
483.000000	 43.507695 
482.000000	 43.624949 
481.000000	 43.739986 
480.000000	 43.846225 
479.000000	 43.934750 
478.000000	 43.994212 
477.000000	 44.011521 
476.000000	 43.975400 
475.000000	 43.876934 
474.000000	 43.713092 
473.000000	 43.488955 
472.000000	 43.218636 
471.000000	 42.923235 
470.000000	 42.627286 
469.000000	 42.353606 
468.000000	 42.118811 
467.000000	 41.931295 
466.000000	 41.789531 
465.000000	 41.682958 
464.000000	 41.595530 
463.000000	 41.509604 
462.000000	 41.411256 
461.000000	 41.291546 
460.000000	 41.150450 
459.000000	 40.992832 
458.000000	 40.830898 
457.000000	 40.676331 
456.000000	 40.544176 
455.000000	 40.446472 
454.000000	 40.395903 
453.000000	 40.401172 
452.000000	 40.470504 
451.000000	 40.609741 
450.000000	 40.819621 
449.000000	 41.093730 
448.000000	 41.414642 
447.000000	 41.753959 
446.000000	 42.074728 
445.000000	 42.336988 
444.000000	 42.504787 
443.000000	 42.554473 
442.000000	 42.480683 
441.000000	 42.298483 
440.000000	 42.043685 
439.000000	 41.764116 
438.000000	 41.510033 
437.000000	 41.322040 
436.000000	 41.223812 
435.000000	 41.216778 
434.000000	 41.286349 
433.000000	 41.403222 
432.000000	 41.532301 
431.000000	 41.640663 
430.000000	 41.705179 
429.000000	 41.715359 
428.000000	 41.673755 
427.000000	 41.591715 
426.000000	 41.477560 
425.000000	 41.343879 
424.000000	 41.204357 
423.000000	 41.074895 
422.000000	 40.971636 
421.000000	 40.912747 
420.000000	 40.915966 
419.000000	 40.990376 
418.000000	 41.132283 
417.000000	 41.311120 
416.000000	 41.470694 
415.000000	 41.550731 
414.000000	 41.498708 
413.000000	 41.256594 
412.000000	 40.793418 
411.000000	 40.120911 
410.000000	 39.306831 
409.000000	 38.481068 
408.000000	 37.798643 
407.000000	 37.408661 
406.000000	 37.400865 
405.000000	 37.785959 
404.000000	 38.472533 
403.000000	 39.283275 
402.000000	 39.993929 
401.000000	 40.398907 
400.000000	 40.347504 
399.000000	 39.777565 
398.000000	 38.731741 
397.000000	 37.349343 
396.000000	 35.816097 
395.000000	 34.312295 
394.000000	 32.989907 
393.000000	 31.951618 
392.000000	 31.272745 
391.000000	 31.012654 
390.000000	 31.341361 
389.000000	 32.500696 
388.000000	 34.791064 
387.000000	 38.420224 
386.000000	 43.325352 
385.000000	 49.113392 
384.000000	 55.009603 
383.000000	 60.060739 
382.000000	 63.399147 
381.000000	 64.434266 
380.000000	 63.146090 
379.000000	 59.939217 
378.000000	 55.502510 
377.000000	 50.616121 
376.000000	 45.905137 
375.000000	 41.781449 
374.000000	 38.447546 
373.000000	 35.878920 
372.000000	 34.053945 
371.000000	 32.792162 
370.000000	 31.863498 

