PE IR       SPECTRUM    SPECTRUM    ASCII       PEDS        1.60        
  -1
C-9AE1~1.ASC
17/03/27
16:24:49.00
17/03/27
16:24:49.00
tln
$C-4040-8_t0023$<tbV0>[13.0,-7.8,8.0,0.0,27,1,0]
370.000000
64









2002,4.07    
MIRTGS : RIGHTBACK : INTERNAL 2
MIR : ON : INTERNAL 2
OPTKBR

0.200000
8
8.000000
FILLER
RATIO
SPECTRUM
UNLOCKED 256

DOUBLE
64
COMBINED
1
0
0


1.000000
RATIO


1
0
TRUE
51149
0
LEFT NOT FITTED RIGHT NOT FITTED 0
NONE
NONE
15600
12.000000
4.427000
51148
TRUE
1 0 8 72 0 0 0 0 

15798.010000






#HDR
-1
-1
#GR
CM-1
%T
0.00002384185791015625
0.0
5000.000000
-1.000000
4631
8
86.660885
39.175152
#DATA
5000.000000	64.340996 
4999.000000	64.263486 
4998.000000	64.203786 
4997.000000	64.163899 
4996.000000	64.144802 
4995.000000	64.146089 
4994.000000	64.166140 
4993.000000	64.201927 
4992.000000	64.248800 
4991.000000	64.300107 
4990.000000	64.348077 
4989.000000	64.384341 
4988.000000	64.401602 
4987.000000	64.394831 
4986.000000	64.362597 
4985.000000	64.307594 
4984.000000	64.236664 
4983.000000	64.159727 
4982.000000	64.088368 
4981.000000	64.033961 
4980.000000	64.005517 
4979.000000	64.008140 
4978.000000	64.042305 
4977.000000	64.104318 
4976.000000	64.187431 
4975.000000	64.283728 
4974.000000	64.384961 
4973.000000	64.484858 
4972.000000	64.578461 
4971.000000	64.663720 
4970.000000	64.740180 
4969.000000	64.809036 
4968.000000	64.871907 
4967.000000	64.929962 
4966.000000	64.984297 
4965.000000	65.034055 
4964.000000	65.077376 
4963.000000	65.111064 
4962.000000	65.132069 
4961.000000	65.138626 
4960.000000	65.131545 
4959.000000	65.114259 
4958.000000	65.092658 
4957.000000	65.073299 
4956.000000	65.062022 
4955.000000	65.061759 
4954.000000	65.071392 
4953.000000	65.085530 
4952.000000	65.095686 
4951.000000	65.092468 
4950.000000	65.067982 
4949.000000	65.018367 
4948.000000	64.944887 
4947.000000	64.854383 
4946.000000	64.757561 
4945.000000	64.665985 
4944.000000	64.589762 
4943.000000	64.534974 
4942.000000	64.502835 
4941.000000	64.490556 
4940.000000	64.491891 
4939.000000	64.499616 
4938.000000	64.506673 
4937.000000	64.507627 
4936.000000	64.499378 
4935.000000	64.480352 
4934.000000	64.451575 
4933.000000	64.415502 
4932.000000	64.375758 
4931.000000	64.336013 
4930.000000	64.299082 
4929.000000	64.266371 
4928.000000	64.237856 
4927.000000	64.212703 
4926.000000	64.189386 
4925.000000	64.167046 
4924.000000	64.146137 
4923.000000	64.129352 
4922.000000	64.120650 
4921.000000	64.125347 
4920.000000	64.148235 
4919.000000	64.192962 
4918.000000	64.259886 
4917.000000	64.346432 
4916.000000	64.446473 
4915.000000	64.552044 
4914.000000	64.654779 
4913.000000	64.746975 
4912.000000	64.823126 
4911.000000	64.879846 
4910.000000	64.915704 
4909.000000	64.931082 
4908.000000	64.927268 
4907.000000	64.907908 
4906.000000	64.878630 
4905.000000	64.847016 
4904.000000	64.821600 
4903.000000	64.810967 
4902.000000	64.822125 
4901.000000	64.858603 
4900.000000	64.919662 
4899.000000	64.999985 
4898.000000	65.090894 
4897.000000	65.182542 
4896.000000	65.265893 
4895.000000	65.334367 
4894.000000	65.384316 
4893.000000	65.416383 
4892.000000	65.432810 
4891.000000	65.435767 
4890.000000	65.425872 
4889.000000	65.402102 
4888.000000	65.362095 
4887.000000	65.304613 
4886.000000	65.229320 
4885.000000	65.139794 
4884.000000	65.041160 
4883.000000	64.940810 
4882.000000	64.844536 
4881.000000	64.755225 
4880.000000	64.672160 
4879.000000	64.591884 
4878.000000	64.509272 
4877.000000	64.419960 
4876.000000	64.323019 
4875.000000	64.222478 
4874.000000	64.126992 
4873.000000	64.048814 
4872.000000	64.000940 
4871.000000	63.995170 
4870.000000	64.037895 
4869.000000	64.129948 
4868.000000	64.266324 
4867.000000	64.437222 
4866.000000	64.629697 
4865.000000	64.829063 
4864.000000	65.020871 
4863.000000	65.191793 
4862.000000	65.330505 
4861.000000	65.428209 
4860.000000	65.479469 
4859.000000	65.482425 
4858.000000	65.440368 
4857.000000	65.359783 
4856.000000	65.250945 
4855.000000	65.125560 
4854.000000	64.996957 
4853.000000	64.876627 
4852.000000	64.773869 
4851.000000	64.694547 
4850.000000	64.641427 
4849.000000	64.613699 
4848.000000	64.607930 
4847.000000	64.618968 
4846.000000	64.640998 
4845.000000	64.667558 
4844.000000	64.692807 
4843.000000	64.711093 
4842.000000	64.718675 
4841.000000	64.714002 
4840.000000	64.698648 
4839.000000	64.676666 
4838.000000	64.654111 
4837.000000	64.638423 
4836.000000	64.636039 
4835.000000	64.650893 
4834.000000	64.682984 
4833.000000	64.729499 
4832.000000	64.783978 
4831.000000	64.838004 
4830.000000	64.883112 
4829.000000	64.912700 
4828.000000	64.923477 
4827.000000	64.915919 
4826.000000	64.894080 
4825.000000	64.864063 
4824.000000	64.833426 
4823.000000	64.809274 
4822.000000	64.796757 
4821.000000	64.797782 
4820.000000	64.811515 
4819.000000	64.834570 
4818.000000	64.861106 
4817.000000	64.883995 
4816.000000	64.896011 
4815.000000	64.891147 
4814.000000	64.865779 
4813.000000	64.819598 
4812.000000	64.755344 
4811.000000	64.679002 
4810.000000	64.598608 
4809.000000	64.523172 
4808.000000	64.460635 
4807.000000	64.417290 
4806.000000	64.396619 
4805.000000	64.399266 
4804.000000	64.422917 
4803.000000	64.463710 
4802.000000	64.516711 
4801.000000	64.577341 
4800.000000	64.641404 
4799.000000	64.706110 
4798.000000	64.769697 
4797.000000	64.831089 
4796.000000	64.889025 
4795.000000	64.941859 
4794.000000	64.987206 
4793.000000	65.022444 
4792.000000	65.045022 
4791.000000	65.053200 
4790.000000	65.046381 
4789.000000	65.025949 
4788.000000	64.994645 
4787.000000	64.956331 
4786.000000	64.914894 
4785.000000	64.874029 
4784.000000	64.836168 
4783.000000	64.802312 
4782.000000	64.772200 
4781.000000	64.745163 
4780.000000	64.720106 
4779.000000	64.696216 
4778.000000	64.673447 
4777.000000	64.652371 
4776.000000	64.634537 
4775.000000	64.621448 
4774.000000	64.614820 
4773.000000	64.615297 
4772.000000	64.623022 
4771.000000	64.637207 
4770.000000	64.656305 
4769.000000	64.677929 
4768.000000	64.699482 
4767.000000	64.718604 
4766.000000	64.733147 
4765.000000	64.741420 
4764.000000	64.742588 
4763.000000	64.736771 
4762.000000	64.724898 
4761.000000	64.708876 
4760.000000	64.691448 
4759.000000	64.676022 
4758.000000	64.666199 
4757.000000	64.665246 
4756.000000	64.675354 
4755.000000	64.697289 
4754.000000	64.730405 
4753.000000	64.772224 
4752.000000	64.818429 
4751.000000	64.863729 
4750.000000	64.902806 
4749.000000	64.931130 
4748.000000	64.945435 
4747.000000	64.944577 
4746.000000	64.929723 
4745.000000	64.903974 
4744.000000	64.871668 
4743.000000	64.837765 
4742.000000	64.806818 
4741.000000	64.782166 
4740.000000	64.765620 
4739.000000	64.757204 
4738.000000	64.755511 
4737.000000	64.758157 
4736.000000	64.762878 
4735.000000	64.767360 
4734.000000	64.770483 
4733.000000	64.772272 
4732.000000	64.774346 
4731.000000	64.778971 
4730.000000	64.788818 
4729.000000	64.806199 
4728.000000	64.832639 
4727.000000	64.868259 
4726.000000	64.911675 
4725.000000	64.960551 
4724.000000	65.011620 
4723.000000	65.061116 
4722.000000	65.105175 
4721.000000	65.140843 
4720.000000	65.165615 
4719.000000	65.178132 
4718.000000	65.177893 
4717.000000	65.165424 
4716.000000	65.142059 
4715.000000	65.109944 
4714.000000	65.071344 
4713.000000	65.028643 
4712.000000	64.984107 
4711.000000	64.939880 
4710.000000	64.897489 
4709.000000	64.858102 
4708.000000	64.822721 
4707.000000	64.792442 
4706.000000	64.768934 
4705.000000	64.754009 
4704.000000	64.749288 
4703.000000	64.755463 
4702.000000	64.771819 
4701.000000	64.795827 
4700.000000	64.822721 
4699.000000	64.846611 
4698.000000	64.861512 
4697.000000	64.862847 
4696.000000	64.848423 
4695.000000	64.819645 
4694.000000	64.780998 
4693.000000	64.739465 
4692.000000	64.702773 
4691.000000	64.677882 
4690.000000	64.669299 
4689.000000	64.678382 
4688.000000	64.703226 
4687.000000	64.739179 
4686.000000	64.780187 
4685.000000	64.820194 
4684.000000	64.854502 
4683.000000	64.880275 
4682.000000	64.896631 
4681.000000	64.904022 
4680.000000	64.903640 
4679.000000	64.896559 
4678.000000	64.883518 
4677.000000	64.864850 
4676.000000	64.840769 
4675.000000	64.812088 
4674.000000	64.780402 
4673.000000	64.748239 
4672.000000	64.718961 
4671.000000	64.695811 
4670.000000	64.681529 
4669.000000	64.677381 
4668.000000	64.683604 
4667.000000	64.698863 
4666.000000	64.721679 
4665.000000	64.750242 
4664.000000	64.783906 
4663.000000	64.822864 
4662.000000	64.868068 
4661.000000	64.920353 
4660.000000	64.978933 
4659.000000	65.040588 
4658.000000	65.099668 
4657.000000	65.148568 
4656.000000	65.179371 
4655.000000	65.185427 
4654.000000	65.163016 
4653.000000	65.112280 
4652.000000	65.037703 
4651.000000	64.947104 
4650.000000	64.850091 
4649.000000	64.756608 
4648.000000	64.675092 
4647.000000	64.611411 
4646.000000	64.568734 
4645.000000	64.547419 
4644.000000	64.545464 
4643.000000	64.559197 
4642.000000	64.584040 
4641.000000	64.615201 
4640.000000	64.647269 
4639.000000	64.675951 
4638.000000	64.697408 
4637.000000	64.710307 
4636.000000	64.715385 
4635.000000	64.716053 
4634.000000	64.717078 
4633.000000	64.723515 
4632.000000	64.739012 
4631.000000	64.764285 
4630.000000	64.796376 
4629.000000	64.829397 
4628.000000	64.855909 
4627.000000	64.868545 
4626.000000	64.862346 
4625.000000	64.836263 
4624.000000	64.793896 
4623.000000	64.742636 
4622.000000	64.692473 
4621.000000	64.652943 
4620.000000	64.631938 
4619.000000	64.633798 
4618.000000	64.659261 
4617.000000	64.705610 
4616.000000	64.767813 
4615.000000	64.839696 
4614.000000	64.914870 
4613.000000	64.987730 
4612.000000	65.053415 
4611.000000	65.107607 
4610.000000	65.147328 
4609.000000	65.170955 
4608.000000	65.178442 
4607.000000	65.171194 
4606.000000	65.151691 
4605.000000	65.123128 
4604.000000	65.088510 
4603.000000	65.050458 
4602.000000	65.010595 
4601.000000	64.970040 
4600.000000	64.929652 
4599.000000	64.891052 
4598.000000	64.857578 
4597.000000	64.833688 
4596.000000	64.824986 
4595.000000	64.835643 
4594.000000	64.866900 
4593.000000	64.915013 
4592.000000	64.971518 
4591.000000	65.023469 
4590.000000	65.055966 
4589.000000	65.055274 
4588.000000	65.012478 
4587.000000	64.926028 
4586.000000	64.802169 
4585.000000	64.654588 
4584.000000	64.501142 
4583.000000	64.361071 
4582.000000	64.250779 
4581.000000	64.180827 
4580.000000	64.154291 
4579.000000	64.166665 
4578.000000	64.207816 
4577.000000	64.264130 
4576.000000	64.322185 
4575.000000	64.370512 
4574.000000	64.402318 
4573.000000	64.415097 
4572.000000	64.411520 
4571.000000	64.397668 
4570.000000	64.382243 
4569.000000	64.374065 
4568.000000	64.380645 
4567.000000	64.407229 
4566.000000	64.455103 
4565.000000	64.522314 
4564.000000	64.603090 
4563.000000	64.689874 
4562.000000	64.773988 
4561.000000	64.847230 
4560.000000	64.903163 
4559.000000	64.938092 
4558.000000	64.951539 
4557.000000	64.946198 
4556.000000	64.927172 
4555.000000	64.900946 
4554.000000	64.874649 
4553.000000	64.855170 
4552.000000	64.847469 
4551.000000	64.853978 
4550.000000	64.874577 
4549.000000	64.906692 
4548.000000	64.945340 
4547.000000	64.983654 
4546.000000	65.014314 
4545.000000	65.030193 
4544.000000	65.025782 
4543.000000	64.998006 
4542.000000	64.946603 
4541.000000	64.874076 
4540.000000	64.785790 
4539.000000	64.688420 
4538.000000	64.589357 
4537.000000	64.495253 
4536.000000	64.410996 
4535.000000	64.339947 
4534.000000	64.283251 
4533.000000	64.241623 
4532.000000	64.215445 
4531.000000	64.205765 
4530.000000	64.213466 
4529.000000	64.239215 
4528.000000	64.282250 
4527.000000	64.339566 
4526.000000	64.405369 
4525.000000	64.471769 
4524.000000	64.529776 
4523.000000	64.571452 
4522.000000	64.591574 
4521.000000	64.588785 
4520.000000	64.565801 
4519.000000	64.529371 
4518.000000	64.487934 
4517.000000	64.449715 
4516.000000	64.420390 
4515.000000	64.402246 
4514.000000	64.393997 
4513.000000	64.391803 
4512.000000	64.390373 
4511.000000	64.385414 
4510.000000	64.374566 
4509.000000	64.358115 
4508.000000	64.338922 
4507.000000	64.320802 
4506.000000	64.308190 
4505.000000	64.304232 
4504.000000	64.310693 
4503.000000	64.327168 
4502.000000	64.351963 
4501.000000	64.382696 
4500.000000	64.416956 
4499.000000	64.452719 
4498.000000	64.488792 
4497.000000	64.524793 
4496.000000	64.560651 
4495.000000	64.596462 
4494.000000	64.632606 
4493.000000	64.669394 
4492.000000	64.707541 
4491.000000	64.747118 
4490.000000	64.787936 
4489.000000	64.828205 
4488.000000	64.865684 
4487.000000	64.896488 
4486.000000	64.916181 
4485.000000	64.919638 
4484.000000	64.903163 
4483.000000	64.864325 
4482.000000	64.803814 
4481.000000	64.724183 
4480.000000	64.630532 
4479.000000	64.528560 
4478.000000	64.424681 
4477.000000	64.323830 
4476.000000	64.229369 
4475.000000	64.142918 
4474.000000	64.065051 
4473.000000	63.995742 
4472.000000	63.935089 
4471.000000	63.883566 
4470.000000	63.842344 
4469.000000	63.813066 
4468.000000	63.797664 
4467.000000	63.797664 
4466.000000	63.814163 
4465.000000	63.847303 
4464.000000	63.896179 
4463.000000	63.958930 
4462.000000	64.032053 
4461.000000	64.110565 
4460.000000	64.187335 
4459.000000	64.254331 
4458.000000	64.302420 
4457.000000	64.323210 
4456.000000	64.310073 
4455.000000	64.260435 
4454.000000	64.175701 
4453.000000	64.062619 
4452.000000	63.930845 
4451.000000	63.791561 
4450.000000	63.655591 
4449.000000	63.531851 
4448.000000	63.427329 
4447.000000	63.346624 
4446.000000	63.293361 
4445.000000	63.270068 
4444.000000	63.279080 
4443.000000	63.321828 
4442.000000	63.398194 
4441.000000	63.505148 
4440.000000	63.636326 
4439.000000	63.781571 
4438.000000	63.928198 
4437.000000	64.061760 
4436.000000	64.167523 
4435.000000	64.232850 
4434.000000	64.249682 
4433.000000	64.215922 
4432.000000	64.136242 
4431.000000	64.021396 
4430.000000	63.887572 
4429.000000	63.752603 
4428.000000	63.633728 
4427.000000	63.544154 
4426.000000	63.493275 
4425.000000	63.482642 
4424.000000	63.506841 
4423.000000	63.554167 
4422.000000	63.610243 
4421.000000	63.659429 
4420.000000	63.687562 
4419.000000	63.685250 
4418.000000	63.649153 
4417.000000	63.581991 
4416.000000	63.491511 
4415.000000	63.389682 
4414.000000	63.291049 
4413.000000	63.210892 
4412.000000	63.161921 
4411.000000	63.158059 
4410.000000	63.209009 
4409.000000	63.308238 
4408.000000	63.438534 
4407.000000	63.581562 
4406.000000	63.720655 
4405.000000	63.838124 
4404.000000	63.926100 
4403.000000	63.988542 
4402.000000	64.040327 
4401.000000	64.103174 
4400.000000	64.198422 
4399.000000	64.336967 
4398.000000	64.519667 
4397.000000	64.736819 
4396.000000	64.970922 
4395.000000	65.202903 
4394.000000	65.414214 
4393.000000	65.594244 
4392.000000	65.731453 
4391.000000	65.814137 
4390.000000	65.833711 
4389.000000	65.791130 
4388.000000	65.694737 
4387.000000	65.572524 
4386.000000	65.480518 
4385.000000	65.510511 
4384.000000	65.775656 
4383.000000	66.397547 
4382.000000	67.494988 
4381.000000	69.134807 
4380.000000	71.316671 
4379.000000	73.927187 
4378.000000	76.742315 
4377.000000	79.450654 
4376.000000	81.701755 
4375.000000	83.190703 
4374.000000	83.737802 
4373.000000	83.321547 
4372.000000	82.113003 
4371.000000	80.396509 
4370.000000	78.515005 
4369.000000	76.763868 
4368.000000	75.335454 
4367.000000	74.281358 
4366.000000	73.537230 
4365.000000	72.956824 
4364.000000	72.388553 
4363.000000	71.707582 
4362.000000	70.863008 
4361.000000	69.867539 
4360.000000	68.791866 
4359.000000	67.734956 
4358.000000	66.798043 
4357.000000	66.051077 
4356.000000	65.523195 
4355.000000	65.204858 
4354.000000	65.056681 
4353.000000	65.024614 
4352.000000	65.055322 
4351.000000	65.109133 
4350.000000	65.165162 
4349.000000	65.203642 
4348.000000	65.218877 
4347.000000	65.207958 
4346.000000	65.174150 
4345.000000	65.114879 
4344.000000	65.031266 
4343.000000	64.932107 
4342.000000	64.826631 
4341.000000	64.724135 
4340.000000	64.630103 
4339.000000	64.543819 
4338.000000	64.463686 
4337.000000	64.390897 
4336.000000	64.322233 
4335.000000	64.250659 
4334.000000	64.174175 
4333.000000	64.096450 
4332.000000	64.022374 
4331.000000	63.957214 
4330.000000	63.906574 
4329.000000	63.874673 
4328.000000	63.858866 
4327.000000	63.853120 
4326.000000	63.852763 
4325.000000	63.854980 
4324.000000	63.856792 
4323.000000	63.857889 
4322.000000	63.861370 
4321.000000	63.871574 
4320.000000	63.892126 
4319.000000	63.924217 
4318.000000	63.965678 
4317.000000	64.010834 
4316.000000	64.051532 
4315.000000	64.079046 
4314.000000	64.086651 
4313.000000	64.070963 
4312.000000	64.033055 
4311.000000	63.978600 
4310.000000	63.916969 
4309.000000	63.858652 
4308.000000	63.812899 
4307.000000	63.786649 
4306.000000	63.783478 
4305.000000	63.802647 
4304.000000	63.840150 
4303.000000	63.889837 
4302.000000	63.945531 
4301.000000	64.002108 
4300.000000	64.057111 
4299.000000	64.110302 
4298.000000	64.163661 
4297.000000	64.219808 
4296.000000	64.280819 
4295.000000	64.347219 
4294.000000	64.416837 
4293.000000	64.485502 
4292.000000	64.546561 
4291.000000	64.593100 
4290.000000	64.618706 
4289.000000	64.619636 
4288.000000	64.595723 
4287.000000	64.550805 
4286.000000	64.493012 
4285.000000	64.433598 
4284.000000	64.385128 
4283.000000	64.358854 
4282.000000	64.362525 
4281.000000	64.398264 
4280.000000	64.461946 
4279.000000	64.543604 
4278.000000	64.628529 
4277.000000	64.700245 
4276.000000	64.744138 
4275.000000	64.750552 
4274.000000	64.716577 
4273.000000	64.647126 
4272.000000	64.553713 
4271.000000	64.451646 
4270.000000	64.356803 
4269.000000	64.281630 
4268.000000	64.233303 
4267.000000	64.211702 
4266.000000	64.211583 
4265.000000	64.223122 
4264.000000	64.235711 
4263.000000	64.239859 
4262.000000	64.229536 
4261.000000	64.203166 
4260.000000	64.162468 
4259.000000	64.112925 
4258.000000	64.061236 
4257.000000	64.014792 
4256.000000	63.979601 
4255.000000	63.960242 
4254.000000	63.959050 
4253.000000	63.976645 
4252.000000	64.012050 
4251.000000	64.062571 
4250.000000	64.124274 
4249.000000	64.192080 
4248.000000	64.260673 
4247.000000	64.325141 
4246.000000	64.381742 
4245.000000	64.427852 
4244.000000	64.462375 
4243.000000	64.485716 
4242.000000	64.499402 
4241.000000	64.505648 
4240.000000	64.506721 
4239.000000	64.504528 
4238.000000	64.500260 
4237.000000	64.495444 
4236.000000	64.491057 
4235.000000	64.487791 
4234.000000	64.486074 
4233.000000	64.486169 
4232.000000	64.488339 
4231.000000	64.492893 
4230.000000	64.500117 
4229.000000	64.510297 
4228.000000	64.524102 
4227.000000	64.542293 
4226.000000	64.565277 
4225.000000	64.592504 
4224.000000	64.621996 
4223.000000	64.650058 
4222.000000	64.671325 
4221.000000	64.680123 
4220.000000	64.671683 
4219.000000	64.644002 
4218.000000	64.598274 
4217.000000	64.539361 
4216.000000	64.475893 
4215.000000	64.417862 
4214.000000	64.374470 
4213.000000	64.352011 
4212.000000	64.352655 
4211.000000	64.373898 
4210.000000	64.409399 
4209.000000	64.450478 
4208.000000	64.487981 
4207.000000	64.514684 
4206.000000	64.527273 
4205.000000	64.525318 
4204.000000	64.510250 
4203.000000	64.484739 
4202.000000	64.451575 
4201.000000	64.412212 
4200.000000	64.366674 
4199.000000	64.314532 
4198.000000	64.255523 
4197.000000	64.190649 
4196.000000	64.122271 
4195.000000	64.054059 
4194.000000	63.990020 
4193.000000	63.933491 
4192.000000	63.886094 
4191.000000	63.846611 
4190.000000	63.812088 
4189.000000	63.778233 
4188.000000	63.742518 
4187.000000	63.703393 
4186.000000	63.664293 
4185.000000	63.631319 
4184.000000	63.615250 
4183.000000	63.626790 
4182.000000	63.677120 
4181.000000	63.773131 
4180.000000	63.917160 
4179.000000	64.104890 
4178.000000	64.325666 
4177.000000	64.563417 
4176.000000	64.799118 
4175.000000	65.013742 
4174.000000	65.191435 
4173.000000	65.321636 
4172.000000	65.400838 
4171.000000	65.431976 
4170.000000	65.422892 
4169.000000	65.383219 
4168.000000	65.323734 
4167.000000	65.252971 
4166.000000	65.177035 
4165.000000	65.098381 
4164.000000	65.018463 
4163.000000	64.937281 
4162.000000	64.855432 
4161.000000	64.774584 
4160.000000	64.697527 
4159.000000	64.629077 
4158.000000	64.574074 
4157.000000	64.538288 
4156.000000	64.525556 
4155.000000	64.538407 
4154.000000	64.576649 
4153.000000	64.637756 
4152.000000	64.716434 
4151.000000	64.805459 
4150.000000	64.896416 
4149.000000	64.980769 
4148.000000	65.050458 
4147.000000	65.100073 
4146.000000	65.127635 
4145.000000	65.134167 
4144.000000	65.123391 
4143.000000	65.101552 
4142.000000	65.075492 
4141.000000	65.051198 
4140.000000	65.031766 
4139.000000	65.017986 
4138.000000	65.007328 
4137.000000	64.995837 
4136.000000	64.978647 
4135.000000	64.951610 
4134.000000	64.912819 
4133.000000	64.863419 
4132.000000	64.807963 
4131.000000	64.752769 
4130.000000	64.705681 
4129.000000	64.673829 
4128.000000	64.661979 
4127.000000	64.671063 
4126.000000	64.698290 
4125.000000	64.737749 
4124.000000	64.781832 
4123.000000	64.822936 
4122.000000	64.855003 
4121.000000	64.874768 
4120.000000	64.881992 
4119.000000	64.878869 
4118.000000	64.868736 
4117.000000	64.854550 
4116.000000	64.838385 
4115.000000	64.820694 
4114.000000	64.800763 
4113.000000	64.777183 
4112.000000	64.749217 
4111.000000	64.716982 
4110.000000	64.682388 
4109.000000	64.648962 
4108.000000	64.620518 
4107.000000	64.601182 
4106.000000	64.593458 
4105.000000	64.598917 
4104.000000	64.616966 
4103.000000	64.646077 
4102.000000	64.683675 
4101.000000	64.727687 
4100.000000	64.776349 
4099.000000	64.828538 
4098.000000	64.883375 
4097.000000	64.939308 
4096.000000	64.993691 
4095.000000	65.042734 
4094.000000	65.081954 
4093.000000	65.107250 
4092.000000	65.115952 
4091.000000	65.107989 
4090.000000	65.086150 
4089.000000	65.055418 
4088.000000	65.022158 
4087.000000	64.992642 
4086.000000	64.971709 
4085.000000	64.961862 
4084.000000	64.962840 
4083.000000	64.972686 
4082.000000	64.987969 
4081.000000	65.005087 
4080.000000	65.020847 
4079.000000	65.033364 
4078.000000	65.041661 
4077.000000	65.045070 
4076.000000	65.043210 
4075.000000	65.035486 
4074.000000	65.021753 
4073.000000	65.002131 
4072.000000	64.977598 
4071.000000	64.950180 
4070.000000	64.922785 
4069.000000	64.899086 
4068.000000	64.882159 
4067.000000	64.873909 
4066.000000	64.875197 
4065.000000	64.885807 
4064.000000	64.904379 
4063.000000	64.928865 
4062.000000	64.957380 
4061.000000	64.988565 
4060.000000	65.021252 
4059.000000	65.054774 
4058.000000	65.088462 
4057.000000	65.122175 
4056.000000	65.155410 
4055.000000	65.187978 
4054.000000	65.219664 
4053.000000	65.250587 
4052.000000	65.281391 
4051.000000	65.312480 
4050.000000	65.343976 
4049.000000	65.375018 
4048.000000	65.404009 
4047.000000	65.428185 
4046.000000	65.444779 
4045.000000	65.450668 
4044.000000	65.444064 
4043.000000	65.424036 
4042.000000	65.391278 
4041.000000	65.347504 
4040.000000	65.295577 
4039.000000	65.238499 
4038.000000	65.179252 
4037.000000	65.120267 
4036.000000	65.063357 
4035.000000	65.009593 
4034.000000	64.959549 
4033.000000	64.913463 
4032.000000	64.871644 
4031.000000	64.834618 
4030.000000	64.803719 
4029.000000	64.779853 
4028.000000	64.764666 
4027.000000	64.759373 
4026.000000	64.765334 
4025.000000	64.782643 
4024.000000	64.810442 
4023.000000	64.846634 
4022.000000	64.887952 
4021.000000	64.930200 
4020.000000	64.968991 
4019.000000	65.000367 
4018.000000	65.021562 
4017.000000	65.031480 
4016.000000	65.030550 
4015.000000	65.020728 
4014.000000	65.004849 
4013.000000	64.986038 
4012.000000	64.966893 
4011.000000	64.949226 
4010.000000	64.933896 
4009.000000	64.921021 
4008.000000	64.909982 
4007.000000	64.899754 
4006.000000	64.889645 
4005.000000	64.879322 
4004.000000	64.868211 
4003.000000	64.855885 
4002.000000	64.841985 
4001.000000	64.826703 
4000.000000	64.810180 
3999.000000	64.793419 
3998.000000	64.777898 
3997.000000	64.765739 
3996.000000	64.759254 
3995.000000	64.760327 
3994.000000	64.770007 
3993.000000	64.787983 
3992.000000	64.812564 
3991.000000	64.840841 
3990.000000	64.869022 
3989.000000	64.893293 
3988.000000	64.910626 
3987.000000	64.919161 
3986.000000	64.918446 
3985.000000	64.909625 
3984.000000	64.895057 
3983.000000	64.877796 
3982.000000	64.861083 
3981.000000	64.848136 
3980.000000	64.841675 
3979.000000	64.843797 
3978.000000	64.855623 
3977.000000	64.877152 
3976.000000	64.906811 
3975.000000	64.942073 
3974.000000	64.979076 
3973.000000	65.013360 
3972.000000	65.040469 
3971.000000	65.056777 
3970.000000	65.060329 
3969.000000	65.051102 
3968.000000	65.031075 
3967.000000	65.004229 
3966.000000	64.975166 
3965.000000	64.948511 
3964.000000	64.927697 
3963.000000	64.914488 
3962.000000	64.908599 
3961.000000	64.908075 
3960.000000	64.909863 
3959.000000	64.910626 
3958.000000	64.907217 
3957.000000	64.897441 
3956.000000	64.880180 
3955.000000	64.855456 
3954.000000	64.824604 
3953.000000	64.790081 
3952.000000	64.754891 
3951.000000	64.722442 
3950.000000	64.696145 
3949.000000	64.678978 
3948.000000	64.673042 
3947.000000	64.679336 
3946.000000	64.697694 
3945.000000	64.726567 
3944.000000	64.763045 
3943.000000	64.803481 
3942.000000	64.843797 
3941.000000	64.880132 
3940.000000	64.909029 
3939.000000	64.928221 
3938.000000	64.936518 
3937.000000	64.934563 
3936.000000	64.924311 
3935.000000	64.908933 
3934.000000	64.892053 
3933.000000	64.877462 
3932.000000	64.868426 
3931.000000	64.866638 
3930.000000	64.871907 
3929.000000	64.882040 
3928.000000	64.893674 
3927.000000	64.902806 
3926.000000	64.905929 
3925.000000	64.900994 
3924.000000	64.887690 
3923.000000	64.867496 
3922.000000	64.842844 
3921.000000	64.816904 
3920.000000	64.792060 
3919.000000	64.769625 
3918.000000	64.749336 
3917.000000	64.730000 
3916.000000	64.709949 
3915.000000	64.687871 
3914.000000	64.663887 
3913.000000	64.639472 
3912.000000	64.617681 
3911.000000	64.602160 
3910.000000	64.596581 
3909.000000	64.603185 
3908.000000	64.622521 
3907.000000	64.653086 
3906.000000	64.691472 
3905.000000	64.732789 
3904.000000	64.771795 
3903.000000	64.803719 
3902.000000	64.825129 
3901.000000	64.834618 
3900.000000	64.832949 
3899.000000	64.822721 
3898.000000	64.808106 
3897.000000	64.793682 
3896.000000	64.783763 
3895.000000	64.781165 
3894.000000	64.786934 
3893.000000	64.800190 
3892.000000	64.818358 
3891.000000	64.838027 
3890.000000	64.856052 
3889.000000	64.870429 
3888.000000	64.881086 
3887.000000	64.889883 
3886.000000	64.900255 
3885.000000	64.915657 
3884.000000	64.938426 
3883.000000	64.968299 
3882.000000	65.002584 
3881.000000	65.035820 
3880.000000	65.061330 
3879.000000	65.072917 
3878.000000	65.066742 
3877.000000	65.042352 
3876.000000	65.003275 
3875.000000	64.956235 
3874.000000	64.909768 
3873.000000	64.872455 
3872.000000	64.850831 
3871.000000	64.847826 
3870.000000	64.862132 
3869.000000	64.889073 
3868.000000	64.921498 
3867.000000	64.951753 
3866.000000	64.973092 
3865.000000	64.981317 
3864.000000	64.975452 
3863.000000	64.957141 
3862.000000	64.930534 
3861.000000	64.900779 
3860.000000	64.873242 
3859.000000	64.852118 
3858.000000	64.840126 
3857.000000	64.838385 
3856.000000	64.846587 
3855.000000	64.863443 
3854.000000	64.887237 
3853.000000	64.916324 
3852.000000	64.949154 
3851.000000	64.984154 
3850.000000	65.019726 
3849.000000	65.053796 
3848.000000	65.083813 
3847.000000	65.106701 
3846.000000	65.119123 
3845.000000	65.118169 
3844.000000	65.102124 
3843.000000	65.070891 
3842.000000	65.026235 
3841.000000	64.971518 
3840.000000	64.911913 
3839.000000	64.852929 
3838.000000	64.799809 
3837.000000	64.756536 
3836.000000	64.725136 
3835.000000	64.705777 
3834.000000	64.697003 
3833.000000	64.696526 
3832.000000	64.701533 
3831.000000	64.709758 
3830.000000	64.719390 
3829.000000	64.729332 
3828.000000	64.738917 
3827.000000	64.747524 
3826.000000	64.754152 
3825.000000	64.757537 
3824.000000	64.756131 
3823.000000	64.748740 
3822.000000	64.735293 
3821.000000	64.716815 
3820.000000	64.695811 
3819.000000	64.676117 
3818.000000	64.662218 
3817.000000	64.658141 
3816.000000	64.666366 
3815.000000	64.687061 
3814.000000	64.718055 
3813.000000	64.755058 
3812.000000	64.792799 
3811.000000	64.825749 
3810.000000	64.849781 
3809.000000	64.862871 
3808.000000	64.865660 
3807.000000	64.860534 
3806.000000	64.851236 
3805.000000	64.841771 
3804.000000	64.835381 
3803.000000	64.833760 
3802.000000	64.836764 
3801.000000	64.843130 
3800.000000	64.850759 
3799.000000	64.857625 
3798.000000	64.862036 
3797.000000	64.863085 
3796.000000	64.860272 
3795.000000	64.853262 
3794.000000	64.841628 
3793.000000	64.824986 
3792.000000	64.803314 
3791.000000	64.777565 
3790.000000	64.749860 
3789.000000	64.723372 
3788.000000	64.702224 
3787.000000	64.690446 
3786.000000	64.691090 
3785.000000	64.705276 
3784.000000	64.731597 
3783.000000	64.766502 
3782.000000	64.804697 
3781.000000	64.840579 
3780.000000	64.869260 
3779.000000	64.887714 
3778.000000	64.895105 
3777.000000	64.892935 
3776.000000	64.884352 
3775.000000	64.873170 
3774.000000	64.862895 
3773.000000	64.855957 
3772.000000	64.853501 
3771.000000	64.855360 
3770.000000	64.860630 
3769.000000	64.867615 
3768.000000	64.874339 
3767.000000	64.878821 
3766.000000	64.879274 
3765.000000	64.874219 
3764.000000	64.862751 
3763.000000	64.844679 
3762.000000	64.820861 
3761.000000	64.793181 
3760.000000	64.764690 
3759.000000	64.739012 
3758.000000	64.720225 
3757.000000	64.711761 
3756.000000	64.715695 
3755.000000	64.732456 
3754.000000	64.760231 
3753.000000	64.795517 
3752.000000	64.833402 
3751.000000	64.868450 
3750.000000	64.896035 
3749.000000	64.913010 
3748.000000	64.918279 
3747.000000	64.912629 
3746.000000	64.898657 
3745.000000	64.879870 
3744.000000	64.860153 
3743.000000	64.842796 
3742.000000	64.830183 
3741.000000	64.823651 
3740.000000	64.823627 
3739.000000	64.829921 
3738.000000	64.842009 
3737.000000	64.859223 
3736.000000	64.880871 
3735.000000	64.906167 
3734.000000	64.934015 
3733.000000	64.963102 
3732.000000	64.991855 
3731.000000	65.018558 
3730.000000	65.041542 
3729.000000	65.059375 
3728.000000	65.071511 
3727.000000	65.077900 
3726.000000	65.078830 
3725.000000	65.074825 
3724.000000	65.066647 
3723.000000	65.055012 
3722.000000	65.040779 
3721.000000	65.024685 
3720.000000	65.007495 
3719.000000	64.989948 
3718.000000	64.973068 
3717.000000	64.957499 
3716.000000	64.943885 
3715.000000	64.932632 
3714.000000	64.923954 
3713.000000	64.918017 
3712.000000	64.914989 
3711.000000	64.914894 
3710.000000	64.917731 
3709.000000	64.923286 
3708.000000	64.931297 
3707.000000	64.941382 
3706.000000	64.953207 
3705.000000	64.966344 
3704.000000	64.980697 
3703.000000	64.996314 
3702.000000	65.013742 
3701.000000	65.033483 
3700.000000	65.055704 
3699.000000	65.079951 
3698.000000	65.104770 
3697.000000	65.127754 
3696.000000	65.145945 
3695.000000	65.156674 
3694.000000	65.157842 
3693.000000	65.148806 
3692.000000	65.130662 
3691.000000	65.106010 
3690.000000	65.078687 
3689.000000	65.052890 
3688.000000	65.032339 
3687.000000	65.019392 
3686.000000	65.014958 
3685.000000	65.018296 
3684.000000	65.027308 
3683.000000	65.039110 
3682.000000	65.050792 
3681.000000	65.060043 
3680.000000	65.065360 
3679.000000	65.066289 
3678.000000	65.063118 
3677.000000	65.056920 
3676.000000	65.049052 
3675.000000	65.040731 
3674.000000	65.033125 
3673.000000	65.026497 
3672.000000	65.020895 
3671.000000	65.015482 
3670.000000	65.008926 
3669.000000	64.999771 
3668.000000	64.986777 
3667.000000	64.969253 
3666.000000	64.947485 
3665.000000	64.922976 
3664.000000	64.897918 
3663.000000	64.875459 
3662.000000	64.858841 
3661.000000	64.850807 
3660.000000	64.852905 
3659.000000	64.865326 
3658.000000	64.886713 
3657.000000	64.914369 
3656.000000	64.944791 
3655.000000	64.974451 
3654.000000	65.000486 
3653.000000	65.021443 
3652.000000	65.037155 
3651.000000	65.048718 
3650.000000	65.057563 
3649.000000	65.065145 
3648.000000	65.071964 
3647.000000	65.077614 
3646.000000	65.080499 
3645.000000	65.078711 
3644.000000	65.070843 
3643.000000	65.056395 
3642.000000	65.036869 
3641.000000	65.015506 
3640.000000	64.997053 
3639.000000	64.986491 
3638.000000	64.988255 
3637.000000	65.004897 
3636.000000	65.036559 
3635.000000	65.080833 
3634.000000	65.132975 
3633.000000	65.186977 
3632.000000	65.236616 
3631.000000	65.276479 
3630.000000	65.302848 
3629.000000	65.314126 
3628.000000	65.310859 
3627.000000	65.295338 
3626.000000	65.271186 
3625.000000	65.242624 
3624.000000	65.214037 
3623.000000	65.188932 
3622.000000	65.170288 
3621.000000	65.159320 
3620.000000	65.156221 
3619.000000	65.159153 
3618.000000	65.165257 
3617.000000	65.170931 
3616.000000	65.172290 
3615.000000	65.166664 
3614.000000	65.152692 
3613.000000	65.131521 
3612.000000	65.106129 
3611.000000	65.080881 
3610.000000	65.060424 
3609.000000	65.048408 
3608.000000	65.046501 
3607.000000	65.053796 
3606.000000	65.066885 
3605.000000	65.080809 
3604.000000	65.090441 
3603.000000	65.091776 
3602.000000	65.083336 
3601.000000	65.066266 
3600.000000	65.044236 
3599.000000	65.022540 
3598.000000	65.006804 
3597.000000	65.001058 
3596.000000	65.007209 
3595.000000	65.024518 
3594.000000	65.049672 
3593.000000	65.078330 
3592.000000	65.105557 
3591.000000	65.127134 
3590.000000	65.140485 
3589.000000	65.144920 
3588.000000	65.141725 
3587.000000	65.133166 
3586.000000	65.122270 
3585.000000	65.111851 
3584.000000	65.104293 
3583.000000	65.101051 
3582.000000	65.102767 
3581.000000	65.109276 
3580.000000	65.119624 
3579.000000	65.132522 
3578.000000	65.146350 
3577.000000	65.159583 
3576.000000	65.170812 
3575.000000	65.178871 
3574.000000	65.183186 
3573.000000	65.183496 
3572.000000	65.179967 
3571.000000	65.173006 
3570.000000	65.163040 
3569.000000	65.150785 
3568.000000	65.136933 
3567.000000	65.122699 
3566.000000	65.109586 
3565.000000	65.099692 
3564.000000	65.095376 
3563.000000	65.098762 
3562.000000	65.111374 
3561.000000	65.132999 
3560.000000	65.161800 
3559.000000	65.193772 
3558.000000	65.223407 
3557.000000	65.244841 
3556.000000	65.252876 
3555.000000	65.244603 
3554.000000	65.220022 
3553.000000	65.182375 
3552.000000	65.137267 
3551.000000	65.091633 
3550.000000	65.052151 
3549.000000	65.023899 
3548.000000	65.009117 
3547.000000	65.007090 
3546.000000	65.014386 
3545.000000	65.026187 
3544.000000	65.037465 
3543.000000	65.044260 
3542.000000	65.044546 
3541.000000	65.038514 
3540.000000	65.028309 
3539.000000	65.016794 
3538.000000	65.007114 
3537.000000	65.001869 
3536.000000	65.002536 
3535.000000	65.009140 
3534.000000	65.020298 
3533.000000	65.033817 
3532.000000	65.047192 
3531.000000	65.058135 
3530.000000	65.065240 
3529.000000	65.068340 
3528.000000	65.068364 
3527.000000	65.067028 
3526.000000	65.066337 
3525.000000	65.067958 
3524.000000	65.072917 
3523.000000	65.081262 
3522.000000	65.092158 
3521.000000	65.104317 
3520.000000	65.116453 
3519.000000	65.127730 
3518.000000	65.137600 
3517.000000	65.145707 
3516.000000	65.152049 
3515.000000	65.156269 
3514.000000	65.157485 
3513.000000	65.154027 
3512.000000	65.143752 
3511.000000	65.125131 
3510.000000	65.097784 
3509.000000	65.062975 
3508.000000	65.023684 
3507.000000	64.984154 
3506.000000	64.948701 
3505.000000	64.920949 
3504.000000	64.902973 
3503.000000	64.894866 
3502.000000	64.894819 
3501.000000	64.899992 
3500.000000	64.907121 
3499.000000	64.913439 
3498.000000	64.917540 
3497.000000	64.919114 
3496.000000	64.919137 
3495.000000	64.919471 
3494.000000	64.922332 
3493.000000	64.929842 
3492.000000	64.943432 
3491.000000	64.964056 
3490.000000	64.991497 
3489.000000	65.024852 
3488.000000	65.061736 
3487.000000	65.098738 
3486.000000	65.131568 
3485.000000	65.155577 
3484.000000	65.166807 
3483.000000	65.163040 
3482.000000	65.144681 
3481.000000	65.115046 
3480.000000	65.079879 
3479.000000	65.046548 
3478.000000	65.021991 
3477.000000	65.011620 
3476.000000	65.017461 
3475.000000	65.037846 
3474.000000	65.067648 
3473.000000	65.099787 
3472.000000	65.126657 
3471.000000	65.142035 
3470.000000	65.142416 
3469.000000	65.127921 
3468.000000	65.101909 
3467.000000	65.070056 
3466.000000	65.038585 
3465.000000	65.012931 
3464.000000	64.996671 
3463.000000	64.990925 
3462.000000	64.994645 
3461.000000	65.005207 
3460.000000	65.019512 
3459.000000	65.034699 
3458.000000	65.048623 
3457.000000	65.060162 
3456.000000	65.068864 
3455.000000	65.075039 
3454.000000	65.078473 
3453.000000	65.079379 
3452.000000	65.077972 
3451.000000	65.074825 
3450.000000	65.071010 
3449.000000	65.068244 
3448.000000	65.068745 
3447.000000	65.074729 
3446.000000	65.087866 
3445.000000	65.108633 
3444.000000	65.135908 
3443.000000	65.167117 
3442.000000	65.198779 
3441.000000	65.226984 
3440.000000	65.248370 
3439.000000	65.260767 
3438.000000	65.263462 
3437.000000	65.257167 
3436.000000	65.243649 
3435.000000	65.225291 
3434.000000	65.204238 
3433.000000	65.181970 
3432.000000	65.159058 
3431.000000	65.135836 
3430.000000	65.111947 
3429.000000	65.087175 
3428.000000	65.061187 
3427.000000	65.034151 
3426.000000	65.006422 
3425.000000	64.978408 
3424.000000	64.950489 
3423.000000	64.922833 
3422.000000	64.896011 
3421.000000	64.870762 
3420.000000	64.848399 
3419.000000	64.830517 
3418.000000	64.818882 
3417.000000	64.815235 
3416.000000	64.820337 
3415.000000	64.833641 
3414.000000	64.853024 
3413.000000	64.875054 
3412.000000	64.895486 
3411.000000	64.910197 
3410.000000	64.916110 
3409.000000	64.912056 
3408.000000	64.899039 
3407.000000	64.880228 
3406.000000	64.859986 
3405.000000	64.843344 
3404.000000	64.834499 
3403.000000	64.836454 
3402.000000	64.850282 
3401.000000	64.875030 
3400.000000	64.908480 
3399.000000	64.947080 
3398.000000	64.986705 
3397.000000	65.023159 
3396.000000	65.052890 
3395.000000	65.072989 
3394.000000	65.081715 
3393.000000	65.078544 
3392.000000	65.064191 
3391.000000	65.040493 
3390.000000	65.009999 
3389.000000	64.976048 
3388.000000	64.942574 
3387.000000	64.913463 
3386.000000	64.892220 
3385.000000	64.881634 
3384.000000	64.883279 
3383.000000	64.897322 
3382.000000	64.922261 
3381.000000	64.955091 
3380.000000	64.991712 
3379.000000	65.027666 
3378.000000	65.059018 
3377.000000	65.082430 
3376.000000	65.096235 
3375.000000	65.100574 
3374.000000	65.097022 
3373.000000	65.088319 
3372.000000	65.077137 
3371.000000	65.065717 
3370.000000	65.055012 
3369.000000	65.044856 
3368.000000	65.034055 
3367.000000	65.021538 
3366.000000	65.006780 
3365.000000	64.990258 
3364.000000	64.973783 
3363.000000	64.960193 
3362.000000	64.952540 
3361.000000	64.953351 
3360.000000	64.964079 
3359.000000	64.984631 
3358.000000	65.013384 
3357.000000	65.047144 
3356.000000	65.081644 
3355.000000	65.112042 
3354.000000	65.134263 
3353.000000	65.144968 
3352.000000	65.142273 
3351.000000	65.125823 
3350.000000	65.096974 
3349.000000	65.058541 
3348.000000	65.014290 
3347.000000	64.968395 
3346.000000	64.924955 
3345.000000	64.887428 
3344.000000	64.858269 
3343.000000	64.838671 
3342.000000	64.828705 
3341.000000	64.827442 
3340.000000	64.833498 
3339.000000	64.844942 
3338.000000	64.859604 
3337.000000	64.875006 
3336.000000	64.888596 
3335.000000	64.897704 
3334.000000	64.900112 
3333.000000	64.894819 
3332.000000	64.882588 
3331.000000	64.866113 
3330.000000	64.850020 
3329.000000	64.840078 
3328.000000	64.842200 
3327.000000	64.860844 
3326.000000	64.898133 
3325.000000	64.953088 
3324.000000	65.021586 
3323.000000	65.096855 
3322.000000	65.170931 
3321.000000	65.236163 
3320.000000	65.286707 
3319.000000	65.319514 
3318.000000	65.334224 
3317.000000	65.332841 
3316.000000	65.319013 
3315.000000	65.297126 
3314.000000	65.271067 
3313.000000	65.243744 
3312.000000	65.216994 
3311.000000	65.191817 
3310.000000	65.168309 
3309.000000	65.146160 
3308.000000	65.125060 
3307.000000	65.105056 
3306.000000	65.086627 
3305.000000	65.070772 
3304.000000	65.058565 
3303.000000	65.050983 
3302.000000	65.048384 
3301.000000	65.050339 
3300.000000	65.055251 
3299.000000	65.060639 
3298.000000	65.063476 
3297.000000	65.061092 
3296.000000	65.051341 
3295.000000	65.033817 
3294.000000	65.009808 
3293.000000	64.982247 
3292.000000	64.954972 
3291.000000	64.931917 
3290.000000	64.916324 
3289.000000	64.909887 
3288.000000	64.912104 
3287.000000	64.921188 
3286.000000	64.934492 
3285.000000	64.949560 
3284.000000	64.964652 
3283.000000	64.979386 
3282.000000	64.994454 
3281.000000	65.011072 
3280.000000	65.030455 
3279.000000	65.052914 
3278.000000	65.077590 
3277.000000	65.102338 
3276.000000	65.124344 
3275.000000	65.140938 
3274.000000	65.150213 
3273.000000	65.151906 
3272.000000	65.147137 
3271.000000	65.138220 
3270.000000	65.127825 
3269.000000	65.118551 
3268.000000	65.112018 
3267.000000	65.108871 
3266.000000	65.108346 
3265.000000	65.109181 
3264.000000	65.109610 
3263.000000	65.107965 
3262.000000	65.103101 
3261.000000	65.094494 
3260.000000	65.082669 
3259.000000	65.068864 
3258.000000	65.054965 
3257.000000	65.042972 
3256.000000	65.034604 
3255.000000	65.030956 
3254.000000	65.032124 
3253.000000	65.037131 
3252.000000	65.044212 
3251.000000	65.051341 
3250.000000	65.056443 
3249.000000	65.058279 
3248.000000	65.056800 
3247.000000	65.053510 
3246.000000	65.050745 
3245.000000	65.051436 
3244.000000	65.058088 
3243.000000	65.072226 
3242.000000	65.093684 
3241.000000	65.120530 
3240.000000	65.149664 
3239.000000	65.177154 
3238.000000	65.199613 
3237.000000	65.214228 
3236.000000	65.219545 
3235.000000	65.215325 
3234.000000	65.202760 
3233.000000	65.183830 
3232.000000	65.160870 
3231.000000	65.136361 
3230.000000	65.112638 
3229.000000	65.091586 
3228.000000	65.074586 
3227.000000	65.062546 
3226.000000	65.055990 
3225.000000	65.054774 
3224.000000	65.058135 
3223.000000	65.064597 
3222.000000	65.072226 
3221.000000	65.078759 
3220.000000	65.082263 
3219.000000	65.080928 
3218.000000	65.073919 
3217.000000	65.061450 
3216.000000	65.044689 
3215.000000	65.025663 
3214.000000	65.006756 
3213.000000	64.990377 
3212.000000	64.978408 
3211.000000	64.971947 
3210.000000	64.971280 
3209.000000	64.975810 
3208.000000	64.984512 
3207.000000	64.996075 
3206.000000	65.009593 
3205.000000	65.024733 
3204.000000	65.041685 
3203.000000	65.060997 
3202.000000	65.083003 
3201.000000	65.107488 
3200.000000	65.133333 
3199.000000	65.158462 
3198.000000	65.179872 
3197.000000	65.194153 
3196.000000	65.198349 
3195.000000	65.190672 
3194.000000	65.170645 
3193.000000	65.139603 
3192.000000	65.100550 
3191.000000	65.057897 
3190.000000	65.016531 
3189.000000	64.981126 
3188.000000	64.955449 
3187.000000	64.941596 
3186.000000	64.939928 
3185.000000	64.948892 
3184.000000	64.965558 
3183.000000	64.986062 
3182.000000	65.006375 
3181.000000	65.022945 
3180.000000	65.033268 
3179.000000	65.036511 
3178.000000	65.033221 
3177.000000	65.025186 
3176.000000	65.014696 
3175.000000	65.004181 
3174.000000	64.995527 
3173.000000	64.989638 
3172.000000	64.986467 
3171.000000	64.985322 
3170.000000	64.985370 
3169.000000	64.986181 
3168.000000	64.987802 
3167.000000	64.990878 
3166.000000	64.996218 
3165.000000	65.004515 
3164.000000	65.015554 
3163.000000	65.028238 
3162.000000	65.040421 
3161.000000	65.049505 
3160.000000	65.053009 
3159.000000	65.049290 
3158.000000	65.038299 
3157.000000	65.021753 
3156.000000	65.002918 
3155.000000	64.985823 
3154.000000	64.974069 
3153.000000	64.970111 
3152.000000	64.974141 
3151.000000	64.984083 
3150.000000	64.995837 
3149.000000	65.004515 
3148.000000	65.005564 
3147.000000	64.996218 
3146.000000	64.976310 
3145.000000	64.948654 
3144.000000	64.918279 
3143.000000	64.891338 
3142.000000	64.873790 
3141.000000	64.869761 
3140.000000	64.880371 
3139.000000	64.903235 
3138.000000	64.933586 
3137.000000	64.965033 
3136.000000	64.991331 
3135.000000	65.007758 
3134.000000	65.012001 
3133.000000	65.004658 
3132.000000	64.988493 
3131.000000	64.967656 
3130.000000	64.946103 
3129.000000	64.927124 
3128.000000	64.912581 
3127.000000	64.903020 
3126.000000	64.897942 
3125.000000	64.896559 
3124.000000	64.898443 
3123.000000	64.903664 
3122.000000	64.912867 
3121.000000	64.926815 
3120.000000	64.945960 
3119.000000	64.970064 
3118.000000	64.997959 
3117.000000	65.028119 
3116.000000	65.058994 
3115.000000	65.089392 
3114.000000	65.118622 
3113.000000	65.146732 
3112.000000	65.173768 
3111.000000	65.199971 
3110.000000	65.224814 
3109.000000	65.247058 
3108.000000	65.264844 
3107.000000	65.276122 
3106.000000	65.279030 
3105.000000	65.272736 
3104.000000	65.257477 
3103.000000	65.234732 
3102.000000	65.206933 
3101.000000	65.176820 
3100.000000	65.147161 
3099.000000	65.120244 
3098.000000	65.097761 
3097.000000	65.080738 
3096.000000	65.069723 
3095.000000	65.064930 
3094.000000	65.065979 
3093.000000	65.072131 
3092.000000	65.081977 
3091.000000	65.093684 
3090.000000	65.105462 
3089.000000	65.115976 
3088.000000	65.124559 
3087.000000	65.131235 
3086.000000	65.137100 
3085.000000	65.143513 
3084.000000	65.151691 
3083.000000	65.162086 
3082.000000	65.174174 
3081.000000	65.186333 
3080.000000	65.196180 
3079.000000	65.201449 
3078.000000	65.200853 
3077.000000	65.194272 
3076.000000	65.183424 
3075.000000	65.170979 
3074.000000	65.159821 
3073.000000	65.152287 
3072.000000	65.149450 
3071.000000	65.150904 
3070.000000	65.154814 
3069.000000	65.158820 
3068.000000	65.160751 
3067.000000	65.159130 
3066.000000	65.153264 
3065.000000	65.143537 
3064.000000	65.131020 
3063.000000	65.117216 
3062.000000	65.103316 
3061.000000	65.090227 
3060.000000	65.078282 
3059.000000	65.067410 
3058.000000	65.057349 
3057.000000	65.047550 
3056.000000	65.037775 
3055.000000	65.027713 
3054.000000	65.017557 
3053.000000	65.007281 
3052.000000	64.997267 
3051.000000	64.988207 
3050.000000	64.981079 
3049.000000	64.977121 
3048.000000	64.977216 
3047.000000	64.981818 
3046.000000	64.990544 
3045.000000	65.002155 
3044.000000	65.015006 
3043.000000	65.027403 
3042.000000	65.038108 
3041.000000	65.046620 
3040.000000	65.053200 
3039.000000	65.058803 
3038.000000	65.064430 
3037.000000	65.070819 
3036.000000	65.078234 
3035.000000	65.086150 
3034.000000	65.093588 
3033.000000	65.099096 
3032.000000	65.101361 
3031.000000	65.099334 
3030.000000	65.092658 
3029.000000	65.081715 
3028.000000	65.067410 
3027.000000	65.051126 
3026.000000	65.034437 
3025.000000	65.019011 
3024.000000	65.006470 
3023.000000	64.998292 
3022.000000	64.995527 
3021.000000	64.998745 
3020.000000	65.007710 
3019.000000	65.021467 
3018.000000	65.038037 
3017.000000	65.055179 
3016.000000	65.070486 
3015.000000	65.082168 
3014.000000	65.089058 
3013.000000	65.090894 
3012.000000	65.088343 
3011.000000	65.082597 
3010.000000	65.074944 
3009.000000	65.066599 
3008.000000	65.058326 
3007.000000	65.050530 
3006.000000	65.043210 
3005.000000	65.036249 
3004.000000	65.029501 
3003.000000	65.023040 
3002.000000	65.017223 
3001.000000	65.012335 
3000.000000	65.008449 
2999.000000	65.005350 
2998.000000	65.002274 
2997.000000	64.998292 
2996.000000	64.992284 
2995.000000	64.983296 
2994.000000	64.970731 
2993.000000	64.954733 
2992.000000	64.936089 
2991.000000	64.916038 
2990.000000	64.896345 
2989.000000	64.878749 
2988.000000	64.864993 
2987.000000	64.856386 
2986.000000	64.853835 
2985.000000	64.857625 
2984.000000	64.867615 
2983.000000	64.883160 
2982.000000	64.903402 
2981.000000	64.927411 
2980.000000	64.954113 
2979.000000	64.982438 
2978.000000	65.011477 
2977.000000	65.040111 
2976.000000	65.067315 
2975.000000	65.091633 
2974.000000	65.111446 
2973.000000	65.124607 
2972.000000	65.129065 
2971.000000	65.123009 
2970.000000	65.105438 
2969.000000	65.076446 
2968.000000	65.037631 
2967.000000	64.991831 
2966.000000	64.942884 
2965.000000	64.895296 
2964.000000	64.853286 
2963.000000	64.820623 
2962.000000	64.800071 
2961.000000	64.793038 
2960.000000	64.799356 
2959.000000	64.817476 
2958.000000	64.844703 
2957.000000	64.877414 
2956.000000	64.911603 
2955.000000	64.943289 
2954.000000	64.969325 
2953.000000	64.987373 
2952.000000	64.996290 
2951.000000	64.996218 
2950.000000	64.988207 
2949.000000	64.974045 
2948.000000	64.955711 
2947.000000	64.935064 
2946.000000	64.913439 
2945.000000	64.891934 
2944.000000	64.871215 
2943.000000	64.851975 
2942.000000	64.834952 
2941.000000	64.821267 
2940.000000	64.811778 
2939.000000	64.806914 
2938.000000	64.806437 
2937.000000	64.809441 
2936.000000	64.814209 
2935.000000	64.818215 
2934.000000	64.819192 
2933.000000	64.815425 
2932.000000	64.806032 
2931.000000	64.791059 
2930.000000	64.771628 
2929.000000	64.749622 
2928.000000	64.726996 
2927.000000	64.705491 
2926.000000	64.686322 
2925.000000	64.670109 
2924.000000	64.657163 
2923.000000	64.647698 
2922.000000	64.641833 
2921.000000	64.639949 
2920.000000	64.642310 
2919.000000	64.649510 
2918.000000	64.661431 
2917.000000	64.678072 
2916.000000	64.698839 
2915.000000	64.723253 
2914.000000	64.750742 
2913.000000	64.780664 
2912.000000	64.812397 
2911.000000	64.845180 
2910.000000	64.877986 
2909.000000	64.909410 
2908.000000	64.937710 
2907.000000	64.961147 
2906.000000	64.978361 
2905.000000	64.988613 
2904.000000	64.991974 
2903.000000	64.989566 
2902.000000	64.983367 
2901.000000	64.975452 
2900.000000	64.967513 
2899.000000	64.960575 
2898.000000	64.954638 
2897.000000	64.948821 
2896.000000	64.941906 
2895.000000	64.932727 
2894.000000	64.920735 
2893.000000	64.906430 
2892.000000	64.891076 
2891.000000	64.876389 
2890.000000	64.864039 
2889.000000	64.855074 
2888.000000	64.849638 
2887.000000	64.846706 
2886.000000	64.844703 
2885.000000	64.841938 
2884.000000	64.837336 
2883.000000	64.830923 
2882.000000	64.824008 
2881.000000	64.819121 
2880.000000	64.819240 
2879.000000	64.826869 
2878.000000	64.843344 
2877.000000	64.868378 
2876.000000	64.899754 
2875.000000	64.933943 
2874.000000	64.966654 
2873.000000	64.993667 
2872.000000	65.012001 
2871.000000	65.020132 
2870.000000	65.017986 
2869.000000	65.006566 
2868.000000	64.987659 
2867.000000	64.963150 
2866.000000	64.934515 
2865.000000	64.902806 
2864.000000	64.868760 
2863.000000	64.833307 
2862.000000	64.797830 
2861.000000	64.764237 
2860.000000	64.735198 
2859.000000	64.713406 
2858.000000	64.701032 
2857.000000	64.699363 
2856.000000	64.707994 
2855.000000	64.725422 
2854.000000	64.748811 
2853.000000	64.775228 
2852.000000	64.801812 
2851.000000	64.826869 
2850.000000	64.849829 
2849.000000	64.871430 
2848.000000	64.893245 
2847.000000	64.917182 
2846.000000	64.944505 
2845.000000	64.975666 
2844.000000	65.009546 
2843.000000	65.043759 
2842.000000	65.074658 
2841.000000	65.098381 
2840.000000	65.111470 
2839.000000	65.111756 
2838.000000	65.099000 
2837.000000	65.074872 
2836.000000	65.042901 
2835.000000	65.007638 
2834.000000	64.973902 
2833.000000	64.945983 
2832.000000	64.926767 
2831.000000	64.917540 
2830.000000	64.917993 
2829.000000	64.926505 
2828.000000	64.940762 
2827.000000	64.958310 
2826.000000	64.977216 
2825.000000	64.996027 
2824.000000	65.014076 
2823.000000	65.031027 
2822.000000	65.046811 
2821.000000	65.061330 
2820.000000	65.074372 
2819.000000	65.085625 
2818.000000	65.094923 
2817.000000	65.102195 
2816.000000	65.107655 
2815.000000	65.111660 
2814.000000	65.114712 
2813.000000	65.117073 
2812.000000	65.118956 
2811.000000	65.120148 
2810.000000	65.120053 
2809.000000	65.117979 
2808.000000	65.113329 
2807.000000	65.105676 
2806.000000	65.094852 
2805.000000	65.081214 
2804.000000	65.065312 
2803.000000	65.048146 
2802.000000	65.030789 
2801.000000	65.014767 
2800.000000	65.001535 
2799.000000	64.992737 
2798.000000	64.990019 
2797.000000	64.994692 
2796.000000	65.007710 
2795.000000	65.029215 
2794.000000	65.058112 
2793.000000	65.092325 
2792.000000	65.128755 
2791.000000	65.163540 
2790.000000	65.192985 
2789.000000	65.213942 
2788.000000	65.224432 
2787.000000	65.224218 
2786.000000	65.214347 
2785.000000	65.197253 
2784.000000	65.175628 
2783.000000	65.152525 
2782.000000	65.130209 
2781.000000	65.110421 
2780.000000	65.093851 
2779.000000	65.080642 
2778.000000	65.070486 
2777.000000	65.062832 
2776.000000	65.057134 
2775.000000	65.053009 
2774.000000	65.050268 
2773.000000	65.049028 
2772.000000	65.049505 
2771.000000	65.051937 
2770.000000	65.056490 
2769.000000	65.063238 
2768.000000	65.072107 
2767.000000	65.082716 
2766.000000	65.094804 
2765.000000	65.108060 
2764.000000	65.122151 
2763.000000	65.136694 
2762.000000	65.151572 
2761.000000	65.166449 
2760.000000	65.181088 
2759.000000	65.194821 
2758.000000	65.206813 
2757.000000	65.216183 
2756.000000	65.222048 
2755.000000	65.223741 
2754.000000	65.221118 
2753.000000	65.214586 
2752.000000	65.205478 
2751.000000	65.195226 
2750.000000	65.185308 
2749.000000	65.176320 
2748.000000	65.168476 
2747.000000	65.160965 
2746.000000	65.152311 
2745.000000	65.140867 
2744.000000	65.125250 
2743.000000	65.104746 
2742.000000	65.079617 
2741.000000	65.051007 
2740.000000	65.020847 
2739.000000	64.991283 
2738.000000	64.964294 
2737.000000	64.941143 
2736.000000	64.922356 
2735.000000	64.907813 
2734.000000	64.897179 
2733.000000	64.889693 
2732.000000	64.885163 
2731.000000	64.883613 
2730.000000	64.885950 
2729.000000	64.892983 
2728.000000	64.905667 
2727.000000	64.924383 
2726.000000	64.948844 
2725.000000	64.977884 
2724.000000	65.009164 
2723.000000	65.039634 
2722.000000	65.065789 
2721.000000	65.084457 
2720.000000	65.093326 
2719.000000	65.091586 
2718.000000	65.080285 
2717.000000	65.061974 
2716.000000	65.040469 
2715.000000	65.019941 
2714.000000	65.004181 
2713.000000	64.995980 
2712.000000	64.996337 
2711.000000	65.004420 
2710.000000	65.017914 
2709.000000	65.033769 
2708.000000	65.048694 
2707.000000	65.060329 
2706.000000	65.067338 
2705.000000	65.070223 
2704.000000	65.070557 
2703.000000	65.071010 
2702.000000	65.074443 
2701.000000	65.083193 
2700.000000	65.098738 
2699.000000	65.120744 
2698.000000	65.147900 
2697.000000	65.177083 
2696.000000	65.204691 
2695.000000	65.226578 
2694.000000	65.239262 
2693.000000	65.240287 
2692.000000	65.228986 
2691.000000	65.206599 
2690.000000	65.176033 
2689.000000	65.141820 
2688.000000	65.109157 
2687.000000	65.082931 
2686.000000	65.066981 
2685.000000	65.063023 
2684.000000	65.070343 
2683.000000	65.086197 
2682.000000	65.106439 
2681.000000	65.126419 
2680.000000	65.142226 
2679.000000	65.151500 
2678.000000	65.154004 
2677.000000	65.151333 
2676.000000	65.146350 
2675.000000	65.142273 
2674.000000	65.141534 
2673.000000	65.145421 
2672.000000	65.153598 
2671.000000	65.164494 
2670.000000	65.175485 
2669.000000	65.183925 
2668.000000	65.187478 
2667.000000	65.184903 
2666.000000	65.175700 
2665.000000	65.160226 
2664.000000	65.139412 
2663.000000	65.114378 
2662.000000	65.086603 
2661.000000	65.057635 
2660.000000	65.029430 
2659.000000	65.003895 
2658.000000	64.983153 
2657.000000	64.968895 
2656.000000	64.962172 
2655.000000	64.963126 
2654.000000	64.970946 
2653.000000	64.983868 
2652.000000	64.999556 
2651.000000	65.015697 
2650.000000	65.030312 
2649.000000	65.042471 
2648.000000	65.051937 
2647.000000	65.059423 
2646.000000	65.066027 
2645.000000	65.073180 
2644.000000	65.081882 
2643.000000	65.092873 
2642.000000	65.106391 
2641.000000	65.122270 
2640.000000	65.140271 
2639.000000	65.160012 
2638.000000	65.180993 
2637.000000	65.202450 
2636.000000	65.223407 
2635.000000	65.242385 
2634.000000	65.257573 
2633.000000	65.267014 
2632.000000	65.269160 
2631.000000	65.263080 
2630.000000	65.248632 
2629.000000	65.227079 
2628.000000	65.200424 
2627.000000	65.171289 
2626.000000	65.142345 
2625.000000	65.115690 
2624.000000	65.092754 
2623.000000	65.073895 
2622.000000	65.058922 
2621.000000	65.046977 
2620.000000	65.037345 
2619.000000	65.029621 
2618.000000	65.024137 
2617.000000	65.021419 
2616.000000	65.022349 
2615.000000	65.027594 
2614.000000	65.037441 
2613.000000	65.051269 
2612.000000	65.067744 
2611.000000	65.085029 
2610.000000	65.100979 
2609.000000	65.113568 
2608.000000	65.121197 
2607.000000	65.123033 
2606.000000	65.118956 
2605.000000	65.109682 
2604.000000	65.096545 
2603.000000	65.081167 
2602.000000	65.065264 
2601.000000	65.050363 
2600.000000	65.037369 
2599.000000	65.026521 
2598.000000	65.017390 
2597.000000	65.009117 
2596.000000	65.000462 
2595.000000	64.990377 
2594.000000	64.978337 
2593.000000	64.964461 
2592.000000	64.949560 
2591.000000	64.935016 
2590.000000	64.922451 
2589.000000	64.913368 
2588.000000	64.908552 
2587.000000	64.908194 
2586.000000	64.911413 
2585.000000	64.917063 
2584.000000	64.923644 
2583.000000	64.930057 
2582.000000	64.935851 
2581.000000	64.941501 
2580.000000	64.948058 
2579.000000	64.956879 
2578.000000	64.969229 
2577.000000	64.985823 
2576.000000	65.006375 
2575.000000	65.029764 
2574.000000	65.054059 
2573.000000	65.076899 
2572.000000	65.095853 
2571.000000	65.109181 
2570.000000	65.116047 
2569.000000	65.116548 
2568.000000	65.111541 
2567.000000	65.102815 
2566.000000	65.092182 
2565.000000	65.081357 
2564.000000	65.071463 
2563.000000	65.063333 
2562.000000	65.057110 
2561.000000	65.052628 
2560.000000	65.049767 
2559.000000	65.048480 
2558.000000	65.048980 
2557.000000	65.051841 
2556.000000	65.057682 
2555.000000	65.066957 
2554.000000	65.079903 
2553.000000	65.096330 
2552.000000	65.115451 
2551.000000	65.135788 
2550.000000	65.155673 
2549.000000	65.173387 
2548.000000	65.187263 
2547.000000	65.196132 
2546.000000	65.199518 
2545.000000	65.197801 
2544.000000	65.191960 
2543.000000	65.183520 
2542.000000	65.174198 
2541.000000	65.165543 
2540.000000	65.158677 
2539.000000	65.154123 
2538.000000	65.151906 
2537.000000	65.151596 
2536.000000	65.152549 
2535.000000	65.153884 
2534.000000	65.154981 
2533.000000	65.155267 
2532.000000	65.154504 
2531.000000	65.152597 
2530.000000	65.149426 
2529.000000	65.144944 
2528.000000	65.139055 
2527.000000	65.131568 
2526.000000	65.122485 
2525.000000	65.111970 
2524.000000	65.100359 
2523.000000	65.088367 
2522.000000	65.076994 
2521.000000	65.067291 
2520.000000	65.060281 
2519.000000	65.056705 
2518.000000	65.056991 
2517.000000	65.060806 
2516.000000	65.067434 
2515.000000	65.075659 
2514.000000	65.084266 
2513.000000	65.091919 
2512.000000	65.097808 
2511.000000	65.101647 
2510.000000	65.103912 
2509.000000	65.105605 
2508.000000	65.107989 
2507.000000	65.112257 
2506.000000	65.119290 
2505.000000	65.129280 
2504.000000	65.141868 
2503.000000	65.156054 
2502.000000	65.170502 
2501.000000	65.183973 
2500.000000	65.195345 
2499.000000	65.203905 
2498.000000	65.209484 
2497.000000	65.212464 
2496.000000	65.213727 
2495.000000	65.214347 
2494.000000	65.215587 
2493.000000	65.218281 
2492.000000	65.222811 
2491.000000	65.228652 
2490.000000	65.234732 
2489.000000	65.239310 
2488.000000	65.240621 
2487.000000	65.237116 
2486.000000	65.228033 
2485.000000	65.213537 
2484.000000	65.194630 
2483.000000	65.173101 
2482.000000	65.151071 
2481.000000	65.130639 
2480.000000	65.113234 
2479.000000	65.099692 
2478.000000	65.089988 
2477.000000	65.083813 
2476.000000	65.080499 
2475.000000	65.079593 
2474.000000	65.080976 
2473.000000	65.084719 
2472.000000	65.091085 
2471.000000	65.099835 
2470.000000	65.110182 
2469.000000	65.120625 
2468.000000	65.129184 
2467.000000	65.133690 
2466.000000	65.132117 
2465.000000	65.123081 
2464.000000	65.106272 
2463.000000	65.082669 
2462.000000	65.054750 
2461.000000	65.025734 
2460.000000	64.999461 
2459.000000	64.979505 
2458.000000	64.968633 
2457.000000	64.968132 
2456.000000	64.977812 
2455.000000	64.996147 
2454.000000	65.020656 
2453.000000	65.048384 
2452.000000	65.076684 
2451.000000	65.103864 
2450.000000	65.128779 
2449.000000	65.150856 
2448.000000	65.169644 
2447.000000	65.184593 
2446.000000	65.194678 
2445.000000	65.198564 
2444.000000	65.194725 
2443.000000	65.182256 
2442.000000	65.161776 
2441.000000	65.135812 
2440.000000	65.108489 
2439.000000	65.085005 
2438.000000	65.070700 
2437.000000	65.069770 
2436.000000	65.083909 
2435.000000	65.112161 
2434.000000	65.150809 
2433.000000	65.194392 
2432.000000	65.236902 
2431.000000	65.273261 
2430.000000	65.300416 
2429.000000	65.318226 
2428.000000	65.329098 
2427.000000	65.337729 
2426.000000	65.349459 
2425.000000	65.369033 
2424.000000	65.399384 
2423.000000	65.440297 
2422.000000	65.488600 
2421.000000	65.538120 
2420.000000	65.581369 
2419.000000	65.610098 
2418.000000	65.617537 
2417.000000	65.599131 
2416.000000	65.553951 
2415.000000	65.484571 
2414.000000	65.396761 
2413.000000	65.298748 
2412.000000	65.199756 
2411.000000	65.108752 
2410.000000	65.033054 
2409.000000	64.977550 
2408.000000	64.944291 
2407.000000	64.932489 
2406.000000	64.939308 
2405.000000	64.960002 
2404.000000	64.989495 
2403.000000	65.022373 
2402.000000	65.054321 
2401.000000	65.081405 
2400.000000	65.101432 
2399.000000	65.113401 
2398.000000	65.117764 
2397.000000	65.115857 
2396.000000	65.110015 
2395.000000	65.102934 
2394.000000	65.097236 
2393.000000	65.095400 
2392.000000	65.098953 
2391.000000	65.108633 
2390.000000	65.123987 
2389.000000	65.143585 
2388.000000	65.165519 
2387.000000	65.187501 
2386.000000	65.207433 
2385.000000	65.223526 
2384.000000	65.234303 
2383.000000	65.238928 
2382.000000	65.237307 
2381.000000	65.230178 
2380.000000	65.218663 
2379.000000	65.204215 
2378.000000	65.189146 
2377.000000	65.175867 
2376.000000	65.166616 
2375.000000	65.163111 
2374.000000	65.166211 
2373.000000	65.176010 
2372.000000	65.191674 
2371.000000	65.211725 
2370.000000	65.234041 
2369.000000	65.256571 
2368.000000	65.277457 
2367.000000	65.295362 
2366.000000	65.309333 
2365.000000	65.318822 
2364.000000	65.323543 
2363.000000	65.323519 
2362.000000	65.318870 
2361.000000	65.310144 
2360.000000	65.298390 
2359.000000	65.285062 
2358.000000	65.272164 
2357.000000	65.261745 
2356.000000	65.255475 
2355.000000	65.254282 
2354.000000	65.258216 
2353.000000	65.266370 
2352.000000	65.276908 
2351.000000	65.287613 
2350.000000	65.296268 
2349.000000	65.301036 
2348.000000	65.300869 
2347.000000	65.295505 
2346.000000	65.285444 
2345.000000	65.271592 
2344.000000	65.255236 
2343.000000	65.237665 
2342.000000	65.220189 
2341.000000	65.203952 
2340.000000	65.189909 
2339.000000	65.178847 
2338.000000	65.171170 
2337.000000	65.166902 
2336.000000	65.165567 
2335.000000	65.166234 
2334.000000	65.167808 
2333.000000	65.169358 
2332.000000	65.170311 
2331.000000	65.170574 
2330.000000	65.170621 
2329.000000	65.171265 
2328.000000	65.173411 
2327.000000	65.177726 
2326.000000	65.184235 
2325.000000	65.192270 
2324.000000	65.200757 
2323.000000	65.208077 
2322.000000	65.212941 
2321.000000	65.214538 
2320.000000	65.212845 
2319.000000	65.208482 
2318.000000	65.202617 
2317.000000	65.196776 
2316.000000	65.192222 
2315.000000	65.189766 
2314.000000	65.189766 
2313.000000	65.191936 
2312.000000	65.195775 
2311.000000	65.200304 
2310.000000	65.204715 
2309.000000	65.208172 
2308.000000	65.210318 
2307.000000	65.211176 
2306.000000	65.211105 
2305.000000	65.210866 
2304.000000	65.211367 
2303.000000	65.213441 
2302.000000	65.217566 
2301.000000	65.223813 
2300.000000	65.231680 
2299.000000	65.240168 
2298.000000	65.248036 
2297.000000	65.253949 
2296.000000	65.256929 
2295.000000	65.256500 
2294.000000	65.252709 
2293.000000	65.246272 
2292.000000	65.238237 
2291.000000	65.229797 
2290.000000	65.222048 
2289.000000	65.215659 
2288.000000	65.210866 
2287.000000	65.207433 
2286.000000	65.204811 
2285.000000	65.202522 
2284.000000	65.200090 
2283.000000	65.197443 
2282.000000	65.194606 
2281.000000	65.191721 
2280.000000	65.188884 
2279.000000	65.185976 
2278.000000	65.182614 
2277.000000	65.178203 
2276.000000	65.172243 
2275.000000	65.164685 
2274.000000	65.155744 
2273.000000	65.146255 
2272.000000	65.137219 
2271.000000	65.129876 
2270.000000	65.125083 
2269.000000	65.123200 
2268.000000	65.124106 
2267.000000	65.127134 
2266.000000	65.131282 
2265.000000	65.135693 
2264.000000	65.139794 
2263.000000	65.143442 
2262.000000	65.146851 
2261.000000	65.150475 
2260.000000	65.154695 
2259.000000	65.159678 
2258.000000	65.164947 
2257.000000	65.169644 
2256.000000	65.172767 
2255.000000	65.173220 
2254.000000	65.170359 
2253.000000	65.164136 
2252.000000	65.155100 
2251.000000	65.144395 
2250.000000	65.133571 
2249.000000	65.124154 
2248.000000	65.117383 
2247.000000	65.114116 
2246.000000	65.114617 
2245.000000	65.118551 
2244.000000	65.125226 
2243.000000	65.133666 
2242.000000	65.142893 
2241.000000	65.151953 
2240.000000	65.160202 
2239.000000	65.167212 
2238.000000	65.172576 
2237.000000	65.175890 
2236.000000	65.176486 
2235.000000	65.173792 
2234.000000	65.166926 
2233.000000	65.155100 
2232.000000	65.137815 
2231.000000	65.115094 
2230.000000	65.087699 
2229.000000	65.057301 
2228.000000	65.026307 
2227.000000	64.997768 
2226.000000	64.974594 
2225.000000	64.959239 
2224.000000	64.953231 
2223.000000	64.956903 
2222.000000	64.969038 
2221.000000	64.987397 
2220.000000	65.008926 
2219.000000	65.030527 
2218.000000	65.049600 
2217.000000	65.064573 
2216.000000	65.074920 
2215.000000	65.081357 
2214.000000	65.085363 
2213.000000	65.088748 
2212.000000	65.093183 
2211.000000	65.099549 
2210.000000	65.108013 
2209.000000	65.117931 
2208.000000	65.128111 
2207.000000	65.137195 
2206.000000	65.144109 
2205.000000	65.148377 
2204.000000	65.150403 
2203.000000	65.151548 
2202.000000	65.153765 
2201.000000	65.159320 
2200.000000	65.170264 
2199.000000	65.188002 
2198.000000	65.212678 
2197.000000	65.243268 
2196.000000	65.277528 
2195.000000	65.312528 
2194.000000	65.344834 
2193.000000	65.371370 
2192.000000	65.389561 
2191.000000	65.398025 
2190.000000	65.396380 
2189.000000	65.385293 
2188.000000	65.366458 
2187.000000	65.342402 
2186.000000	65.315794 
2185.000000	65.289425 
2184.000000	65.265369 
2183.000000	65.245199 
2182.000000	65.229415 
2181.000000	65.217852 
2180.000000	65.209770 
2179.000000	65.204310 
2178.000000	65.200853 
2177.000000	65.199160 
2176.000000	65.199565 
2175.000000	65.202736 
2174.000000	65.209317 
2173.000000	65.219306 
2172.000000	65.231704 
2171.000000	65.244626 
2170.000000	65.255260 
2169.000000	65.260481 
2168.000000	65.257692 
2167.000000	65.245532 
2166.000000	65.224051 
2165.000000	65.194988 
2164.000000	65.160989 
2163.000000	65.125012 
2162.000000	65.089678 
2161.000000	65.056872 
2160.000000	65.027475 
2159.000000	65.001869 
2158.000000	64.980077 
2157.000000	64.962673 
2156.000000	64.950561 
2155.000000	64.945507 
2154.000000	64.949297 
2153.000000	64.963221 
2152.000000	64.987158 
2151.000000	65.019702 
2150.000000	65.057802 
2149.000000	65.097594 
2148.000000	65.135049 
2147.000000	65.166831 
2146.000000	65.191078 
2145.000000	65.207314 
2144.000000	65.216517 
2143.000000	65.220403 
2142.000000	65.220952 
2141.000000	65.220117 
2140.000000	65.219473 
2139.000000	65.220284 
2138.000000	65.223312 
2137.000000	65.229177 
2136.000000	65.237784 
2135.000000	65.248966 
2134.000000	65.261864 
2133.000000	65.274977 
2132.000000	65.286469 
2131.000000	65.294504 
2130.000000	65.297722 
2129.000000	65.295672 
2128.000000	65.289187 
2127.000000	65.280342 
2126.000000	65.271806 
2125.000000	65.266323 
2124.000000	65.265727 
2123.000000	65.270495 
2122.000000	65.279555 
2121.000000	65.290665 
2120.000000	65.301036 
2119.000000	65.307927 
2118.000000	65.309381 
2117.000000	65.304827 
2116.000000	65.294909 
2115.000000	65.281081 
2114.000000	65.265130 
2113.000000	65.248680 
2112.000000	65.232872 
2111.000000	65.218114 
2110.000000	65.204906 
2109.000000	65.193414 
2108.000000	65.184378 
2107.000000	65.178298 
2106.000000	65.175676 
2105.000000	65.176463 
2104.000000	65.179705 
2103.000000	65.183925 
2102.000000	65.187335 
2101.000000	65.188312 
2100.000000	65.185928 
2099.000000	65.180015 
2098.000000	65.171217 
2097.000000	65.160775 
2096.000000	65.150189 
2095.000000	65.140795 
2094.000000	65.133285 
2093.000000	65.128064 
2092.000000	65.125250 
2091.000000	65.124845 
2090.000000	65.126824 
2089.000000	65.131378 
2088.000000	65.138554 
2087.000000	65.148067 
2086.000000	65.159010 
2085.000000	65.169596 
2084.000000	65.177559 
2083.000000	65.180635 
2082.000000	65.176987 
2081.000000	65.165996 
2080.000000	65.148210 
2079.000000	65.125465 
2078.000000	65.100336 
2077.000000	65.075516 
2076.000000	65.053796 
2075.000000	65.037441 
2074.000000	65.028357 
2073.000000	65.027666 
2072.000000	65.036225 
2071.000000	65.054559 
2070.000000	65.082955 
2069.000000	65.121054 
2068.000000	65.167760 
2067.000000	65.220904 
2066.000000	65.277361 
2065.000000	65.333008 
2064.000000	65.383315 
2063.000000	65.423679 
2062.000000	65.450549 
2061.000000	65.461754 
2060.000000	65.456938 
2059.000000	65.437436 
2058.000000	65.406155 
2057.000000	65.366840 
2056.000000	65.323686 
2055.000000	65.280151 
2054.000000	65.239310 
2053.000000	65.202713 
2052.000000	65.171074 
2051.000000	65.144038 
2050.000000	65.120816 
2049.000000	65.100646 
2048.000000	65.083050 
2047.000000	65.068173 
2046.000000	65.056467 
2045.000000	65.048837 
2044.000000	65.045928 
2043.000000	65.048146 
2042.000000	65.055131 
2041.000000	65.066123 
2040.000000	65.079975 
2039.000000	65.095567 
2038.000000	65.111780 
2037.000000	65.127873 
2036.000000	65.143346 
2035.000000	65.157842 
2034.000000	65.170955 
2033.000000	65.182161 
2032.000000	65.190887 
2031.000000	65.196537 
2030.000000	65.198516 
2029.000000	65.196561 
2028.000000	65.190863 
2027.000000	65.182280 
2026.000000	65.172147 
2025.000000	65.161919 
2024.000000	65.152978 
2023.000000	65.146565 
2022.000000	65.143227 
2021.000000	65.143013 
2020.000000	65.145325 
2019.000000	65.149402 
2018.000000	65.154266 
2017.000000	65.159153 
2016.000000	65.163707 
2015.000000	65.167903 
2014.000000	65.172171 
2013.000000	65.177178 
2012.000000	65.183734 
2011.000000	65.192461 
2010.000000	65.203666 
2009.000000	65.217447 
2008.000000	65.233540 
2007.000000	65.251469 
2006.000000	65.270876 
2005.000000	65.291404 
2004.000000	65.312790 
2003.000000	65.334630 
2002.000000	65.356278 
2001.000000	65.376496 
2000.000000	65.393567 
1999.000000	65.405130 
1998.000000	65.409064 
1997.000000	65.403389 
1996.000000	65.387201 
1995.000000	65.360856 
1994.000000	65.326237 
1993.000000	65.286421 
1992.000000	65.245580 
1991.000000	65.207934 
1990.000000	65.177154 
1989.000000	65.155673 
1988.000000	65.144467 
1987.000000	65.143060 
1986.000000	65.149831 
1985.000000	65.162444 
1984.000000	65.178370 
1983.000000	65.195274 
1982.000000	65.211510 
1981.000000	65.225815 
1980.000000	65.237522 
1979.000000	65.246367 
1978.000000	65.252423 
1977.000000	65.255856 
1976.000000	65.256810 
1975.000000	65.255475 
1974.000000	65.251874 
1973.000000	65.246081 
1972.000000	65.238261 
1971.000000	65.228986 
1970.000000	65.219020 
1969.000000	65.209436 
1968.000000	65.201520 
1967.000000	65.196394 
1966.000000	65.194869 
1965.000000	65.197277 
1964.000000	65.203261 
1963.000000	65.211892 
1962.000000	65.221714 
1961.000000	65.231370 
1960.000000	65.239524 
1959.000000	65.245199 
1958.000000	65.248107 
1957.000000	65.248656 
1956.000000	65.247631 
1955.000000	65.245914 
1954.000000	65.244269 
1953.000000	65.243148 
1952.000000	65.242791 
1951.000000	65.243124 
1950.000000	65.243935 
1949.000000	65.244913 
1948.000000	65.245866 
1947.000000	65.246796 
1946.000000	65.247654 
1945.000000	65.248513 
1944.000000	65.249443 
1943.000000	65.250611 
1942.000000	65.252184 
1941.000000	65.254211 
1940.000000	65.256977 
1939.000000	65.260577 
1938.000000	65.265226 
1937.000000	65.270876 
1936.000000	65.277409 
1935.000000	65.284419 
1934.000000	65.291404 
1933.000000	65.297889 
1932.000000	65.303301 
1931.000000	65.307307 
1930.000000	65.309572 
1929.000000	65.309953 
1928.000000	65.308427 
1927.000000	65.304994 
1926.000000	65.299463 
1925.000000	65.291738 
1924.000000	65.281605 
1923.000000	65.268969 
1922.000000	65.253996 
1921.000000	65.237212 
1920.000000	65.219330 
1919.000000	65.201425 
1918.000000	65.184593 
1917.000000	65.169668 
1916.000000	65.157151 
1915.000000	65.147185 
1914.000000	65.139484 
1913.000000	65.133500 
1912.000000	65.128731 
1911.000000	65.124702 
1910.000000	65.121078 
1909.000000	65.117597 
1908.000000	65.114045 
1907.000000	65.110230 
1906.000000	65.105938 
1905.000000	65.101051 
1904.000000	65.095496 
1903.000000	65.089416 
1902.000000	65.083289 
1901.000000	65.077853 
1900.000000	65.073800 
1899.000000	65.071845 
1898.000000	65.072202 
1897.000000	65.074992 
1896.000000	65.079855 
1895.000000	65.086340 
1894.000000	65.094017 
1893.000000	65.102791 
1892.000000	65.112876 
1891.000000	65.124917 
1890.000000	65.139460 
1889.000000	65.156984 
1888.000000	65.177392 
1887.000000	65.199851 
1886.000000	65.222930 
1885.000000	65.244674 
1884.000000	65.263104 
1883.000000	65.276575 
1882.000000	65.284156 
1881.000000	65.285611 
1880.000000	65.281772 
1879.000000	65.273809 
1878.000000	65.263032 
1877.000000	65.250587 
1876.000000	65.237236 
1875.000000	65.223431 
1874.000000	65.209245 
1873.000000	65.194797 
1872.000000	65.180492 
1871.000000	65.167117 
1870.000000	65.155792 
1869.000000	65.147686 
1868.000000	65.143775 
1867.000000	65.144515 
1866.000000	65.149569 
1865.000000	65.157747 
1864.000000	65.167117 
1863.000000	65.175557 
1862.000000	65.180969 
1861.000000	65.181756 
1860.000000	65.177273 
1859.000000	65.168023 
1858.000000	65.155553 
1857.000000	65.142154 
1856.000000	65.130591 
1855.000000	65.123605 
1854.000000	65.123343 
1853.000000	65.131044 
1852.000000	65.146636 
1851.000000	65.168786 
1850.000000	65.194892 
1849.000000	65.221667 
1848.000000	65.245437 
1847.000000	65.262889 
1846.000000	65.271568 
1845.000000	65.270304 
1844.000000	65.259480 
1843.000000	65.240836 
1842.000000	65.217399 
1841.000000	65.192627 
1840.000000	65.169811 
1839.000000	65.151453 
1838.000000	65.138983 
1837.000000	65.132570 
1836.000000	65.131568 
1835.000000	65.134453 
1834.000000	65.139698 
1833.000000	65.145874 
1832.000000	65.151882 
1831.000000	65.157198 
1830.000000	65.161514 
1829.000000	65.165185 
1828.000000	65.168809 
1827.000000	65.173172 
1826.000000	65.179014 
1825.000000	65.186738 
1824.000000	65.196251 
1823.000000	65.206861 
1822.000000	65.217518 
1821.000000	65.226936 
1820.000000	65.233850 
1819.000000	65.237450 
1818.000000	65.237522 
1817.000000	65.234470 
1816.000000	65.229082 
1815.000000	65.222311 
1814.000000	65.215063 
1813.000000	65.207791 
1812.000000	65.200543 
1811.000000	65.192866 
1810.000000	65.184330 
1809.000000	65.174531 
1808.000000	65.163469 
1807.000000	65.151643 
1806.000000	65.139865 
1805.000000	65.129113 
1804.000000	65.120172 
1803.000000	65.113353 
1802.000000	65.108346 
1801.000000	65.104413 
1800.000000	65.100765 
1799.000000	65.096712 
1798.000000	65.092086 
1797.000000	65.087366 
1796.000000	65.083456 
1795.000000	65.081787 
1794.000000	65.083765 
1793.000000	65.090417 
1792.000000	65.102195 
1791.000000	65.118718 
1790.000000	65.138673 
1789.000000	65.160083 
1788.000000	65.180730 
1787.000000	65.198159 
1786.000000	65.210270 
1785.000000	65.215277 
1784.000000	65.212106 
1783.000000	65.200495 
1782.000000	65.180873 
1781.000000	65.154504 
1780.000000	65.123319 
1779.000000	65.089774 
1778.000000	65.056586 
1777.000000	65.026664 
1776.000000	65.002536 
1775.000000	64.986395 
1774.000000	64.979624 
1773.000000	64.982676 
1772.000000	64.995002 
1771.000000	65.015006 
1770.000000	65.040278 
1769.000000	65.067958 
1768.000000	65.095067 
1767.000000	65.119051 
1766.000000	65.138196 
1765.000000	65.151786 
1764.000000	65.160179 
1763.000000	65.164709 
1762.000000	65.166926 
1761.000000	65.168666 
1760.000000	65.170931 
1759.000000	65.174078 
1758.000000	65.177154 
1757.000000	65.178799 
1756.000000	65.176892 
1755.000000	65.169620 
1754.000000	65.155649 
1753.000000	65.134835 
1752.000000	65.107965 
1751.000000	65.077042 
1750.000000	65.044617 
1749.000000	65.013480 
1748.000000	64.985847 
1747.000000	64.963030 
1746.000000	64.945483 
1745.000000	64.932751 
1744.000000	64.923930 
1743.000000	64.917898 
1742.000000	64.913940 
1741.000000	64.911746 
1740.000000	64.911508 
1739.000000	64.913725 
1738.000000	64.918684 
1737.000000	64.926385 
1736.000000	64.936256 
1735.000000	64.947342 
1734.000000	64.958357 
1733.000000	64.968061 
1732.000000	64.975619 
1731.000000	64.980649 
1730.000000	64.983749 
1729.000000	64.985942 
1728.000000	64.988470 
1727.000000	64.992308 
1726.000000	64.998173 
1725.000000	65.006303 
1724.000000	65.016436 
1723.000000	65.027976 
1722.000000	65.040254 
1721.000000	65.052747 
1720.000000	65.065050 
1719.000000	65.077018 
1718.000000	65.088653 
1717.000000	65.100026 
1716.000000	65.111088 
1715.000000	65.121698 
1714.000000	65.131378 
1713.000000	65.139484 
1712.000000	65.145325 
1711.000000	65.148210 
1710.000000	65.147757 
1709.000000	65.144205 
1708.000000	65.138483 
1707.000000	65.132141 
1706.000000	65.127396 
1705.000000	65.126705 
1704.000000	65.132474 
1703.000000	65.146303 
1702.000000	65.168523 
1701.000000	65.197944 
1700.000000	65.231919 
1699.000000	65.266585 
1698.000000	65.297722 
1697.000000	65.321779 
1696.000000	65.336203 
1695.000000	65.340328 
1694.000000	65.334916 
1693.000000	65.322089 
1692.000000	65.304398 
1691.000000	65.284156 
1690.000000	65.263032 
1689.000000	65.241789 
1688.000000	65.220427 
1687.000000	65.198636 
1686.000000	65.176296 
1685.000000	65.154004 
1684.000000	65.133023 
1683.000000	65.114974 
1682.000000	65.101599 
1681.000000	65.094089 
1680.000000	65.092635 
1679.000000	65.096473 
1678.000000	65.103673 
1677.000000	65.112113 
1676.000000	65.119481 
1675.000000	65.124249 
1674.000000	65.125417 
1673.000000	65.123105 
1672.000000	65.117788 
1671.000000	65.110707 
1670.000000	65.103173 
1669.000000	65.096473 
1668.000000	65.091609 
1667.000000	65.089035 
1666.000000	65.088915 
1665.000000	65.090870 
1664.000000	65.094161 
1663.000000	65.097427 
1662.000000	65.099215 
1661.000000	65.097975 
1660.000000	65.092563 
1659.000000	65.082406 
1658.000000	65.067887 
1657.000000	65.050292 
1656.000000	65.032029 
1655.000000	65.015625 
1654.000000	65.003466 
1653.000000	64.997410 
1652.000000	64.998173 
1651.000000	65.005159 
1650.000000	65.016674 
1649.000000	65.030312 
1648.000000	65.043354 
1647.000000	65.053248 
1646.000000	65.058231 
1645.000000	65.057301 
1644.000000	65.050697 
1643.000000	65.039467 
1642.000000	65.025758 
1641.000000	65.011787 
1640.000000	65.000057 
1639.000000	64.992594 
1638.000000	64.990830 
1637.000000	64.995408 
1636.000000	65.005826 
1635.000000	65.020751 
1634.000000	65.038061 
1633.000000	65.055322 
1632.000000	65.070271 
1631.000000	65.081191 
1630.000000	65.087294 
1629.000000	65.088820 
1628.000000	65.086603 
1627.000000	65.082025 
1626.000000	65.076756 
1625.000000	65.072011 
1624.000000	65.068507 
1623.000000	65.065956 
1622.000000	65.063953 
1621.000000	65.061473 
1620.000000	65.057468 
1619.000000	65.051126 
1618.000000	65.042114 
1617.000000	65.030813 
1616.000000	65.018224 
1615.000000	65.005898 
1614.000000	64.995503 
1613.000000	64.988660 
1612.000000	64.986443 
1611.000000	64.989328 
1610.000000	64.996695 
1609.000000	65.007138 
1608.000000	65.018701 
1607.000000	65.028953 
1606.000000	65.035676 
1605.000000	65.037441 
1604.000000	65.033912 
1603.000000	65.026068 
1602.000000	65.015864 
1601.000000	65.005993 
1600.000000	64.999318 
1599.000000	64.997982 
1598.000000	65.003061 
1597.000000	65.014433 
1596.000000	65.030646 
1595.000000	65.049552 
1594.000000	65.068697 
1593.000000	65.086007 
1592.000000	65.100240 
1591.000000	65.111231 
1590.000000	65.119767 
1589.000000	65.127301 
1588.000000	65.135216 
1587.000000	65.144538 
1586.000000	65.155243 
1585.000000	65.166139 
1584.000000	65.175008 
1583.000000	65.179347 
1582.000000	65.176630 
1581.000000	65.165257 
1580.000000	65.144896 
1579.000000	65.116715 
1578.000000	65.083074 
1577.000000	65.047168 
1576.000000	65.012383 
1575.000000	64.981389 
1574.000000	64.956045 
1573.000000	64.936804 
1572.000000	64.923262 
1571.000000	64.914298 
1570.000000	64.908552 
1569.000000	64.905190 
1568.000000	64.903712 
1567.000000	64.904475 
1566.000000	64.908027 
1565.000000	64.915060 
1564.000000	64.925765 
1563.000000	64.939832 
1562.000000	64.956283 
1561.000000	64.973473 
1560.000000	64.989471 
1559.000000	65.002202 
1558.000000	65.010023 
1557.000000	65.011644 
1556.000000	65.006351 
1555.000000	64.994239 
1554.000000	64.976167 
1553.000000	64.953613 
1552.000000	64.928674 
1551.000000	64.903926 
1550.000000	64.881992 
1549.000000	64.865493 
1548.000000	64.856433 
1547.000000	64.855957 
1546.000000	64.864182 
1545.000000	64.880156 
1544.000000	64.902114 
1543.000000	64.927458 
1542.000000	64.953517 
1541.000000	64.977955 
1540.000000	64.999127 
1539.000000	65.016126 
1538.000000	65.029001 
1537.000000	65.038347 
1536.000000	65.044999 
1535.000000	65.049791 
1534.000000	65.052962 
1533.000000	65.054583 
1532.000000	65.053963 
1531.000000	65.050363 
1530.000000	65.042877 
1529.000000	65.031194 
1528.000000	65.015506 
1527.000000	64.996743 
1526.000000	64.976382 
1525.000000	64.956378 
1524.000000	64.938473 
1523.000000	64.924144 
1522.000000	64.914274 
1521.000000	64.909172 
1520.000000	64.908552 
1519.000000	64.911913 
1518.000000	64.918732 
1517.000000	64.928412 
1516.000000	64.940524 
1515.000000	64.954733 
1514.000000	64.970588 
1513.000000	64.987611 
1512.000000	65.005350 
1511.000000	65.023231 
1510.000000	65.040659 
1509.000000	65.056943 
1508.000000	65.071535 
1507.000000	65.083909 
1506.000000	65.093517 
1505.000000	65.099954 
1504.000000	65.102934 
1503.000000	65.102386 
1502.000000	65.098547 
1501.000000	65.092015 
1500.000000	65.083670 
1499.000000	65.074586 
1498.000000	65.065741 
1497.000000	65.057826 
1496.000000	65.051221 
1495.000000	65.045881 
1494.000000	65.041565 
1493.000000	65.038442 
1492.000000	65.037107 
1491.000000	65.038728 
1490.000000	65.044617 
1489.000000	65.055799 
1488.000000	65.072417 
1487.000000	65.093326 
1486.000000	65.116357 
1485.000000	65.138411 
1484.000000	65.156173 
1483.000000	65.167021 
1482.000000	65.169596 
1481.000000	65.163826 
1480.000000	65.151166 
1479.000000	65.134143 
1478.000000	65.115427 
1477.000000	65.097451 
1476.000000	65.081548 
1475.000000	65.068173 
1474.000000	65.056467 
1473.000000	65.044903 
1472.000000	65.031576 
1471.000000	65.014815 
1470.000000	64.993405 
1469.000000	64.967155 
1468.000000	64.936614 
1467.000000	64.903163 
1466.000000	64.868879 
1465.000000	64.836525 
1464.000000	64.808917 
1463.000000	64.788937 
1462.000000	64.778804 
1461.000000	64.780259 
1460.000000	64.793539 
1459.000000	64.817810 
1458.000000	64.850854 
1457.000000	64.889907 
1456.000000	64.931392 
1455.000000	64.972186 
1454.000000	65.009951 
1453.000000	65.043377 
1452.000000	65.072274 
1451.000000	65.097045 
1450.000000	65.118217 
1449.000000	65.135812 
1448.000000	65.149378 
1447.000000	65.157485 
1446.000000	65.158295 
1445.000000	65.150260 
1444.000000	65.132856 
1443.000000	65.106582 
1442.000000	65.073418 
1441.000000	65.036439 
1440.000000	64.999628 
1439.000000	64.966893 
1438.000000	64.941382 
1437.000000	64.925122 
1436.000000	64.918375 
1435.000000	64.919877 
1434.000000	64.926886 
1433.000000	64.936089 
1432.000000	64.944171 
1431.000000	64.948272 
1430.000000	64.946937 
1429.000000	64.939713 
1428.000000	64.927864 
1427.000000	64.913463 
1426.000000	64.899182 
1425.000000	64.887523 
1424.000000	64.880418 
1423.000000	64.878988 
1422.000000	64.883303 
1421.000000	64.892411 
1420.000000	64.904952 
1419.000000	64.919424 
1418.000000	64.934611 
1417.000000	64.949703 
1416.000000	64.964365 
1415.000000	64.978599 
1414.000000	64.992403 
1413.000000	65.005564 
1412.000000	65.017604 
1411.000000	65.027737 
1410.000000	65.035104 
1409.000000	65.038919 
1408.000000	65.038871 
1407.000000	65.035057 
1406.000000	65.028357 
1405.000000	65.019989 
1404.000000	65.011644 
1403.000000	65.004825 
1402.000000	65.000867 
1401.000000	65.000367 
1400.000000	65.003442 
1399.000000	65.009522 
1398.000000	65.017580 
1397.000000	65.026330 
1396.000000	65.034461 
1395.000000	65.041089 
1394.000000	65.045785 
1393.000000	65.048789 
1392.000000	65.050721 
1391.000000	65.052485 
1390.000000	65.055036 
1389.000000	65.058898 
1388.000000	65.063786 
1387.000000	65.068602 
1386.000000	65.071606 
1385.000000	65.070772 
1384.000000	65.064311 
1383.000000	65.051078 
1382.000000	65.031051 
1381.000000	65.005779 
1380.000000	64.977669 
1379.000000	64.950037 
1378.000000	64.925861 
1377.000000	64.907741 
1376.000000	64.896774 
1375.000000	64.892792 
1374.000000	64.894175 
1373.000000	64.898419 
1372.000000	64.902949 
1371.000000	64.905571 
1370.000000	64.905261 
1369.000000	64.902114 
1368.000000	64.897418 
1367.000000	64.893150 
1366.000000	64.891457 
1365.000000	64.894104 
1364.000000	64.902019 
1363.000000	64.915084 
1362.000000	64.932250 
1361.000000	64.951658 
1360.000000	64.971065 
1359.000000	64.988207 
1358.000000	65.001034 
1357.000000	65.007925 
1356.000000	65.007853 
1355.000000	65.000700 
1354.000000	64.986896 
1353.000000	64.967799 
1352.000000	64.945292 
1351.000000	64.921689 
1350.000000	64.899587 
1349.000000	64.881062 
1348.000000	64.867615 
1347.000000	64.859771 
1346.000000	64.857029 
1345.000000	64.858031 
1344.000000	64.860820 
1343.000000	64.863681 
1342.000000	64.865541 
1341.000000	64.866209 
1340.000000	64.866399 
1339.000000	64.867520 
1338.000000	64.871001 
1337.000000	64.877700 
1336.000000	64.887738 
1335.000000	64.900231 
1334.000000	64.913558 
1333.000000	64.925980 
1332.000000	64.935994 
1331.000000	64.943003 
1330.000000	64.947295 
1329.000000	64.949965 
1328.000000	64.952349 
1327.000000	64.955711 
1326.000000	64.960455 
1325.000000	64.966297 
1324.000000	64.971756 
1323.000000	64.974784 
1322.000000	64.973020 
1321.000000	64.964771 
1320.000000	64.949440 
1319.000000	64.927434 
1318.000000	64.900541 
1317.000000	64.871454 
1316.000000	64.843344 
1315.000000	64.819526 
1314.000000	64.802765 
1313.000000	64.795064 
1312.000000	64.797449 
1311.000000	64.809775 
1310.000000	64.830780 
1309.000000	64.858341 
1308.000000	64.889502 
1307.000000	64.920926 
1306.000000	64.949107 
1305.000000	64.970827 
1304.000000	64.983773 
1303.000000	64.986824 
1302.000000	64.980292 
1301.000000	64.965963 
1300.000000	64.947128 
1299.000000	64.927458 
1298.000000	64.911031 
1297.000000	64.900851 
1296.000000	64.898586 
1295.000000	64.903974 
1294.000000	64.915084 
1293.000000	64.928555 
1292.000000	64.940404 
1291.000000	64.947009 
1290.000000	64.945888 
1289.000000	64.936518 
1288.000000	64.920282 
1287.000000	64.900398 
1286.000000	64.881110 
1285.000000	64.866685 
1284.000000	64.860391 
1283.000000	64.863824 
1282.000000	64.876556 
1281.000000	64.896106 
1280.000000	64.918613 
1279.000000	64.939570 
1278.000000	64.955019 
1277.000000	64.962267 
1276.000000	64.960575 
1275.000000	64.950966 
1274.000000	64.936089 
1273.000000	64.919590 
1272.000000	64.905023 
1271.000000	64.895367 
1270.000000	64.892220 
1269.000000	64.895606 
1268.000000	64.904141 
1267.000000	64.915418 
1266.000000	64.926719 
1265.000000	64.935493 
1264.000000	64.939999 
1263.000000	64.939427 
1262.000000	64.934206 
1261.000000	64.925622 
1260.000000	64.915537 
1259.000000	64.905786 
1258.000000	64.898014 
1257.000000	64.893317 
1256.000000	64.892148 
1255.000000	64.894413 
1254.000000	64.899396 
1253.000000	64.906024 
1252.000000	64.913129 
1251.000000	64.919710 
1250.000000	64.924860 
1249.000000	64.928007 
1248.000000	64.928984 
1247.000000	64.928054 
1246.000000	64.925909 
1245.000000	64.923310 
1244.000000	64.921164 
1243.000000	64.919996 
1242.000000	64.920067 
1241.000000	64.921092 
1240.000000	64.922142 
1239.000000	64.922070 
1238.000000	64.919543 
1237.000000	64.913439 
1236.000000	64.903068 
1235.000000	64.888501 
1234.000000	64.870667 
1233.000000	64.851164 
1232.000000	64.831924 
1231.000000	64.814996 
1230.000000	64.802122 
1229.000000	64.794588 
1228.000000	64.793109 
1227.000000	64.797878 
1226.000000	64.808773 
1225.000000	64.825272 
1224.000000	64.846611 
1223.000000	64.871573 
1222.000000	64.898490 
1221.000000	64.925217 
1220.000000	64.949178 
1219.000000	64.967846 
1218.000000	64.978933 
1217.000000	64.981055 
1216.000000	64.973616 
1215.000000	64.957332 
1214.000000	64.933609 
1213.000000	64.904594 
1212.000000	64.872550 
1211.000000	64.839410 
1210.000000	64.806675 
1209.000000	64.775443 
1208.000000	64.746785 
1207.000000	64.721918 
1206.000000	64.702248 
1205.000000	64.689373 
1204.000000	64.684391 
1203.000000	64.687442 
1202.000000	64.697313 
1201.000000	64.711475 
1200.000000	64.726638 
1199.000000	64.739322 
1198.000000	64.746832 
1197.000000	64.747905 
1196.000000	64.743041 
1195.000000	64.734148 
1194.000000	64.723896 
1193.000000	64.714956 
1192.000000	64.709210 
1191.000000	64.707279 
1190.000000	64.708590 
1189.000000	64.711713 
1188.000000	64.715027 
1187.000000	64.717555 
1186.000000	64.718985 
1185.000000	64.720082 
1184.000000	64.722180 
1183.000000	64.726662 
1182.000000	64.734530 
1181.000000	64.746093 
1180.000000	64.760661 
1179.000000	64.777040 
1178.000000	64.793872 
1177.000000	64.809799 
1176.000000	64.823794 
1175.000000	64.835143 
1174.000000	64.843463 
1173.000000	64.848303 
1172.000000	64.849114 
1171.000000	64.845156 
1170.000000	64.836001 
1169.000000	64.821720 
1168.000000	64.803361 
1167.000000	64.782905 
1166.000000	64.763116 
1165.000000	64.747047 
1164.000000	64.737510 
1163.000000	64.736247 
1162.000000	64.743614 
1161.000000	64.758634 
1160.000000	64.779233 
1159.000000	64.802646 
1158.000000	64.826178 
1157.000000	64.847588 
1156.000000	64.865159 
1155.000000	64.878082 
1154.000000	64.885902 
1153.000000	64.888572 
1152.000000	64.886236 
1151.000000	64.878916 
1150.000000	64.866781 
1149.000000	64.850258 
1148.000000	64.830279 
1147.000000	64.808440 
1146.000000	64.786934 
1145.000000	64.768409 
1144.000000	64.755320 
1143.000000	64.749431 
1142.000000	64.751386 
1141.000000	64.760422 
1140.000000	64.774584 
1139.000000	64.790773 
1138.000000	64.805316 
1137.000000	64.814662 
1136.000000	64.816141 
1135.000000	64.808559 
1134.000000	64.792180 
1133.000000	64.768743 
1132.000000	64.741015 
1131.000000	64.712262 
1130.000000	64.685559 
1129.000000	64.663243 
1128.000000	64.646768 
1127.000000	64.636731 
1126.000000	64.633178 
1125.000000	64.635562 
1124.000000	64.643168 
1123.000000	64.654898 
1122.000000	64.669394 
1121.000000	64.684844 
1120.000000	64.699149 
1119.000000	64.709854 
1118.000000	64.714908 
1117.000000	64.713048 
1116.000000	64.704442 
1115.000000	64.690876 
1114.000000	64.675784 
1113.000000	64.663457 
1112.000000	64.658355 
1111.000000	64.664149 
1110.000000	64.682674 
1109.000000	64.713239 
1108.000000	64.752864 
1107.000000	64.797163 
1106.000000	64.841055 
1105.000000	64.879727 
1104.000000	64.909386 
1103.000000	64.928030 
1102.000000	64.935278 
1101.000000	64.932036 
1100.000000	64.920186 
1099.000000	64.901900 
1098.000000	64.879584 
1097.000000	64.855599 
1096.000000	64.832448 
1095.000000	64.812350 
1094.000000	64.797616 
1093.000000	64.790368 
1092.000000	64.792156 
1091.000000	64.803338 
1090.000000	64.822769 
1089.000000	64.847588 
1088.000000	64.873647 
1087.000000	64.895486 
1086.000000	64.907550 
1085.000000	64.905071 
1084.000000	64.884638 
1083.000000	64.845180 
1082.000000	64.788174 
1081.000000	64.717602 
1080.000000	64.638948 
1079.000000	64.558744 
1078.000000	64.483428 
1077.000000	64.418554 
1076.000000	64.368152 
1075.000000	64.334440 
1074.000000	64.317202 
1073.000000	64.314937 
1072.000000	64.325189 
1071.000000	64.345502 
1070.000000	64.373135 
1069.000000	64.406490 
1068.000000	64.444541 
1067.000000	64.486885 
1066.000000	64.532828 
1065.000000	64.580988 
1064.000000	64.629077 
1063.000000	64.674019 
1062.000000	64.712357 
1061.000000	64.740848 
1060.000000	64.757680 
1059.000000	64.763092 
1058.000000	64.759659 
1057.000000	64.752388 
1056.000000	64.746856 
1055.000000	64.749073 
1054.000000	64.762425 
1053.000000	64.787149 
1052.000000	64.819502 
1051.000000	64.853239 
1050.000000	64.880299 
1049.000000	64.893031 
1048.000000	64.885950 
1047.000000	64.858293 
1046.000000	64.812469 
1045.000000	64.753150 
1044.000000	64.686512 
1043.000000	64.618515 
1042.000000	64.554119 
1041.000000	64.496636 
1040.000000	64.448213 
1039.000000	64.409947 
1038.000000	64.383244 
1037.000000	64.369940 
1036.000000	64.371156 
1035.000000	64.387178 
1034.000000	64.416813 
1033.000000	64.457511 
1032.000000	64.504051 
1031.000000	64.550423 
1030.000000	64.590549 
1029.000000	64.620637 
1028.000000	64.638733 
1027.000000	64.647126 
1026.000000	64.650917 
1025.000000	64.658141 
1024.000000	64.676737 
1023.000000	64.713978 
1022.000000	64.774155 
1021.000000	64.858007 
1020.000000	64.962744 
1019.000000	65.081787 
1018.000000	65.206146 
1017.000000	65.325331 
1016.000000	65.429520 
1015.000000	65.509366 
1014.000000	65.557312 
1013.000000	65.568089 
1012.000000	65.539717 
1011.000000	65.473198 
1010.000000	65.372776 
1009.000000	65.246057 
1008.000000	65.103101 
1007.000000	64.955735 
1006.000000	64.815497 
1005.000000	64.692616 
1004.000000	64.593935 
1003.000000	64.522290 
1002.000000	64.476227 
1001.000000	64.449834 
1000.000000	64.435648 
999.000000	 64.425468 
998.000000	 64.414048 
997.000000	 64.397859 
996.000000	 64.378929 
995.000000	 64.362406 
994.000000	 64.357209 
993.000000	 64.371562 
992.000000	 64.412617 
991.000000	 64.483737 
990.000000	 64.583158 
989.000000	 64.703965 
988.000000	 64.834403 
987.000000	 64.960074 
986.000000	 65.065956 
985.000000	 65.139341 
984.000000	 65.171670 
983.000000	 65.160083 
982.000000	 65.107870 
981.000000	 65.023922 
980.000000	 64.920878 
979.000000	 64.812517 
978.000000	 64.712500 
977.000000	 64.631152 
976.000000	 64.574360 
975.000000	 64.542341 
974.000000	 64.531707 
973.000000	 64.535379 
972.000000	 64.544701 
971.000000	 64.551472 
970.000000	 64.548993 
969.000000	 64.533948 
968.000000	 64.505672 
967.000000	 64.467024 
966.000000	 64.422202 
965.000000	 64.377117 
964.000000	 64.337420 
963.000000	 64.308524 
962.000000	 64.294385 
961.000000	 64.297962 
960.000000	 64.320755 
959.000000	 64.362215 
958.000000	 64.419865 
957.000000	 64.488840 
956.000000	 64.562749 
955.000000	 64.633440 
954.000000	 64.692354 
953.000000	 64.732670 
952.000000	 64.750385 
951.000000	 64.745521 
950.000000	 64.721536 
949.000000	 64.684414 
948.000000	 64.640927 
947.000000	 64.597797 
946.000000	 64.559626 
945.000000	 64.528298 
944.000000	 64.503335 
943.000000	 64.483308 
942.000000	 64.466643 
941.000000	 64.452934 
940.000000	 64.443397 
939.000000	 64.440393 
938.000000	 64.446592 
937.000000	 64.463543 
936.000000	 64.490604 
935.000000	 64.524245 
934.000000	 64.558649 
933.000000	 64.586639 
932.000000	 64.601588 
931.000000	 64.599132 
930.000000	 64.577984 
929.000000	 64.540600 
928.000000	 64.492559 
927.000000	 64.441442 
926.000000	 64.395570 
925.000000	 64.362335 
924.000000	 64.346837 
923.000000	 64.351081 
922.000000	 64.374113 
921.000000	 64.411973 
920.000000	 64.458537 
919.000000	 64.506578 
918.000000	 64.548873 
917.000000	 64.579558 
916.000000	 64.594507 
915.000000	 64.592409 
914.000000	 64.574265 
913.000000	 64.543461 
912.000000	 64.505338 
911.000000	 64.465785 
910.000000	 64.430236 
909.000000	 64.402675 
908.000000	 64.385271 
907.000000	 64.378070 
906.000000	 64.379620 
905.000000	 64.387369 
904.000000	 64.398622 
903.000000	 64.411449 
902.000000	 64.425063 
901.000000	 64.439558 
900.000000	 64.455604 
899.000000	 64.473962 
898.000000	 64.494609 
897.000000	 64.516639 
896.000000	 64.537763 
895.000000	 64.554619 
894.000000	 64.563632 
893.000000	 64.562058 
892.000000	 64.548921 
891.000000	 64.525389 
890.000000	 64.494872 
889.000000	 64.462375 
888.000000	 64.433646 
887.000000	 64.414215 
886.000000	 64.408040 
885.000000	 64.416480 
884.000000	 64.438009 
883.000000	 64.468646 
882.000000	 64.502549 
881.000000	 64.533615 
880.000000	 64.556145 
879.000000	 64.566040 
878.000000	 64.561414 
877.000000	 64.542818 
876.000000	 64.512515 
875.000000	 64.474201 
874.000000	 64.432024 
873.000000	 64.390277 
872.000000	 64.353513 
871.000000	 64.325904 
870.000000	 64.311218 
869.000000	 64.311861 
868.000000	 64.328861 
867.000000	 64.360952 
866.000000	 64.404368 
865.000000	 64.453077 
864.000000	 64.499521 
863.000000	 64.536166 
862.000000	 64.556479 
861.000000	 64.556741 
860.000000	 64.536857 
859.000000	 64.500570 
858.000000	 64.454627 
857.000000	 64.407420 
856.000000	 64.367294 
855.000000	 64.340686 
854.000000	 64.331173 
853.000000	 64.338564 
852.000000	 64.359378 
851.000000	 64.387559 
850.000000	 64.415979 
849.000000	 64.437818 
848.000000	 64.447975 
847.000000	 64.443254 
846.000000	 64.423012 
845.000000	 64.389061 
844.000000	 64.345335 
843.000000	 64.296746 
842.000000	 64.248871 
841.000000	 64.206910 
840.000000	 64.174914 
839.000000	 64.155602 
838.000000	 64.149570 
837.000000	 64.155626 
836.000000	 64.170646 
835.000000	 64.190053 
834.000000	 64.208674 
833.000000	 64.221549 
832.000000	 64.225125 
831.000000	 64.217257 
830.000000	 64.198517 
829.000000	 64.171504 
828.000000	 64.140629 
827.000000	 64.110994 
826.000000	 64.086866 
825.000000	 64.070582 
824.000000	 64.062213 
823.000000	 64.059424 
822.000000	 64.058089 
821.000000	 64.053559 
820.000000	 64.041757 
819.000000	 64.020299 
818.000000	 63.988971 
817.000000	 63.949823 
816.000000	 63.906168 
815.000000	 63.862252 
814.000000	 63.821959 
813.000000	 63.788294 
812.000000	 63.763117 
811.000000	 63.746809 
810.000000	 63.738107 
809.000000	 63.735055 
808.000000	 63.735294 
807.000000	 63.737034 
806.000000	 63.739228 
805.000000	 63.742113 
804.000000	 63.746595 
803.000000	 63.753962 
802.000000	 63.765096 
801.000000	 63.780188 
800.000000	 63.798117 
799.000000	 63.817119 
798.000000	 63.834714 
797.000000	 63.848662 
796.000000	 63.857555 
795.000000	 63.860368 
794.000000	 63.857126 
793.000000	 63.848567 
792.000000	 63.836359 
791.000000	 63.822364 
790.000000	 63.808608 
789.000000	 63.797283 
788.000000	 63.790392 
787.000000	 63.789892 
786.000000	 63.797044 
785.000000	 63.812422 
784.000000	 63.835287 
783.000000	 63.863682 
782.000000	 63.894534 
781.000000	 63.924002 
780.000000	 63.948130 
779.000000	 63.963747 
778.000000	 63.968849 
777.000000	 63.963270 
776.000000	 63.948178 
775.000000	 63.926124 
774.000000	 63.900232 
773.000000	 63.873648 
772.000000	 63.849353 
771.000000	 63.829922 
770.000000	 63.817739 
769.000000	 63.814687 
768.000000	 63.822507 
767.000000	 63.842439 
766.000000	 63.874697 
765.000000	 63.917803 
764.000000	 63.968515 
763.000000	 64.021611 
762.000000	 64.070367 
761.000000	 64.107537 
760.000000	 64.126777 
759.000000	 64.123797 
758.000000	 64.097499 
757.000000	 64.049839 
756.000000	 63.985729 
755.000000	 63.911747 
754.000000	 63.835144 
753.000000	 63.762140 
752.000000	 63.697552 
751.000000	 63.643717 
750.000000	 63.601255 
749.000000	 63.569092 
748.000000	 63.545489 
747.000000	 63.528347 
746.000000	 63.515615 
745.000000	 63.505554 
744.000000	 63.496613 
743.000000	 63.487482 
742.000000	 63.476800 
741.000000	 63.463711 
740.000000	 63.447666 
739.000000	 63.429045 
738.000000	 63.408923 
737.000000	 63.388776 
736.000000	 63.370323 
735.000000	 63.354825 
734.000000	 63.342905 
733.000000	 63.334369 
732.000000	 63.328504 
731.000000	 63.324046 
730.000000	 63.320159 
729.000000	 63.316488 
728.000000	 63.313603 
727.000000	 63.312339 
726.000000	 63.314223 
725.000000	 63.320422 
724.000000	 63.331747 
723.000000	 63.347887 
722.000000	 63.367581 
721.000000	 63.388562 
720.000000	 63.408374 
719.000000	 63.424825 
718.000000	 63.436269 
717.000000	 63.441967 
716.000000	 63.442087 
715.000000	 63.437700 
714.000000	 63.430190 
713.000000	 63.421082 
712.000000	 63.411664 
711.000000	 63.402915 
710.000000	 63.395786 
709.000000	 63.391041 
708.000000	 63.389611 
707.000000	 63.391900 
706.000000	 63.398337 
705.000000	 63.408017 
704.000000	 63.419389 
703.000000	 63.429307 
702.000000	 63.433551 
701.000000	 63.427186 
700.000000	 63.406014 
699.000000	 63.367104 
698.000000	 63.309216 
697.000000	 63.234043 
696.000000	 63.146209 
695.000000	 63.052964 
694.000000	 62.963008 
693.000000	 62.885355 
692.000000	 62.827515 
691.000000	 62.794184 
690.000000	 62.786364 
689.000000	 62.800908 
688.000000	 62.831068 
687.000000	 62.867879 
686.000000	 62.901973 
685.000000	 62.924814 
684.000000	 62.930417 
683.000000	 62.915897 
682.000000	 62.882089 
681.000000	 62.832403 
680.000000	 62.772679 
679.000000	 62.709903 
678.000000	 62.651753 
677.000000	 62.605333 
676.000000	 62.576818 
675.000000	 62.570762 
674.000000	 62.589740 
673.000000	 62.633943 
672.000000	 62.700819 
671.000000	 62.785172 
670.000000	 62.879586 
669.000000	 62.975096 
668.000000	 63.062334 
667.000000	 63.132309 
666.000000	 63.178563 
665.000000	 63.198065 
664.000000	 63.191390 
663.000000	 63.162088 
662.000000	 63.116455 
661.000000	 63.062000 
660.000000	 63.004970 
659.000000	 62.949061 
658.000000	 62.895226 
657.000000	 62.842106 
656.000000	 62.786936 
655.000000	 62.727260 
654.000000	 62.662076 
653.000000	 62.592935 
652.000000	 62.523889 
651.000000	 62.460947 
650.000000	 62.409567 
649.000000	 62.374377 
648.000000	 62.357306 
647.000000	 62.358212 
646.000000	 62.373614 
645.000000	 62.399172 
644.000000	 62.430071 
643.000000	 62.462949 
642.000000	 62.495517 
641.000000	 62.527799 
640.000000	 62.561058 
639.000000	 62.597179 
638.000000	 62.637042 
637.000000	 62.680983 
636.000000	 62.728309 
635.000000	 62.777376 
634.000000	 62.825751 
633.000000	 62.870740 
632.000000	 62.909650 
631.000000	 62.940573 
630.000000	 62.962150 
629.000000	 62.973332 
628.000000	 62.972950 
627.000000	 62.960958 
626.000000	 62.936925 
625.000000	 62.900424 
624.000000	 62.850499 
623.000000	 62.787127 
622.000000	 62.710690 
621.000000	 62.622761 
620.000000	 62.526130 
619.000000	 62.425422 
618.000000	 62.326192 
617.000000	 62.234854 
616.000000	 62.156987 
615.000000	 62.096714 
614.000000	 62.055349 
613.000000	 62.031054 
612.000000	 62.019205 
611.000000	 62.013220 
610.000000	 62.007069 
609.000000	 61.996793 
608.000000	 61.981892 
607.000000	 61.965250 
606.000000	 61.952567 
605.000000	 61.950826 
604.000000	 61.965703 
603.000000	 61.999988 
602.000000	 62.053298 
601.000000	 62.121677 
600.000000	 62.198567 
599.000000	 62.275815 
598.000000	 62.345933 
597.000000	 62.402629 
596.000000	 62.442183 
595.000000	 62.463188 
594.000000	 62.466382 
593.000000	 62.454032 
592.000000	 62.429833 
591.000000	 62.397694 
590.000000	 62.361574 
589.000000	 62.325167 
588.000000	 62.292766 
587.000000	 62.267565 
586.000000	 62.251782 
585.000000	 62.246465 
584.000000	 62.251543 
583.000000	 62.265825 
582.000000	 62.287020 
581.000000	 62.312150 
580.000000	 62.337756 
579.000000	 62.359833 
578.000000	 62.374258 
577.000000	 62.376832 
576.000000	 62.364006 
575.000000	 62.333965 
574.000000	 62.287092 
573.000000	 62.225937 
572.000000	 62.155175 
571.000000	 62.081360 
570.000000	 62.011694 
569.000000	 61.951851 
568.000000	 61.906242 
567.000000	 61.877632 
566.000000	 61.867427 
565.000000	 61.874723 
564.000000	 61.898064 
563.000000	 61.935591 
562.000000	 61.985301 
561.000000	 62.044405 
560.000000	 62.109255 
559.000000	 62.175107 
558.000000	 62.236189 
557.000000	 62.286162 
556.000000	 62.319111 
555.000000	 62.330722 
554.000000	 62.319612 
553.000000	 62.287950 
552.000000	 62.240743 
551.000000	 62.184381 
550.000000	 62.125802 
549.000000	 62.070012 
548.000000	 62.018585 
547.000000	 61.968874 
546.000000	 61.915254 
545.000000	 61.850214 
544.000000	 61.767745 
543.000000	 61.664724 
542.000000	 61.542916 
541.000000	 61.408662 
540.000000	 61.270809 
539.000000	 61.139893 
538.000000	 61.024832 
537.000000	 60.932278 
536.000000	 60.864782 
535.000000	 60.821700 
534.000000	 60.799288 
533.000000	 60.792636 
532.000000	 60.796403 
531.000000	 60.806441 
530.000000	 60.819315 
529.000000	 60.834527 
528.000000	 60.853433 
527.000000	 60.878825 
526.000000	 60.913300 
525.000000	 60.959076 
524.000000	 61.016488 
523.000000	 61.082863 
522.000000	 61.152100 
521.000000	 61.215114 
520.000000	 61.261796 
519.000000	 61.282944 
518.000000	 61.273169 
517.000000	 61.232495 
516.000000	 61.167478 
515.000000	 61.091470 
514.000000	 61.020708 
513.000000	 60.970354 
512.000000	 60.950541 
511.000000	 60.964727 
510.000000	 61.007857 
509.000000	 61.068105 
508.000000	 61.129689 
507.000000	 61.177730 
506.000000	 61.200737 
505.000000	 61.193442 
504.000000	 61.156725 
503.000000	 61.096572 
502.000000	 61.021327 
501.000000	 60.939025 
500.000000	 60.854578 
499.000000	 60.768985 
498.000000	 60.680031 
497.000000	 60.584354 
496.000000	 60.478949 
495.000000	 60.364151 
494.000000	 60.244846 
493.000000	 60.131359 
492.000000	 60.035634 
491.000000	 59.970545 
490.000000	 59.947204 
489.000000	 59.972572 
488.000000	 60.045576 
487.000000	 60.157990 
486.000000	 60.296845 
485.000000	 60.444951 
484.000000	 60.583543 
483.000000	 60.695052 
482.000000	 60.765719 
481.000000	 60.787749 
480.000000	 60.759806 
479.000000	 60.687446 
478.000000	 60.581469 
477.000000	 60.456514 
476.000000	 60.329270 
475.000000	 60.212826 
474.000000	 60.114574 
473.000000	 60.035967 
472.000000	 59.973740 
471.000000	 59.920692 
470.000000	 59.867835 
469.000000	 59.809279 
468.000000	 59.741973 
467.000000	 59.663510 
466.000000	 59.570693 
465.000000	 59.460043 
464.000000	 59.326386 
463.000000	 59.163427 
462.000000	 58.965587 
461.000000	 58.730316 
460.000000	 58.460259 
459.000000	 58.164978 
458.000000	 57.860660 
457.000000	 57.564568 
456.000000	 57.297611 
455.000000	 57.079482 
454.000000	 56.928586 
453.000000	 56.853771 
452.000000	 56.861662 
451.000000	 56.954646 
450.000000	 57.131052 
449.000000	 57.381486 
448.000000	 57.693743 
447.000000	 58.052206 
446.000000	 58.438038 
445.000000	 58.829736 
444.000000	 59.208393 
443.000000	 59.559321 
442.000000	 59.875750 
441.000000	 60.156869 
440.000000	 60.407519 
439.000000	 60.631489 
438.000000	 60.831761 
437.000000	 61.001276 
436.000000	 61.129689 
435.000000	 61.196327 
434.000000	 61.174774 
433.000000	 61.037421 
432.000000	 60.777592 
431.000000	 60.399079 
430.000000	 59.923315 
429.000000	 59.378099 
428.000000	 58.796572 
427.000000	 58.205986 
426.000000	 57.629966 
425.000000	 57.078313 
424.000000	 56.545686 
423.000000	 56.026172 
422.000000	 55.527949 
421.000000	 55.052781 
420.000000	 54.592514 
419.000000	 54.155135 
418.000000	 53.765583 
417.000000	 53.452444 
416.000000	 53.242111 
415.000000	 53.157234 
414.000000	 53.203010 
413.000000	 53.378891 
412.000000	 53.651642 
411.000000	 53.963208 
410.000000	 54.209852 
409.000000	 54.248595 
408.000000	 53.924512 
407.000000	 53.084683 
406.000000	 51.649904 
405.000000	 49.660634 
404.000000	 47.281599 
403.000000	 44.776058 
402.000000	 42.465710 
401.000000	 40.627026 
400.000000	 39.498019 
399.000000	 39.175152 
398.000000	 39.726448 
397.000000	 41.158080 
396.000000	 43.521118 
395.000000	 46.922326 
394.000000	 51.396393 
393.000000	 56.815123 
392.000000	 62.937045 
391.000000	 69.391918 
390.000000	 75.626254 
389.000000	 80.991053 
388.000000	 84.833812 
387.000000	 86.660885 
386.000000	 86.335420 
385.000000	 84.071636 
384.000000	 80.595541 
383.000000	 76.774430 
382.000000	 73.319125 
381.000000	 70.624876 
380.000000	 68.399143 
379.000000	 66.130185 
378.000000	 63.595867 
377.000000	 60.770702 
376.000000	 58.413648 
375.000000	 57.171916 
374.000000	 56.978011 
373.000000	 57.428288 
372.000000	 56.989741 
371.000000	 55.100011 
370.000000	 52.574014 

