PE IR       SPECTRUM    SPECTRUM    ASCII       PEDS        1.60        
  -1
C-9C6F~1.ASC
17/03/27
19:42:13.00
17/03/27
19:42:13.00
tln
$C-4040-8_t0064$<tbV0>[-7.8,0.0,8.0,0.0,27,1,0]
370.000000
64









2002,4.07    
MIRTGS : RIGHTBACK : INTERNAL 2
MIR : ON : INTERNAL 2
OPTKBR

0.200000
8
8.000000
FILLER
RATIO
SPECTRUM
UNLOCKED 256

DOUBLE
64
COMBINED
1
0
0


1.000000
RATIO


1
0
TRUE
51149
0
LEFT NOT FITTED RIGHT NOT FITTED 0
NONE
NONE
15600
12.000000
4.427000
51148
TRUE
1 0 8 72 0 0 0 0 

15798.010000






#HDR
-1
-1
#GR
CM-1
%T
0.00002384185791015625
0.0
5000.000000
-1.000000
4631
8
86.143970
54.368042
#DATA
5000.000000	64.573979 
4999.000000	64.612340 
4998.000000	64.653921 
4997.000000	64.692735 
4996.000000	64.725565 
4995.000000	64.752173 
4994.000000	64.775252 
4993.000000	64.799070 
4992.000000	64.827942 
4991.000000	64.864659 
4990.000000	64.908957 
4989.000000	64.957022 
4988.000000	65.002608 
4987.000000	65.038871 
4986.000000	65.059542 
4985.000000	65.060901 
4984.000000	65.042424 
4983.000000	65.006995 
4982.000000	64.959907 
4981.000000	64.907765 
4980.000000	64.856767 
4979.000000	64.811563 
4978.000000	64.775204 
4977.000000	64.749145 
4976.000000	64.733457 
4975.000000	64.727663 
4974.000000	64.731574 
4973.000000	64.744806 
4972.000000	64.766335 
4971.000000	64.794039 
4970.000000	64.824295 
4969.000000	64.852190 
4968.000000	64.872002 
4967.000000	64.877915 
4966.000000	64.865422 
4965.000000	64.832353 
4964.000000	64.780092 
4963.000000	64.713001 
4962.000000	64.637470 
4961.000000	64.561128 
4960.000000	64.491558 
4959.000000	64.434909 
4958.000000	64.394998 
4957.000000	64.372777 
4956.000000	64.366674 
4955.000000	64.373254 
4954.000000	64.388465 
4953.000000	64.408349 
4952.000000	64.430379 
4951.000000	64.453101 
4950.000000	64.476966 
4949.000000	64.503455 
4948.000000	64.535069 
4947.000000	64.574337 
4946.000000	64.622926 
4945.000000	64.681553 
4944.000000	64.747977 
4943.000000	64.818620 
4942.000000	64.886617 
4941.000000	64.943838 
4940.000000	64.980554 
4939.000000	64.988207 
4938.000000	64.960455 
4937.000000	64.894771 
4936.000000	64.794421 
4935.000000	64.668369 
4934.000000	64.531278 
4933.000000	64.401030 
4932.000000	64.296030 
4931.000000	64.231920 
4930.000000	64.217925 
4929.000000	64.254999 
4928.000000	64.335012 
4927.000000	64.442849 
4926.000000	64.558959 
4925.000000	64.663839 
4924.000000	64.741587 
4923.000000	64.783191 
4922.000000	64.787435 
4921.000000	64.760684 
4920.000000	64.713478 
4919.000000	64.658308 
4918.000000	64.606809 
4917.000000	64.567089 
4916.000000	64.542722 
4915.000000	64.533090 
4914.000000	64.535784 
4913.000000	64.547491 
4912.000000	64.566135 
4911.000000	64.591073 
4910.000000	64.622879 
4909.000000	64.662551 
4908.000000	64.709687 
4907.000000	64.762187 
4906.000000	64.815664 
4905.000000	64.864253 
4904.000000	64.901900 
4903.000000	64.923167 
4902.000000	64.924693 
4901.000000	64.907026 
4900.000000	64.874505 
4899.000000	64.834547 
4898.000000	64.795470 
4897.000000	64.765286 
4896.000000	64.748096 
4895.000000	64.743638 
4894.000000	64.745688 
4893.000000	64.743089 
4892.000000	64.722824 
4891.000000	64.673471 
4890.000000	64.589524 
4889.000000	64.472842 
4888.000000	64.334321 
4887.000000	64.191436 
4886.000000	64.065003 
4885.000000	63.974571 
4884.000000	63.933324 
4883.000000	63.944458 
4882.000000	64.000844 
4881.000000	64.086484 
4880.000000	64.182090 
4879.000000	64.269900 
4878.000000	64.339017 
4877.000000	64.387035 
4876.000000	64.420342 
4875.000000	64.450645 
4874.000000	64.490246 
4873.000000	64.546918 
4872.000000	64.620447 
4871.000000	64.701604 
4870.000000	64.775061 
4869.000000	64.822745 
4868.000000	64.829516 
4867.000000	64.787268 
4866.000000	64.698457 
4865.000000	64.575862 
4864.000000	64.438891 
4863.000000	64.310121 
4862.000000	64.209556 
4861.000000	64.150786 
4860.000000	64.139175 
4859.000000	64.170932 
4858.000000	64.235663 
4857.000000	64.318585 
4856.000000	64.404201 
4855.000000	64.479470 
4854.000000	64.535355 
4853.000000	64.568686 
4852.000000	64.580774 
4851.000000	64.577126 
4850.000000	64.564871 
4849.000000	64.551758 
4848.000000	64.544010 
4847.000000	64.545392 
4846.000000	64.556741 
4845.000000	64.576840 
4844.000000	64.603018 
4843.000000	64.632129 
4842.000000	64.661502 
4841.000000	64.689564 
4840.000000	64.715790 
4839.000000	64.740586 
4838.000000	64.763998 
4837.000000	64.785170 
4836.000000	64.801573 
4835.000000	64.809560 
4834.000000	64.804959 
4833.000000	64.784049 
4832.000000	64.745235 
4831.000000	64.690327 
4830.000000	64.624428 
4829.000000	64.555096 
4828.000000	64.491271 
4827.000000	64.441323 
4826.000000	64.411664 
4825.000000	64.405441 
4824.000000	64.421844 
4823.000000	64.456081 
4822.000000	64.501428 
4821.000000	64.550828 
4820.000000	64.597535 
4819.000000	64.636492 
4818.000000	64.664435 
4817.000000	64.680647 
4816.000000	64.685916 
4815.000000	64.682936 
4814.000000	64.675974 
4813.000000	64.670538 
4812.000000	64.672875 
4811.000000	64.688372 
4810.000000	64.720797 
4809.000000	64.770674 
4808.000000	64.835143 
4807.000000	64.907813 
4806.000000	64.980053 
4805.000000	65.042424 
4804.000000	65.086889 
4803.000000	65.108489 
4802.000000	65.106797 
4801.000000	65.084981 
4800.000000	65.049457 
4799.000000	65.006828 
4798.000000	64.962244 
4797.000000	64.918017 
4796.000000	64.873743 
4795.000000	64.827060 
4794.000000	64.775395 
4793.000000	64.717817 
4792.000000	64.656233 
4791.000000	64.594626 
4790.000000	64.538598 
4789.000000	64.493179 
4788.000000	64.462637 
4787.000000	64.449262 
4786.000000	64.453792 
4785.000000	64.475464 
4784.000000	64.512515 
4783.000000	64.562416 
4782.000000	64.621448 
4781.000000	64.684820 
4780.000000	64.746308 
4779.000000	64.798402 
4778.000000	64.833402 
4777.000000	64.844083 
4776.000000	64.826178 
4775.000000	64.779567 
4774.000000	64.709091 
4773.000000	64.624166 
4772.000000	64.536833 
4771.000000	64.459776 
4770.000000	64.403653 
4769.000000	64.375042 
4768.000000	64.375972 
4767.000000	64.403963 
4766.000000	64.453554 
4765.000000	64.518094 
4764.000000	64.590811 
4763.000000	64.666152 
4762.000000	64.739871 
4761.000000	64.809298 
4760.000000	64.872741 
4759.000000	64.929056 
4758.000000	64.977526 
4757.000000	65.017151 
4756.000000	65.047073 
4755.000000	65.066123 
4754.000000	65.074443 
4753.000000	65.072083 
4752.000000	65.060210 
4751.000000	65.040206 
4750.000000	65.014338 
4749.000000	64.985013 
4748.000000	64.955019 
4747.000000	64.926910 
4746.000000	64.903283 
4745.000000	64.885735 
4744.000000	64.874863 
4743.000000	64.869952 
4742.000000	64.869260 
4741.000000	64.869904 
4740.000000	64.868545 
4739.000000	64.862155 
4738.000000	64.848875 
4737.000000	64.827799 
4736.000000	64.799475 
4735.000000	64.765501 
4734.000000	64.728403 
4733.000000	64.691376 
4732.000000	64.657807 
4731.000000	64.630484 
4730.000000	64.611673 
4729.000000	64.602828 
4728.000000	64.604616 
4727.000000	64.616441 
4726.000000	64.637255 
4725.000000	64.665293 
4724.000000	64.698910 
4723.000000	64.736056 
4722.000000	64.775156 
4721.000000	64.814805 
4720.000000	64.854383 
4719.000000	64.893364 
4718.000000	64.931917 
4717.000000	64.970326 
4716.000000	65.008902 
4715.000000	65.047478 
4714.000000	65.085220 
4713.000000	65.120315 
4712.000000	65.150499 
4711.000000	65.173196 
4710.000000	65.186429 
4709.000000	65.189313 
4708.000000	65.182614 
4707.000000	65.168642 
4706.000000	65.151095 
4705.000000	65.134072 
4704.000000	65.121340 
4703.000000	65.115427 
4702.000000	65.117383 
4701.000000	65.126419 
4700.000000	65.140366 
4699.000000	65.156197 
4698.000000	65.171027 
4697.000000	65.182542 
4696.000000	65.189480 
4695.000000	65.191626 
4694.000000	65.189576 
4693.000000	65.184283 
4692.000000	65.176725 
4691.000000	65.167689 
4690.000000	65.157628 
4689.000000	65.146970 
4688.000000	65.136075 
4687.000000	65.125513 
4686.000000	65.116167 
4685.000000	65.108728 
4684.000000	65.103554 
4683.000000	65.100812 
4682.000000	65.099978 
4681.000000	65.099740 
4680.000000	65.097665 
4679.000000	65.090751 
4678.000000	65.075540 
4677.000000	65.048956 
4676.000000	65.009045 
4675.000000	64.955329 
4674.000000	64.889597 
4673.000000	64.815640 
4672.000000	64.739346 
4671.000000	64.667558 
4670.000000	64.607524 
4669.000000	64.564919 
4668.000000	64.543890 
4667.000000	64.545726 
4666.000000	64.569306 
4665.000000	64.610862 
4664.000000	64.665031 
4663.000000	64.725661 
4662.000000	64.786434 
4661.000000	64.841723 
4660.000000	64.886569 
4659.000000	64.916706 
4658.000000	64.929008 
4657.000000	64.921784 
4656.000000	64.894962 
4655.000000	64.850521 
4654.000000	64.793038 
4653.000000	64.729237 
4652.000000	64.667367 
4651.000000	64.615488 
4650.000000	64.580702 
4649.000000	64.566969 
4648.000000	64.574694 
4647.000000	64.599823 
4646.000000	64.634776 
4645.000000	64.670085 
4644.000000	64.696240 
4643.000000	64.706301 
4642.000000	64.696502 
4641.000000	64.668130 
4640.000000	64.626479 
4639.000000	64.580249 
4638.000000	64.539170 
4637.000000	64.512181 
4636.000000	64.505338 
4635.000000	64.520978 
4634.000000	64.557743 
4633.000000	64.610695 
4632.000000	64.672994 
4631.000000	64.737272 
4630.000000	64.797139 
4629.000000	64.848303 
4628.000000	64.888882 
4627.000000	64.919304 
4626.000000	64.941287 
4625.000000	64.957237 
4624.000000	64.968705 
4623.000000	64.976453 
4622.000000	64.979314 
4621.000000	64.975547 
4620.000000	64.961767 
4619.000000	64.935684 
4618.000000	64.895224 
4617.000000	64.839696 
4616.000000	64.770126 
4615.000000	64.689612 
4614.000000	64.603328 
4613.000000	64.517474 
4612.000000	64.439320 
4611.000000	64.375710 
4610.000000	64.332795 
4609.000000	64.314961 
4608.000000	64.324140 
4607.000000	64.359235 
4606.000000	64.416503 
4605.000000	64.489865 
4604.000000	64.571833 
4603.000000	64.654278 
4602.000000	64.730262 
4601.000000	64.794349 
4600.000000	64.842653 
4599.000000	64.872670 
4598.000000	64.883303 
4597.000000	64.874267 
4596.000000	64.845895 
4595.000000	64.799380 
4594.000000	64.737057 
4593.000000	64.663743 
4592.000000	64.586877 
4591.000000	64.516258 
4590.000000	64.462900 
4589.000000	64.437031 
4588.000000	64.446330 
4587.000000	64.493203 
4586.000000	64.573597 
4585.000000	64.677405 
4584.000000	64.789843 
4583.000000	64.895129 
4582.000000	64.979481 
4581.000000	65.034127 
4580.000000	65.056681 
4579.000000	65.050673 
4578.000000	65.023636 
4577.000000	64.983987 
4576.000000	64.938402 
4575.000000	64.890241 
4574.000000	64.839220 
4573.000000	64.782762 
4572.000000	64.718198 
4571.000000	64.645552 
4570.000000	64.568972 
4569.000000	64.496254 
4568.000000	64.438152 
4567.000000	64.405369 
4566.000000	64.406037 
4565.000000	64.442348 
4564.000000	64.510273 
4563.000000	64.599800 
4562.000000	64.697027 
4561.000000	64.787554 
4560.000000	64.858579 
4559.000000	64.901423 
4558.000000	64.912176 
4557.000000	64.891958 
4556.000000	64.844870 
4555.000000	64.776468 
4554.000000	64.692234 
4553.000000	64.596962 
4552.000000	64.494323 
4551.000000	64.387321 
4550.000000	64.279603 
4549.000000	64.175987 
4548.000000	64.082407 
4547.000000	64.005208 
4546.000000	63.950157 
4545.000000	63.920903 
4544.000000	63.916754 
4543.000000	63.933110 
4542.000000	63.961720 
4541.000000	63.992881 
4540.000000	64.017033 
4539.000000	64.027523 
4538.000000	64.021468 
4537.000000	64.000701 
4536.000000	63.970279 
4535.000000	63.937425 
4534.000000	63.908600 
4533.000000	63.888883 
4532.000000	63.880872 
4531.000000	63.884782 
4530.000000	63.898849 
4529.000000	63.921523 
4528.000000	63.952445 
4527.000000	63.992810 
4526.000000	64.045047 
4525.000000	64.111733 
4524.000000	64.194178 
4523.000000	64.291667 
4522.000000	64.400768 
4521.000000	64.515542 
4520.000000	64.628434 
4519.000000	64.732694 
4518.000000	64.823102 
4517.000000	64.896774 
4516.000000	64.952945 
4515.000000	64.993429 
4514.000000	65.020251 
4513.000000	65.035772 
4512.000000	65.040230 
4511.000000	65.033793 
4510.000000	65.014052 
4509.000000	64.978599 
4508.000000	64.924597 
4507.000000	64.851117 
4506.000000	64.759469 
4505.000000	64.654111 
4504.000000	64.542222 
4503.000000	64.432549 
4502.000000	64.334416 
4501.000000	64.255976 
4500.000000	64.203095 
4499.000000	64.178061 
4498.000000	64.180278 
4497.000000	64.206600 
4496.000000	64.251637 
4495.000000	64.308619 
4494.000000	64.370727 
4493.000000	64.431715 
4492.000000	64.485359 
4491.000000	64.526486 
4490.000000	64.551019 
4489.000000	64.557003 
4488.000000	64.544129 
4487.000000	64.514970 
4486.000000	64.475512 
4485.000000	64.433741 
4484.000000	64.399194 
4483.000000	64.379644 
4482.000000	64.380049 
4481.000000	64.400053 
4480.000000	64.434385 
4479.000000	64.473748 
4478.000000	64.507412 
4477.000000	64.525818 
4476.000000	64.523434 
4475.000000	64.498972 
4474.000000	64.455342 
4473.000000	64.398765 
4472.000000	64.336872 
4471.000000	64.276576 
4470.000000	64.222550 
4469.000000	64.177179 
4468.000000	64.140653 
4467.000000	64.111471 
4466.000000	64.087510 
4465.000000	64.066910 
4464.000000	64.049196 
4463.000000	64.035224 
4462.000000	64.027357 
4461.000000	64.027857 
4460.000000	64.038562 
4459.000000	64.060306 
4458.000000	64.091968 
4457.000000	64.130735 
4456.000000	64.171767 
4455.000000	64.209103 
4454.000000	64.236783 
4453.000000	64.249491 
4452.000000	64.244890 
4451.000000	64.224100 
4450.000000	64.191937 
4449.000000	64.156055 
4448.000000	64.124941 
4447.000000	64.106059 
4446.000000	64.103960 
4445.000000	64.119267 
4444.000000	64.149284 
4443.000000	64.188861 
4442.000000	64.232063 
4441.000000	64.273643 
4440.000000	64.309334 
4439.000000	64.336824 
4438.000000	64.354634 
4437.000000	64.362645 
4436.000000	64.361548 
4435.000000	64.352822 
4434.000000	64.338994 
4433.000000	64.322829 
4432.000000	64.307594 
4431.000000	64.295578 
4430.000000	64.288330 
4429.000000	64.284944 
4428.000000	64.283132 
4427.000000	64.278388 
4426.000000	64.265251 
4425.000000	64.238739 
4424.000000	64.195609 
4423.000000	64.136290 
4422.000000	64.064908 
4421.000000	63.989591 
4420.000000	63.920879 
4419.000000	63.868951 
4418.000000	63.840889 
4417.000000	63.838863 
4416.000000	63.859486 
4415.000000	63.893103 
4414.000000	63.926506 
4413.000000	63.945770 
4412.000000	63.940000 
4411.000000	63.905811 
4410.000000	63.848018 
4409.000000	63.774704 
4408.000000	63.696479 
4407.000000	63.630056 
4406.000000	63.589882 
4405.000000	63.576149 
4404.000000	63.580584 
4403.000000	63.595986 
4402.000000	63.613295 
4401.000000	63.618183 
4400.000000	63.602185 
4399.000000	63.569617 
4398.000000	63.530826 
4397.000000	63.498449 
4396.000000	63.482856 
4395.000000	63.486194 
4394.000000	63.504242 
4393.000000	63.530993 
4392.000000	63.549566 
4391.000000	63.535094 
4390.000000	63.467192 
4389.000000	63.338756 
4388.000000	63.151192 
4387.000000	62.922024 
4386.000000	62.688016 
4385.000000	62.509918 
4384.000000	62.454247 
4383.000000	62.598609 
4382.000000	63.015055 
4381.000000	63.771390 
4380.000000	64.904713 
4379.000000	66.428136 
4378.000000	68.315196 
4377.000000	70.509457 
4376.000000	72.919607 
4375.000000	75.432729 
4374.000000	77.937293 
4373.000000	80.306816 
4372.000000	82.439160 
4371.000000	84.207630 
4370.000000	85.489130 
4369.000000	86.143970 
4368.000000	86.057972 
4367.000000	85.150551 
4366.000000	83.421635 
4365.000000	80.957961 
4364.000000	77.952742 
4363.000000	74.656009 
4362.000000	71.348547 
4361.000000	68.288922 
4360.000000	65.682601 
4359.000000	63.670492 
4358.000000	62.318587 
4357.000000	61.626005 
4356.000000	61.531448 
4355.000000	61.912226 
4354.000000	62.616586 
4353.000000	63.445949 
4352.000000	64.223980 
4351.000000	64.804911 
4350.000000	65.120816 
4349.000000	65.167331 
4348.000000	65.010428 
4347.000000	64.752411 
4346.000000	64.504432 
4345.000000	64.340662 
4344.000000	64.296340 
4343.000000	64.371418 
4342.000000	64.529728 
4341.000000	64.723420 
4340.000000	64.902615 
4339.000000	65.036821 
4338.000000	65.111541 
4337.000000	65.129518 
4336.000000	65.104603 
4335.000000	65.052986 
4334.000000	64.992856 
4333.000000	64.939117 
4332.000000	64.893770 
4331.000000	64.847564 
4330.000000	64.798426 
4329.000000	64.749145 
4328.000000	64.699721 
4327.000000	64.650535 
4326.000000	64.606904 
4325.000000	64.574885 
4324.000000	64.556217 
4323.000000	64.549994 
4322.000000	64.551949 
4321.000000	64.556503 
4320.000000	64.560341 
4319.000000	64.561033 
4318.000000	64.555382 
4317.000000	64.542436 
4316.000000	64.523148 
4315.000000	64.500427 
4314.000000	64.478516 
4313.000000	64.460921 
4312.000000	64.448809 
4311.000000	64.441394 
4310.000000	64.436125 
4309.000000	64.429664 
4308.000000	64.419174 
4307.000000	64.402413 
4306.000000	64.378786 
4305.000000	64.349508 
4304.000000	64.317703 
4303.000000	64.287352 
4302.000000	64.262866 
4301.000000	64.247751 
4300.000000	64.244079 
4299.000000	64.252424 
4298.000000	64.271450 
4297.000000	64.297986 
4296.000000	64.327621 
4295.000000	64.355611 
4294.000000	64.377522 
4293.000000	64.389491 
4292.000000	64.389991 
4291.000000	64.379262 
4290.000000	64.360785 
4289.000000	64.340162 
4288.000000	64.324545 
4287.000000	64.321088 
4286.000000	64.335298 
4285.000000	64.369821 
4284.000000	64.423131 
4283.000000	64.489769 
4282.000000	64.560794 
4281.000000	64.625835 
4280.000000	64.675021 
4279.000000	64.701247 
4278.000000	64.701366 
4277.000000	64.676761 
4276.000000	64.632892 
4275.000000	64.577889 
4274.000000	64.520668 
4273.000000	64.469122 
4272.000000	64.429211 
4271.000000	64.403963 
4270.000000	64.394259 
4269.000000	64.398741 
4268.000000	64.415550 
4267.000000	64.441943 
4266.000000	64.475083 
4265.000000	64.511704 
4264.000000	64.547967 
4263.000000	64.579844 
4262.000000	64.602875 
4261.000000	64.613533 
4260.000000	64.609313 
4259.000000	64.589905 
4258.000000	64.557385 
4257.000000	64.516043 
4256.000000	64.471793 
4255.000000	64.430499 
4254.000000	64.396977 
4253.000000	64.373993 
4252.000000	64.362049 
4251.000000	64.359712 
4250.000000	64.364266 
4249.000000	64.372467 
4248.000000	64.381623 
4247.000000	64.389491 
4246.000000	64.394998 
4245.000000	64.397215 
4244.000000	64.396190 
4243.000000	64.392280 
4242.000000	64.386868 
4241.000000	64.381814 
4240.000000	64.379811 
4239.000000	64.383769 
4238.000000	64.396095 
4237.000000	64.418244 
4236.000000	64.449715 
4235.000000	64.487910 
4234.000000	64.528560 
4233.000000	64.566421 
4232.000000	64.596962 
4231.000000	64.617395 
4230.000000	64.627599 
4229.000000	64.630270 
4228.000000	64.630055 
4227.000000	64.632248 
4226.000000	64.641141 
4225.000000	64.658904 
4224.000000	64.685201 
4223.000000	64.717102 
4222.000000	64.750742 
4221.000000	64.781713 
4220.000000	64.806485 
4219.000000	64.822673 
4218.000000	64.829087 
4217.000000	64.825582 
4216.000000	64.813113 
4215.000000	64.793205 
4214.000000	64.767050 
4213.000000	64.736390 
4212.000000	64.703536 
4211.000000	64.671802 
4210.000000	64.645314 
4209.000000	64.628601 
4208.000000	64.625811 
4207.000000	64.639377 
4206.000000	64.669632 
4205.000000	64.713644 
4204.000000	64.765381 
4203.000000	64.816641 
4202.000000	64.858627 
4201.000000	64.883947 
4200.000000	64.888167 
4199.000000	64.871120 
4198.000000	64.836525 
4197.000000	64.791321 
4196.000000	64.743328 
4195.000000	64.699673 
4194.000000	64.664053 
4193.000000	64.636111 
4192.000000	64.611148 
4191.000000	64.581584 
4190.000000	64.539456 
4189.000000	64.478754 
4188.000000	64.398360 
4187.000000	64.301991 
4186.000000	64.199495 
4185.000000	64.103913 
4184.000000	64.030218 
4183.000000	63.990759 
4182.000000	63.993644 
4181.000000	64.039969 
4180.000000	64.124345 
4179.000000	64.235615 
4178.000000	64.359521 
4177.000000	64.481091 
4176.000000	64.587950 
4175.000000	64.672040 
4174.000000	64.730334 
4173.000000	64.764094 
4172.000000	64.777922 
4171.000000	64.777827 
4170.000000	64.769530 
4169.000000	64.756727 
4168.000000	64.741611 
4167.000000	64.724278 
4166.000000	64.704084 
4165.000000	64.680075 
4164.000000	64.652466 
4163.000000	64.622545 
4162.000000	64.592742 
4161.000000	64.566230 
4160.000000	64.545893 
4159.000000	64.534235 
4158.000000	64.532232 
4157.000000	64.540028 
4156.000000	64.556217 
4155.000000	64.579129 
4154.000000	64.606690 
4153.000000	64.637613 
4152.000000	64.671158 
4151.000000	64.707708 
4150.000000	64.747953 
4149.000000	64.793109 
4148.000000	64.843750 
4147.000000	64.900040 
4146.000000	64.961194 
4145.000000	65.024924 
4144.000000	65.087485 
4143.000000	65.144681 
4142.000000	65.192079 
4141.000000	65.225791 
4140.000000	65.242648 
4139.000000	65.241098 
4138.000000	65.221047 
4137.000000	65.184593 
4136.000000	65.135264 
4135.000000	65.077805 
4134.000000	65.017294 
4133.000000	64.959001 
4132.000000	64.907312 
4131.000000	64.865279 
4130.000000	64.834451 
4129.000000	64.814901 
4128.000000	64.806032 
4127.000000	64.806556 
4126.000000	64.815402 
4125.000000	64.831542 
4124.000000	64.854025 
4123.000000	64.881849 
4122.000000	64.913201 
4121.000000	64.944887 
4120.000000	64.972972 
4119.000000	64.993143 
4118.000000	65.001153 
4117.000000	64.994025 
4116.000000	64.970898 
4115.000000	64.933681 
4114.000000	64.886999 
4113.000000	64.837336 
4112.000000	64.792275 
4111.000000	64.758825 
4110.000000	64.742326 
4109.000000	64.745092 
4108.000000	64.765810 
4107.000000	64.800047 
4106.000000	64.841341 
4105.000000	64.882802 
4104.000000	64.918136 
4103.000000	64.943337 
4102.000000	64.957070 
4101.000000	64.960336 
4100.000000	64.955759 
4099.000000	64.946198 
4098.000000	64.933967 
4097.000000	64.919972 
4096.000000	64.903783 
4095.000000	64.883947 
4094.000000	64.858961 
4093.000000	64.828133 
4092.000000	64.792418 
4091.000000	64.754247 
4090.000000	64.717555 
4089.000000	64.686846 
4088.000000	64.666509 
4087.000000	64.659762 
4086.000000	64.668512 
4085.000000	64.693117 
4084.000000	64.732909 
4083.000000	64.786410 
4082.000000	64.851403 
4081.000000	64.924764 
4080.000000	65.002417 
4079.000000	65.079712 
4078.000000	65.151119 
4077.000000	65.211129 
4076.000000	65.254426 
4075.000000	65.277338 
4074.000000	65.277862 
4073.000000	65.256547 
4072.000000	65.216159 
4071.000000	65.161824 
4070.000000	65.099549 
4069.000000	65.035891 
4068.000000	64.976763 
4067.000000	64.926838 
4066.000000	64.889001 
4065.000000	64.864277 
4064.000000	64.851951 
4063.000000	64.850068 
4062.000000	64.855885 
4061.000000	64.866590 
4060.000000	64.879560 
4059.000000	64.893078 
4058.000000	64.906382 
4057.000000	64.919710 
4056.000000	64.933919 
4055.000000	64.949774 
4054.000000	64.967155 
4053.000000	64.985013 
4052.000000	65.000915 
4051.000000	65.012192 
4050.000000	65.016460 
4049.000000	65.012788 
4048.000000	65.002083 
4047.000000	64.987468 
4046.000000	64.973568 
4045.000000	64.965438 
4044.000000	64.967346 
4043.000000	64.981222 
4042.000000	65.006375 
4041.000000	65.039181 
4040.000000	65.074014 
4039.000000	65.104269 
4038.000000	65.124130 
4037.000000	65.129661 
4036.000000	65.119743 
4035.000000	65.095639 
4034.000000	65.060663 
4033.000000	65.019178 
4032.000000	64.975786 
4031.000000	64.934778 
4030.000000	64.899730 
4029.000000	64.873433 
4028.000000	64.857864 
4027.000000	64.854407 
4026.000000	64.863777 
4025.000000	64.885687 
4024.000000	64.919185 
4023.000000	64.962148 
4022.000000	65.011596 
4021.000000	65.064001 
4020.000000	65.115356 
4019.000000	65.161705 
4018.000000	65.199375 
4017.000000	65.225720 
4016.000000	65.238618 
4015.000000	65.237092 
4014.000000	65.221071 
4013.000000	65.191721 
4012.000000	65.151119 
4011.000000	65.102386 
4010.000000	65.049266 
4009.000000	64.996004 
4008.000000	64.946770 
4007.000000	64.904999 
4006.000000	64.872741 
4005.000000	64.850568 
4004.000000	64.837551 
4003.000000	64.831972 
4002.000000	64.831471 
4001.000000	64.834356 
4000.000000	64.839649 
3999.000000	64.847707 
3998.000000	64.859700 
3997.000000	64.877486 
3996.000000	64.902496 
3995.000000	64.935135 
3994.000000	64.974164 
3993.000000	65.016627 
3992.000000	65.058636 
3991.000000	65.095829 
3990.000000	65.124583 
3989.000000	65.142798 
3988.000000	65.150499 
3987.000000	65.149593 
3986.000000	65.143299 
3985.000000	65.135121 
3984.000000	65.127897 
3983.000000	65.123105 
3982.000000	65.120506 
3981.000000	65.118217 
3980.000000	65.113282 
3979.000000	65.103268 
3978.000000	65.086674 
3977.000000	65.063667 
3976.000000	65.036177 
3975.000000	65.007448 
3974.000000	64.981293 
3973.000000	64.960789 
3972.000000	64.947724 
3971.000000	64.941835 
3970.000000	64.941620 
3969.000000	64.944648 
3968.000000	64.948844 
3967.000000	64.952611 
3966.000000	64.955973 
3965.000000	64.960384 
3964.000000	64.968204 
3963.000000	64.981365 
3962.000000	65.001058 
3961.000000	65.027046 
3960.000000	65.057349 
3959.000000	65.088510 
3958.000000	65.116882 
3957.000000	65.139698 
3956.000000	65.155506 
3955.000000	65.164542 
3954.000000	65.168690 
3953.000000	65.170812 
3952.000000	65.173768 
3951.000000	65.179443 
3950.000000	65.188407 
3949.000000	65.199542 
3948.000000	65.210795 
3947.000000	65.219402 
3946.000000	65.222883 
3945.000000	65.219354 
3944.000000	65.208601 
3943.000000	65.191292 
3942.000000	65.168714 
3941.000000	65.142393 
3940.000000	65.114045 
3939.000000	65.085053 
3938.000000	65.056395 
3937.000000	65.028572 
3936.000000	65.001845 
3935.000000	64.976072 
3934.000000	64.950847 
3933.000000	64.925122 
3932.000000	64.897727 
3931.000000	64.867353 
3930.000000	64.833259 
3929.000000	64.795255 
3928.000000	64.754080 
3927.000000	64.711356 
3926.000000	64.669251 
3925.000000	64.629888 
3924.000000	64.595317 
3923.000000	64.567112 
3922.000000	64.546704 
3921.000000	64.534735 
3920.000000	64.532184 
3919.000000	64.539885 
3918.000000	64.559197 
3917.000000	64.591121 
3916.000000	64.636254 
3915.000000	64.693903 
3914.000000	64.761710 
3913.000000	64.835333 
3912.000000	64.908671 
3911.000000	64.974761 
3910.000000	65.026950 
3909.000000	65.060234 
3908.000000	65.072178 
3907.000000	65.063309 
3906.000000	65.037393 
3905.000000	65.001106 
3904.000000	64.961957 
3903.000000	64.927172 
3902.000000	64.902710 
3901.000000	64.891982 
3900.000000	64.895415 
3899.000000	64.910483 
3898.000000	64.932823 
3897.000000	64.957499 
3896.000000	64.979648 
3895.000000	64.996051 
3894.000000	65.005064 
3893.000000	65.007114 
3892.000000	65.003895 
3891.000000	64.997911 
3890.000000	64.991402 
3889.000000	64.985609 
3888.000000	64.980840 
3887.000000	64.976286 
3886.000000	64.970445 
3885.000000	64.962029 
3884.000000	64.950656 
3883.000000	64.937376 
3882.000000	64.924454 
3881.000000	64.915823 
3880.000000	64.916110 
3879.000000	64.929819 
3878.000000	64.959692 
3877.000000	65.006566 
3876.000000	65.068674 
3875.000000	65.141773 
3874.000000	65.219521 
3873.000000	65.294671 
3872.000000	65.360164 
3871.000000	65.410423 
3870.000000	65.441632 
3869.000000	65.452480 
3868.000000	65.443587 
3867.000000	65.417432 
3866.000000	65.377616 
3865.000000	65.328764 
3864.000000	65.275478 
3863.000000	65.222525 
3862.000000	65.173935 
3861.000000	65.133595 
3860.000000	65.104103 
3859.000000	65.086936 
3858.000000	65.081930 
3857.000000	65.087413 
3856.000000	65.100288 
3855.000000	65.116500 
3854.000000	65.131759 
3853.000000	65.141987 
3852.000000	65.144324 
3851.000000	65.137553 
3850.000000	65.122079 
3849.000000	65.099811 
3848.000000	65.073299 
3847.000000	65.045285 
3846.000000	65.018320 
3845.000000	64.994168 
3844.000000	64.973831 
3843.000000	64.957118 
3842.000000	64.943313 
3841.000000	64.931035 
3840.000000	64.918732 
3839.000000	64.904427 
3838.000000	64.886593 
3837.000000	64.863729 
3836.000000	64.834856 
3835.000000	64.799690 
3834.000000	64.758396 
3833.000000	64.712643 
3832.000000	64.665055 
3831.000000	64.620137 
3830.000000	64.583253 
3829.000000	64.560484 
3828.000000	64.557266 
3827.000000	64.577007 
3826.000000	64.619922 
3825.000000	64.682388 
3824.000000	64.757132 
3823.000000	64.834403 
3822.000000	64.903569 
3821.000000	64.955353 
3820.000000	64.983820 
3819.000000	64.987587 
3818.000000	64.969968 
3817.000000	64.938354 
3816.000000	64.902091 
3815.000000	64.870476 
3814.000000	64.850378 
3813.000000	64.845609 
3812.000000	64.855861 
3811.000000	64.878058 
3810.000000	64.906764 
3809.000000	64.936637 
3808.000000	64.963030 
3807.000000	64.982938 
3806.000000	64.995121 
3805.000000	64.999461 
3804.000000	64.997339 
3803.000000	64.990568 
3802.000000	64.981460 
3801.000000	64.972209 
3800.000000	64.964866 
3799.000000	64.961123 
3798.000000	64.961934 
3797.000000	64.967703 
3796.000000	64.977836 
3795.000000	64.991044 
3794.000000	65.005278 
3793.000000	65.018320 
3792.000000	65.028357 
3791.000000	65.034627 
3790.000000	65.037202 
3789.000000	65.037131 
3788.000000	65.036106 
3787.000000	65.036034 
3786.000000	65.038371 
3785.000000	65.043592 
3784.000000	65.051388 
3783.000000	65.060234 
3782.000000	65.068483 
3781.000000	65.073990 
3780.000000	65.074872 
3779.000000	65.069389 
3778.000000	65.056276 
3777.000000	65.035104 
3776.000000	65.006208 
3775.000000	64.970970 
3774.000000	64.931654 
3773.000000	64.891433 
3772.000000	64.853858 
3771.000000	64.822649 
3770.000000	64.801049 
3769.000000	64.790964 
3768.000000	64.792633 
3767.000000	64.804458 
3766.000000	64.823246 
3765.000000	64.844870 
3764.000000	64.865446 
3763.000000	64.881777 
3762.000000	64.892387 
3761.000000	64.897513 
3760.000000	64.899134 
3759.000000	64.900016 
3758.000000	64.903116 
3757.000000	64.910435 
3756.000000	64.922738 
3755.000000	64.939379 
3754.000000	64.958357 
3753.000000	64.977121 
3752.000000	64.993262 
3751.000000	65.005087 
3750.000000	65.012288 
3749.000000	65.015673 
3748.000000	65.016889 
3747.000000	65.017938 
3746.000000	65.020370 
3745.000000	65.024924 
3744.000000	65.031075 
3743.000000	65.037631 
3742.000000	65.042614 
3741.000000	65.044021 
3740.000000	65.040397 
3739.000000	65.031552 
3738.000000	65.018534 
3737.000000	65.003395 
3736.000000	64.988732 
3735.000000	64.977264 
3734.000000	64.971017 
3733.000000	64.970755 
3732.000000	64.975929 
3731.000000	64.984750 
3730.000000	64.995145 
3729.000000	65.004920 
3728.000000	65.012574 
3727.000000	65.017461 
3726.000000	65.019845 
3725.000000	65.020585 
3724.000000	65.020656 
3723.000000	65.020799 
3722.000000	65.021204 
3721.000000	65.021538 
3720.000000	65.020990 
3719.000000	65.018963 
3718.000000	65.015339 
3717.000000	65.010786 
3716.000000	65.006566 
3715.000000	65.004134 
3714.000000	65.004873 
3713.000000	65.009379 
3712.000000	65.017437 
3711.000000	65.027976 
3710.000000	65.039396 
3709.000000	65.050077 
3708.000000	65.058755 
3707.000000	65.064787 
3706.000000	65.068268 
3705.000000	65.069842 
3704.000000	65.070533 
3703.000000	65.071392 
3702.000000	65.073442 
3701.000000	65.077328 
3700.000000	65.083336 
3699.000000	65.091538 
3698.000000	65.101552 
3697.000000	65.112876 
3696.000000	65.124416 
3695.000000	65.135073 
3694.000000	65.143203 
3693.000000	65.147280 
3692.000000	65.145778 
3691.000000	65.137815 
3690.000000	65.123414 
3689.000000	65.103483 
3688.000000	65.079641 
3687.000000	65.053963 
3686.000000	65.028738 
3685.000000	65.006113 
3684.000000	64.988064 
3683.000000	64.975976 
3682.000000	64.970707 
3681.000000	64.972209 
3680.000000	64.979457 
3679.000000	64.990711 
3678.000000	65.003108 
3677.000000	65.013647 
3676.000000	65.019655 
3675.000000	65.019297 
3674.000000	65.012097 
3673.000000	64.998841 
3672.000000	64.981412 
3671.000000	64.962172 
3670.000000	64.943456 
3669.000000	64.926862 
3668.000000	64.912962 
3667.000000	64.901638 
3666.000000	64.892292 
3665.000000	64.884996 
3664.000000	64.880776 
3663.000000	64.881968 
3662.000000	64.891529 
3661.000000	64.912343 
3660.000000	64.946031 
3659.000000	64.991974 
3658.000000	65.046882 
3657.000000	65.105295 
3656.000000	65.160465 
3655.000000	65.206170 
3654.000000	65.237712 
3653.000000	65.252923 
3652.000000	65.252161 
3651.000000	65.238475 
3650.000000	65.216231 
3649.000000	65.190172 
3648.000000	65.164136 
3647.000000	65.140581 
3646.000000	65.120553 
3645.000000	65.104126 
3644.000000	65.090751 
3643.000000	65.080237 
3642.000000	65.072655 
3641.000000	65.068626 
3640.000000	65.068745 
3639.000000	65.073204 
3638.000000	65.081167 
3637.000000	65.090847 
3636.000000	65.099382 
3635.000000	65.103459 
3634.000000	65.100049 
3633.000000	65.087270 
3632.000000	65.064907 
3631.000000	65.034580 
3630.000000	64.999938 
3629.000000	64.966034 
3628.000000	64.938187 
3627.000000	64.920997 
3626.000000	64.917564 
3625.000000	64.928483 
3624.000000	64.951777 
3623.000000	64.983129 
3622.000000	65.016865 
3621.000000	65.047192 
3620.000000	65.069174 
3619.000000	65.079832 
3618.000000	65.078663 
3617.000000	65.067815 
3616.000000	65.051293 
3615.000000	65.033555 
3614.000000	65.018630 
3613.000000	65.008807 
3612.000000	65.004491 
3611.000000	65.003657 
3610.000000	65.002560 
3609.000000	64.996957 
3608.000000	64.983701 
3607.000000	64.961290 
3606.000000	64.930558 
3605.000000	64.894604 
3604.000000	64.858317 
3603.000000	64.827179 
3602.000000	64.806270 
3601.000000	64.798927 
3600.000000	64.806175 
3599.000000	64.826989 
3598.000000	64.858102 
3597.000000	64.895176 
3596.000000	64.933133 
3595.000000	64.967155 
3594.000000	64.993333 
3593.000000	65.008568 
3592.000000	65.011572 
3591.000000	65.002274 
3590.000000	64.982557 
3589.000000	64.955258 
3588.000000	64.924788 
3587.000000	64.896392 
3586.000000	64.875864 
3585.000000	64.868640 
3584.000000	64.878821 
3583.000000	64.908432 
3582.000000	64.956784 
3581.000000	65.020465 
3580.000000	65.093326 
3579.000000	65.167236 
3578.000000	65.233278 
3577.000000	65.283322 
3576.000000	65.311002 
3575.000000	65.312957 
3574.000000	65.289258 
3573.000000	65.243148 
3572.000000	65.180897 
3571.000000	65.110087 
3570.000000	65.039134 
3569.000000	64.975190 
3568.000000	64.923429 
3567.000000	64.886188 
3566.000000	64.863038 
3565.000000	64.851474 
3564.000000	64.847469 
3563.000000	64.847111 
3562.000000	64.846968 
3561.000000	64.845538 
3560.000000	64.842963 
3559.000000	64.841389 
3558.000000	64.843606 
3557.000000	64.852547 
3556.000000	64.870023 
3555.000000	64.896225 
3554.000000	64.929485 
3553.000000	64.966273 
3552.000000	65.001916 
3551.000000	65.031433 
3550.000000	65.050411 
3549.000000	65.055751 
3548.000000	65.046358 
3547.000000	65.022826 
3546.000000	64.987468 
3545.000000	64.943885 
3544.000000	64.896559 
3543.000000	64.850068 
3542.000000	64.808893 
3541.000000	64.776682 
3540.000000	64.756059 
3539.000000	64.748740 
3538.000000	64.755249 
3537.000000	64.774227 
3536.000000	64.803576 
3535.000000	64.840102 
3534.000000	64.880490 
3533.000000	64.921402 
3532.000000	64.960122 
3531.000000	64.994692 
3530.000000	65.023732 
3529.000000	65.046596 
3528.000000	65.062570 
3527.000000	65.070939 
3526.000000	65.070796 
3525.000000	65.061426 
3524.000000	65.042495 
3523.000000	65.014457 
3522.000000	64.979195 
3521.000000	64.939904 
3520.000000	64.900875 
3519.000000	64.866924 
3518.000000	64.842367 
3517.000000	64.830589 
3516.000000	64.832949 
3515.000000	64.849185 
3514.000000	64.876961 
3513.000000	64.912796 
3512.000000	64.952802 
3511.000000	64.993381 
3510.000000	65.031528 
3509.000000	65.065240 
3508.000000	65.093588 
3507.000000	65.116381 
3506.000000	65.133976 
3505.000000	65.146684 
3504.000000	65.154933 
3503.000000	65.158343 
3502.000000	65.156388 
3501.000000	65.147924 
3500.000000	65.131974 
3499.000000	65.107631 
3498.000000	65.074849 
3497.000000	65.034461 
3496.000000	64.988613 
3495.000000	64.940786 
3494.000000	64.895534 
3493.000000	64.857697 
3492.000000	64.831805 
3491.000000	64.820957 
3490.000000	64.826560 
3489.000000	64.847612 
3488.000000	64.881205 
3487.000000	64.922833 
3486.000000	64.967656 
3485.000000	65.011048 
3484.000000	65.049791 
3483.000000	65.082097 
3482.000000	65.107870 
3481.000000	65.127992 
3480.000000	65.144133 
3479.000000	65.158009 
3478.000000	65.170979 
3477.000000	65.183854 
3476.000000	65.196704 
3475.000000	65.209412 
3474.000000	65.221500 
3473.000000	65.232610 
3472.000000	65.241932 
3471.000000	65.248298 
3470.000000	65.250158 
3469.000000	65.245866 
3468.000000	65.233945 
3467.000000	65.213513 
3466.000000	65.185022 
3465.000000	65.150189 
3464.000000	65.111851 
3463.000000	65.073657 
3462.000000	65.039253 
3461.000000	65.011954 
3460.000000	64.993882 
3459.000000	64.986157 
3458.000000	64.988327 
3457.000000	64.999055 
3456.000000	65.016245 
3455.000000	65.037441 
3454.000000	65.059971 
3453.000000	65.081477 
3452.000000	65.099835 
3451.000000	65.113449 
3450.000000	65.121006 
3449.000000	65.122127 
3448.000000	65.117216 
3447.000000	65.107822 
3446.000000	65.096426 
3445.000000	65.086150 
3444.000000	65.080094 
3443.000000	65.080785 
3442.000000	65.089631 
3441.000000	65.106534 
3440.000000	65.129780 
3439.000000	65.156221 
3438.000000	65.181708 
3437.000000	65.201926 
3436.000000	65.213108 
3435.000000	65.212869 
3434.000000	65.200686 
3433.000000	65.178012 
3432.000000	65.148377 
3431.000000	65.116739 
3430.000000	65.088391 
3429.000000	65.067815 
3428.000000	65.057992 
3427.000000	65.059804 
3426.000000	65.072178 
3425.000000	65.092325 
3424.000000	65.116643 
3423.000000	65.141487 
3422.000000	65.163993 
3421.000000	65.182733 
3420.000000	65.197420 
3419.000000	65.208482 
3418.000000	65.216851 
3417.000000	65.223145 
3416.000000	65.227127 
3415.000000	65.227723 
3414.000000	65.223383 
3413.000000	65.212583 
3412.000000	65.194439 
3411.000000	65.169453 
3410.000000	65.139484 
3409.000000	65.107965 
3408.000000	65.079021 
3407.000000	65.057158 
3406.000000	65.046405 
3405.000000	65.049433 
3404.000000	65.067052 
3403.000000	65.097856 
3402.000000	65.138387 
3401.000000	65.183758 
3400.000000	65.228343 
3399.000000	65.266752 
3398.000000	65.294885 
3397.000000	65.310311 
3396.000000	65.313148 
3395.000000	65.305018 
3394.000000	65.288758 
3393.000000	65.267419 
3392.000000	65.243744 
3391.000000	65.219283 
3390.000000	65.194559 
3389.000000	65.169119 
3388.000000	65.142154 
3387.000000	65.113353 
3386.000000	65.083312 
3385.000000	65.053582 
3384.000000	65.026307 
3383.000000	65.003561 
3382.000000	64.986896 
3381.000000	64.976334 
3380.000000	64.970612 
3379.000000	64.967441 
3378.000000	64.964294 
3377.000000	64.959025 
3376.000000	64.950823 
3375.000000	64.939951 
3374.000000	64.928364 
3373.000000	64.918780 
3372.000000	64.914631 
3371.000000	64.918923 
3370.000000	64.933943 
3369.000000	64.960432 
3368.000000	64.997744 
3367.000000	65.043950 
3366.000000	65.095639 
3365.000000	65.148425 
3364.000000	65.197062 
3363.000000	65.236163 
3362.000000	65.260934 
3361.000000	65.267944 
3360.000000	65.255546 
3359.000000	65.224409 
3358.000000	65.177822 
3357.000000	65.121126 
3356.000000	65.060806 
3355.000000	65.003371 
3354.000000	64.954400 
3353.000000	64.917850 
3352.000000	64.895462 
3351.000000	64.887332 
3350.000000	64.892220 
3349.000000	64.908266 
3348.000000	64.933276 
3347.000000	64.965105 
3346.000000	65.001463 
3345.000000	65.039587 
3344.000000	65.076231 
3343.000000	65.107583 
3342.000000	65.129160 
3341.000000	65.137267 
3340.000000	65.129566 
3339.000000	65.106272 
3338.000000	65.070247 
3337.000000	65.026903 
3336.000000	64.983248 
3335.000000	64.946413 
3334.000000	64.922332 
3333.000000	64.914274 
3332.000000	64.922332 
3331.000000	64.943480 
3330.000000	64.972400 
3329.000000	65.002918 
3328.000000	65.029478 
3327.000000	65.048503 
3326.000000	65.058994 
3325.000000	65.061974 
3324.000000	65.059971 
3323.000000	65.056347 
3322.000000	65.053510 
3321.000000	65.052580 
3320.000000	65.052533 
3319.000000	65.050935 
3318.000000	65.044116 
3317.000000	65.028858 
3316.000000	65.003037 
3315.000000	64.966320 
3314.000000	64.921116 
3313.000000	64.872241 
3312.000000	64.826035 
3311.000000	64.788913 
3310.000000	64.766144 
3309.000000	64.760446 
3308.000000	64.771342 
3307.000000	64.795255 
3306.000000	64.826202 
3305.000000	64.857721 
3304.000000	64.884018 
3303.000000	64.902019 
3302.000000	64.911460 
3301.000000	64.915442 
3300.000000	64.918947 
3299.000000	64.927434 
3298.000000	64.945101 
3297.000000	64.973139 
3296.000000	65.009331 
3295.000000	65.048122 
3294.000000	65.082311 
3293.000000	65.104389 
3292.000000	65.109014 
3291.000000	65.093708 
3290.000000	65.059828 
3289.000000	65.012025 
3288.000000	64.957475 
3287.000000	64.904141 
3286.000000	64.858961 
3285.000000	64.826750 
3284.000000	64.809489 
3283.000000	64.806365 
3282.000000	64.814352 
3281.000000	64.829182 
3280.000000	64.846849 
3279.000000	64.864110 
3278.000000	64.879488 
3277.000000	64.892768 
3276.000000	64.905023 
3275.000000	64.917707 
3274.000000	64.931797 
3273.000000	64.947414 
3272.000000	64.963293 
3271.000000	64.977216 
3270.000000	64.986586 
3269.000000	64.989066 
3268.000000	64.983630 
3267.000000	64.971184 
3266.000000	64.954566 
3265.000000	64.938163 
3264.000000	64.926958 
3263.000000	64.925360 
3262.000000	64.935851 
3261.000000	64.958429 
3260.000000	64.990401 
3259.000000	65.026998 
3258.000000	65.062451 
3257.000000	65.091323 
3256.000000	65.109658 
3255.000000	65.115952 
3254.000000	65.111017 
3253.000000	65.097761 
3252.000000	65.080070 
3251.000000	65.061640 
3250.000000	65.045285 
3249.000000	65.032172 
3248.000000	65.022110 
3247.000000	65.013742 
3246.000000	65.005588 
3245.000000	64.996767 
3244.000000	64.987230 
3243.000000	64.978122 
3242.000000	64.971041 
3241.000000	64.968132 
3240.000000	64.970779 
3239.000000	64.979743 
3238.000000	64.994668 
3237.000000	65.014243 
3236.000000	65.036582 
3235.000000	65.059161 
3234.000000	65.079760 
3233.000000	65.095853 
3232.000000	65.105223 
3231.000000	65.105581 
3230.000000	65.095138 
3229.000000	65.072655 
3228.000000	65.037989 
3227.000000	64.992547 
3226.000000	64.939498 
3225.000000	64.884042 
3224.000000	64.832782 
3223.000000	64.792609 
3222.000000	64.769530 
3221.000000	64.767265 
3220.000000	64.786577 
3219.000000	64.824914 
3218.000000	64.877104 
3217.000000	64.936327 
3216.000000	64.995503 
3215.000000	65.048670 
3214.000000	65.091800 
3213.000000	65.122914 
3212.000000	65.141820 
3211.000000	65.149664 
3210.000000	65.148091 
3209.000000	65.138769 
3208.000000	65.123105 
3207.000000	65.102672 
3206.000000	65.078997 
3205.000000	65.054154 
3204.000000	65.030312 
3203.000000	65.009903 
3202.000000	64.994668 
3201.000000	64.985346 
3200.000000	64.981317 
3199.000000	64.980769 
3198.000000	64.981365 
3197.000000	64.980983 
3196.000000	64.978384 
3195.000000	64.973735 
3194.000000	64.968419 
3193.000000	64.964723 
3192.000000	64.964890 
3191.000000	64.970636 
3190.000000	64.982366 
3189.000000	64.999532 
3188.000000	65.020394 
3187.000000	65.042805 
3186.000000	65.064716 
3185.000000	65.084695 
3184.000000	65.101909 
3183.000000	65.116524 
3182.000000	65.129256 
3181.000000	65.141153 
3180.000000	65.152978 
3179.000000	65.165400 
3178.000000	65.178823 
3177.000000	65.193367 
3176.000000	65.208959 
3175.000000	65.225124 
3174.000000	65.241074 
3173.000000	65.255498 
3172.000000	65.266680 
3171.000000	65.272641 
3170.000000	65.271472 
3169.000000	65.261816 
3168.000000	65.243220 
3167.000000	65.215849 
3166.000000	65.180754 
3165.000000	65.139937 
3164.000000	65.096330 
3163.000000	65.053153 
3162.000000	65.014147 
3161.000000	64.982604 
3160.000000	64.961409 
3159.000000	64.952683 
3158.000000	64.957213 
3157.000000	64.973974 
3156.000000	65.000510 
3155.000000	65.033364 
3154.000000	65.068054 
3153.000000	65.099453 
3152.000000	65.122842 
3151.000000	65.134572 
3150.000000	65.132355 
3149.000000	65.115523 
3148.000000	65.084958 
3147.000000	65.043091 
3146.000000	64.993739 
3145.000000	64.941883 
3144.000000	64.893364 
3143.000000	64.854383 
3142.000000	64.830946 
3141.000000	64.827871 
3140.000000	64.847922 
3139.000000	64.890670 
3138.000000	64.952731 
3137.000000	65.027284 
3136.000000	65.104699 
3135.000000	65.174055 
3134.000000	65.225028 
3133.000000	65.249490 
3132.000000	65.242552 
3131.000000	65.203356 
3130.000000	65.135502 
3129.000000	65.045666 
3128.000000	64.942383 
3127.000000	64.834785 
3126.000000	64.731454 
3125.000000	64.639520 
3124.000000	64.564633 
3123.000000	64.510560 
3122.000000	64.479517 
3121.000000	64.471936 
3120.000000	64.486646 
3119.000000	64.520478 
3118.000000	64.568662 
3117.000000	64.625120 
3116.000000	64.683723 
3115.000000	64.738774 
3114.000000	64.786434 
3113.000000	64.825296 
3112.000000	64.856886 
3111.000000	64.884829 
3110.000000	64.913630 
3109.000000	64.947295 
3108.000000	64.987707 
3107.000000	65.034317 
3106.000000	65.083622 
3105.000000	65.130662 
3104.000000	65.169668 
3103.000000	65.196156 
3102.000000	65.207433 
3101.000000	65.203714 
3100.000000	65.187597 
3099.000000	65.163564 
3098.000000	65.136790 
3097.000000	65.112090 
3096.000000	65.093302 
3095.000000	65.083003 
3094.000000	65.082097 
3093.000000	65.089821 
3092.000000	65.104484 
3091.000000	65.123748 
3090.000000	65.144491 
3089.000000	65.163516 
3088.000000	65.177297 
3087.000000	65.183091 
3086.000000	65.179133 
3085.000000	65.165424 
3084.000000	65.143680 
3083.000000	65.117001 
3082.000000	65.089797 
3081.000000	65.066361 
3080.000000	65.050172 
3079.000000	65.042853 
3078.000000	65.044379 
3077.000000	65.052700 
3076.000000	65.064334 
3075.000000	65.075302 
3074.000000	65.082192 
3073.000000	65.082764 
3072.000000	65.076065 
3071.000000	65.062928 
3070.000000	65.045380 
3069.000000	65.026307 
3068.000000	65.008544 
3067.000000	64.994621 
3066.000000	64.986062 
3065.000000	64.983725 
3064.000000	64.987587 
3063.000000	64.996910 
3062.000000	65.010786 
3061.000000	65.027785 
3060.000000	65.046525 
3059.000000	65.065741 
3058.000000	65.084362 
3057.000000	65.101623 
3056.000000	65.116858 
3055.000000	65.129709 
3054.000000	65.139818 
3053.000000	65.147137 
3052.000000	65.151476 
3051.000000	65.152454 
3050.000000	65.149450 
3049.000000	65.142226 
3048.000000	65.130662 
3047.000000	65.115046 
3046.000000	65.096211 
3045.000000	65.075659 
3044.000000	65.055465 
3043.000000	65.037918 
3042.000000	65.024971 
3041.000000	65.017771 
3040.000000	65.016412 
3039.000000	65.019726 
3038.000000	65.025448 
3037.000000	65.030694 
3036.000000	65.032720 
3035.000000	65.029573 
3034.000000	65.020561 
3033.000000	65.006494 
3032.000000	64.989471 
3031.000000	64.972734 
3030.000000	64.959645 
3029.000000	64.953207 
3028.000000	64.955401 
3027.000000	64.967012 
3026.000000	64.987325 
3025.000000	65.014505 
3024.000000	65.045857 
3023.000000	65.078091 
3022.000000	65.107989 
3021.000000	65.132570 
3020.000000	65.149521 
3019.000000	65.157246 
3018.000000	65.155220 
3017.000000	65.143871 
3016.000000	65.124535 
3015.000000	65.099239 
3014.000000	65.070438 
3013.000000	65.040206 
3012.000000	65.009999 
3011.000000	64.980483 
3010.000000	64.951777 
3009.000000	64.923524 
3008.000000	64.895677 
3007.000000	64.868760 
3006.000000	64.844250 
3005.000000	64.824509 
3004.000000	64.812421 
3003.000000	64.810490 
3002.000000	64.820289 
3001.000000	64.841794 
3000.000000	64.873313 
2999.000000	64.911389 
2998.000000	64.951491 
2997.000000	64.988732 
2996.000000	65.018796 
2995.000000	65.038681 
2994.000000	65.046977 
2993.000000	65.043997 
2992.000000	65.031409 
2991.000000	65.011715 
2990.000000	64.988017 
2989.000000	64.963316 
2988.000000	64.940357 
2987.000000	64.921331 
2986.000000	64.907813 
2985.000000	64.900851 
2984.000000	64.900803 
2983.000000	64.907407 
2982.000000	64.919877 
2981.000000	64.936828 
2980.000000	64.956521 
2979.000000	64.976859 
2978.000000	64.995503 
2977.000000	65.010285 
2976.000000	65.019226 
2975.000000	65.021204 
2974.000000	65.015935 
2973.000000	65.004420 
2972.000000	64.988493 
2971.000000	64.971017 
2970.000000	64.955353 
2969.000000	64.944791 
2968.000000	64.942073 
2967.000000	64.948415 
2966.000000	64.963769 
2965.000000	64.986181 
2964.000000	65.012192 
2963.000000	65.037465 
2962.000000	65.057706 
2961.000000	65.069174 
2960.000000	65.069365 
2959.000000	65.057516 
2958.000000	65.034675 
2957.000000	65.003442 
2956.000000	64.967584 
2955.000000	64.931416 
2954.000000	64.899015 
2953.000000	64.873886 
2952.000000	64.858126 
2951.000000	64.852333 
2950.000000	64.855265 
2949.000000	64.864134 
2948.000000	64.875316 
2947.000000	64.884591 
2946.000000	64.888453 
2945.000000	64.884519 
2944.000000	64.872241 
2943.000000	64.852905 
2942.000000	64.829349 
2941.000000	64.805436 
2940.000000	64.784741 
2939.000000	64.769554 
2938.000000	64.760112 
2937.000000	64.754819 
2936.000000	64.750432 
2935.000000	64.743018 
2934.000000	64.729166 
2933.000000	64.707136 
2932.000000	64.677453 
2931.000000	64.643120 
2930.000000	64.608716 
2929.000000	64.579296 
2928.000000	64.559078 
2927.000000	64.550471 
2926.000000	64.553380 
2925.000000	64.565539 
2924.000000	64.582824 
2923.000000	64.600563 
2922.000000	64.614748 
2921.000000	64.623403 
2920.000000	64.626169 
2919.000000	64.624810 
2918.000000	64.622354 
2917.000000	64.622545 
2916.000000	64.628553 
2915.000000	64.642643 
2914.000000	64.665603 
2913.000000	64.696526 
2912.000000	64.733171 
2911.000000	64.772105 
2910.000000	64.809966 
2909.000000	64.843201 
2908.000000	64.868927 
2907.000000	64.885139 
2906.000000	64.891028 
2905.000000	64.886736 
2904.000000	64.873290 
2903.000000	64.852476 
2902.000000	64.826798 
2901.000000	64.799261 
2900.000000	64.773249 
2899.000000	64.752078 
2898.000000	64.738726 
2897.000000	64.735341 
2896.000000	64.742898 
2895.000000	64.760923 
2894.000000	64.787602 
2893.000000	64.819979 
2892.000000	64.854550 
2891.000000	64.887547 
2890.000000	64.915943 
2889.000000	64.937639 
2888.000000	64.951968 
2887.000000	64.959359 
2886.000000	64.961504 
2885.000000	64.960527 
2884.000000	64.958810 
2883.000000	64.958500 
2882.000000	64.961194 
2881.000000	64.967799 
2880.000000	64.978408 
2879.000000	64.992332 
2878.000000	65.008091 
2877.000000	65.023660 
2876.000000	65.036654 
2875.000000	65.044593 
2874.000000	65.045595 
2873.000000	65.038609 
2872.000000	65.023708 
2871.000000	65.002226 
2870.000000	64.976406 
2869.000000	64.949059 
2868.000000	64.923048 
2867.000000	64.900970 
2866.000000	64.884543 
2865.000000	64.874386 
2864.000000	64.870333 
2863.000000	64.871263 
2862.000000	64.875841 
2861.000000	64.882469 
2860.000000	64.889550 
2859.000000	64.896154 
2858.000000	64.901709 
2857.000000	64.906406 
2856.000000	64.910483 
2855.000000	64.914536 
2854.000000	64.919161 
2853.000000	64.924955 
2852.000000	64.932203 
2851.000000	64.940834 
2850.000000	64.950203 
2849.000000	64.959239 
2848.000000	64.966821 
2847.000000	64.972019 
2846.000000	64.974379 
2845.000000	64.974021 
2844.000000	64.971828 
2843.000000	64.969301 
2842.000000	64.968204 
2841.000000	64.970064 
2840.000000	64.975857 
2839.000000	64.985680 
2838.000000	64.998531 
2837.000000	65.012812 
2836.000000	65.026259 
2835.000000	65.036559 
2834.000000	65.041875 
2833.000000	65.040993 
2832.000000	65.033841 
2831.000000	65.021300 
2830.000000	65.005207 
2829.000000	64.987874 
2828.000000	64.971995 
2827.000000	64.960241 
2826.000000	64.954876 
2825.000000	64.957475 
2824.000000	64.968538 
2823.000000	64.987468 
2822.000000	65.012431 
2821.000000	65.040588 
2820.000000	65.068459 
2819.000000	65.092444 
2818.000000	65.109324 
2817.000000	65.116810 
2816.000000	65.114259 
2815.000000	65.102529 
2814.000000	65.083909 
2813.000000	65.061664 
2812.000000	65.039372 
2811.000000	65.020203 
2810.000000	65.006184 
2809.000000	64.998054 
2808.000000	64.995336 
2807.000000	64.996528 
2806.000000	64.999651 
2805.000000	65.002655 
2804.000000	65.003967 
2803.000000	65.002965 
2802.000000	64.999747 
2801.000000	64.995169 
2800.000000	64.990592 
2799.000000	64.987564 
2798.000000	64.987349 
2797.000000	64.990544 
2796.000000	64.996838 
2795.000000	65.005040 
2794.000000	65.013504 
2793.000000	65.020394 
2792.000000	65.024161 
2791.000000	65.023946 
2790.000000	65.019774 
2789.000000	65.012693 
2788.000000	65.004444 
2787.000000	64.996910 
2786.000000	64.991593 
2785.000000	64.989256 
2784.000000	64.989614 
2783.000000	64.991593 
2782.000000	64.993786 
2781.000000	64.994716 
2780.000000	64.993667 
2779.000000	64.990782 
2778.000000	64.987134 
2777.000000	64.984345 
2776.000000	64.984226 
2775.000000	64.987897 
2774.000000	64.995980 
2773.000000	65.008091 
2772.000000	65.023255 
2771.000000	65.040111 
2770.000000	65.057468 
2769.000000	65.074491 
2768.000000	65.090966 
2767.000000	65.106964 
2766.000000	65.122604 
2765.000000	65.137553 
2764.000000	65.151119 
2763.000000	65.162205 
2762.000000	65.169477 
2761.000000	65.171933 
2760.000000	65.169334 
2759.000000	65.162372 
2758.000000	65.152525 
2757.000000	65.141963 
2756.000000	65.132761 
2755.000000	65.126609 
2754.000000	65.124177 
2753.000000	65.125012 
2752.000000	65.127778 
2751.000000	65.130543 
2750.000000	65.131354 
2749.000000	65.128660 
2748.000000	65.121698 
2747.000000	65.110635 
2746.000000	65.096449 
2745.000000	65.080690 
2744.000000	65.065050 
2743.000000	65.051126 
2742.000000	65.040087 
2741.000000	65.032792 
2740.000000	65.029573 
2739.000000	65.030479 
2738.000000	65.035271 
2737.000000	65.043425 
2736.000000	65.054273 
2735.000000	65.067052 
2734.000000	65.080904 
2733.000000	65.094947 
2732.000000	65.108370 
2731.000000	65.120363 
2730.000000	65.130352 
2729.000000	65.137934 
2728.000000	65.142965 
2727.000000	65.145874 
2726.000000	65.147113 
2725.000000	65.147519 
2724.000000	65.147781 
2723.000000	65.148401 
2722.000000	65.149497 
2721.000000	65.150880 
2720.000000	65.152001 
2719.000000	65.152335 
2718.000000	65.151524 
2717.000000	65.149521 
2716.000000	65.146565 
2715.000000	65.143203 
2714.000000	65.140104 
2713.000000	65.137839 
2712.000000	65.136504 
2711.000000	65.135645 
2710.000000	65.134501 
2709.000000	65.132141 
2708.000000	65.127944 
2707.000000	65.121650 
2706.000000	65.113782 
2705.000000	65.105271 
2704.000000	65.097379 
2703.000000	65.091037 
2702.000000	65.086746 
2701.000000	65.084218 
2700.000000	65.082645 
2699.000000	65.080642 
2698.000000	65.076899 
2697.000000	65.070366 
2696.000000	65.060448 
2695.000000	65.047216 
2694.000000	65.031242 
2693.000000	65.013718 
2692.000000	64.996099 
2691.000000	64.979934 
2690.000000	64.966797 
2689.000000	64.958214 
2688.000000	64.955425 
2687.000000	64.959335 
2686.000000	64.970207 
2685.000000	64.987611 
2684.000000	65.010380 
2683.000000	65.036463 
2682.000000	65.063381 
2681.000000	65.088391 
2680.000000	65.109276 
2679.000000	65.124511 
2678.000000	65.133571 
2677.000000	65.137004 
2676.000000	65.136265 
2675.000000	65.133261 
2674.000000	65.129971 
2673.000000	65.128207 
2672.000000	65.129208 
2671.000000	65.133619 
2670.000000	65.141463 
2669.000000	65.152335 
2668.000000	65.165352 
2667.000000	65.179586 
2666.000000	65.193891 
2665.000000	65.207219 
2664.000000	65.218448 
2663.000000	65.226721 
2662.000000	65.231299 
2661.000000	65.231776 
2660.000000	65.228223 
2659.000000	65.221166 
2658.000000	65.211606 
2657.000000	65.200591 
2656.000000	65.189337 
2655.000000	65.178751 
2654.000000	65.169453 
2653.000000	65.161490 
2652.000000	65.154504 
2651.000000	65.147995 
2650.000000	65.141367 
2649.000000	65.134429 
2648.000000	65.127325 
2647.000000	65.120601 
2646.000000	65.114808 
2645.000000	65.110611 
2644.000000	65.108275 
2643.000000	65.107822 
2642.000000	65.108680 
2641.000000	65.110063 
2640.000000	65.111088 
2639.000000	65.110993 
2638.000000	65.109634 
2637.000000	65.107178 
2636.000000	65.104055 
2635.000000	65.100932 
2634.000000	65.098476 
2633.000000	65.097069 
2632.000000	65.096664 
2631.000000	65.097069 
2630.000000	65.098094 
2629.000000	65.099501 
2628.000000	65.101361 
2627.000000	65.103721 
2626.000000	65.106654 
2625.000000	65.110278 
2624.000000	65.114808 
2623.000000	65.120387 
2622.000000	65.127420 
2621.000000	65.136456 
2620.000000	65.148162 
2619.000000	65.163254 
2618.000000	65.181946 
2617.000000	65.203952 
2616.000000	65.227866 
2615.000000	65.251350 
2614.000000	65.271210 
2613.000000	65.284109 
2612.000000	65.287065 
2611.000000	65.278434 
2610.000000	65.258097 
2609.000000	65.228033 
2608.000000	65.191411 
2607.000000	65.152359 
2606.000000	65.114951 
2605.000000	65.082645 
2604.000000	65.057826 
2603.000000	65.041470 
2602.000000	65.033674 
2601.000000	65.033793 
2600.000000	65.040850 
2599.000000	65.053701 
2598.000000	65.071105 
2597.000000	65.091609 
2596.000000	65.113449 
2595.000000	65.134334 
2594.000000	65.151643 
2593.000000	65.162754 
2592.000000	65.165591 
2591.000000	65.159153 
2590.000000	65.143704 
2589.000000	65.121173 
2588.000000	65.094542 
2587.000000	65.067553 
2586.000000	65.043830 
2585.000000	65.026426 
2584.000000	65.017223 
2583.000000	65.016818 
2582.000000	65.024495 
2581.000000	65.038681 
2580.000000	65.057277 
2579.000000	65.077948 
2578.000000	65.098595 
2577.000000	65.117526 
2576.000000	65.133523 
2575.000000	65.145802 
2574.000000	65.154004 
2573.000000	65.158081 
2572.000000	65.158295 
2571.000000	65.155339 
2570.000000	65.150022 
2569.000000	65.143489 
2568.000000	65.136790 
2567.000000	65.130758 
2566.000000	65.126061 
2565.000000	65.123009 
2564.000000	65.121746 
2563.000000	65.122151 
2562.000000	65.123963 
2561.000000	65.127182 
2560.000000	65.131759 
2559.000000	65.137791 
2558.000000	65.145277 
2557.000000	65.154123 
2556.000000	65.163898 
2555.000000	65.173888 
2554.000000	65.182924 
2553.000000	65.189528 
2552.000000	65.192294 
2551.000000	65.190124 
2550.000000	65.182614 
2549.000000	65.170192 
2548.000000	65.153884 
2547.000000	65.135431 
2546.000000	65.116810 
2545.000000	65.099787 
2544.000000	65.085816 
2543.000000	65.075445 
2542.000000	65.068674 
2541.000000	65.064764 
2540.000000	65.062928 
2539.000000	65.062069 
2538.000000	65.061163 
2537.000000	65.059447 
2536.000000	65.056252 
2535.000000	65.051269 
2534.000000	65.044283 
2533.000000	65.035367 
2532.000000	65.024733 
2531.000000	65.013098 
2530.000000	65.001511 
2529.000000	64.991307 
2528.000000	64.984083 
2527.000000	64.981293 
2526.000000	64.983797 
2525.000000	64.991593 
2524.000000	65.003752 
2523.000000	65.018439 
2522.000000	65.033245 
2521.000000	65.045738 
2520.000000	65.054082 
2519.000000	65.057373 
2518.000000	65.056180 
2517.000000	65.052366 
2516.000000	65.048766 
2515.000000	65.048432 
2514.000000	65.053653 
2513.000000	65.065908 
2512.000000	65.084671 
2511.000000	65.107560 
2510.000000	65.130615 
2509.000000	65.149450 
2508.000000	65.159964 
2507.000000	65.159273 
2506.000000	65.146565 
2505.000000	65.123462 
2504.000000	65.093302 
2503.000000	65.060567 
2502.000000	65.029740 
2501.000000	65.004277 
2500.000000	64.985847 
2499.000000	64.974045 
2498.000000	64.966797 
2497.000000	64.961123 
2496.000000	64.953899 
2495.000000	64.943194 
2494.000000	64.928436 
2493.000000	64.911103 
2492.000000	64.893984 
2491.000000	64.880847 
2490.000000	64.875125 
2489.000000	64.879393 
2488.000000	64.894437 
2487.000000	64.919543 
2486.000000	64.952111 
2485.000000	64.988636 
2484.000000	65.025448 
2483.000000	65.059280 
2482.000000	65.087819 
2481.000000	65.109992 
2480.000000	65.125536 
2479.000000	65.135169 
2478.000000	65.139722 
2477.000000	65.140032 
2476.000000	65.136909 
2475.000000	65.130949 
2474.000000	65.122580 
2473.000000	65.112185 
2472.000000	65.100455 
2471.000000	65.088319 
2470.000000	65.076994 
2469.000000	65.067958 
2468.000000	65.062785 
2467.000000	65.062856 
2466.000000	65.069079 
2465.000000	65.081334 
2464.000000	65.098476 
2463.000000	65.118122 
2462.000000	65.137219 
2461.000000	65.152382 
2460.000000	65.160870 
2459.000000	65.160703 
2458.000000	65.151596 
2457.000000	65.135169 
2456.000000	65.114450 
2455.000000	65.093803 
2454.000000	65.077352 
2453.000000	65.068292 
2452.000000	65.067911 
2451.000000	65.075612 
2450.000000	65.088796 
2449.000000	65.103745 
2448.000000	65.116333 
2447.000000	65.123152 
2446.000000	65.122127 
2445.000000	65.112829 
2444.000000	65.096735 
2443.000000	65.076422 
2442.000000	65.055513 
2441.000000	65.037655 
2440.000000	65.025830 
2439.000000	65.021562 
2438.000000	65.024518 
2437.000000	65.032434 
2436.000000	65.041470 
2435.000000	65.047287 
2434.000000	65.045642 
2433.000000	65.034604 
2432.000000	65.014123 
2431.000000	64.987993 
2430.000000	64.962625 
2429.000000	64.946532 
2428.000000	64.947986 
2427.000000	64.973068 
2426.000000	65.023875 
2425.000000	65.097522 
2424.000000	65.186333 
2423.000000	65.279102 
2422.000000	65.363717 
2421.000000	65.429472 
2420.000000	65.469264 
2419.000000	65.480446 
2418.000000	65.465044 
2417.000000	65.428543 
2416.000000	65.378355 
2415.000000	65.322256 
2414.000000	65.266871 
2413.000000	65.217399 
2412.000000	65.176963 
2411.000000	65.147495 
2410.000000	65.129375 
2409.000000	65.122604 
2408.000000	65.126395 
2407.000000	65.138959 
2406.000000	65.157532 
2405.000000	65.178060 
2404.000000	65.196180 
2403.000000	65.207791 
2402.000000	65.209984 
2401.000000	65.201807 
2400.000000	65.184140 
2399.000000	65.159583 
2398.000000	65.131521 
2397.000000	65.103292 
2396.000000	65.077352 
2395.000000	65.055012 
2394.000000	65.036392 
2393.000000	65.020751 
2392.000000	65.007257 
2391.000000	64.995527 
2390.000000	64.985775 
2389.000000	64.978718 
2388.000000	64.975571 
2387.000000	64.977622 
2386.000000	64.985489 
2385.000000	64.998912 
2384.000000	65.016603 
2383.000000	65.036487 
2382.000000	65.056347 
2381.000000	65.074205 
2380.000000	65.088510 
2379.000000	65.098667 
2378.000000	65.104746 
2377.000000	65.107560 
2376.000000	65.108251 
2375.000000	65.108036 
2374.000000	65.107989 
2373.000000	65.108537 
2372.000000	65.109825 
2371.000000	65.111327 
2370.000000	65.112400 
2369.000000	65.112519 
2368.000000	65.111398 
2367.000000	65.109348 
2366.000000	65.107083 
2365.000000	65.105462 
2364.000000	65.105152 
2363.000000	65.106558 
2362.000000	65.109729 
2361.000000	65.113997 
2360.000000	65.118217 
2359.000000	65.121150 
2358.000000	65.121436 
2357.000000	65.117859 
2356.000000	65.109634 
2355.000000	65.096426 
2354.000000	65.078592 
2353.000000	65.057229 
2352.000000	65.034341 
2351.000000	65.012216 
2350.000000	64.993405 
2349.000000	64.980578 
2348.000000	64.975619 
2347.000000	64.979290 
2346.000000	64.990878 
2345.000000	65.008282 
2344.000000	65.028381 
2343.000000	65.047359 
2342.000000	65.062022 
2341.000000	65.070176 
2340.000000	65.071439 
2339.000000	65.067243 
2338.000000	65.060400 
2337.000000	65.054273 
2336.000000	65.052008 
2335.000000	65.055584 
2334.000000	65.065455 
2333.000000	65.080285 
2332.000000	65.097665 
2331.000000	65.114521 
2330.000000	65.128135 
2329.000000	65.136623 
2328.000000	65.139269 
2327.000000	65.136599 
2326.000000	65.129947 
2325.000000	65.120792 
2324.000000	65.110468 
2323.000000	65.100002 
2322.000000	65.089845 
2321.000000	65.080094 
2320.000000	65.070986 
2319.000000	65.062594 
2318.000000	65.055155 
2317.000000	65.048909 
2316.000000	65.043973 
2315.000000	65.040659 
2314.000000	65.039086 
2313.000000	65.039420 
2312.000000	65.041637 
2311.000000	65.045619 
2310.000000	65.051150 
2309.000000	65.057682 
2308.000000	65.064263 
2307.000000	65.069556 
2306.000000	65.072393 
2305.000000	65.071630 
2304.000000	65.066719 
2303.000000	65.057897 
2302.000000	65.046262 
2301.000000	65.033745 
2300.000000	65.022468 
2299.000000	65.014290 
2298.000000	65.010452 
2297.000000	65.011096 
2296.000000	65.015602 
2295.000000	65.022826 
2294.000000	65.031385 
2293.000000	65.040445 
2292.000000	65.049505 
2291.000000	65.058374 
2290.000000	65.066766 
2289.000000	65.074491 
2288.000000	65.080761 
2287.000000	65.084648 
2286.000000	65.084981 
2285.000000	65.081024 
2284.000000	65.072298 
2283.000000	65.059185 
2282.000000	65.042638 
2281.000000	65.024352 
2280.000000	65.006351 
2279.000000	64.990782 
2278.000000	64.979505 
2277.000000	64.973831 
2276.000000	64.974498 
2275.000000	64.981579 
2274.000000	64.994359 
2273.000000	65.011572 
2272.000000	65.031433 
2271.000000	65.052032 
2270.000000	65.071105 
2269.000000	65.087008 
2268.000000	65.098690 
2267.000000	65.106034 
2266.000000	65.109968 
2265.000000	65.112161 
2264.000000	65.114736 
2263.000000	65.119576 
2262.000000	65.127968 
2261.000000	65.140199 
2260.000000	65.155625 
2259.000000	65.172696 
2258.000000	65.189528 
2257.000000	65.204119 
2256.000000	65.215158 
2255.000000	65.221977 
2254.000000	65.224814 
2253.000000	65.224552 
2252.000000	65.222406 
2251.000000	65.219521 
2250.000000	65.216684 
2249.000000	65.213918 
2248.000000	65.210628 
2247.000000	65.206027 
2246.000000	65.199208 
2245.000000	65.189814 
2244.000000	65.177965 
2243.000000	65.164518 
2242.000000	65.150856 
2241.000000	65.138864 
2240.000000	65.130400 
2239.000000	65.126752 
2238.000000	65.128636 
2237.000000	65.136098 
2236.000000	65.148305 
2235.000000	65.163826 
2234.000000	65.180754 
2233.000000	65.197157 
2232.000000	65.211081 
2231.000000	65.220856 
2230.000000	65.225100 
2229.000000	65.223097 
2228.000000	65.214753 
2227.000000	65.200591 
2226.000000	65.182089 
2225.000000	65.161418 
2224.000000	65.141320 
2223.000000	65.124607 
2222.000000	65.113520 
2221.000000	65.109300 
2220.000000	65.112137 
2219.000000	65.120744 
2218.000000	65.132617 
2217.000000	65.144777 
2216.000000	65.154218 
2215.000000	65.158581 
2214.000000	65.156459 
2213.000000	65.147805 
2212.000000	65.133595 
2211.000000	65.115785 
2210.000000	65.096521 
2209.000000	65.077877 
2208.000000	65.061402 
2207.000000	65.048003 
2206.000000	65.037989 
2205.000000	65.031170 
2204.000000	65.026998 
2203.000000	65.024948 
2202.000000	65.024805 
2201.000000	65.026450 
2200.000000	65.029835 
2199.000000	65.035223 
2198.000000	65.042901 
2197.000000	65.052986 
2196.000000	65.065479 
2195.000000	65.079951 
2194.000000	65.095686 
2193.000000	65.111851 
2192.000000	65.127515 
2191.000000	65.141725 
2190.000000	65.153884 
2189.000000	65.163850 
2188.000000	65.171813 
2187.000000	65.178227 
2186.000000	65.183615 
2185.000000	65.188455 
2184.000000	65.192890 
2183.000000	65.196681 
2182.000000	65.199065 
2181.000000	65.199255 
2180.000000	65.196251 
2179.000000	65.189194 
2178.000000	65.177679 
2177.000000	65.161728 
2176.000000	65.141916 
2175.000000	65.119290 
2174.000000	65.095329 
2173.000000	65.071630 
2172.000000	65.049839 
2171.000000	65.031337 
2170.000000	65.017199 
2169.000000	65.008163 
2168.000000	65.004515 
2167.000000	65.006136 
2166.000000	65.012335 
2165.000000	65.022110 
2164.000000	65.034198 
2163.000000	65.047168 
2162.000000	65.059542 
2161.000000	65.070390 
2160.000000	65.079212 
2159.000000	65.086507 
2158.000000	65.093207 
2157.000000	65.100598 
2156.000000	65.110039 
2155.000000	65.122413 
2154.000000	65.137648 
2153.000000	65.154719 
2152.000000	65.171766 
2151.000000	65.186500 
2150.000000	65.196776 
2149.000000	65.201306 
2148.000000	65.199923 
2147.000000	65.193915 
2146.000000	65.185785 
2145.000000	65.178561 
2144.000000	65.175056 
2143.000000	65.177297 
2142.000000	65.185856 
2141.000000	65.199732 
2140.000000	65.216445 
2139.000000	65.232944 
2138.000000	65.246009 
2137.000000	65.253090 
2136.000000	65.252804 
2135.000000	65.245175 
2134.000000	65.231418 
2133.000000	65.213799 
2132.000000	65.194869 
2131.000000	65.176963 
2130.000000	65.161657 
2129.000000	65.149950 
2128.000000	65.141773 
2127.000000	65.136408 
2126.000000	65.132856 
2125.000000	65.129923 
2124.000000	65.126633 
2123.000000	65.122199 
2122.000000	65.116238 
2121.000000	65.108871 
2120.000000	65.100455 
2119.000000	65.091538 
2118.000000	65.082836 
2117.000000	65.075087 
2116.000000	65.069007 
2115.000000	65.065360 
2114.000000	65.064835 
2113.000000	65.068030 
2112.000000	65.075373 
2111.000000	65.086889 
2110.000000	65.102124 
2109.000000	65.120053 
2108.000000	65.139245 
2107.000000	65.157961 
2106.000000	65.174412 
2105.000000	65.187048 
2104.000000	65.194725 
2103.000000	65.196776 
2102.000000	65.193247 
2101.000000	65.184617 
2100.000000	65.171885 
2099.000000	65.156126 
2098.000000	65.138578 
2097.000000	65.120530 
2096.000000	65.103244 
2095.000000	65.088272 
2094.000000	65.077137 
2093.000000	65.071344 
2092.000000	65.071845 
2091.000000	65.078997 
2090.000000	65.092229 
2089.000000	65.110039 
2088.000000	65.130114 
2087.000000	65.150022 
2086.000000	65.167593 
2085.000000	65.181589 
2084.000000	65.191459 
2083.000000	65.197396 
2082.000000	65.199708 
2081.000000	65.198755 
2080.000000	65.194201 
2079.000000	65.185165 
2078.000000	65.170311 
2077.000000	65.148615 
2076.000000	65.119838 
2075.000000	65.085291 
2074.000000	65.047836 
2073.000000	65.011525 
2072.000000	64.980649 
2071.000000	64.958786 
2070.000000	64.947700 
2069.000000	64.947032 
2068.000000	64.954328 
2067.000000	64.965629 
2066.000000	64.976644 
2065.000000	64.983654 
2064.000000	64.984250 
2063.000000	64.977836 
2062.000000	64.965415 
2061.000000	64.949512 
2060.000000	64.933323 
2059.000000	64.920377 
2058.000000	64.913630 
2057.000000	64.915180 
2056.000000	64.925837 
2055.000000	64.945173 
2054.000000	64.971399 
2053.000000	65.001869 
2052.000000	65.033650 
2051.000000	65.063810 
2050.000000	65.089941 
2049.000000	65.110516 
2048.000000	65.125298 
2047.000000	65.135097 
2046.000000	65.141582 
2045.000000	65.146565 
2044.000000	65.151524 
2043.000000	65.157032 
2042.000000	65.163183 
2041.000000	65.169191 
2040.000000	65.173959 
2039.000000	65.176653 
2038.000000	65.177035 
2037.000000	65.175271 
2036.000000	65.172004 
2035.000000	65.168046 
2034.000000	65.163993 
2033.000000	65.160131 
2032.000000	65.156292 
2031.000000	65.152049 
2030.000000	65.146803 
2029.000000	65.140223 
2028.000000	65.131998 
2027.000000	65.122294 
2026.000000	65.111136 
2025.000000	65.098500 
2024.000000	65.084195 
2023.000000	65.067911 
2022.000000	65.049695 
2021.000000	65.030145 
2020.000000	65.010952 
2019.000000	64.994359 
2018.000000	64.983224 
2017.000000	64.980244 
2016.000000	64.987254 
2015.000000	65.004563 
2014.000000	65.030813 
2013.000000	65.063309 
2012.000000	65.098357 
2011.000000	65.131950 
2010.000000	65.160775 
2009.000000	65.182685 
2008.000000	65.196728 
2007.000000	65.203070 
2006.000000	65.202379 
2005.000000	65.195584 
2004.000000	65.183329 
2003.000000	65.166234 
2002.000000	65.144848 
2001.000000	65.120148 
2000.000000	65.093922 
1999.000000	65.068745 
1998.000000	65.047717 
1997.000000	65.033793 
1996.000000	65.029168 
1995.000000	65.034842 
1994.000000	65.050268 
1993.000000	65.073370 
1992.000000	65.101075 
1991.000000	65.129661 
1990.000000	65.155434 
1989.000000	65.175414 
1988.000000	65.187597 
1987.000000	65.191149 
1986.000000	65.186309 
1985.000000	65.174341 
1984.000000	65.157175 
1983.000000	65.137147 
1982.000000	65.116643 
1981.000000	65.097951 
1980.000000	65.083003 
1979.000000	65.073299 
1978.000000	65.069556 
1977.000000	65.071725 
1976.000000	65.078878 
1975.000000	65.089011 
1974.000000	65.099668 
1973.000000	65.108180 
1972.000000	65.112113 
1971.000000	65.109896 
1970.000000	65.100955 
1969.000000	65.085983 
1968.000000	65.066719 
1967.000000	65.045404 
1966.000000	65.024447 
1965.000000	65.005993 
1964.000000	64.991497 
1963.000000	64.981770 
1962.000000	64.976882 
1961.000000	64.976382 
1960.000000	64.979600 
1959.000000	64.985942 
1958.000000	64.994573 
1957.000000	65.004849 
1956.000000	65.016317 
1955.000000	65.028762 
1954.000000	65.042185 
1953.000000	65.056633 
1952.000000	65.072393 
1951.000000	65.089654 
1950.000000	65.108489 
1949.000000	65.128612 
1948.000000	65.149259 
1947.000000	65.168929 
1946.000000	65.185904 
1945.000000	65.198278 
1944.000000	65.204691 
1943.000000	65.204501 
1942.000000	65.198349 
1941.000000	65.187811 
1940.000000	65.175509 
1939.000000	65.164160 
1938.000000	65.156197 
1937.000000	65.152931 
1936.000000	65.154337 
1935.000000	65.158939 
1934.000000	65.164351 
1933.000000	65.167760 
1932.000000	65.166687 
1931.000000	65.159773 
1930.000000	65.147042 
1929.000000	65.129923 
1928.000000	65.110969 
1927.000000	65.093111 
1926.000000	65.078973 
1925.000000	65.070414 
1924.000000	65.068101 
1923.000000	65.071535 
1922.000000	65.079140 
1921.000000	65.088748 
1920.000000	65.098142 
1919.000000	65.105199 
1918.000000	65.108489 
1917.000000	65.107321 
1916.000000	65.101599 
1915.000000	65.091800 
1914.000000	65.078806 
1913.000000	65.063405 
1912.000000	65.046429 
1911.000000	65.028715 
1910.000000	65.011167 
1909.000000	64.994812 
1908.000000	64.980864 
1907.000000	64.970779 
1906.000000	64.965939 
1905.000000	64.967608 
1904.000000	64.976477 
1903.000000	64.992618 
1902.000000	65.015459 
1901.000000	65.043711 
1900.000000	65.075612 
1899.000000	65.109062 
1898.000000	65.141868 
1897.000000	65.171885 
1896.000000	65.197277 
1895.000000	65.216493 
1894.000000	65.228414 
1893.000000	65.232396 
1892.000000	65.228462 
1891.000000	65.217518 
1890.000000	65.201306 
1889.000000	65.182352 
1888.000000	65.163874 
1887.000000	65.148997 
1886.000000	65.140628 
1885.000000	65.140390 
1884.000000	65.148687 
1883.000000	65.164136 
1882.000000	65.183925 
1881.000000	65.204167 
1880.000000	65.220808 
1879.000000	65.230274 
1878.000000	65.230250 
1877.000000	65.220046 
1876.000000	65.200686 
1875.000000	65.174770 
1874.000000	65.145778 
1873.000000	65.117502 
1872.000000	65.093135 
1871.000000	65.075159 
1870.000000	65.064668 
1869.000000	65.061497 
1868.000000	65.064430 
1867.000000	65.071702 
1866.000000	65.081501 
1865.000000	65.091896 
1864.000000	65.101432 
1863.000000	65.108919 
1862.000000	65.113830 
1861.000000	65.115976 
1860.000000	65.115666 
1859.000000	65.113425 
1858.000000	65.110135 
1857.000000	65.107011 
1856.000000	65.105032 
1855.000000	65.104985 
1854.000000	65.107107 
1853.000000	65.111160 
1852.000000	65.116167 
1851.000000	65.120863 
1850.000000	65.123891 
1849.000000	65.124177 
1848.000000	65.121316 
1847.000000	65.115594 
1846.000000	65.107965 
1845.000000	65.099859 
1844.000000	65.092635 
1843.000000	65.087389 
1842.000000	65.084528 
1841.000000	65.083909 
1840.000000	65.084958 
1839.000000	65.086936 
1838.000000	65.089583 
1837.000000	65.093135 
1836.000000	65.098142 
1835.000000	65.105366 
1834.000000	65.115547 
1833.000000	65.128827 
1832.000000	65.144348 
1831.000000	65.160393 
1830.000000	65.174555 
1829.000000	65.184307 
1828.000000	65.187644 
1827.000000	65.183734 
1826.000000	65.173029 
1825.000000	65.157389 
1824.000000	65.139818 
1823.000000	65.123438 
1822.000000	65.111064 
1821.000000	65.104222 
1820.000000	65.102767 
1819.000000	65.105032 
1818.000000	65.108346 
1817.000000	65.109682 
1816.000000	65.106701 
1815.000000	65.098357 
1814.000000	65.085434 
1813.000000	65.070199 
1812.000000	65.056514 
1811.000000	65.048193 
1810.000000	65.048766 
1809.000000	65.060234 
1808.000000	65.082716 
1807.000000	65.114402 
1806.000000	65.151643 
1805.000000	65.189695 
1804.000000	65.223574 
1803.000000	65.248918 
1802.000000	65.262866 
1801.000000	65.264129 
1800.000000	65.253472 
1799.000000	65.233254 
1798.000000	65.207147 
1797.000000	65.179443 
1796.000000	65.154361 
1795.000000	65.135288 
1794.000000	65.124249 
1793.000000	65.121793 
1792.000000	65.126848 
1791.000000	65.137243 
1790.000000	65.150165 
1789.000000	65.162777 
1788.000000	65.172648 
1787.000000	65.178418 
1786.000000	65.179252 
1785.000000	65.175366 
1784.000000	65.167379 
1783.000000	65.156602 
1782.000000	65.144419 
1781.000000	65.132427 
1780.000000	65.122318 
1779.000000	65.115594 
1778.000000	65.113329 
1777.000000	65.115833 
1776.000000	65.122723 
1775.000000	65.132761 
1774.000000	65.144252 
1773.000000	65.154957 
1772.000000	65.162491 
1771.000000	65.164899 
1770.000000	65.160894 
1769.000000	65.149998 
1768.000000	65.132689 
1767.000000	65.110301 
1766.000000	65.084886 
1765.000000	65.058803 
1764.000000	65.034508 
1763.000000	65.014195 
1762.000000	64.999485 
1761.000000	64.991378 
1760.000000	64.990258 
1759.000000	64.995527 
1758.000000	65.006279 
1757.000000	65.020751 
1756.000000	65.037369 
1755.000000	65.054678 
1754.000000	65.071582 
1753.000000	65.087461 
1752.000000	65.102005 
1751.000000	65.114951 
1750.000000	65.125942 
1749.000000	65.134477 
1748.000000	65.139722 
1747.000000	65.140748 
1746.000000	65.136718 
1745.000000	65.127468 
1744.000000	65.113377 
1743.000000	65.095281 
1742.000000	65.074706 
1741.000000	65.053439 
1740.000000	65.033245 
1739.000000	65.015745 
1738.000000	65.002155 
1737.000000	64.993047 
1736.000000	64.988231 
1735.000000	64.986920 
1734.000000	64.987921 
1733.000000	64.989995 
1732.000000	64.991617 
1731.000000	64.991426 
1730.000000	64.988470 
1729.000000	64.982151 
1728.000000	64.972376 
1727.000000	64.959502 
1726.000000	64.944291 
1725.000000	64.927840 
1724.000000	64.911699 
1723.000000	64.897632 
1722.000000	64.887142 
1721.000000	64.881968 
1720.000000	64.883327 
1719.000000	64.891958 
1718.000000	64.907860 
1717.000000	64.930081 
1716.000000	64.956665 
1715.000000	64.984917 
1714.000000	65.011835 
1713.000000	65.034770 
1712.000000	65.051984 
1711.000000	65.062856 
1710.000000	65.068221 
1709.000000	65.070128 
1708.000000	65.071392 
1707.000000	65.074872 
1706.000000	65.082502 
1705.000000	65.095424 
1704.000000	65.113043 
1703.000000	65.133786 
1702.000000	65.154957 
1701.000000	65.173697 
1700.000000	65.187406 
1699.000000	65.194463 
1698.000000	65.194559 
1697.000000	65.188407 
1696.000000	65.178012 
1695.000000	65.166068 
1694.000000	65.155410 
1693.000000	65.148591 
1692.000000	65.147495 
1691.000000	65.152955 
1690.000000	65.164709 
1689.000000	65.181469 
1688.000000	65.200948 
1687.000000	65.220212 
1686.000000	65.236115 
1685.000000	65.245556 
1684.000000	65.245962 
1683.000000	65.235638 
1682.000000	65.214109 
1681.000000	65.182447 
1680.000000	65.142893 
1679.000000	65.098834 
1678.000000	65.054345 
1677.000000	65.013861 
1676.000000	64.981317 
1675.000000	64.959907 
1674.000000	64.951491 
1673.000000	64.956545 
1672.000000	64.973974 
1671.000000	65.001440 
1670.000000	65.035629 
1669.000000	65.072679 
1668.000000	65.108537 
1667.000000	65.139555 
1666.000000	65.162897 
1665.000000	65.176701 
1664.000000	65.180301 
1663.000000	65.174055 
1662.000000	65.159201 
1661.000000	65.137720 
1660.000000	65.111827 
1659.000000	65.083479 
1658.000000	65.054178 
1657.000000	65.024805 
1656.000000	64.995861 
1655.000000	64.967560 
1654.000000	64.940094 
1653.000000	64.913892 
1652.000000	64.889812 
1651.000000	64.869022 
1650.000000	64.852809 
1649.000000	64.842152 
1648.000000	64.837765 
1647.000000	64.839100 
1646.000000	64.845013 
1645.000000	64.853644 
1644.000000	64.862704 
1643.000000	64.869880 
1642.000000	64.873433 
1641.000000	64.872217 
1640.000000	64.866304 
1639.000000	64.856529 
1638.000000	64.844441 
1637.000000	64.832019 
1636.000000	64.821243 
1635.000000	64.813947 
1634.000000	64.811420 
1633.000000	64.814233 
1632.000000	64.822268 
1631.000000	64.835000 
1630.000000	64.851212 
1629.000000	64.869642 
1628.000000	64.888739 
1627.000000	64.907288 
1626.000000	64.924383 
1625.000000	64.939498 
1624.000000	64.952492 
1623.000000	64.963293 
1622.000000	64.972281 
1621.000000	64.979529 
1620.000000	64.984965 
1619.000000	64.987993 
1618.000000	64.988207 
1617.000000	64.985013 
1616.000000	64.978289 
1615.000000	64.968323 
1614.000000	64.956188 
1613.000000	64.943361 
1612.000000	64.931607 
1611.000000	64.922404 
1610.000000	64.916729 
1609.000000	64.914584 
1608.000000	64.915037 
1607.000000	64.916396 
1606.000000	64.916706 
1605.000000	64.914202 
1604.000000	64.907670 
1603.000000	64.896774 
1602.000000	64.882230 
1601.000000	64.865326 
1600.000000	64.847779 
1599.000000	64.831066 
1598.000000	64.816379 
1597.000000	64.804530 
1596.000000	64.795947 
1595.000000	64.790892 
1594.000000	64.789462 
1593.000000	64.791870 
1592.000000	64.798259 
1591.000000	64.808464 
1590.000000	64.822053 
1589.000000	64.838075 
1588.000000	64.855194 
1587.000000	64.871692 
1586.000000	64.886283 
1585.000000	64.898109 
1584.000000	64.907217 
1583.000000	64.914488 
1582.000000	64.921450 
1581.000000	64.929842 
1580.000000	64.941000 
1579.000000	64.955425 
1578.000000	64.972639 
1577.000000	64.991044 
1576.000000	65.008473 
1575.000000	65.022587 
1574.000000	65.031480 
1573.000000	65.034055 
1572.000000	65.030336 
1571.000000	65.021371 
1570.000000	65.008878 
1569.000000	64.995050 
1568.000000	64.981746 
1567.000000	64.970302 
1566.000000	64.961147 
1565.000000	64.953947 
1564.000000	64.947867 
1563.000000	64.941930 
1562.000000	64.935493 
1561.000000	64.928388 
1560.000000	64.920926 
1559.000000	64.914155 
1558.000000	64.909291 
1557.000000	64.907288 
1556.000000	64.908504 
1555.000000	64.912509 
1554.000000	64.918136 
1553.000000	64.923596 
1552.000000	64.927029 
1551.000000	64.926934 
1550.000000	64.922595 
1549.000000	64.914417 
1548.000000	64.903688 
1547.000000	64.892125 
1546.000000	64.881587 
1545.000000	64.873337 
1544.000000	64.867806 
1543.000000	64.864516 
1542.000000	64.862370 
1541.000000	64.859867 
1540.000000	64.856004 
1539.000000	64.850544 
1538.000000	64.844298 
1537.000000	64.838886 
1536.000000	64.836502 
1535.000000	64.838814 
1534.000000	64.846634 
1533.000000	64.859652 
1532.000000	64.876294 
1531.000000	64.893889 
1530.000000	64.909672 
1529.000000	64.921355 
1528.000000	64.927601 
1527.000000	64.928627 
1526.000000	64.925909 
1525.000000	64.921879 
1524.000000	64.919185 
1523.000000	64.920020 
1522.000000	64.925551 
1521.000000	64.935660 
1520.000000	64.948678 
1519.000000	64.961934 
1518.000000	64.972114 
1517.000000	64.976215 
1516.000000	64.971542 
1515.000000	64.957022 
1514.000000	64.932894 
1513.000000	64.901399 
1512.000000	64.866137 
1511.000000	64.832091 
1510.000000	64.804387 
1509.000000	64.787721 
1508.000000	64.785528 
1507.000000	64.799118 
1506.000000	64.827132 
1505.000000	64.865756 
1504.000000	64.909172 
1503.000000	64.950799 
1502.000000	64.984273 
1501.000000	65.005183 
1500.000000	65.011978 
1499.000000	65.006208 
1498.000000	64.991879 
1497.000000	64.974594 
1496.000000	64.959859 
1495.000000	64.952063 
1494.000000	64.953207 
1493.000000	64.963078 
1492.000000	64.979410 
1491.000000	64.998936 
1490.000000	65.018057 
1489.000000	65.034103 
1488.000000	65.045189 
1487.000000	65.050482 
1486.000000	65.049910 
1485.000000	65.043902 
1484.000000	65.032982 
1483.000000	65.017724 
1482.000000	64.998722 
1481.000000	64.976906 
1480.000000	64.953446 
1479.000000	64.930343 
1478.000000	64.909648 
1477.000000	64.893245 
1476.000000	64.882397 
1475.000000	64.877271 
1474.000000	64.877223 
1473.000000	64.880824 
1472.000000	64.886474 
1471.000000	64.892625 
1470.000000	64.898157 
1469.000000	64.902162 
1468.000000	64.904117 
1467.000000	64.903497 
1466.000000	64.899587 
1465.000000	64.891099 
1464.000000	64.876842 
1463.000000	64.855504 
1462.000000	64.826154 
1461.000000	64.788961 
1460.000000	64.745140 
1459.000000	64.697813 
1458.000000	64.651441 
1457.000000	64.611434 
1456.000000	64.583206 
1455.000000	64.570641 
1454.000000	64.575290 
1453.000000	64.595603 
1452.000000	64.627003 
1451.000000	64.663076 
1450.000000	64.696717 
1449.000000	64.722204 
1448.000000	64.736247 
1447.000000	64.739060 
1446.000000	64.734196 
1445.000000	64.727735 
1444.000000	64.726495 
1443.000000	64.736628 
1442.000000	64.761686 
1441.000000	64.802098 
1440.000000	64.854717 
1439.000000	64.913654 
1438.000000	64.971518 
1437.000000	65.021133 
1436.000000	65.056991 
1435.000000	65.076041 
1434.000000	65.078377 
1433.000000	65.066719 
1432.000000	65.045595 
1431.000000	65.020108 
1430.000000	64.994764 
1429.000000	64.973139 
1428.000000	64.956736 
1427.000000	64.945387 
1426.000000	64.937520 
1425.000000	64.931225 
1424.000000	64.924502 
1423.000000	64.916086 
1422.000000	64.905595 
1421.000000	64.893674 
1420.000000	64.881753 
1419.000000	64.871740 
1418.000000	64.865374 
1417.000000	64.863681 
1416.000000	64.866781 
1415.000000	64.873862 
1414.000000	64.883232 
1413.000000	64.892673 
1412.000000	64.899992 
1411.000000	64.903497 
1410.000000	64.902353 
1409.000000	64.896750 
1408.000000	64.887952 
1407.000000	64.877891 
1406.000000	64.868497 
1405.000000	64.861392 
1404.000000	64.857816 
1403.000000	64.858198 
1402.000000	64.862036 
1401.000000	64.868474 
1400.000000	64.876198 
1399.000000	64.884209 
1398.000000	64.891815 
1397.000000	64.898681 
1396.000000	64.904737 
1395.000000	64.910125 
1394.000000	64.915227 
1393.000000	64.920401 
1392.000000	64.925837 
1391.000000	64.931678 
1390.000000	64.938044 
1389.000000	64.945173 
1388.000000	64.953207 
1387.000000	64.962220 
1386.000000	64.972066 
1385.000000	64.982271 
1384.000000	64.992070 
1383.000000	65.000295 
1382.000000	65.005731 
1381.000000	65.007305 
1380.000000	65.004253 
1379.000000	64.996290 
1378.000000	64.983797 
1377.000000	64.967608 
1376.000000	64.949250 
1375.000000	64.930534 
1374.000000	64.913654 
1373.000000	64.900898 
1372.000000	64.894413 
1371.000000	64.895915 
1370.000000	64.906382 
1369.000000	64.925980 
1368.000000	64.953613 
1367.000000	64.986872 
1366.000000	65.022373 
1365.000000	65.056133 
1364.000000	65.084099 
1363.000000	65.102910 
1362.000000	65.110492 
1361.000000	65.106391 
1360.000000	65.091776 
1359.000000	65.069055 
1358.000000	65.041303 
1357.000000	65.011477 
1356.000000	64.981889 
1355.000000	64.953970 
1354.000000	64.928388 
1353.000000	64.905238 
1352.000000	64.884829 
1351.000000	64.867496 
1350.000000	64.853978 
1349.000000	64.845085 
1348.000000	64.841341 
1347.000000	64.842700 
1346.000000	64.848136 
1345.000000	64.855837 
1344.000000	64.863371 
1343.000000	64.868330 
1342.000000	64.868879 
1341.000000	64.864230 
1340.000000	64.855027 
1339.000000	64.843201 
1338.000000	64.831542 
1337.000000	64.822840 
1336.000000	64.819240 
1335.000000	64.821505 
1334.000000	64.828777 
1333.000000	64.838814 
1332.000000	64.848566 
1331.000000	64.855122 
1330.000000	64.856433 
1329.000000	64.851999 
1328.000000	64.842939 
1327.000000	64.831423 
1326.000000	64.820313 
1325.000000	64.812183 
1324.000000	64.808988 
1323.000000	64.811396 
1322.000000	64.818930 
1321.000000	64.830374 
1320.000000	64.844155 
1319.000000	64.858770 
1318.000000	64.873218 
1317.000000	64.886951 
1316.000000	64.899635 
1315.000000	64.910888 
1314.000000	64.920115 
1313.000000	64.926385 
1312.000000	64.928746 
1311.000000	64.926671 
1310.000000	64.920139 
1309.000000	64.910030 
1308.000000	64.897847 
1307.000000	64.885544 
1306.000000	64.875149 
1305.000000	64.868330 
1304.000000	64.866185 
1303.000000	64.869117 
1302.000000	64.876818 
1301.000000	64.888429 
1300.000000	64.902877 
1299.000000	64.918589 
1298.000000	64.933919 
1297.000000	64.947032 
1296.000000	64.955949 
1295.000000	64.959049 
1294.000000	64.955139 
1293.000000	64.944052 
1292.000000	64.926791 
1291.000000	64.905548 
1290.000000	64.883518 
1289.000000	64.863824 
1288.000000	64.849066 
1287.000000	64.840459 
1286.000000	64.837551 
1285.000000	64.838576 
1284.000000	64.841151 
1283.000000	64.843082 
1282.000000	64.842867 
1281.000000	64.840292 
1280.000000	64.836239 
1279.000000	64.832186 
1278.000000	64.829635 
1277.000000	64.829277 
1276.000000	64.830923 
1275.000000	64.833450 
1274.000000	64.835119 
1273.000000	64.834308 
1272.000000	64.830160 
1271.000000	64.822888 
1270.000000	64.813828 
1269.000000	64.805197 
1268.000000	64.799189 
1267.000000	64.797449 
1266.000000	64.800548 
1265.000000	64.807987 
1264.000000	64.818143 
1263.000000	64.828968 
1262.000000	64.838576 
1261.000000	64.845561 
1260.000000	64.849400 
1259.000000	64.850473 
1258.000000	64.849781 
1257.000000	64.848351 
1256.000000	64.847040 
1255.000000	64.846324 
1254.000000	64.845991 
1253.000000	64.845347 
1252.000000	64.843654 
1251.000000	64.840197 
1250.000000	64.834690 
1249.000000	64.827251 
1248.000000	64.818477 
1247.000000	64.809155 
1246.000000	64.799976 
1245.000000	64.791440 
1244.000000	64.783811 
1243.000000	64.776945 
1242.000000	64.770436 
1241.000000	64.763712 
1240.000000	64.756298 
1239.000000	64.747881 
1238.000000	64.738368 
1237.000000	64.728116 
1236.000000	64.717769 
1235.000000	64.708423 
1234.000000	64.701366 
1233.000000	64.697980 
1232.000000	64.699435 
1231.000000	64.706420 
1230.000000	64.719033 
1229.000000	64.736461 
1228.000000	64.756917 
1227.000000	64.778351 
1226.000000	64.798617 
1225.000000	64.815759 
1224.000000	64.828586 
1223.000000	64.836788 
1222.000000	64.841055 
1221.000000	64.842844 
1220.000000	64.844012 
1219.000000	64.846396 
1218.000000	64.851307 
1217.000000	64.859318 
1216.000000	64.870142 
1215.000000	64.882898 
1214.000000	64.896011 
1213.000000	64.907884 
1212.000000	64.917016 
1211.000000	64.922237 
1210.000000	64.923214 
1209.000000	64.920186 
1208.000000	64.913964 
1207.000000	64.905881 
1206.000000	64.897179 
1205.000000	64.888906 
1204.000000	64.881205 
1203.000000	64.873385 
1202.000000	64.863753 
1201.000000	64.850401 
1200.000000	64.831566 
1199.000000	64.806389 
1198.000000	64.775371 
1197.000000	64.740633 
1196.000000	64.705538 
1195.000000	64.674139 
1194.000000	64.650058 
1193.000000	64.635539 
1192.000000	64.630675 
1191.000000	64.633345 
1190.000000	64.639401 
1189.000000	64.644384 
1188.000000	64.644241 
1187.000000	64.637112 
1186.000000	64.623284 
1185.000000	64.605331 
1184.000000	64.586734 
1183.000000	64.571309 
1182.000000	64.561438 
1181.000000	64.558219 
1180.000000	64.560747 
1179.000000	64.567160 
1178.000000	64.575314 
1177.000000	64.583206 
1176.000000	64.589738 
1175.000000	64.594459 
1174.000000	64.597749 
1173.000000	64.600324 
1172.000000	64.602804 
1171.000000	64.605617 
1170.000000	64.608883 
1169.000000	64.612698 
1168.000000	64.617109 
1167.000000	64.622592 
1166.000000	64.629578 
1165.000000	64.638447 
1164.000000	64.649009 
1163.000000	64.660429 
1162.000000	64.671492 
1161.000000	64.680552 
1160.000000	64.686441 
1159.000000	64.688658 
1158.000000	64.687871 
1157.000000	64.685797 
1156.000000	64.684963 
1155.000000	64.687919 
1154.000000	64.696884 
1153.000000	64.712929 
1152.000000	64.735770 
1151.000000	64.763712 
1150.000000	64.793825 
1149.000000	64.822411 
1148.000000	64.845657 
1147.000000	64.860558 
1146.000000	64.865279 
1145.000000	64.859390 
1144.000000	64.843964 
1143.000000	64.821124 
1142.000000	64.793634 
1141.000000	64.764451 
1140.000000	64.736127 
1139.000000	64.710402 
1138.000000	64.688658 
1137.000000	64.671444 
1136.000000	64.658856 
1135.000000	64.650440 
1134.000000	64.645409 
1133.000000	64.642786 
1132.000000	64.641141 
1131.000000	64.639115 
1130.000000	64.635300 
1129.000000	64.628815 
1128.000000	64.619112 
1127.000000	64.606690 
1126.000000	64.593029 
1125.000000	64.580559 
1124.000000	64.571952 
1123.000000	64.569926 
1122.000000	64.576554 
1121.000000	64.593005 
1120.000000	64.618754 
1119.000000	64.651274 
1118.000000	64.686083 
1117.000000	64.717769 
1116.000000	64.740800 
1115.000000	64.749956 
1114.000000	64.741420 
1113.000000	64.713835 
1112.000000	64.668464 
1111.000000	64.608860 
1110.000000	64.540600 
1109.000000	64.470219 
1108.000000	64.404296 
1107.000000	64.348697 
1106.000000	64.307093 
1105.000000	64.280939 
1104.000000	64.268493 
1103.000000	64.265847 
1102.000000	64.267015 
1101.000000	64.264941 
1100.000000	64.253640 
1099.000000	64.228868 
1098.000000	64.190173 
1097.000000	64.140510 
1096.000000	64.087080 
1095.000000	64.039754 
1094.000000	64.009904 
1093.000000	64.007973 
1092.000000	64.041781 
1091.000000	64.114308 
1090.000000	64.223313 
1089.000000	64.361047 
1088.000000	64.515590 
1087.000000	64.672207 
1086.000000	64.816164 
1085.000000	64.933991 
1084.000000	65.015554 
1083.000000	65.054750 
1082.000000	65.050745 
1081.000000	65.006542 
1080.000000	64.928936 
1079.000000	64.826488 
1078.000000	64.709782 
1077.000000	64.588761 
1076.000000	64.472699 
1075.000000	64.368748 
1074.000000	64.282441 
1073.000000	64.217042 
1072.000000	64.174222 
1071.000000	64.154005 
1070.000000	64.155220 
1069.000000	64.176106 
1068.000000	64.214420 
1067.000000	64.267349 
1066.000000	64.331221 
1065.000000	64.401459 
1064.000000	64.472794 
1063.000000	64.539480 
1062.000000	64.596438 
1061.000000	64.639735 
1060.000000	64.667582 
1059.000000	64.680790 
1058.000000	64.682126 
1057.000000	64.676737 
1056.000000	64.669656 
1055.000000	64.664912 
1054.000000	64.663720 
1053.000000	64.665460 
1052.000000	64.666581 
1051.000000	64.662408 
1050.000000	64.647889 
1049.000000	64.619898 
1048.000000	64.577960 
1047.000000	64.525032 
1046.000000	64.466547 
1045.000000	64.408874 
1044.000000	64.358377 
1043.000000	64.319825 
1042.000000	64.295911 
1041.000000	64.286875 
1040.000000	64.291405 
1039.000000	64.307260 
1038.000000	64.332389 
1037.000000	64.365077 
1036.000000	64.403748 
1035.000000	64.446496 
1034.000000	64.490842 
1033.000000	64.533233 
1032.000000	64.568853 
1031.000000	64.591956 
1030.000000	64.597272 
1029.000000	64.580821 
1028.000000	64.541268 
1027.000000	64.480495 
1026.000000	64.403939 
1025.000000	64.319396 
1024.000000	64.236235 
1023.000000	64.162874 
1022.000000	64.105319 
1021.000000	64.066386 
1020.000000	64.045548 
1019.000000	64.039468 
1018.000000	64.043498 
1017.000000	64.052915 
1016.000000	64.064145 
1015.000000	64.074778 
1014.000000	64.083456 
1013.000000	64.089465 
1012.000000	64.092040 
1011.000000	64.090275 
1010.000000	64.083123 
1009.000000	64.070248 
1008.000000	64.052391 
1007.000000	64.032173 
1006.000000	64.013314 
1005.000000	64.000248 
1004.000000	63.996624 
1003.000000	64.004302 
1002.000000	64.022564 
1001.000000	64.047384 
1000.000000	64.073204 
999.000000	 64.093899 
998.000000	 64.105105 
997.000000	 64.105391 
996.000000	 64.096808 
995.000000	 64.084124 
994.000000	 64.073729 
993.000000	 64.071750 
992.000000	 64.082360 
991.000000	 64.105844 
990.000000	 64.139175 
989.000000	 64.176964 
988.000000	 64.212703 
987.000000	 64.240694 
986.000000	 64.257478 
985.000000	 64.262557 
984.000000	 64.258384 
983.000000	 64.249324 
982.000000	 64.240002 
981.000000	 64.233779 
980.000000	 64.231848 
979.000000	 64.233016 
978.000000	 64.234399 
977.000000	 64.232277 
976.000000	 64.223742 
975.000000	 64.207839 
974.000000	 64.185857 
973.000000	 64.161419 
972.000000	 64.139437 
971.000000	 64.125204 
970.000000	 64.122653 
969.000000	 64.134049 
968.000000	 64.159059 
967.000000	 64.195322 
966.000000	 64.238810 
965.000000	 64.284825 
964.000000	 64.328885 
963.000000	 64.367389 
962.000000	 64.398026 
961.000000	 64.419531 
960.000000	 64.431428 
959.000000	 64.433836 
958.000000	 64.427423 
957.000000	 64.413309 
956.000000	 64.393019 
955.000000	 64.368700 
954.000000	 64.342689 
953.000000	 64.317250 
952.000000	 64.294219 
951.000000	 64.274621 
950.000000	 64.258837 
949.000000	 64.246773 
948.000000	 64.238238 
947.000000	 64.233088 
946.000000	 64.231538 
945.000000	 64.233899 
944.000000	 64.240670 
943.000000	 64.251613 
942.000000	 64.266419 
941.000000	 64.284157 
940.000000	 64.303803 
939.000000	 64.324092 
938.000000	 64.344048 
937.000000	 64.363026 
936.000000	 64.380764 
935.000000	 64.397311 
934.000000	 64.413022 
933.000000	 64.428544 
932.000000	 64.444398 
931.000000	 64.460754 
930.000000	 64.477777 
929.000000	 64.495182 
928.000000	 64.512634 
927.000000	 64.529275 
926.000000	 64.544105 
925.000000	 64.555621 
924.000000	 64.562487 
923.000000	 64.563345 
922.000000	 64.557504 
921.000000	 64.544987 
920.000000	 64.526891 
919.000000	 64.504981 
918.000000	 64.481139 
917.000000	 64.457201 
916.000000	 64.434599 
915.000000	 64.414072 
914.000000	 64.395570 
913.000000	 64.378762 
912.000000	 64.363169 
911.000000	 64.348387 
910.000000	 64.334297 
909.000000	 64.320850 
908.000000	 64.307999 
907.000000	 64.295887 
906.000000	 64.284563 
905.000000	 64.273905 
904.000000	 64.263510 
903.000000	 64.252758 
902.000000	 64.241027 
901.000000	 64.227819 
900.000000	 64.212942 
899.000000	 64.196705 
898.000000	 64.180040 
897.000000	 64.164185 
896.000000	 64.150881 
895.000000	 64.141249 
894.000000	 64.136624 
893.000000	 64.137411 
892.000000	 64.144062 
891.000000	 64.156794 
890.000000	 64.175701 
889.000000	 64.201068 
888.000000	 64.232659 
887.000000	 64.269733 
886.000000	 64.310288 
885.000000	 64.351344 
884.000000	 64.388704 
883.000000	 64.417552 
882.000000	 64.433288 
881.000000	 64.432811 
880.000000	 64.415073 
879.000000	 64.381742 
878.000000	 64.337134 
877.000000	 64.287519 
876.000000	 64.239764 
875.000000	 64.199995 
874.000000	 64.172649 
873.000000	 64.159846 
872.000000	 64.161705 
871.000000	 64.176702 
870.000000	 64.202523 
869.000000	 64.236474 
868.000000	 64.275813 
867.000000	 64.318013 
866.000000	 64.360022 
865.000000	 64.398932 
864.000000	 64.431715 
863.000000	 64.455866 
862.000000	 64.469742 
861.000000	 64.472723 
860.000000	 64.465522 
859.000000	 64.449954 
858.000000	 64.429140 
857.000000	 64.406299 
856.000000	 64.384722 
855.000000	 64.366626 
854.000000	 64.353322 
853.000000	 64.344811 
852.000000	 64.340281 
851.000000	 64.338159 
850.000000	 64.336800 
849.000000	 64.334988 
848.000000	 64.332270 
847.000000	 64.328742 
846.000000	 64.324855 
845.000000	 64.320945 
844.000000	 64.316844 
843.000000	 64.311671 
842.000000	 64.303731 
841.000000	 64.290928 
840.000000	 64.271497 
839.000000	 64.244294 
838.000000	 64.210033 
837.000000	 64.171195 
836.000000	 64.132595 
835.000000	 64.099884 
834.000000	 64.079117 
833.000000	 64.075374 
832.000000	 64.091563 
831.000000	 64.127755 
830.000000	 64.180517 
829.000000	 64.243531 
828.000000	 64.308524 
827.000000	 64.366698 
826.000000	 64.410352 
825.000000	 64.434123 
824.000000	 64.435791 
823.000000	 64.416289 
822.000000	 64.379262 
821.000000	 64.329862 
820.000000	 64.273881 
819.000000	 64.216542 
818.000000	 64.162278 
817.000000	 64.113879 
816.000000	 64.073324 
815.000000	 64.041256 
814.000000	 64.017438 
813.000000	 64.000988 
812.000000	 63.990330 
811.000000	 63.984394 
810.000000	 63.982009 
809.000000	 63.982939 
808.000000	 63.987421 
807.000000	 63.996267 
806.000000	 64.010334 
805.000000	 64.030122 
804.000000	 64.055275 
803.000000	 64.084005 
802.000000	 64.113235 
801.000000	 64.138770 
800.000000	 64.156079 
799.000000	 64.161133 
798.000000	 64.151453 
797.000000	 64.126491 
796.000000	 64.088034 
795.000000	 64.040088 
794.000000	 63.988327 
793.000000	 63.939046 
792.000000	 63.898086 
791.000000	 63.870120 
790.000000	 63.857960 
789.000000	 63.862061 
788.000000	 63.880825 
787.000000	 63.910746 
786.000000	 63.947272 
785.000000	 63.985514 
784.000000	 64.020991 
783.000000	 64.049458 
782.000000	 64.068126 
781.000000	 64.076304 
780.000000	 64.075040 
779.000000	 64.066529 
778.000000	 64.053726 
777.000000	 64.039969 
776.000000	 64.027452 
775.000000	 64.017105 
774.000000	 64.008045 
773.000000	 63.997936 
772.000000	 63.984394 
771.000000	 63.966274 
770.000000	 63.944172 
769.000000	 63.920497 
768.000000	 63.899183 
767.000000	 63.884472 
766.000000	 63.878917 
765.000000	 63.882184 
764.000000	 63.890099 
763.000000	 63.896012 
762.000000	 63.891363 
761.000000	 63.869833 
760.000000	 63.829231 
759.000000	 63.774609 
758.000000	 63.716697 
757.000000	 63.671326 
756.000000	 63.655614 
755.000000	 63.683462 
754.000000	 63.761949 
753.000000	 63.887906 
752.000000	 64.048719 
751.000000	 64.222669 
750.000000	 64.384603 
749.000000	 64.509320 
748.000000	 64.577436 
747.000000	 64.578366 
746.000000	 64.512395 
745.000000	 64.389753 
744.000000	 64.227771 
743.000000	 64.047765 
742.000000	 63.870787 
741.000000	 63.714408 
740.000000	 63.589787 
739.000000	 63.501667 
738.000000	 63.447809 
737.000000	 63.420248 
736.000000	 63.407635 
735.000000	 63.396811 
734.000000	 63.377094 
733.000000	 63.340902 
732.000000	 63.287186 
731.000000	 63.219451 
730.000000	 63.146591 
729.000000	 63.079404 
728.000000	 63.028931 
727.000000	 63.003087 
726.000000	 63.005232 
725.000000	 63.033056 
724.000000	 63.079571 
723.000000	 63.134741 
722.000000	 63.188362 
721.000000	 63.232469 
720.000000	 63.262915 
719.000000	 63.279342 
718.000000	 63.285231 
717.000000	 63.286137 
716.000000	 63.287544 
715.000000	 63.293004 
714.000000	 63.303780 
713.000000	 63.318586 
712.000000	 63.334918 
711.000000	 63.350081 
710.000000	 63.361644 
709.000000	 63.368344 
708.000000	 63.370513 
707.000000	 63.370156 
706.000000	 63.369536 
705.000000	 63.371586 
704.000000	 63.378858 
703.000000	 63.393616 
702.000000	 63.417744 
701.000000	 63.451528 
700.000000	 63.494658 
699.000000	 63.544249 
698.000000	 63.595581 
697.000000	 63.641953 
696.000000	 63.675761 
695.000000	 63.690090 
694.000000	 63.680028 
693.000000	 63.644528 
692.000000	 63.586974 
691.000000	 63.514423 
690.000000	 63.436412 
689.000000	 63.362407 
688.000000	 63.299870 
687.000000	 63.252377 
686.000000	 63.219404 
685.000000	 63.196682 
684.000000	 63.178181 
683.000000	 63.158464 
682.000000	 63.134694 
681.000000	 63.107156 
680.000000	 63.079333 
679.000000	 63.056612 
678.000000	 63.044381 
677.000000	 63.045191 
676.000000	 63.058376 
675.000000	 63.079738 
674.000000	 63.102960 
673.000000	 63.121032 
672.000000	 63.128471 
671.000000	 63.122606 
670.000000	 63.104748 
669.000000	 63.079118 
668.000000	 63.052511 
667.000000	 63.032245 
666.000000	 63.024520 
665.000000	 63.032889 
664.000000	 63.057899 
663.000000	 63.097047 
662.000000	 63.145375 
661.000000	 63.196611 
660.000000	 63.243556 
659.000000	 63.279199 
658.000000	 63.297629 
657.000000	 63.294768 
656.000000	 63.268184 
655.000000	 63.217496 
654.000000	 63.144993 
653.000000	 63.055157 
652.000000	 62.954258 
651.000000	 62.849545 
650.000000	 62.748551 
649.000000	 62.658357 
648.000000	 62.584757 
647.000000	 62.531828 
646.000000	 62.501573 
645.000000	 62.493658 
644.000000	 62.505388 
643.000000	 62.532234 
642.000000	 62.568044 
641.000000	 62.606501 
640.000000	 62.641811 
639.000000	 62.669634 
638.000000	 62.686991 
637.000000	 62.693262 
636.000000	 62.689828 
635.000000	 62.680029 
634.000000	 62.668108 
633.000000	 62.659144 
632.000000	 62.657928 
631.000000	 62.668013 
630.000000	 62.690734 
629.000000	 62.725424 
628.000000	 62.768936 
627.000000	 62.816095 
626.000000	 62.860774 
625.000000	 62.896800 
624.000000	 62.919688 
623.000000	 62.927532 
622.000000	 62.921667 
621.000000	 62.906408 
620.000000	 62.887763 
619.000000	 62.872552 
618.000000	 62.865543 
617.000000	 62.868547 
616.000000	 62.879228 
615.000000	 62.892103 
614.000000	 62.899875 
613.000000	 62.896037 
612.000000	 62.876439 
611.000000	 62.840819 
610.000000	 62.792444 
609.000000	 62.737369 
608.000000	 62.681818 
607.000000	 62.630343 
606.000000	 62.584853 
605.000000	 62.544631 
604.000000	 62.506651 
603.000000	 62.467455 
602.000000	 62.424659 
601.000000	 62.378311 
600.000000	 62.331461 
599.000000	 62.289261 
598.000000	 62.257409 
597.000000	 62.240195 
596.000000	 62.238526 
595.000000	 62.249183 
594.000000	 62.264800 
593.000000	 62.275624 
592.000000	 62.271571 
591.000000	 62.245273 
590.000000	 62.193965 
589.000000	 62.120318 
588.000000	 62.032079 
587.000000	 61.939692 
586.000000	 61.853694 
585.000000	 61.782002 
584.000000	 61.728215 
583.000000	 61.690735 
582.000000	 61.663818 
581.000000	 61.639666 
580.000000	 61.611461 
579.000000	 61.575913 
578.000000	 61.534714 
577.000000	 61.494183 
576.000000	 61.463809 
575.000000	 61.453008 
574.000000	 61.468791 
573.000000	 61.513113 
572.000000	 61.582565 
571.000000	 61.669492 
570.000000	 61.763834 
569.000000	 61.855459 
568.000000	 61.935782 
567.000000	 61.999154 
566.000000	 62.042951 
565.000000	 62.067174 
564.000000	 62.074160 
563.000000	 62.067174 
562.000000	 62.050414 
561.000000	 62.028670 
560.000000	 62.006592 
559.000000	 61.988949 
558.000000	 61.979389 
557.000000	 61.980938 
556.000000	 61.993980 
555.000000	 62.016510 
554.000000	 62.044239 
553.000000	 62.071323 
552.000000	 62.092304 
551.000000	 62.103033 
550.000000	 62.101173 
549.000000	 62.086248 
548.000000	 62.059354 
547.000000	 62.022113 
546.000000	 61.975836 
545.000000	 61.921310 
544.000000	 61.858892 
543.000000	 61.789703 
542.000000	 61.716485 
541.000000	 61.643862 
540.000000	 61.578035 
539.000000	 61.525416 
538.000000	 61.490774 
537.000000	 61.476683 
536.000000	 61.482024 
535.000000	 61.503028 
534.000000	 61.533117 
533.000000	 61.566281 
532.000000	 61.598944 
531.000000	 61.629796 
530.000000	 61.659884 
529.000000	 61.689138 
528.000000	 61.715030 
527.000000	 61.729884 
526.000000	 61.722016 
525.000000	 61.678862 
524.000000	 61.591219 
523.000000	 61.457037 
522.000000	 61.284089 
521.000000	 61.090159 
520.000000	 60.900640 
519.000000	 60.743045 
518.000000	 60.641360 
517.000000	 60.611224 
516.000000	 60.656070 
515.000000	 60.766625 
514.000000	 60.922741 
513.000000	 61.097812 
512.000000	 61.264204 
511.000000	 61.397862 
510.000000	 61.483097 
509.000000	 61.513495 
508.000000	 61.492705 
507.000000	 61.431384 
506.000000	 61.344194 
505.000000	 61.246323 
504.000000	 61.149287 
503.000000	 61.060571 
502.000000	 60.980153 
501.000000	 60.902810 
500.000000	 60.819244 
499.000000	 60.720372 
498.000000	 60.599517 
497.000000	 60.455870 
496.000000	 60.295295 
495.000000	 60.130453 
494.000000	 59.977793 
493.000000	 59.853911 
492.000000	 59.771776 
491.000000	 59.737038 
490.000000	 59.745454 
489.000000	 59.784221 
488.000000	 59.834814 
487.000000	 59.877634 
486.000000	 59.895563 
485.000000	 59.879040 
484.000000	 59.827542 
483.000000	 59.749388 
482.000000	 59.658145 
481.000000	 59.569144 
480.000000	 59.492826 
479.000000	 59.436154 
478.000000	 59.402084 
477.000000	 59.389972 
476.000000	 59.397101 
475.000000	 59.419941 
474.000000	 59.455394 
473.000000	 59.501099 
472.000000	 59.555244 
471.000000	 59.616804 
470.000000	 59.684586 
469.000000	 59.756135 
468.000000	 59.827613 
467.000000	 59.892678 
466.000000	 59.944772 
465.000000	 59.977841 
464.000000	 59.990453 
463.000000	 59.987258 
462.000000	 59.978771 
461.000000	 59.983611 
460.000000	 60.018491 
459.000000	 60.094666 
458.000000	 60.209250 
457.000000	 60.348606 
456.000000	 60.483312 
455.000000	 60.574007 
454.000000	 60.581493 
453.000000	 60.477828 
452.000000	 60.255599 
451.000000	 59.932303 
450.000000	 59.547972 
449.000000	 59.156918 
448.000000	 58.814907 
447.000000	 58.567023 
446.000000	 58.432602 
445.000000	 58.401393 
444.000000	 58.441710 
443.000000	 58.510756 
442.000000	 58.564710 
441.000000	 58.572125 
440.000000	 58.519339 
439.000000	 58.416199 
438.000000	 58.285212 
437.000000	 58.161711 
436.000000	 58.080506 
435.000000	 58.074474 
434.000000	 58.161807 
433.000000	 58.351016 
432.000000	 58.640432 
431.000000	 59.020590 
430.000000	 59.479260 
429.000000	 59.997510 
428.000000	 60.546588 
427.000000	 61.091423 
426.000000	 61.607217 
425.000000	 62.053871 
424.000000	 62.375545 
423.000000	 62.514305 
422.000000	 62.429356 
421.000000	 62.089443 
420.000000	 61.485552 
419.000000	 60.634446 
418.000000	 59.583592 
417.000000	 58.410906 
416.000000	 57.216858 
415.000000	 56.119036 
414.000000	 55.229687 
413.000000	 54.633378 
412.000000	 54.368042 
411.000000	 54.414200 
410.000000	 54.700255 
409.000000	 55.112934 
408.000000	 55.529761 
407.000000	 55.835700 
406.000000	 55.968689 
405.000000	 55.887937 
404.000000	 55.655241 
403.000000	 55.341434 
402.000000	 55.141949 
401.000000	 55.344176 
400.000000	 56.270837 
399.000000	 58.223676 
398.000000	 61.329984 
397.000000	 65.485095 
396.000000	 70.304751 
395.000000	 75.159168 
394.000000	 79.385113 
393.000000	 82.442903 
392.000000	 84.052467 
391.000000	 84.262728 
390.000000	 83.323431 
389.000000	 81.614279 
388.000000	 79.534125 
387.000000	 77.433013 
386.000000	 75.598192 
385.000000	 74.222373 
384.000000	 73.521518 
383.000000	 73.620939 
382.000000	 74.589323 
381.000000	 76.319575 
380.000000	 78.477096 
379.000000	 80.571150 
378.000000	 82.015538 
377.000000	 82.307481 
376.000000	 81.201720 
375.000000	 78.715944 
374.000000	 75.172185 
373.000000	 71.030497 
372.000000	 66.763138 
371.000000	 62.723016 
370.000000	 59.072780 

