PE IR       SPECTRUM    SPECTRUM    ASCII       PEDS        1.60        
  -1
C-1DEE~1.ASC
17/03/27
20:39:43.00
17/03/27
20:39:43.00
tln
$C-4040-8_t0075$<tbV0>[-7.8,2.6,8.0,0.0,27,1,0]
370.000000
64









2002,4.07    
MIRTGS : RIGHTBACK : INTERNAL 2
MIR : ON : INTERNAL 2
OPTKBR

0.200000
8
8.000000
FILLER
RATIO
SPECTRUM
UNLOCKED 256

DOUBLE
64
COMBINED
1
0
0


1.000000
RATIO


1
0
TRUE
51149
0
LEFT NOT FITTED RIGHT NOT FITTED 0
NONE
NONE
15600
12.000000
4.427000
51148
TRUE
1 0 8 72 0 0 0 0 

15798.010000






#HDR
-1
-1
#GR
CM-1
%T
0.00002384185791015625
0.0
5000.000000
-1.000000
4631
8
79.896450
29.417467
#DATA
5000.000000	65.274310 
4999.000000	65.187811 
4998.000000	65.089988 
4997.000000	64.983010 
4996.000000	64.869117 
4995.000000	64.751029 
4994.000000	64.632940 
4993.000000	64.520335 
4992.000000	64.420366 
4991.000000	64.339828 
4990.000000	64.285612 
4989.000000	64.263057 
4988.000000	64.275002 
4987.000000	64.320302 
4986.000000	64.394545 
4985.000000	64.490222 
4984.000000	64.598321 
4983.000000	64.709186 
4982.000000	64.814496 
4981.000000	64.907622 
4980.000000	64.984512 
4979.000000	65.042996 
4978.000000	65.082287 
4977.000000	65.101623 
4976.000000	65.101337 
4975.000000	65.081262 
4974.000000	65.041613 
4973.000000	64.982509 
4972.000000	64.905381 
4971.000000	64.813446 
4970.000000	64.711546 
4969.000000	64.608240 
4968.000000	64.514064 
4967.000000	64.442729 
4966.000000	64.407110 
4965.000000	64.419198 
4964.000000	64.486479 
4963.000000	64.611244 
4962.000000	64.788389 
4961.000000	65.006685 
4960.000000	65.249395 
4959.000000	65.497469 
4958.000000	65.731739 
4957.000000	65.936088 
4956.000000	66.098928 
4955.000000	66.214132 
4954.000000	66.280055 
4953.000000	66.298413 
4952.000000	66.272234 
4951.000000	66.205525 
4950.000000	66.101956 
4949.000000	65.967440 
4948.000000	65.808629 
4947.000000	65.636038 
4946.000000	65.460705 
4945.000000	65.294241 
4944.000000	65.145969 
4943.000000	65.021944 
4942.000000	64.923810 
4941.000000	64.848375 
4940.000000	64.789938 
4939.000000	64.741706 
4938.000000	64.698505 
4937.000000	64.656925 
4936.000000	64.617109 
4935.000000	64.581131 
4934.000000	64.552688 
4933.000000	64.534878 
4932.000000	64.529323 
4931.000000	64.534616 
4930.000000	64.547991 
4929.000000	64.565706 
4928.000000	64.583802 
4927.000000	64.598512 
4926.000000	64.607644 
4925.000000	64.610695 
4924.000000	64.607477 
4923.000000	64.598584 
4922.000000	64.585089 
4921.000000	64.569306 
4920.000000	64.554381 
4919.000000	64.545011 
4918.000000	64.546346 
4917.000000	64.563846 
4916.000000	64.602327 
4915.000000	64.664506 
4914.000000	64.748620 
4913.000000	64.849305 
4912.000000	64.958858 
4911.000000	65.067553 
4910.000000	65.164852 
4909.000000	65.241622 
4908.000000	65.292787 
4907.000000	65.316200 
4906.000000	65.312981 
4905.000000	65.286850 
4904.000000	65.243005 
4903.000000	65.187048 
4902.000000	65.124297 
4901.000000	65.059661 
4900.000000	64.997339 
4899.000000	64.941978 
4898.000000	64.897656 
4897.000000	64.867281 
4896.000000	64.851427 
4895.000000	64.847373 
4894.000000	64.850258 
4893.000000	64.852023 
4892.000000	64.846253 
4891.000000	64.829182 
4890.000000	64.803504 
4889.000000	64.777469 
4888.000000	64.764475 
4887.000000	64.779138 
4886.000000	64.834070 
4885.000000	64.934659 
4884.000000	65.078091 
4883.000000	65.253019 
4882.000000	65.441751 
4881.000000	65.623736 
4880.000000	65.780067 
4879.000000	65.897655 
4878.000000	65.970015 
4877.000000	65.997767 
4876.000000	65.985465 
4875.000000	65.939354 
4874.000000	65.864753 
4873.000000	65.765285 
4872.000000	65.643668 
4871.000000	65.502977 
4870.000000	65.349650 
4869.000000	65.193581 
4868.000000	65.046954 
4867.000000	64.922761 
4866.000000	64.831662 
4865.000000	64.780783 
4864.000000	64.771127 
4863.000000	64.798355 
4862.000000	64.853286 
4861.000000	64.923667 
4860.000000	64.996170 
4859.000000	65.058779 
4858.000000	65.101313 
4857.000000	65.118265 
4856.000000	65.108251 
4855.000000	65.074872 
4854.000000	65.024757 
4853.000000	64.967298 
4852.000000	64.912486 
4851.000000	64.868831 
4850.000000	64.842224 
4849.000000	64.834594 
4848.000000	64.844346 
4847.000000	64.866065 
4846.000000	64.892578 
4845.000000	64.917230 
4844.000000	64.935779 
4843.000000	64.947915 
4842.000000	64.957046 
4841.000000	64.968204 
4840.000000	64.986491 
4839.000000	65.015411 
4838.000000	65.055131 
4837.000000	65.101742 
4836.000000	65.148019 
4835.000000	65.186119 
4834.000000	65.208911 
4833.000000	65.211749 
4832.000000	65.193748 
4831.000000	65.157938 
4830.000000	65.110898 
4829.000000	65.061616 
4828.000000	65.018916 
4827.000000	64.989662 
4826.000000	64.977169 
4825.000000	64.981269 
4824.000000	64.997887 
4823.000000	65.020370 
4822.000000	65.041184 
4821.000000	65.053939 
4820.000000	65.054702 
4819.000000	65.043282 
4818.000000	65.023159 
4817.000000	65.000844 
4816.000000	64.984536 
4815.000000	64.982104 
4814.000000	64.999294 
4813.000000	65.037989 
4812.000000	65.096163 
4811.000000	65.167427 
4810.000000	65.242981 
4809.000000	65.312290 
4808.000000	65.365934 
4807.000000	65.396261 
4806.000000	65.399026 
4805.000000	65.373182 
4804.000000	65.321016 
4803.000000	65.247154 
4802.000000	65.157818 
4801.000000	65.059208 
4800.000000	64.957571 
4799.000000	64.857292 
4798.000000	64.761471 
4797.000000	64.671611 
4796.000000	64.588713 
4795.000000	64.513421 
4794.000000	64.447045 
4793.000000	64.391589 
4792.000000	64.350008 
4791.000000	64.325952 
4790.000000	64.323258 
4789.000000	64.344310 
4788.000000	64.389586 
4787.000000	64.457035 
4786.000000	64.542055 
4785.000000	64.637279 
4784.000000	64.733672 
4783.000000	64.821839 
4782.000000	64.893507 
4781.000000	64.942479 
4780.000000	64.965987 
4779.000000	64.964866 
4778.000000	64.943552 
4777.000000	64.908909 
4776.000000	64.868927 
4775.000000	64.831519 
4774.000000	64.802837 
4773.000000	64.787077 
4772.000000	64.785194 
4771.000000	64.795565 
4770.000000	64.814639 
4769.000000	64.838624 
4768.000000	64.863276 
4767.000000	64.884781 
4766.000000	64.900612 
4765.000000	64.909672 
4764.000000	64.911317 
4763.000000	64.905285 
4762.000000	64.891719 
4761.000000	64.870858 
4760.000000	64.842867 
4759.000000	64.807915 
4758.000000	64.766907 
4757.000000	64.721560 
4756.000000	64.674210 
4755.000000	64.627814 
4754.000000	64.584922 
4753.000000	64.547967 
4752.000000	64.518475 
4751.000000	64.497375 
4750.000000	64.484167 
4749.000000	64.478135 
4748.000000	64.478254 
4747.000000	64.484500 
4746.000000	64.496898 
4745.000000	64.517092 
4744.000000	64.546990 
4743.000000	64.588785 
4742.000000	64.643549 
4741.000000	64.710569 
4740.000000	64.786911 
4739.000000	64.867806 
4738.000000	64.947247 
4737.000000	65.019631 
4736.000000	65.080618 
4735.000000	65.128302 
4734.000000	65.163207 
4733.000000	65.187907 
4732.000000	65.205955 
4731.000000	65.220594 
4730.000000	65.233588 
4729.000000	65.245151 
4728.000000	65.254020 
4727.000000	65.259075 
4726.000000	65.259480 
4725.000000	65.255784 
4724.000000	65.249443 
4723.000000	65.243506 
4722.000000	65.240240 
4721.000000	65.240478 
4720.000000	65.242552 
4719.000000	65.242695 
4718.000000	65.236449 
4717.000000	65.220189 
4716.000000	65.193104 
4715.000000	65.157628 
4714.000000	65.119862 
4713.000000	65.088057 
4712.000000	65.069937 
4711.000000	65.070152 
4710.000000	65.088391 
4709.000000	65.118932 
4708.000000	65.151309 
4707.000000	65.173244 
4706.000000	65.174174 
4705.000000	65.148591 
4704.000000	65.097427 
4703.000000	65.029048 
4702.000000	64.957022 
4701.000000	64.897274 
4700.000000	64.863967 
4699.000000	64.866256 
4698.000000	64.906144 
4697.000000	64.977788 
4696.000000	65.069770 
4695.000000	65.166926 
4694.000000	65.254330 
4693.000000	65.319514 
4692.000000	65.354990 
4691.000000	65.358519 
4690.000000	65.332627 
4689.000000	65.283465 
4688.000000	65.218997 
4687.000000	65.147829 
4686.000000	65.077877 
4685.000000	65.016078 
4684.000000	64.967918 
4683.000000	64.936852 
4682.000000	64.924478 
4681.000000	64.930081 
4680.000000	64.951515 
4679.000000	64.984893 
4678.000000	65.026259 
4677.000000	65.070748 
4676.000000	65.114879 
4675.000000	65.156888 
4674.000000	65.196657 
4673.000000	65.234971 
4672.000000	65.272784 
4671.000000	65.310239 
4670.000000	65.346169 
4669.000000	65.378069 
4668.000000	65.402722 
4667.000000	65.417098 
4666.000000	65.419507 
4665.000000	65.410614 
4664.000000	65.393090 
4663.000000	65.371179 
4662.000000	65.349459 
4661.000000	65.331840 
4660.000000	65.321159 
4659.000000	65.318655 
4658.000000	65.324354 
4657.000000	65.336847 
4656.000000	65.353727 
4655.000000	65.371465 
4654.000000	65.386247 
4653.000000	65.393614 
4652.000000	65.388846 
4651.000000	65.367698 
4650.000000	65.326762 
4649.000000	65.265011 
4648.000000	65.184712 
4647.000000	65.091156 
4646.000000	64.992547 
4645.000000	64.898586 
4644.000000	64.818716 
4643.000000	64.760828 
4642.000000	64.728927 
4641.000000	64.723753 
4640.000000	64.742708 
4639.000000	64.780902 
4638.000000	64.832305 
4637.000000	64.890670 
4636.000000	64.950156 
4635.000000	65.005636 
4634.000000	65.052676 
4633.000000	65.088105 
4632.000000	65.109944 
4631.000000	65.117788 
4630.000000	65.112614 
4629.000000	65.096950 
4628.000000	65.074133 
4627.000000	65.048170 
4626.000000	65.022587 
4625.000000	65.000057 
4624.000000	64.981675 
4623.000000	64.966940 
4622.000000	64.954400 
4621.000000	64.942383 
4620.000000	64.930176 
4619.000000	64.917969 
4618.000000	64.907836 
4617.000000	64.903020 
4616.000000	64.907622 
4615.000000	64.924907 
4614.000000	64.956879 
4613.000000	65.003013 
4612.000000	65.060377 
4611.000000	65.124368 
4610.000000	65.188455 
4609.000000	65.245652 
4608.000000	65.289425 
4607.000000	65.315079 
4606.000000	65.320158 
4605.000000	65.304899 
4604.000000	65.271973 
4603.000000	65.225958 
4602.000000	65.172505 
4601.000000	65.117144 
4600.000000	65.064954 
4599.000000	65.019369 
4598.000000	64.982461 
4597.000000	64.954161 
4596.000000	64.933228 
4595.000000	64.916896 
4594.000000	64.901733 
4593.000000	64.884209 
4592.000000	64.860892 
4591.000000	64.830040 
4590.000000	64.791202 
4589.000000	64.746594 
4588.000000	64.699983 
4587.000000	64.657330 
4586.000000	64.625358 
4585.000000	64.610576 
4584.000000	64.617657 
4583.000000	64.648532 
4582.000000	64.701581 
4581.000000	64.771795 
4580.000000	64.851546 
4579.000000	64.932155 
4578.000000	65.005373 
4577.000000	65.064883 
4576.000000	65.107083 
4575.000000	65.131378 
4574.000000	65.139293 
4573.000000	65.133881 
4572.000000	65.118193 
4571.000000	65.094900 
4570.000000	65.065455 
4569.000000	65.031123 
4568.000000	64.992761 
4567.000000	64.951920 
4566.000000	64.910554 
4565.000000	64.871883 
4564.000000	64.839029 
4563.000000	64.814352 
4562.000000	64.799213 
4561.000000	64.793324 
4560.000000	64.795398 
4559.000000	64.802789 
4558.000000	64.813613 
4557.000000	64.826846 
4556.000000	64.843320 
4555.000000	64.865303 
4554.000000	64.895629 
4553.000000	64.936184 
4552.000000	64.986968 
4551.000000	65.045118 
4550.000000	65.104866 
4549.000000	65.158510 
4548.000000	65.198397 
4547.000000	65.218544 
4546.000000	65.216040 
4545.000000	65.191197 
4544.000000	65.147614 
4543.000000	65.090942 
4542.000000	65.027284 
4541.000000	64.962482 
4540.000000	64.900898 
4539.000000	64.846467 
4538.000000	64.802479 
4537.000000	64.772891 
4536.000000	64.762902 
4535.000000	64.777493 
4534.000000	64.820766 
4533.000000	64.893198 
4532.000000	64.990162 
4531.000000	65.101552 
4530.000000	65.212225 
4529.000000	65.305590 
4528.000000	65.366744 
4527.000000	65.386319 
4526.000000	65.362620 
4525.000000	65.301418 
4524.000000	65.214562 
4523.000000	65.116882 
4522.000000	65.022563 
4521.000000	64.942359 
4520.000000	64.881777 
4519.000000	64.841246 
4518.000000	64.817380 
4517.000000	64.805340 
4516.000000	64.800333 
4515.000000	64.799261 
4514.000000	64.800620 
4513.000000	64.803814 
4512.000000	64.808583 
4511.000000	64.813160 
4510.000000	64.815258 
4509.000000	64.812111 
4508.000000	64.801549 
4507.000000	64.783215 
4506.000000	64.758157 
4505.000000	64.729213 
4504.000000	64.699959 
4503.000000	64.673566 
4502.000000	64.653229 
4501.000000	64.641475 
4500.000000	64.640569 
4499.000000	64.652252 
4498.000000	64.678001 
4497.000000	64.718627 
4496.000000	64.773607 
4495.000000	64.840722 
4494.000000	64.916110 
4493.000000	64.994287 
4492.000000	65.069103 
4491.000000	65.134549 
4490.000000	65.185832 
4489.000000	65.219688 
4488.000000	65.235829 
4487.000000	65.235590 
4486.000000	65.221977 
4485.000000	65.197682 
4484.000000	65.165352 
4483.000000	65.126085 
4482.000000	65.080213 
4481.000000	65.027332 
4480.000000	64.967846 
4479.000000	64.903187 
4478.000000	64.836454 
4477.000000	64.772582 
4476.000000	64.717364 
4475.000000	64.677023 
4474.000000	64.656686 
4473.000000	64.659667 
4472.000000	64.686536 
4471.000000	64.734601 
4470.000000	64.798164 
4469.000000	64.869308 
4468.000000	64.938950 
4467.000000	64.998555 
4466.000000	65.041208 
4465.000000	65.062332 
4464.000000	65.060162 
4463.000000	65.036034 
4462.000000	64.994120 
4461.000000	64.940190 
4460.000000	64.880871 
4459.000000	64.823317 
4458.000000	64.773845 
4457.000000	64.737510 
4456.000000	64.717006 
4455.000000	64.712953 
4454.000000	64.723706 
4453.000000	64.745450 
4452.000000	64.773678 
4451.000000	64.803528 
4450.000000	64.831638 
4449.000000	64.856076 
4448.000000	64.877557 
4447.000000	64.898443 
4446.000000	64.922046 
4445.000000	64.950919 
4444.000000	64.985680 
4443.000000	65.024113 
4442.000000	65.061044 
4441.000000	65.089011 
4440.000000	65.099668 
4439.000000	65.085649 
4438.000000	65.042281 
4437.000000	64.969182 
4436.000000	64.871883 
4435.000000	64.760231 
4434.000000	64.647293 
4433.000000	64.545559 
4432.000000	64.463901 
4431.000000	64.406228 
4430.000000	64.370846 
4429.000000	64.352393 
4428.000000	64.344024 
4427.000000	64.339351 
4426.000000	64.335727 
4425.000000	64.332199 
4424.000000	64.328432 
4423.000000	64.323210 
4422.000000	64.311146 
4421.000000	64.287543 
4420.000000	64.249706 
4419.000000	64.198040 
4418.000000	64.137578 
4417.000000	64.073467 
4416.000000	64.008498 
4415.000000	63.950538 
4414.000000	63.910531 
4413.000000	63.887500 
4412.000000	63.871836 
4411.000000	63.853001 
4410.000000	63.822674 
4409.000000	63.782358 
4408.000000	63.742041 
4407.000000	63.706922 
4406.000000	63.684749 
4405.000000	63.682723 
4404.000000	63.709163 
4403.000000	63.780593 
4402.000000	63.906359 
4401.000000	64.087438 
4400.000000	64.307093 
4399.000000	64.523935 
4398.000000	64.689540 
4397.000000	64.769458 
4396.000000	64.737534 
4395.000000	64.593648 
4394.000000	64.337086 
4393.000000	63.955450 
4392.000000	63.464832 
4391.000000	62.897419 
4390.000000	62.421774 
4389.000000	62.307286 
4388.000000	62.902569 
4387.000000	64.512562 
4386.000000	67.195630 
4385.000000	70.711159 
4384.000000	74.457788 
4383.000000	77.657961 
4382.000000	79.614925 
4381.000000	79.896450 
4380.000000	78.567028 
4379.000000	76.077723 
4378.000000	73.112583 
4377.000000	70.380640 
4376.000000	68.329071 
4375.000000	67.127513 
4374.000000	66.674971 
4373.000000	66.676115 
4372.000000	66.876077 
4371.000000	67.041039 
4370.000000	67.065572 
4369.000000	66.931104 
4368.000000	66.641664 
4367.000000	66.251611 
4366.000000	65.803074 
4365.000000	65.350413 
4364.000000	64.941048 
4363.000000	64.608788 
4362.000000	64.371848 
4361.000000	64.226961 
4360.000000	64.155459 
4359.000000	64.139628 
4358.000000	64.167881 
4357.000000	64.234328 
4356.000000	64.338874 
4355.000000	64.475250 
4354.000000	64.635181 
4353.000000	64.798450 
4352.000000	64.944863 
4351.000000	65.069317 
4350.000000	65.174818 
4349.000000	65.267038 
4348.000000	65.353131 
4347.000000	65.434074 
4346.000000	65.507292 
4345.000000	65.573954 
4344.000000	65.630292 
4343.000000	65.665936 
4342.000000	65.671825 
4341.000000	65.647077 
4340.000000	65.594196 
4339.000000	65.520310 
4338.000000	65.433073 
4337.000000	65.338921 
4336.000000	65.242958 
4335.000000	65.148758 
4334.000000	65.061593 
4333.000000	64.988613 
4332.000000	64.936661 
4331.000000	64.911317 
4330.000000	64.915919 
4329.000000	64.950537 
4328.000000	65.010929 
4327.000000	65.089058 
4326.000000	65.174055 
4325.000000	65.254211 
4324.000000	65.319132 
4323.000000	65.361404 
4322.000000	65.376591 
4321.000000	65.364694 
4320.000000	65.329909 
4319.000000	65.279054 
4318.000000	65.219831 
4317.000000	65.159416 
4316.000000	65.103769 
4315.000000	65.056371 
4314.000000	65.018606 
4313.000000	64.989781 
4312.000000	64.968013 
4311.000000	64.950895 
4310.000000	64.936256 
4309.000000	64.922809 
4308.000000	64.910340 
4307.000000	64.900112 
4306.000000	64.894533 
4305.000000	64.896726 
4304.000000	64.909338 
4303.000000	64.934277 
4302.000000	64.971232 
4301.000000	65.016865 
4300.000000	65.064930 
4299.000000	65.107131 
4298.000000	65.134978 
4297.000000	65.141844 
4296.000000	65.124845 
4295.000000	65.085434 
4294.000000	65.029644 
4293.000000	64.966559 
4292.000000	64.906287 
4291.000000	64.857673 
4290.000000	64.826536 
4289.000000	64.814805 
4288.000000	64.820790 
4287.000000	64.840579 
4286.000000	64.868974 
4285.000000	64.901065 
4284.000000	64.933252 
4283.000000	64.963936 
4282.000000	64.992642 
4281.000000	65.019202 
4280.000000	65.043234 
4279.000000	65.063524 
4278.000000	65.078496 
4277.000000	65.086030 
4276.000000	65.084910 
4275.000000	65.074419 
4274.000000	65.055203 
4273.000000	65.028476 
4272.000000	64.995884 
4271.000000	64.959192 
4270.000000	64.920306 
4269.000000	64.881443 
4268.000000	64.844584 
4267.000000	64.812088 
4266.000000	64.786458 
4265.000000	64.770269 
4264.000000	64.765381 
4263.000000	64.773035 
4262.000000	64.793300 
4261.000000	64.825463 
4260.000000	64.867377 
4259.000000	64.916205 
4258.000000	64.968323 
4257.000000	65.020155 
4256.000000	65.068435 
4255.000000	65.110898 
4254.000000	65.146207 
4253.000000	65.174031 
4252.000000	65.194606 
4251.000000	65.208864 
4250.000000	65.217733 
4249.000000	65.222024 
4248.000000	65.221953 
4247.000000	65.217328 
4246.000000	65.207362 
4245.000000	65.191364 
4244.000000	65.168738 
4243.000000	65.139555 
4242.000000	65.104508 
4241.000000	65.065455 
4240.000000	65.024924 
4239.000000	64.985322 
4238.000000	64.949011 
4237.000000	64.917993 
4236.000000	64.893722 
4235.000000	64.877057 
4234.000000	64.868283 
4233.000000	64.867353 
4232.000000	64.873790 
4231.000000	64.886832 
4230.000000	64.904904 
4229.000000	64.925432 
4228.000000	64.945435 
4227.000000	64.961814 
4226.000000	64.971423 
4225.000000	64.971446 
4224.000000	64.960694 
4223.000000	64.939904 
4222.000000	64.911437 
4221.000000	64.879179 
4220.000000	64.847731 
4219.000000	64.821863 
4218.000000	64.805364 
4217.000000	64.800930 
4216.000000	64.809489 
4215.000000	64.830589 
4214.000000	64.862728 
4213.000000	64.903759 
4212.000000	64.950847 
4211.000000	65.000844 
4210.000000	65.050768 
4209.000000	65.097570 
4208.000000	65.138554 
4207.000000	65.170717 
4206.000000	65.191674 
4205.000000	65.198087 
4204.000000	65.186667 
4203.000000	65.153932 
4202.000000	65.097832 
4201.000000	65.017747 
4200.000000	64.915585 
4199.000000	64.796161 
4198.000000	64.667344 
4197.000000	64.538908 
4196.000000	64.421629 
4195.000000	64.325284 
4194.000000	64.257836 
4193.000000	64.223384 
4192.000000	64.222860 
4191.000000	64.253306 
4190.000000	64.309716 
4189.000000	64.385533 
4188.000000	64.474081 
4187.000000	64.568948 
4186.000000	64.664506 
4185.000000	64.754581 
4184.000000	64.833831 
4183.000000	64.896559 
4182.000000	64.938926 
4181.000000	64.959335 
4180.000000	64.959383 
4179.000000	64.944219 
4178.000000	64.920902 
4177.000000	64.897632 
4176.000000	64.880919 
4175.000000	64.874911 
4174.000000	64.880013 
4173.000000	64.893746 
4172.000000	64.911556 
4171.000000	64.928889 
4170.000000	64.942646 
4169.000000	64.952325 
4168.000000	64.960122 
4167.000000	64.970159 
4166.000000	64.986824 
4165.000000	65.013432 
4164.000000	65.050911 
4163.000000	65.097546 
4162.000000	65.149402 
4161.000000	65.201091 
4160.000000	65.247821 
4159.000000	65.285611 
4158.000000	65.312480 
4157.000000	65.328097 
4156.000000	65.333271 
4155.000000	65.329599 
4154.000000	65.319156 
4153.000000	65.304017 
4152.000000	65.286087 
4151.000000	65.266990 
4150.000000	65.248370 
4149.000000	65.231323 
4148.000000	65.216517 
4147.000000	65.203619 
4146.000000	65.191364 
4145.000000	65.177488 
4144.000000	65.159344 
4143.000000	65.134096 
4142.000000	65.099596 
4141.000000	65.055203 
4140.000000	65.002083 
4139.000000	64.942979 
4138.000000	64.882040 
4137.000000	64.823555 
4136.000000	64.771771 
4135.000000	64.729475 
4134.000000	64.698433 
4133.000000	64.678525 
4132.000000	64.668965 
4131.000000	64.668440 
4130.000000	64.676046 
4129.000000	64.690685 
4128.000000	64.711952 
4127.000000	64.739274 
4126.000000	64.771962 
4125.000000	64.808201 
4124.000000	64.845752 
4123.000000	64.881634 
4122.000000	64.913082 
4121.000000	64.937973 
4120.000000	64.955615 
4119.000000	64.966917 
4118.000000	64.974355 
4117.000000	64.981627 
4116.000000	64.992403 
4115.000000	65.009617 
4114.000000	65.034794 
4113.000000	65.067625 
4112.000000	65.106153 
4111.000000	65.146756 
4110.000000	65.185427 
4109.000000	65.217971 
4108.000000	65.240764 
4107.000000	65.251326 
4106.000000	65.248513 
4105.000000	65.232920 
4104.000000	65.206861 
4103.000000	65.173959 
4102.000000	65.139102 
4101.000000	65.107011 
4100.000000	65.081977 
4099.000000	65.066504 
4098.000000	65.061330 
4097.000000	65.065050 
4096.000000	65.074968 
4095.000000	65.087461 
4094.000000	65.099072 
4093.000000	65.107393 
4092.000000	65.111708 
4091.000000	65.112853 
4090.000000	65.112805 
4089.000000	65.113949 
4088.000000	65.118193 
4087.000000	65.126228 
4086.000000	65.137243 
4085.000000	65.149283 
4084.000000	65.159273 
4083.000000	65.164184 
4082.000000	65.161418 
4081.000000	65.149641 
4080.000000	65.128970 
4079.000000	65.100693 
4078.000000	65.067315 
4077.000000	65.032100 
4076.000000	64.998674 
4075.000000	64.970397 
4074.000000	64.949798 
4073.000000	64.938187 
4072.000000	64.935517 
4071.000000	64.940595 
4070.000000	64.951157 
4069.000000	64.964079 
4068.000000	64.976572 
4067.000000	64.986419 
4066.000000	64.992856 
4065.000000	64.996480 
4064.000000	64.999294 
4063.000000	65.003800 
4062.000000	65.012216 
4061.000000	65.025687 
4060.000000	65.043592 
4059.000000	65.063476 
4058.000000	65.081596 
4057.000000	65.093517 
4056.000000	65.095591 
4055.000000	65.085577 
4054.000000	65.063357 
4053.000000	65.031337 
4052.000000	64.993357 
4051.000000	64.954733 
4050.000000	64.920759 
4049.000000	64.896416 
4048.000000	64.885330 
4047.000000	64.889454 
4046.000000	64.908957 
4045.000000	64.942312 
4044.000000	64.986872 
4043.000000	65.038943 
4042.000000	65.094089 
4041.000000	65.147686 
4040.000000	65.195250 
4039.000000	65.233111 
4038.000000	65.258979 
4037.000000	65.272045 
4036.000000	65.273094 
4035.000000	65.264630 
4034.000000	65.250134 
4033.000000	65.233421 
4032.000000	65.217542 
4031.000000	65.204453 
4030.000000	65.194439 
4029.000000	65.186333 
4028.000000	65.177965 
4027.000000	65.166926 
4026.000000	65.151619 
4025.000000	65.131592 
4024.000000	65.108346 
4023.000000	65.084958 
4022.000000	65.065860 
4021.000000	65.055418 
4020.000000	65.057277 
4019.000000	65.073013 
4018.000000	65.101957 
4017.000000	65.141081 
4016.000000	65.185403 
4015.000000	65.228796 
4014.000000	65.265059 
4013.000000	65.288877 
4012.000000	65.296530 
4011.000000	65.286493 
4010.000000	65.259337 
4009.000000	65.217757 
4008.000000	65.166115 
4007.000000	65.109920 
4006.000000	65.055155 
4005.000000	65.007066 
4004.000000	64.970088 
4003.000000	64.946341 
4002.000000	64.935946 
4001.000000	64.936709 
4000.000000	64.944458 
3999.000000	64.954304 
3998.000000	64.961385 
3997.000000	64.962625 
3996.000000	64.957070 
3995.000000	64.946556 
3994.000000	64.934849 
3993.000000	64.926719 
3992.000000	64.926528 
3991.000000	64.936947 
3990.000000	64.958047 
3989.000000	64.987611 
3988.000000	65.021729 
3987.000000	65.056300 
3986.000000	65.087985 
3985.000000	65.115451 
3984.000000	65.139436 
3983.000000	65.161824 
3982.000000	65.184855 
3981.000000	65.209913 
3980.000000	65.236616 
3979.000000	65.262651 
3978.000000	65.284156 
3977.000000	65.297031 
3976.000000	65.297961 
3975.000000	65.286350 
3974.000000	65.264034 
3973.000000	65.235209 
3972.000000	65.205168 
3971.000000	65.179109 
3970.000000	65.160727 
3969.000000	65.151453 
3968.000000	65.150260 
3967.000000	65.154194 
3966.000000	65.159440 
3965.000000	65.162563 
3964.000000	65.161585 
3963.000000	65.156102 
3962.000000	65.147423 
3961.000000	65.137600 
3960.000000	65.128684 
3959.000000	65.121722 
3958.000000	65.116524 
3957.000000	65.111565 
3956.000000	65.104532 
3955.000000	65.093231 
3954.000000	65.076518 
3953.000000	65.054893 
3952.000000	65.030598 
3951.000000	65.007090 
3950.000000	64.987874 
3949.000000	64.975953 
3948.000000	64.972472 
3947.000000	64.976620 
3946.000000	64.985442 
3945.000000	64.994812 
3944.000000	65.000295 
3943.000000	64.998602 
3942.000000	64.987993 
3941.000000	64.969635 
3940.000000	64.946675 
3939.000000	64.924097 
3938.000000	64.907026 
3937.000000	64.899826 
3936.000000	64.904952 
3935.000000	64.922165 
3934.000000	64.948463 
3933.000000	64.978837 
3932.000000	65.007376 
3931.000000	65.028429 
3930.000000	65.037703 
3929.000000	65.033411 
3928.000000	65.016579 
3927.000000	64.991044 
3926.000000	64.962315 
3925.000000	64.936590 
3924.000000	64.919209 
3923.000000	64.913535 
3922.000000	64.920282 
3921.000000	64.937758 
3920.000000	64.962410 
3919.000000	64.989733 
3918.000000	65.015721 
3917.000000	65.037727 
3916.000000	65.054917 
3915.000000	65.067887 
3914.000000	65.078496 
3913.000000	65.088391 
3912.000000	65.099048 
3911.000000	65.111112 
3910.000000	65.124702 
3909.000000	65.139293 
3908.000000	65.154623 
3907.000000	65.171098 
3906.000000	65.189194 
3905.000000	65.209746 
3904.000000	65.232253 
3903.000000	65.254807 
3902.000000	65.273523 
3901.000000	65.283584 
3900.000000	65.280008 
3899.000000	65.259504 
3898.000000	65.221929 
3897.000000	65.170979 
3896.000000	65.113878 
3895.000000	65.060329 
3894.000000	65.020442 
3893.000000	65.002083 
3892.000000	65.009617 
3891.000000	65.042042 
3890.000000	65.093445 
3889.000000	65.153670 
3888.000000	65.211105 
3887.000000	65.254378 
3886.000000	65.274643 
3885.000000	65.267300 
3884.000000	65.232372 
3883.000000	65.174508 
3882.000000	65.101242 
3881.000000	65.022087 
3880.000000	64.946293 
3879.000000	64.881968 
3878.000000	64.834928 
3877.000000	64.808273 
3876.000000	64.802551 
3875.000000	64.816141 
3874.000000	64.845967 
3873.000000	64.888024 
3872.000000	64.938211 
3871.000000	64.992284 
3870.000000	65.046167 
3869.000000	65.096330 
3868.000000	65.139341 
3867.000000	65.172171 
3866.000000	65.191960 
3865.000000	65.196251 
3864.000000	65.183448 
3863.000000	65.153741 
3862.000000	65.109181 
3861.000000	65.053510 
3860.000000	64.992141 
3859.000000	64.931988 
3858.000000	64.879727 
3857.000000	64.841127 
3856.000000	64.819836 
3855.000000	64.816665 
3854.000000	64.829707 
3853.000000	64.854907 
3852.000000	64.887499 
3851.000000	64.922952 
3850.000000	64.957666 
3849.000000	64.989376 
3848.000000	65.017318 
3847.000000	65.041542 
3846.000000	65.061569 
3845.000000	65.075731 
3844.000000	65.081095 
3843.000000	65.074539 
3842.000000	65.053915 
3841.000000	65.019655 
3840.000000	64.975118 
3839.000000	64.926910 
3838.000000	64.883947 
3837.000000	64.855384 
3836.000000	64.848279 
3835.000000	64.865636 
3834.000000	64.905786 
3833.000000	64.962220 
3832.000000	65.025115 
3831.000000	65.083980 
3830.000000	65.129518 
3829.000000	65.156674 
3828.000000	65.165090 
3827.000000	65.159869 
3826.000000	65.149378 
3825.000000	65.143680 
3824.000000	65.151524 
3823.000000	65.178537 
3822.000000	65.225577 
3821.000000	65.288686 
3820.000000	65.359878 
3819.000000	65.428638 
3818.000000	65.484237 
3817.000000	65.517783 
3816.000000	65.523934 
3815.000000	65.501475 
3814.000000	65.453553 
3813.000000	65.386795 
3812.000000	65.310001 
3811.000000	65.232324 
3810.000000	65.161490 
3809.000000	65.103483 
3808.000000	65.061473 
3807.000000	65.036511 
3806.000000	65.027260 
3805.000000	65.031313 
3804.000000	65.045118 
3803.000000	65.064620 
3802.000000	65.085554 
3801.000000	65.103292 
3800.000000	65.113878 
3799.000000	65.114116 
3798.000000	65.102052 
3797.000000	65.077185 
3796.000000	65.040779 
3795.000000	64.995789 
3794.000000	64.946722 
3793.000000	64.898943 
3792.000000	64.857959 
3791.000000	64.828705 
3790.000000	64.814758 
3789.000000	64.817905 
3788.000000	64.838337 
3787.000000	64.874029 
3786.000000	64.921140 
3785.000000	64.974355 
3784.000000	65.027284 
3783.000000	65.073513 
3782.000000	65.107274 
3781.000000	65.124511 
3780.000000	65.123391 
3779.000000	65.104985 
3778.000000	65.073704 
3777.000000	65.035867 
3776.000000	64.998602 
3775.000000	64.968585 
3774.000000	64.951014 
3773.000000	64.948654 
3772.000000	64.961647 
3771.000000	64.987659 
3770.000000	65.022850 
3769.000000	65.062713 
3768.000000	65.103101 
3767.000000	65.140676 
3766.000000	65.173292 
3765.000000	65.200090 
3764.000000	65.221166 
3763.000000	65.237116 
3762.000000	65.248584 
3761.000000	65.255951 
3760.000000	65.259337 
3759.000000	65.259003 
3758.000000	65.255188 
3757.000000	65.248441 
3756.000000	65.239739 
3755.000000	65.230536 
3754.000000	65.222406 
3753.000000	65.216946 
3752.000000	65.215182 
3751.000000	65.217351 
3750.000000	65.222883 
3749.000000	65.230369 
3748.000000	65.237808 
3747.000000	65.243077 
3746.000000	65.244293 
3745.000000	65.240097 
3744.000000	65.230131 
3743.000000	65.214776 
3742.000000	65.194511 
3741.000000	65.169811 
3740.000000	65.140700 
3739.000000	65.106844 
3738.000000	65.067911 
3737.000000	65.024185 
3736.000000	64.976835 
3735.000000	64.928269 
3734.000000	64.882087 
3733.000000	64.842867 
3732.000000	64.814972 
3731.000000	64.802002 
3730.000000	64.805960 
3729.000000	64.826703 
3728.000000	64.861464 
3727.000000	64.905762 
3726.000000	64.953684 
3725.000000	64.999270 
3724.000000	65.036940 
3723.000000	65.063047 
3722.000000	65.075802 
3721.000000	65.075826 
3720.000000	65.065646 
3719.000000	65.049171 
3718.000000	65.030837 
3717.000000	65.014839 
3716.000000	65.004515 
3715.000000	65.001320 
3714.000000	65.005040 
3713.000000	65.014004 
3712.000000	65.025925 
3711.000000	65.038228 
3710.000000	65.049076 
3709.000000	65.057563 
3708.000000	65.064001 
3707.000000	65.069460 
3706.000000	65.074896 
3705.000000	65.081167 
3704.000000	65.088009 
3703.000000	65.094161 
3702.000000	65.097475 
3701.000000	65.095877 
3700.000000	65.087771 
3699.000000	65.072846 
3698.000000	65.051889 
3697.000000	65.027213 
3696.000000	65.001559 
3695.000000	64.977455 
3694.000000	64.956903 
3693.000000	64.940643 
3692.000000	64.928865 
3691.000000	64.921259 
3690.000000	64.917898 
3689.000000	64.919471 
3688.000000	64.927268 
3687.000000	64.942574 
3686.000000	64.966058 
3685.000000	64.997029 
3684.000000	65.032958 
3683.000000	65.069675 
3682.000000	65.101957 
3681.000000	65.124654 
3680.000000	65.134119 
3679.000000	65.129041 
3678.000000	65.110898 
3677.000000	65.083551 
3676.000000	65.052151 
3675.000000	65.022373 
3674.000000	64.998674 
3673.000000	64.984130 
3672.000000	64.980173 
3671.000000	64.986968 
3670.000000	65.004062 
3669.000000	65.030765 
3668.000000	65.066623 
3667.000000	65.111064 
3666.000000	65.162920 
3665.000000	65.220332 
3664.000000	65.280055 
3663.000000	65.337705 
3662.000000	65.388250 
3661.000000	65.426659 
3660.000000	65.448999 
3659.000000	65.453147 
3658.000000	65.439367 
3657.000000	65.410017 
3656.000000	65.369081 
3655.000000	65.321612 
3654.000000	65.272712 
3653.000000	65.227103 
3652.000000	65.188288 
3651.000000	65.158772 
3650.000000	65.139579 
3649.000000	65.130496 
3648.000000	65.130281 
3647.000000	65.136623 
3646.000000	65.146899 
3645.000000	65.158247 
3644.000000	65.168094 
3643.000000	65.174317 
3642.000000	65.175676 
3641.000000	65.171527 
3640.000000	65.161919 
3639.000000	65.147328 
3638.000000	65.128636 
3637.000000	65.107178 
3636.000000	65.084481 
3635.000000	65.061998 
3634.000000	65.041422 
3633.000000	65.024662 
3632.000000	65.013456 
3631.000000	65.009188 
3630.000000	65.012669 
3629.000000	65.024209 
3628.000000	65.043210 
3627.000000	65.068435 
3626.000000	65.098190 
3625.000000	65.131044 
3624.000000	65.165853 
3623.000000	65.202021 
3622.000000	65.239334 
3621.000000	65.277791 
3620.000000	65.317273 
3619.000000	65.357041 
3618.000000	65.395665 
3617.000000	65.430665 
3616.000000	65.459418 
3615.000000	65.478920 
3614.000000	65.486669 
3613.000000	65.480923 
3612.000000	65.461635 
3611.000000	65.429973 
3610.000000	65.388536 
3609.000000	65.340900 
3608.000000	65.291404 
3607.000000	65.243959 
3606.000000	65.201926 
3605.000000	65.167737 
3604.000000	65.142965 
3603.000000	65.128326 
3602.000000	65.123724 
3601.000000	65.128397 
3600.000000	65.141057 
3599.000000	65.159654 
3598.000000	65.181565 
3597.000000	65.203261 
3596.000000	65.221095 
3595.000000	65.231704 
3594.000000	65.232801 
3593.000000	65.223360 
3592.000000	65.204358 
3591.000000	65.178704 
3590.000000	65.150761 
3589.000000	65.125393 
3588.000000	65.107035 
3587.000000	65.098738 
3586.000000	65.101790 
3585.000000	65.115284 
3584.000000	65.136933 
3583.000000	65.163803 
3582.000000	65.193104 
3581.000000	65.222692 
3580.000000	65.251326 
3579.000000	65.278434 
3578.000000	65.303730 
3577.000000	65.326738 
3576.000000	65.346503 
3575.000000	65.361213 
3574.000000	65.369176 
3573.000000	65.368771 
3572.000000	65.358853 
3571.000000	65.338993 
3570.000000	65.310168 
3569.000000	65.274357 
3568.000000	65.234398 
3567.000000	65.193533 
3566.000000	65.155005 
3565.000000	65.121650 
3564.000000	65.095448 
3563.000000	65.077447 
3562.000000	65.067625 
3561.000000	65.064978 
3560.000000	65.067577 
3559.000000	65.073132 
3558.000000	65.079188 
3557.000000	65.083479 
3556.000000	65.084266 
3555.000000	65.080618 
3554.000000	65.072298 
3553.000000	65.059876 
3552.000000	65.044379 
3551.000000	65.027189 
3550.000000	65.009760 
3549.000000	64.993572 
3548.000000	64.980149 
3547.000000	64.970874 
3546.000000	64.967155 
3545.000000	64.969921 
3544.000000	64.979767 
3543.000000	64.996409 
3542.000000	65.018820 
3541.000000	65.045404 
3540.000000	65.074181 
3539.000000	65.102791 
3538.000000	65.129160 
3537.000000	65.151619 
3536.000000	65.169429 
3535.000000	65.182709 
3534.000000	65.192317 
3533.000000	65.199375 
3532.000000	65.205073 
3531.000000	65.210342 
3530.000000	65.215468 
3529.000000	65.219855 
3528.000000	65.222382 
3527.000000	65.222072 
3526.000000	65.218567 
3525.000000	65.212702 
3524.000000	65.206575 
3523.000000	65.203332 
3522.000000	65.206480 
3521.000000	65.218901 
3520.000000	65.241980 
3519.000000	65.274643 
3518.000000	65.313267 
3517.000000	65.352129 
3516.000000	65.384483 
3515.000000	65.403985 
3514.000000	65.406084 
3513.000000	65.389347 
3512.000000	65.355634 
3511.000000	65.310215 
3510.000000	65.260267 
3509.000000	65.213608 
3508.000000	65.177202 
3507.000000	65.155792 
3506.000000	65.151286 
3505.000000	65.162491 
3504.000000	65.185856 
3503.000000	65.216374 
3502.000000	65.248894 
3501.000000	65.278840 
3500.000000	65.302562 
3499.000000	65.318322 
3498.000000	65.325951 
3497.000000	65.326309 
3496.000000	65.320825 
3495.000000	65.310883 
3494.000000	65.297675 
3493.000000	65.282082 
3492.000000	65.264916 
3491.000000	65.246939 
3490.000000	65.229320 
3489.000000	65.213632 
3488.000000	65.201950 
3487.000000	65.196347 
3486.000000	65.198922 
3485.000000	65.210819 
3484.000000	65.232706 
3483.000000	65.264439 
3482.000000	65.304851 
3481.000000	65.351891 
3480.000000	65.402030 
3479.000000	65.450739 
3478.000000	65.492200 
3477.000000	65.520524 
3476.000000	65.529918 
3475.000000	65.515756 
3474.000000	65.476012 
3473.000000	65.412139 
3472.000000	65.329098 
3471.000000	65.235185 
3470.000000	65.140891 
3469.000000	65.057182 
3468.000000	64.993810 
3467.000000	64.957523 
3466.000000	64.950871 
3465.000000	64.971923 
3464.000000	65.014791 
3463.000000	65.071058 
3462.000000	65.131139 
3461.000000	65.186214 
3460.000000	65.229582 
3459.000000	65.257358 
3458.000000	65.268111 
3457.000000	65.262794 
3456.000000	65.243816 
3455.000000	65.214443 
3454.000000	65.178084 
3453.000000	65.138101 
3452.000000	65.097999 
3451.000000	65.061235 
3450.000000	65.031671 
3449.000000	65.012812 
3448.000000	65.007781 
3447.000000	65.018391 
3446.000000	65.044808 
3445.000000	65.085077 
3444.000000	65.135192 
3443.000000	65.189886 
3442.000000	65.243434 
3441.000000	65.290784 
3440.000000	65.328073 
3439.000000	65.353560 
3438.000000	65.367007 
3437.000000	65.368795 
3436.000000	65.359210 
3435.000000	65.338277 
3434.000000	65.305685 
3433.000000	65.261387 
3432.000000	65.205955 
3431.000000	65.141749 
3430.000000	65.072512 
3429.000000	65.003967 
3428.000000	64.942598 
3427.000000	64.894127 
3426.000000	64.863324 
3425.000000	64.852476 
3424.000000	64.862036 
3423.000000	64.889788 
3422.000000	64.932441 
3421.000000	64.985799 
3420.000000	65.045833 
3419.000000	65.108633 
3418.000000	65.170478 
3417.000000	65.227723 
3416.000000	65.276551 
3415.000000	65.313339 
3414.000000	65.335512 
3413.000000	65.341830 
3412.000000	65.333223 
3411.000000	65.312433 
3410.000000	65.284156 
3409.000000	65.253615 
3408.000000	65.225911 
3407.000000	65.204477 
3406.000000	65.191197 
3405.000000	65.185642 
3404.000000	65.186047 
3403.000000	65.189385 
3402.000000	65.192532 
3401.000000	65.192770 
3400.000000	65.188264 
3399.000000	65.178561 
3398.000000	65.163993 
3397.000000	65.146040 
3396.000000	65.126729 
3395.000000	65.108466 
3394.000000	65.093374 
3393.000000	65.083384 
3392.000000	65.079855 
3391.000000	65.083193 
3390.000000	65.092658 
3389.000000	65.106248 
3388.000000	65.120863 
3387.000000	65.133261 
3386.000000	65.140748 
3385.000000	65.141415 
3384.000000	65.134644 
3383.000000	65.121603 
3382.000000	65.104770 
3381.000000	65.087175 
3380.000000	65.071415 
3379.000000	65.059280 
3378.000000	65.050745 
3377.000000	65.044808 
3376.000000	65.039205 
3375.000000	65.031433 
3374.000000	65.019607 
3373.000000	65.003228 
3372.000000	64.983773 
3371.000000	64.963984 
3370.000000	64.947843 
3369.000000	64.939308 
3368.000000	64.941787 
3367.000000	64.957141 
3366.000000	64.985108 
3365.000000	65.023612 
3364.000000	65.068435 
3363.000000	65.114188 
3362.000000	65.154910 
3361.000000	65.185141 
3360.000000	65.200567 
3359.000000	65.198779 
3358.000000	65.179634 
3357.000000	65.145206 
3356.000000	65.099644 
3355.000000	65.048456 
3354.000000	64.997792 
3353.000000	64.953398 
3352.000000	64.919781 
3351.000000	64.899539 
3350.000000	64.893412 
3349.000000	64.900302 
3348.000000	64.917659 
3347.000000	64.942407 
3346.000000	64.971089 
3345.000000	65.001034 
3344.000000	65.030002 
3343.000000	65.056777 
3342.000000	65.080428 
3341.000000	65.100479 
3340.000000	65.116596 
3339.000000	65.128564 
3338.000000	65.136408 
3337.000000	65.140271 
3336.000000	65.140533 
3335.000000	65.137815 
3334.000000	65.133070 
3333.000000	65.127301 
3332.000000	65.121316 
3331.000000	65.115785 
3330.000000	65.111160 
3329.000000	65.107870 
3328.000000	65.106296 
3327.000000	65.107154 
3326.000000	65.110802 
3325.000000	65.117502 
3324.000000	65.126752 
3323.000000	65.137553 
3322.000000	65.147924 
3321.000000	65.155172 
3320.000000	65.156555 
3319.000000	65.149664 
3318.000000	65.133523 
3317.000000	65.108871 
3316.000000	65.078258 
3315.000000	65.045595 
3314.000000	65.015530 
3313.000000	64.992570 
3312.000000	64.980030 
3311.000000	64.979195 
3310.000000	64.989328 
3309.000000	65.007805 
3308.000000	65.030837 
3307.000000	65.054559 
3306.000000	65.075683 
3305.000000	65.092301 
3304.000000	65.103864 
3303.000000	65.111231 
3302.000000	65.116119 
3301.000000	65.120601 
3300.000000	65.126466 
3299.000000	65.134859 
3298.000000	65.146017 
3297.000000	65.158939 
3296.000000	65.172481 
3295.000000	65.184760 
3294.000000	65.193986 
3293.000000	65.198326 
3292.000000	65.196371 
3291.000000	65.187263 
3290.000000	65.170955 
3289.000000	65.148425 
3288.000000	65.121364 
3287.000000	65.092492 
3286.000000	65.064907 
3285.000000	65.042042 
3284.000000	65.026974 
3283.000000	65.021657 
3282.000000	65.026545 
3281.000000	65.040516 
3280.000000	65.060925 
3279.000000	65.083861 
3278.000000	65.105152 
3277.000000	65.120792 
3276.000000	65.128254 
3275.000000	65.126848 
3274.000000	65.117907 
3273.000000	65.104508 
3272.000000	65.090537 
3271.000000	65.080046 
3270.000000	65.075874 
3269.000000	65.079283 
3268.000000	65.089178 
3267.000000	65.102314 
3266.000000	65.113949 
3265.000000	65.119194 
3264.000000	65.113949 
3263.000000	65.095973 
3262.000000	65.065836 
3261.000000	65.026593 
3260.000000	64.983510 
3259.000000	64.942860 
3258.000000	64.910745 
3257.000000	64.891791 
3256.000000	64.888334 
3255.000000	64.900088 
3254.000000	64.924454 
3253.000000	64.957141 
3252.000000	64.993381 
3251.000000	65.028715 
3250.000000	65.059590 
3249.000000	65.083932 
3248.000000	65.100932 
3247.000000	65.111064 
3246.000000	65.115261 
3245.000000	65.114855 
3244.000000	65.111541 
3243.000000	65.106940 
3242.000000	65.102982 
3241.000000	65.101337 
3240.000000	65.103554 
3239.000000	65.110349 
3238.000000	65.121912 
3237.000000	65.137362 
3236.000000	65.155029 
3235.000000	65.172624 
3234.000000	65.187859 
3233.000000	65.198945 
3232.000000	65.204977 
3231.000000	65.206027 
3230.000000	65.203070 
3229.000000	65.197277 
3228.000000	65.189504 
3227.000000	65.180134 
3226.000000	65.169024 
3225.000000	65.155506 
3224.000000	65.139102 
3223.000000	65.119934 
3222.000000	65.099215 
3221.000000	65.079140 
3220.000000	65.062379 
3219.000000	65.051364 
3218.000000	65.047764 
3217.000000	65.051913 
3216.000000	65.062689 
3215.000000	65.077757 
3214.000000	65.094017 
3213.000000	65.108537 
3212.000000	65.119242 
3211.000000	65.125131 
3210.000000	65.126776 
3209.000000	65.125656 
3208.000000	65.124058 
3207.000000	65.123891 
3206.000000	65.126562 
3205.000000	65.132641 
3204.000000	65.141749 
3203.000000	65.152978 
3202.000000	65.165185 
3201.000000	65.177583 
3200.000000	65.189695 
3199.000000	65.201568 
3198.000000	65.213608 
3197.000000	65.226411 
3196.000000	65.240406 
3195.000000	65.255546 
3194.000000	65.271091 
3193.000000	65.285778 
3192.000000	65.298151 
3191.000000	65.306878 
3190.000000	65.311312 
3189.000000	65.311360 
3188.000000	65.307879 
3187.000000	65.302062 
3186.000000	65.295267 
3185.000000	65.288400 
3184.000000	65.281796 
3183.000000	65.275120 
3182.000000	65.267682 
3181.000000	65.258789 
3180.000000	65.248131 
3179.000000	65.235805 
3178.000000	65.222764 
3177.000000	65.210318 
3176.000000	65.199851 
3175.000000	65.192317 
3174.000000	65.187716 
3173.000000	65.185379 
3172.000000	65.184020 
3171.000000	65.182542 
3170.000000	65.180230 
3169.000000	65.177226 
3168.000000	65.174388 
3167.000000	65.173149 
3166.000000	65.174746 
3165.000000	65.179824 
3164.000000	65.187954 
3163.000000	65.197706 
3162.000000	65.206861 
3161.000000	65.213108 
3160.000000	65.214490 
3159.000000	65.210199 
3158.000000	65.200376 
3157.000000	65.186119 
3156.000000	65.169334 
3155.000000	65.152263 
3154.000000	65.137124 
3153.000000	65.125584 
3152.000000	65.119290 
3151.000000	65.119647 
3150.000000	65.128087 
3149.000000	65.145540 
3148.000000	65.172290 
3147.000000	65.207457 
3146.000000	65.248775 
3145.000000	65.292572 
3144.000000	65.334033 
3143.000000	65.368056 
3142.000000	65.390467 
3141.000000	65.399003 
3140.000000	65.393757 
3139.000000	65.377116 
3138.000000	65.353918 
3137.000000	65.329480 
3136.000000	65.308761 
3135.000000	65.294551 
3134.000000	65.287423 
3133.000000	65.285015 
3132.000000	65.283298 
3131.000000	65.277099 
3130.000000	65.262007 
3129.000000	65.235066 
3128.000000	65.195775 
3127.000000	65.145993 
3126.000000	65.089344 
3125.000000	65.030741 
3124.000000	64.974999 
3123.000000	64.926433 
3122.000000	64.888024 
3121.000000	64.861679 
3120.000000	64.848136 
3119.000000	64.847254 
3118.000000	64.858293 
3117.000000	64.880418 
3116.000000	64.912772 
3115.000000	64.953970 
3114.000000	65.002274 
3113.000000	65.055537 
3112.000000	65.111207 
3111.000000	65.166401 
3110.000000	65.217852 
3109.000000	65.262675 
3108.000000	65.298175 
3107.000000	65.322852 
3106.000000	65.335750 
3105.000000	65.337038 
3104.000000	65.327835 
3103.000000	65.310525 
3102.000000	65.287995 
3101.000000	65.263462 
3100.000000	65.239930 
3099.000000	65.220308 
3098.000000	65.206432 
3097.000000	65.198898 
3096.000000	65.196895 
3095.000000	65.198779 
3094.000000	65.201711 
3093.000000	65.202522 
3092.000000	65.198230 
3091.000000	65.186762 
3090.000000	65.167093 
3089.000000	65.139460 
3088.000000	65.105342 
3087.000000	65.067076 
3086.000000	65.027689 
3085.000000	64.990329 
3084.000000	64.957666 
3083.000000	64.931702 
3082.000000	64.913821 
3081.000000	64.904952 
3080.000000	64.904737 
3079.000000	64.912629 
3078.000000	64.927673 
3077.000000	64.949154 
3076.000000	64.975476 
3075.000000	65.005564 
3074.000000	65.038013 
3073.000000	65.071749 
3072.000000	65.105485 
3071.000000	65.137791 
3070.000000	65.167021 
3069.000000	65.191626 
3068.000000	65.210270 
3067.000000	65.222024 
3066.000000	65.226459 
3065.000000	65.224003 
3064.000000	65.215873 
3063.000000	65.203666 
3062.000000	65.188932 
3061.000000	65.173172 
3060.000000	65.157604 
3059.000000	65.142917 
3058.000000	65.129351 
3057.000000	65.117073 
3056.000000	65.106010 
3055.000000	65.095758 
3054.000000	65.085697 
3053.000000	65.075373 
3052.000000	65.064334 
3051.000000	65.052199 
3050.000000	65.038943 
3049.000000	65.024709 
3048.000000	65.010285 
3047.000000	64.996814 
3046.000000	64.985632 
3045.000000	64.977765 
3044.000000	64.973950 
3043.000000	64.974594 
3042.000000	64.979457 
3041.000000	64.987802 
3040.000000	64.999365 
3039.000000	65.014362 
3038.000000	65.033316 
3037.000000	65.056824 
3036.000000	65.084910 
3035.000000	65.116763 
3034.000000	65.150141 
3033.000000	65.181732 
3032.000000	65.208172 
3031.000000	65.226674 
3030.000000	65.236067 
3029.000000	65.236997 
3028.000000	65.231847 
3027.000000	65.223670 
3026.000000	65.215897 
3025.000000	65.210843 
3024.000000	65.209221 
3023.000000	65.209817 
3022.000000	65.210461 
3021.000000	65.208387 
3020.000000	65.201520 
3019.000000	65.188860 
3018.000000	65.171027 
3017.000000	65.149760 
3016.000000	65.127444 
3015.000000	65.106129 
3014.000000	65.087032 
3013.000000	65.070247 
3012.000000	65.055036 
3011.000000	65.040183 
3010.000000	65.024542 
3009.000000	65.007495 
3008.000000	64.989089 
3007.000000	64.969730 
3006.000000	64.950442 
3005.000000	64.932513 
3004.000000	64.917898 
3003.000000	64.908075 
3002.000000	64.904570 
3001.000000	64.908599 
3000.000000	64.920854 
2999.000000	64.941120 
2998.000000	64.968156 
2997.000000	64.999771 
2996.000000	65.032744 
2995.000000	65.063548 
2994.000000	65.088629 
2993.000000	65.104794 
2992.000000	65.110158 
2991.000000	65.104436 
2990.000000	65.089154 
2989.000000	65.067219 
2988.000000	65.042567 
2987.000000	65.019488 
2986.000000	65.001869 
2985.000000	64.992308 
2984.000000	64.991903 
2983.000000	64.999723 
2982.000000	65.013074 
2981.000000	65.027713 
2980.000000	65.038681 
2979.000000	65.041351 
2978.000000	65.032148 
2977.000000	65.009522 
2976.000000	64.974141 
2975.000000	64.929437 
2974.000000	64.880347 
2973.000000	64.833045 
2972.000000	64.793658 
2971.000000	64.767336 
2970.000000	64.757156 
2969.000000	64.763832 
2968.000000	64.785552 
2967.000000	64.818644 
2966.000000	64.858222 
2965.000000	64.899277 
2964.000000	64.937114 
2963.000000	64.968419 
2962.000000	64.991497 
2961.000000	65.006160 
2960.000000	65.013098 
2959.000000	65.013480 
2958.000000	65.008687 
2957.000000	64.999961 
2956.000000	64.988207 
2955.000000	64.974212 
2954.000000	64.958810 
2953.000000	64.943194 
2952.000000	64.928984 
2951.000000	64.918160 
2950.000000	64.912676 
2949.000000	64.913988 
2948.000000	64.922785 
2947.000000	64.938712 
2946.000000	64.960265 
2945.000000	64.985346 
2944.000000	65.011262 
2943.000000	65.035128 
2942.000000	65.054106 
2941.000000	65.066504 
2940.000000	65.070796 
2939.000000	65.066266 
2938.000000	65.052509 
2937.000000	65.029835 
2936.000000	64.998793 
2935.000000	64.960336 
2934.000000	64.915752 
2933.000000	64.867091 
2932.000000	64.816832 
2931.000000	64.768099 
2930.000000	64.723968 
2929.000000	64.687085 
2928.000000	64.658832 
2927.000000	64.639210 
2926.000000	64.626550 
2925.000000	64.618301 
2924.000000	64.611434 
2923.000000	64.604043 
2922.000000	64.595246 
2921.000000	64.586496 
2920.000000	64.580440 
2919.000000	64.581108 
2918.000000	64.591979 
2917.000000	64.615821 
2916.000000	64.653468 
2915.000000	64.703631 
2914.000000	64.763092 
2913.000000	64.827036 
2912.000000	64.890360 
2911.000000	64.948248 
2910.000000	64.997148 
2909.000000	65.035080 
2908.000000	65.061998 
2907.000000	65.079283 
2906.000000	65.089249 
2905.000000	65.094447 
2904.000000	65.096950 
2903.000000	65.098285 
2902.000000	65.099239 
2901.000000	65.099477 
2900.000000	65.097951 
2899.000000	65.093803 
2898.000000	65.086603 
2897.000000	65.076470 
2896.000000	65.064120 
2895.000000	65.051102 
2894.000000	65.039229 
2893.000000	65.029978 
2892.000000	65.023970 
2891.000000	65.020942 
2890.000000	65.019488 
2889.000000	65.017962 
2888.000000	65.014576 
2887.000000	65.007710 
2886.000000	64.996600 
2885.000000	64.981627 
2884.000000	64.963960 
2883.000000	64.944911 
2882.000000	64.926028 
2881.000000	64.908647 
2880.000000	64.893698 
2879.000000	64.881610 
2878.000000	64.872980 
2877.000000	64.868855 
2876.000000	64.870738 
2875.000000	64.880347 
2874.000000	64.899230 
2873.000000	64.928364 
2872.000000	64.967393 
2871.000000	65.014648 
2870.000000	65.067195 
2869.000000	65.121030 
2868.000000	65.172266 
2867.000000	65.216994 
2866.000000	65.252566 
2865.000000	65.276622 
2864.000000	65.288233 
2863.000000	65.286660 
2862.000000	65.271854 
2861.000000	65.243792 
2860.000000	65.203237 
2859.000000	65.151643 
2858.000000	65.091753 
2857.000000	65.027308 
2856.000000	64.963364 
2855.000000	64.905142 
2854.000000	64.857411 
2853.000000	64.823389 
2852.000000	64.804506 
2851.000000	64.800167 
2850.000000	64.808177 
2849.000000	64.825415 
2848.000000	64.848732 
2847.000000	64.875292 
2846.000000	64.902782 
2845.000000	64.929604 
2844.000000	64.954614 
2843.000000	64.976835 
2842.000000	64.995312 
2841.000000	65.008711 
2840.000000	65.015864 
2839.000000	65.015959 
2838.000000	65.008640 
2837.000000	64.994502 
2836.000000	64.974904 
2835.000000	64.952254 
2834.000000	64.929270 
2833.000000	64.908790 
2832.000000	64.893364 
2831.000000	64.884710 
2830.000000	64.883852 
2829.000000	64.890956 
2828.000000	64.905357 
2827.000000	64.925789 
2826.000000	64.950895 
2825.000000	64.979147 
2824.000000	65.009522 
2823.000000	65.041208 
2822.000000	65.073800 
2821.000000	65.107154 
2820.000000	65.140867 
2819.000000	65.173935 
2818.000000	65.204930 
2817.000000	65.231704 
2816.000000	65.251922 
2815.000000	65.263390 
2814.000000	65.264773 
2813.000000	65.255737 
2812.000000	65.237665 
2811.000000	65.213203 
2810.000000	65.186095 
2809.000000	65.160655 
2808.000000	65.140867 
2807.000000	65.129685 
2806.000000	65.128731 
2805.000000	65.137672 
2804.000000	65.154480 
2803.000000	65.175795 
2802.000000	65.197634 
2801.000000	65.216279 
2800.000000	65.228867 
2799.000000	65.233945 
2798.000000	65.231513 
2797.000000	65.223097 
2796.000000	65.211296 
2795.000000	65.198993 
2794.000000	65.188765 
2793.000000	65.182375 
2792.000000	65.180587 
2791.000000	65.182876 
2790.000000	65.187907 
2789.000000	65.193915 
2788.000000	65.199398 
2787.000000	65.203261 
2786.000000	65.205264 
2785.000000	65.206003 
2784.000000	65.206885 
2783.000000	65.209341 
2782.000000	65.215086 
2781.000000	65.225195 
2780.000000	65.240073 
2779.000000	65.259599 
2778.000000	65.282535 
2777.000000	65.307140 
2776.000000	65.331101 
2775.000000	65.352058 
2774.000000	65.367770 
2773.000000	65.376496 
2772.000000	65.377044 
2771.000000	65.369081 
2770.000000	65.353107 
2769.000000	65.330553 
2768.000000	65.303635 
2767.000000	65.274786 
2766.000000	65.246677 
2765.000000	65.221810 
2764.000000	65.202164 
2763.000000	65.188956 
2762.000000	65.182518 
2761.000000	65.182328 
2760.000000	65.187048 
2759.000000	65.195035 
2758.000000	65.204358 
2757.000000	65.213680 
2756.000000	65.221691 
2755.000000	65.228152 
2754.000000	65.233492 
2753.000000	65.238547 
2752.000000	65.244412 
2751.000000	65.251684 
2750.000000	65.260338 
2749.000000	65.269351 
2748.000000	65.276932 
2747.000000	65.280866 
2746.000000	65.278959 
2745.000000	65.269637 
2744.000000	65.252614 
2743.000000	65.228772 
2742.000000	65.200328 
2741.000000	65.170145 
2740.000000	65.141391 
2739.000000	65.116620 
2738.000000	65.097522 
2737.000000	65.084695 
2736.000000	65.077710 
2735.000000	65.075325 
2734.000000	65.075826 
2733.000000	65.077638 
2732.000000	65.079450 
2731.000000	65.080070 
2730.000000	65.078926 
2729.000000	65.075302 
2728.000000	65.069365 
2727.000000	65.061521 
2726.000000	65.053057 
2725.000000	65.045738 
2724.000000	65.041756 
2723.000000	65.043354 
2722.000000	65.052199 
2721.000000	65.068984 
2720.000000	65.092754 
2719.000000	65.121150 
2718.000000	65.150523 
2717.000000	65.176773 
2716.000000	65.196180 
2715.000000	65.206336 
2714.000000	65.206742 
2713.000000	65.198826 
2712.000000	65.185761 
2711.000000	65.171694 
2710.000000	65.160799 
2709.000000	65.156245 
2708.000000	65.159773 
2707.000000	65.171217 
2706.000000	65.189027 
2705.000000	65.210413 
2704.000000	65.232372 
2703.000000	65.251970 
2702.000000	65.266990 
2701.000000	65.276265 
2700.000000	65.279579 
2699.000000	65.277433 
2698.000000	65.270924 
2697.000000	65.261340 
2696.000000	65.249896 
2695.000000	65.237760 
2694.000000	65.225791 
2693.000000	65.214753 
2692.000000	65.205287 
2691.000000	65.197849 
2690.000000	65.192699 
2689.000000	65.189933 
2688.000000	65.189433 
2687.000000	65.190720 
2686.000000	65.193128 
2685.000000	65.195965 
2684.000000	65.198683 
2683.000000	65.200757 
2682.000000	65.201687 
2681.000000	65.201306 
2680.000000	65.199255 
2679.000000	65.195441 
2678.000000	65.189623 
2677.000000	65.181803 
2676.000000	65.172076 
2675.000000	65.160989 
2674.000000	65.149354 
2673.000000	65.138411 
2672.000000	65.129423 
2671.000000	65.123558 
2670.000000	65.121507 
2669.000000	65.123152 
2668.000000	65.127515 
2667.000000	65.132999 
2666.000000	65.137887 
2665.000000	65.140604 
2664.000000	65.140390 
2663.000000	65.137338 
2662.000000	65.132284 
2661.000000	65.126442 
2660.000000	65.121030 
2659.000000	65.116858 
2658.000000	65.113949 
2657.000000	65.111804 
2656.000000	65.109467 
2655.000000	65.105819 
2654.000000	65.100169 
2653.000000	65.092468 
2652.000000	65.083098 
2651.000000	65.073156 
2650.000000	65.063929 
2649.000000	65.056729 
2648.000000	65.052437 
2647.000000	65.051674 
2646.000000	65.054535 
2645.000000	65.060973 
2644.000000	65.070724 
2643.000000	65.083432 
2642.000000	65.098595 
2641.000000	65.115642 
2640.000000	65.133500 
2639.000000	65.151047 
2638.000000	65.166950 
2637.000000	65.179872 
2636.000000	65.188860 
2635.000000	65.193510 
2634.000000	65.194058 
2633.000000	65.191221 
2632.000000	65.186214 
2631.000000	65.180253 
2630.000000	65.174436 
2629.000000	65.169405 
2628.000000	65.165209 
2627.000000	65.161418 
2626.000000	65.157198 
2625.000000	65.151810 
2624.000000	65.144920 
2623.000000	65.136790 
2622.000000	65.128254 
2621.000000	65.120816 
2620.000000	65.115904 
2619.000000	65.114665 
2618.000000	65.117335 
2617.000000	65.123176 
2616.000000	65.130424 
2615.000000	65.136814 
2614.000000	65.139865 
2613.000000	65.137577 
2612.000000	65.129089 
2611.000000	65.114760 
2610.000000	65.096330 
2609.000000	65.076446 
2608.000000	65.058112 
2607.000000	65.044116 
2606.000000	65.036535 
2605.000000	65.036129 
2604.000000	65.042567 
2603.000000	65.054440 
2602.000000	65.069866 
2601.000000	65.086865 
2600.000000	65.103697 
2599.000000	65.119290 
2598.000000	65.133166 
2597.000000	65.145349 
2596.000000	65.156102 
2595.000000	65.165567 
2594.000000	65.173673 
2593.000000	65.180063 
2592.000000	65.183949 
2591.000000	65.184426 
2590.000000	65.180850 
2589.000000	65.173172 
2588.000000	65.162205 
2587.000000	65.149497 
2586.000000	65.137267 
2585.000000	65.127754 
2584.000000	65.122890 
2583.000000	65.123677 
2582.000000	65.129947 
2581.000000	65.140604 
2580.000000	65.153694 
2579.000000	65.167021 
2578.000000	65.178632 
2577.000000	65.187215 
2576.000000	65.192246 
2575.000000	65.194082 
2574.000000	65.193796 
2573.000000	65.192747 
2572.000000	65.192246 
2571.000000	65.193247 
2570.000000	65.196347 
2569.000000	65.201878 
2568.000000	65.209484 
2567.000000	65.218758 
2566.000000	65.229034 
2565.000000	65.239453 
2564.000000	65.248966 
2563.000000	65.256643 
2562.000000	65.261459 
2561.000000	65.262842 
2560.000000	65.260672 
2559.000000	65.255188 
2558.000000	65.247297 
2557.000000	65.238308 
2556.000000	65.229558 
2555.000000	65.222334 
2554.000000	65.217471 
2553.000000	65.215229 
2552.000000	65.215396 
2551.000000	65.217399 
2550.000000	65.220284 
2549.000000	65.223217 
2548.000000	65.225625 
2547.000000	65.227365 
2546.000000	65.228605 
2545.000000	65.229868 
2544.000000	65.231871 
2543.000000	65.235352 
2542.000000	65.240907 
2541.000000	65.248703 
2540.000000	65.258669 
2539.000000	65.270137 
2538.000000	65.281987 
2537.000000	65.292716 
2536.000000	65.300679 
2535.000000	65.304183 
2534.000000	65.301823 
2533.000000	65.292739 
2532.000000	65.276956 
2531.000000	65.255379 
2530.000000	65.229868 
2529.000000	65.203022 
2528.000000	65.177536 
2527.000000	65.156197 
2526.000000	65.141272 
2525.000000	65.134310 
2524.000000	65.135931 
2523.000000	65.146112 
2522.000000	65.164399 
2521.000000	65.189766 
2520.000000	65.220928 
2519.000000	65.256333 
2518.000000	65.294170 
2517.000000	65.332031 
2516.000000	65.367269 
2515.000000	65.397167 
2514.000000	65.419316 
2513.000000	65.432143 
2512.000000	65.435051 
2511.000000	65.428853 
2510.000000	65.415596 
2509.000000	65.398311 
2508.000000	65.380167 
2507.000000	65.364122 
2506.000000	65.352010 
2505.000000	65.344667 
2504.000000	65.341544 
2503.000000	65.341329 
2502.000000	65.342092 
2501.000000	65.342020 
2500.000000	65.339636 
2499.000000	65.333938 
2498.000000	65.324473 
2497.000000	65.311264 
2496.000000	65.294837 
2495.000000	65.276074 
2494.000000	65.256166 
2493.000000	65.236401 
2492.000000	65.218234 
2491.000000	65.203166 
2490.000000	65.192222 
2489.000000	65.186119 
2488.000000	65.184807 
2487.000000	65.187978 
2486.000000	65.194535 
2485.000000	65.203356 
2484.000000	65.213322 
2483.000000	65.223622 
2482.000000	65.233922 
2481.000000	65.244221 
2480.000000	65.254569 
2479.000000	65.265011 
2478.000000	65.275430 
2477.000000	65.285229 
2476.000000	65.293693 
2475.000000	65.300011 
2474.000000	65.303730 
2473.000000	65.304541 
2472.000000	65.302181 
2471.000000	65.296626 
2470.000000	65.287947 
2469.000000	65.276241 
2468.000000	65.261602 
2467.000000	65.244078 
2466.000000	65.223860 
2465.000000	65.201282 
2464.000000	65.177106 
2463.000000	65.152430 
2462.000000	65.128707 
2461.000000	65.107822 
2460.000000	65.092039 
2459.000000	65.082955 
2458.000000	65.081977 
2457.000000	65.089654 
2456.000000	65.105581 
2455.000000	65.128183 
2454.000000	65.155005 
2453.000000	65.182971 
2452.000000	65.209269 
2451.000000	65.231490 
2450.000000	65.248513 
2449.000000	65.260601 
2448.000000	65.269374 
2447.000000	65.277051 
2446.000000	65.285849 
2445.000000	65.297293 
2444.000000	65.311551 
2443.000000	65.327262 
2442.000000	65.341949 
2441.000000	65.352392 
2440.000000	65.355801 
2439.000000	65.349936 
2438.000000	65.333485 
2437.000000	65.305829 
2436.000000	65.267324 
2435.000000	65.218687 
2434.000000	65.160679 
2433.000000	65.094614 
2432.000000	65.022468 
2431.000000	64.947748 
2430.000000	64.875221 
2429.000000	64.811015 
2428.000000	64.761757 
2427.000000	64.733314 
2426.000000	64.729094 
2425.000000	64.749097 
2424.000000	64.789009 
2423.000000	64.841008 
2422.000000	64.894938 
2421.000000	64.940619 
2420.000000	64.969563 
2419.000000	64.977383 
2418.000000	64.964318 
2417.000000	64.935040 
2416.000000	64.897274 
2415.000000	64.859938 
2414.000000	64.830970 
2413.000000	64.815664 
2412.000000	64.815902 
2411.000000	64.830350 
2410.000000	64.855146 
2409.000000	64.885687 
2408.000000	64.917802 
2407.000000	64.948582 
2406.000000	64.976835 
2405.000000	65.002655 
2404.000000	65.027141 
2403.000000	65.050983 
2402.000000	65.074634 
2401.000000	65.097832 
2400.000000	65.119767 
2399.000000	65.139436 
2398.000000	65.155863 
2397.000000	65.169143 
2396.000000	65.179729 
2395.000000	65.188717 
2394.000000	65.197181 
2393.000000	65.205836 
2392.000000	65.214896 
2391.000000	65.223884 
2390.000000	65.231990 
2389.000000	65.238165 
2388.000000	65.241670 
2387.000000	65.242409 
2386.000000	65.240883 
2385.000000	65.238022 
2384.000000	65.234851 
2383.000000	65.232300 
2382.000000	65.230846 
2381.000000	65.230345 
2380.000000	65.230274 
2379.000000	65.229797 
2378.000000	65.228056 
2377.000000	65.224623 
2376.000000	65.219521 
2375.000000	65.213179 
2374.000000	65.206336 
2373.000000	65.199637 
2372.000000	65.193486 
2371.000000	65.187788 
2370.000000	65.182161 
2369.000000	65.175819 
2368.000000	65.167951 
2367.000000	65.158057 
2366.000000	65.146040 
2365.000000	65.132665 
2364.000000	65.119290 
2363.000000	65.107631 
2362.000000	65.099358 
2361.000000	65.095806 
2360.000000	65.097522 
2359.000000	65.104031 
2358.000000	65.114164 
2357.000000	65.126132 
2356.000000	65.138006 
2355.000000	65.148186 
2354.000000	65.155506 
2353.000000	65.159559 
2352.000000	65.160679 
2351.000000	65.159702 
2350.000000	65.157961 
2349.000000	65.156793 
2348.000000	65.157651 
2347.000000	65.161633 
2346.000000	65.169572 
2345.000000	65.181875 
2344.000000	65.198373 
2343.000000	65.218639 
2342.000000	65.241527 
2341.000000	65.265536 
2340.000000	65.288877 
2339.000000	65.309739 
2338.000000	65.326452 
2337.000000	65.337991 
2336.000000	65.343904 
2335.000000	65.344500 
2334.000000	65.340542 
2333.000000	65.333032 
2332.000000	65.323114 
2331.000000	65.311741 
2330.000000	65.299844 
2329.000000	65.288043 
2328.000000	65.276885 
2327.000000	65.266823 
2326.000000	65.258216 
2325.000000	65.251445 
2324.000000	65.246534 
2323.000000	65.243291 
2322.000000	65.241456 
2321.000000	65.240836 
2320.000000	65.241217 
2319.000000	65.242552 
2318.000000	65.245175 
2317.000000	65.249514 
2316.000000	65.256047 
2315.000000	65.264916 
2314.000000	65.275812 
2313.000000	65.287804 
2312.000000	65.299391 
2311.000000	65.309023 
2310.000000	65.315365 
2309.000000	65.317845 
2308.000000	65.316629 
2307.000000	65.312838 
2306.000000	65.308094 
2305.000000	65.304207 
2304.000000	65.302371 
2303.000000	65.303206 
2302.000000	65.306115 
2301.000000	65.309906 
2300.000000	65.312576 
2299.000000	65.312123 
2298.000000	65.306901 
2297.000000	65.296149 
2296.000000	65.280199 
2295.000000	65.260338 
2294.000000	65.238833 
2293.000000	65.218138 
2292.000000	65.200662 
2291.000000	65.188193 
2290.000000	65.181708 
2289.000000	65.181040 
2288.000000	65.185141 
2287.000000	65.192270 
2286.000000	65.200376 
2285.000000	65.207600 
2284.000000	65.212655 
2283.000000	65.214896 
2282.000000	65.214347 
2281.000000	65.211462 
2280.000000	65.206909 
2279.000000	65.201139 
2278.000000	65.194320 
2277.000000	65.186166 
2276.000000	65.176367 
2275.000000	65.164637 
2274.000000	65.151357 
2273.000000	65.137457 
2272.000000	65.124487 
2271.000000	65.114188 
2270.000000	65.108108 
2269.000000	65.107131 
2268.000000	65.111017 
2267.000000	65.118432 
2266.000000	65.127253 
2265.000000	65.135169 
2264.000000	65.140199 
2263.000000	65.141820 
2262.000000	65.140891 
2261.000000	65.139627 
2260.000000	65.140843 
2259.000000	65.147352 
2258.000000	65.160965 
2257.000000	65.181756 
2256.000000	65.207862 
2255.000000	65.235924 
2254.000000	65.261793 
2253.000000	65.281629 
2252.000000	65.292811 
2251.000000	65.294575 
2250.000000	65.288114 
2249.000000	65.276169 
2248.000000	65.262269 
2247.000000	65.249729 
2246.000000	65.240716 
2245.000000	65.236020 
2244.000000	65.234994 
2243.000000	65.235900 
2242.000000	65.236687 
2241.000000	65.235686 
2240.000000	65.232348 
2239.000000	65.227198 
2238.000000	65.221953 
2237.000000	65.218925 
2236.000000	65.220594 
2235.000000	65.228772 
2234.000000	65.244078 
2233.000000	65.265941 
2232.000000	65.292549 
2231.000000	65.321183 
2230.000000	65.348696 
2229.000000	65.372037 
2228.000000	65.388917 
2227.000000	65.397930 
2226.000000	65.398836 
2225.000000	65.392374 
2224.000000	65.380096 
2223.000000	65.363931 
2222.000000	65.345716 
2221.000000	65.326833 
2220.000000	65.308070 
2219.000000	65.289521 
2218.000000	65.271067 
2217.000000	65.252304 
2216.000000	65.233278 
2215.000000	65.214204 
2214.000000	65.195584 
2213.000000	65.178155 
2212.000000	65.162444 
2211.000000	65.148830 
2210.000000	65.137076 
2209.000000	65.126705 
2208.000000	65.116858 
2207.000000	65.107107 
2206.000000	65.097618 
2205.000000	65.089321 
2204.000000	65.083694 
2203.000000	65.082573 
2202.000000	65.087437 
2201.000000	65.099024 
2200.000000	65.116834 
2199.000000	65.139365 
2198.000000	65.164208 
2197.000000	65.188765 
2196.000000	65.210604 
2195.000000	65.227890 
2194.000000	65.239882 
2193.000000	65.246772 
2192.000000	65.249514 
2191.000000	65.249228 
2190.000000	65.247058 
2189.000000	65.244150 
2188.000000	65.241193 
2187.000000	65.238451 
2186.000000	65.235853 
2185.000000	65.233492 
2184.000000	65.231537 
2183.000000	65.230035 
2182.000000	65.228819 
2181.000000	65.227651 
2180.000000	65.226078 
2179.000000	65.223479 
2178.000000	65.219116 
2177.000000	65.212392 
2176.000000	65.203118 
2175.000000	65.191674 
2174.000000	65.178608 
2173.000000	65.164971 
2172.000000	65.151906 
2171.000000	65.140771 
2170.000000	65.132594 
2169.000000	65.127992 
2168.000000	65.127134 
2167.000000	65.129923 
2166.000000	65.135908 
2165.000000	65.144872 
2164.000000	65.156865 
2163.000000	65.172433 
2162.000000	65.192127 
2161.000000	65.216279 
2160.000000	65.244436 
2159.000000	65.274977 
2158.000000	65.305399 
2157.000000	65.332198 
2156.000000	65.351772 
2155.000000	65.360975 
2154.000000	65.358114 
2153.000000	65.342974 
2152.000000	65.317058 
2151.000000	65.282988 
2150.000000	65.244317 
2149.000000	65.204191 
2148.000000	65.165185 
2147.000000	65.128755 
2146.000000	65.095663 
2145.000000	65.066242 
2144.000000	65.040969 
2143.000000	65.020775 
2142.000000	65.007042 
2141.000000	65.001106 
2140.000000	65.003991 
2139.000000	65.015506 
2138.000000	65.034413 
2137.000000	65.058422 
2136.000000	65.084576 
2135.000000	65.109777 
2134.000000	65.131354 
2133.000000	65.147566 
2132.000000	65.157628 
2131.000000	65.161657 
2130.000000	65.160608 
2129.000000	65.156054 
2128.000000	65.149974 
2127.000000	65.144228 
2126.000000	65.140557 
2125.000000	65.140438 
2124.000000	65.144801 
2123.000000	65.153932 
2122.000000	65.167284 
2121.000000	65.183544 
2120.000000	65.200948 
2119.000000	65.217566 
2118.000000	65.231680 
2117.000000	65.242028 
2116.000000	65.248441 
2115.000000	65.251612 
2114.000000	65.252685 
2113.000000	65.252900 
2112.000000	65.253376 
2111.000000	65.254855 
2110.000000	65.257596 
2109.000000	65.261316 
2108.000000	65.265870 
2107.000000	65.270972 
2106.000000	65.276598 
2105.000000	65.282678 
2104.000000	65.289020 
2103.000000	65.295195 
2102.000000	65.300464 
2101.000000	65.303874 
2100.000000	65.304398 
2099.000000	65.301322 
2098.000000	65.294528 
2097.000000	65.284609 
2096.000000	65.272641 
2095.000000	65.260195 
2094.000000	65.249013 
2093.000000	65.240168 
2092.000000	65.234231 
2091.000000	65.230727 
2090.000000	65.228867 
2089.000000	65.227532 
2088.000000	65.226054 
2087.000000	65.224552 
2086.000000	65.224027 
2085.000000	65.226101 
2084.000000	65.232515 
2083.000000	65.244078 
2082.000000	65.260839 
2081.000000	65.281224 
2080.000000	65.303087 
2079.000000	65.324020 
2078.000000	65.342164 
2077.000000	65.356945 
2076.000000	65.368652 
2075.000000	65.378689 
2074.000000	65.388226 
2073.000000	65.397810 
2072.000000	65.406131 
2071.000000	65.410304 
2070.000000	65.406441 
2069.000000	65.390753 
2068.000000	65.361118 
2067.000000	65.318155 
2066.000000	65.265631 
2065.000000	65.210008 
2064.000000	65.158796 
2063.000000	65.118861 
2062.000000	65.094661 
2061.000000	65.087437 
2060.000000	65.095257 
2059.000000	65.113663 
2058.000000	65.137314 
2057.000000	65.161156 
2056.000000	65.181422 
2055.000000	65.196585 
2054.000000	65.206170 
2053.000000	65.211462 
2052.000000	65.213704 
2051.000000	65.214705 
2050.000000	65.215539 
2049.000000	65.217137 
2048.000000	65.220332 
2047.000000	65.225791 
2046.000000	65.234470 
2045.000000	65.246605 
2044.000000	65.261840 
2043.000000	65.278697 
2042.000000	65.294694 
2041.000000	65.306925 
2040.000000	65.312647 
2039.000000	65.310406 
2038.000000	65.300202 
2037.000000	65.283966 
2036.000000	65.264892 
2035.000000	65.246939 
2034.000000	65.233612 
2033.000000	65.227603 
2032.000000	65.229701 
2031.000000	65.239238 
2030.000000	65.253949 
2029.000000	65.270781 
2028.000000	65.286469 
2027.000000	65.298056 
2026.000000	65.303707 
2025.000000	65.303087 
2024.000000	65.297222 
2023.000000	65.287947 
2022.000000	65.277981 
2021.000000	65.270066 
2020.000000	65.266728 
2019.000000	65.269684 
2018.000000	65.279412 
2017.000000	65.295147 
2016.000000	65.314745 
2015.000000	65.335249 
2014.000000	65.353369 
2013.000000	65.365910 
2012.000000	65.370535 
2011.000000	65.366005 
2010.000000	65.352511 
2009.000000	65.331244 
2008.000000	65.304422 
2007.000000	65.274500 
2006.000000	65.243935 
2005.000000	65.214729 
2004.000000	65.188312 
2003.000000	65.165448 
2002.000000	65.145945 
2001.000000	65.129232 
2000.000000	65.114545 
1999.000000	65.101385 
1998.000000	65.089559 
1997.000000	65.079522 
1996.000000	65.071773 
1995.000000	65.067076 
1994.000000	65.065860 
1993.000000	65.068197 
1992.000000	65.073275 
1991.000000	65.079998 
1990.000000	65.087032 
1989.000000	65.093207 
1988.000000	65.097832 
1987.000000	65.100789 
1986.000000	65.102505 
1985.000000	65.103697 
1984.000000	65.105104 
1983.000000	65.107250 
1982.000000	65.110325 
1981.000000	65.114116 
1980.000000	65.118336 
1979.000000	65.122866 
1978.000000	65.127992 
1977.000000	65.134406 
1976.000000	65.143179 
1975.000000	65.155100 
1974.000000	65.170526 
1973.000000	65.189003 
1972.000000	65.209007 
1971.000000	65.228366 
1970.000000	65.244436 
1969.000000	65.254974 
1968.000000	65.258479 
1967.000000	65.254545 
1966.000000	65.243959 
1965.000000	65.228629 
1964.000000	65.211081 
1963.000000	65.193724 
1962.000000	65.178656 
1961.000000	65.167212 
1960.000000	65.159964 
1959.000000	65.156912 
1958.000000	65.157723 
1957.000000	65.161943 
1956.000000	65.169024 
1955.000000	65.178418 
1954.000000	65.189313 
1953.000000	65.200614 
1952.000000	65.211057 
1951.000000	65.219211 
1950.000000	65.223765 
1949.000000	65.223574 
1948.000000	65.218210 
1947.000000	65.207815 
1946.000000	65.193343 
1945.000000	65.176391 
1944.000000	65.159058 
1943.000000	65.143728 
1942.000000	65.132498 
1941.000000	65.126895 
1940.000000	65.127730 
1939.000000	65.134811 
1938.000000	65.147018 
1937.000000	65.162491 
1936.000000	65.179061 
1935.000000	65.194678 
1934.000000	65.207791 
1933.000000	65.217828 
1932.000000	65.225028 
1931.000000	65.230607 
1930.000000	65.235996 
1929.000000	65.242505 
1928.000000	65.250730 
1927.000000	65.260291 
1926.000000	65.270066 
1925.000000	65.278315 
1924.000000	65.283346 
1923.000000	65.284013 
1922.000000	65.280199 
1921.000000	65.272688 
1920.000000	65.263056 
1919.000000	65.252971 
1918.000000	65.243911 
1917.000000	65.236496 
1916.000000	65.230560 
1915.000000	65.225172 
1914.000000	65.218997 
1913.000000	65.210962 
1912.000000	65.200614 
1911.000000	65.188455 
1910.000000	65.175771 
1909.000000	65.164327 
1908.000000	65.155744 
1907.000000	65.151047 
1906.000000	65.150356 
1905.000000	65.152907 
1904.000000	65.157437 
1903.000000	65.162420 
1902.000000	65.166807 
1901.000000	65.170311 
1900.000000	65.173530 
1899.000000	65.177464 
1898.000000	65.183281 
1897.000000	65.191817 
1896.000000	65.203046 
1895.000000	65.215897 
1894.000000	65.228629 
1893.000000	65.239119 
1892.000000	65.245461 
1891.000000	65.246343 
1890.000000	65.241289 
1889.000000	65.230917 
1888.000000	65.216469 
1887.000000	65.199637 
1886.000000	65.182113 
1885.000000	65.165376 
1884.000000	65.150451 
1883.000000	65.137815 
1882.000000	65.127682 
1881.000000	65.119886 
1880.000000	65.114212 
1879.000000	65.110111 
1878.000000	65.106916 
1877.000000	65.103721 
1876.000000	65.099596 
1875.000000	65.093564 
1874.000000	65.084910 
1873.000000	65.073442 
1872.000000	65.059638 
1871.000000	65.044736 
1870.000000	65.030407 
1869.000000	65.018486 
1868.000000	65.010905 
1867.000000	65.008783 
1866.000000	65.012764 
1865.000000	65.022587 
1864.000000	65.037083 
1863.000000	65.054559 
1862.000000	65.073037 
1861.000000	65.090560 
1860.000000	65.105271 
1859.000000	65.115833 
1858.000000	65.121603 
1857.000000	65.122294 
1856.000000	65.118336 
1855.000000	65.110564 
1854.000000	65.100240 
1853.000000	65.089011 
1852.000000	65.078520 
1851.000000	65.070438 
1850.000000	65.066170 
1849.000000	65.066838 
1848.000000	65.072965 
1847.000000	65.084457 
1846.000000	65.100741 
1845.000000	65.120697 
1844.000000	65.142822 
1843.000000	65.165400 
1842.000000	65.186643 
1841.000000	65.205168 
1840.000000	65.219950 
1839.000000	65.230393 
1838.000000	65.236592 
1837.000000	65.239143 
1836.000000	65.239024 
1835.000000	65.237164 
1834.000000	65.234470 
1833.000000	65.231585 
1832.000000	65.228867 
1831.000000	65.226268 
1830.000000	65.223598 
1829.000000	65.220570 
1828.000000	65.217137 
1827.000000	65.213584 
1826.000000	65.210676 
1825.000000	65.209197 
1824.000000	65.210080 
1823.000000	65.214037 
1822.000000	65.221190 
1821.000000	65.230917 
1820.000000	65.241742 
1819.000000	65.251708 
1818.000000	65.258598 
1817.000000	65.260267 
1816.000000	65.255284 
1815.000000	65.243005 
1814.000000	65.223979 
1813.000000	65.199589 
1812.000000	65.172004 
1811.000000	65.143370 
1810.000000	65.115714 
1809.000000	65.090703 
1808.000000	65.069437 
1807.000000	65.052223 
1806.000000	65.039205 
1805.000000	65.030288 
1804.000000	65.025568 
1803.000000	65.025138 
1802.000000	65.029287 
1801.000000	65.038108 
1800.000000	65.051341 
1799.000000	65.068149 
1798.000000	65.087008 
1797.000000	65.105819 
1796.000000	65.122437 
1795.000000	65.134978 
1794.000000	65.142512 
1793.000000	65.145063 
1792.000000	65.143918 
1791.000000	65.141367 
1790.000000	65.139865 
1789.000000	65.141510 
1788.000000	65.147542 
1787.000000	65.157485 
1786.000000	65.169620 
1785.000000	65.180850 
1784.000000	65.188026 
1783.000000	65.188241 
1782.000000	65.180063 
1781.000000	65.163636 
1780.000000	65.140795 
1779.000000	65.114593 
1778.000000	65.088343 
1777.000000	65.065121 
1776.000000	65.046811 
1775.000000	65.034222 
1774.000000	65.027070 
1773.000000	65.024614 
1772.000000	65.026068 
1771.000000	65.031290 
1770.000000	65.040826 
1769.000000	65.055823 
1768.000000	65.077257 
1767.000000	65.105724 
1766.000000	65.140724 
1765.000000	65.180516 
1764.000000	65.222120 
1763.000000	65.262079 
1762.000000	65.296888 
1761.000000	65.323948 
1760.000000	65.341448 
1759.000000	65.348887 
1758.000000	65.346574 
1757.000000	65.335631 
1756.000000	65.317225 
1755.000000	65.292477 
1754.000000	65.262246 
1753.000000	65.227723 
1752.000000	65.190052 
1751.000000	65.150833 
1750.000000	65.111947 
1749.000000	65.075802 
1748.000000	65.044569 
1747.000000	65.019941 
1746.000000	65.002942 
1745.000000	64.993643 
1744.000000	64.991450 
1743.000000	64.995193 
1742.000000	65.003418 
1741.000000	65.014600 
1740.000000	65.027689 
1739.000000	65.041828 
1738.000000	65.056204 
1737.000000	65.069770 
1736.000000	65.081286 
1735.000000	65.089607 
1734.000000	65.093493 
1733.000000	65.092444 
1732.000000	65.086770 
1731.000000	65.078043 
1730.000000	65.068650 
1729.000000	65.061473 
1728.000000	65.059423 
1727.000000	65.064644 
1726.000000	65.078210 
1725.000000	65.099906 
1724.000000	65.128159 
1723.000000	65.160632 
1722.000000	65.194940 
1721.000000	65.228533 
1720.000000	65.259027 
1719.000000	65.284228 
1718.000000	65.302395 
1717.000000	65.311574 
1716.000000	65.309929 
1715.000000	65.295982 
1714.000000	65.269255 
1713.000000	65.230870 
1712.000000	65.183448 
1711.000000	65.131521 
1710.000000	65.080523 
1709.000000	65.036034 
1708.000000	65.002751 
1707.000000	64.983177 
1706.000000	64.977574 
1705.000000	64.984059 
1704.000000	64.999294 
1703.000000	65.019369 
1702.000000	65.040922 
1701.000000	65.061807 
1700.000000	65.081429 
1699.000000	65.100002 
1698.000000	65.118551 
1697.000000	65.137791 
1696.000000	65.157794 
1695.000000	65.177631 
1694.000000	65.195727 
1693.000000	65.210556 
1692.000000	65.220928 
1691.000000	65.226483 
1690.000000	65.227603 
1689.000000	65.225315 
1688.000000	65.220665 
1687.000000	65.214490 
1686.000000	65.207195 
1685.000000	65.198922 
1684.000000	65.189862 
1683.000000	65.180325 
1682.000000	65.170836 
1681.000000	65.162181 
1680.000000	65.155172 
1679.000000	65.150523 
1678.000000	65.148282 
1677.000000	65.148210 
1676.000000	65.149450 
1675.000000	65.150928 
1674.000000	65.151524 
1673.000000	65.150165 
1672.000000	65.146303 
1671.000000	65.139842 
1670.000000	65.131402 
1669.000000	65.121912 
1668.000000	65.112328 
1667.000000	65.103554 
1666.000000	65.096378 
1665.000000	65.091204 
1664.000000	65.088129 
1663.000000	65.087032 
1662.000000	65.087509 
1661.000000	65.089178 
1660.000000	65.091586 
1659.000000	65.094542 
1658.000000	65.098071 
1657.000000	65.102124 
1656.000000	65.106821 
1655.000000	65.111923 
1654.000000	65.117025 
1653.000000	65.121364 
1652.000000	65.124106 
1651.000000	65.124702 
1650.000000	65.122938 
1649.000000	65.119242 
1648.000000	65.114450 
1647.000000	65.109515 
1646.000000	65.105271 
1645.000000	65.102219 
1644.000000	65.100502 
1643.000000	65.099978 
1642.000000	65.100455 
1641.000000	65.101861 
1640.000000	65.104508 
1639.000000	65.108895 
1638.000000	65.115618 
1637.000000	65.125083 
1636.000000	65.136957 
1635.000000	65.150046 
1634.000000	65.162372 
1633.000000	65.171623 
1632.000000	65.175604 
1631.000000	65.172886 
1630.000000	65.163278 
1629.000000	65.147757 
1628.000000	65.128469 
1627.000000	65.107989 
1626.000000	65.088820 
1625.000000	65.072774 
1624.000000	65.060806 
1623.000000	65.052652 
1622.000000	65.047383 
1621.000000	65.043330 
1620.000000	65.038800 
1619.000000	65.032243 
1618.000000	65.022587 
1617.000000	65.009450 
1616.000000	64.993166 
1615.000000	64.974927 
1614.000000	64.956378 
1613.000000	64.939856 
1612.000000	64.927887 
1611.000000	64.922952 
1610.000000	64.926886 
1609.000000	64.940309 
1608.000000	64.962434 
1607.000000	64.990782 
1606.000000	65.021514 
1605.000000	65.050172 
1604.000000	65.072560 
1603.000000	65.085625 
1602.000000	65.087985 
1601.000000	65.080261 
1600.000000	65.064764 
1599.000000	65.045046 
1598.000000	65.025019 
1597.000000	65.008163 
1596.000000	64.996838 
1595.000000	64.992189 
1594.000000	64.993977 
1593.000000	65.001034 
1592.000000	65.011477 
1591.000000	65.023469 
1590.000000	65.035009 
1589.000000	65.044569 
1588.000000	65.050864 
1587.000000	65.052914 
1586.000000	65.050077 
1585.000000	65.042376 
1584.000000	65.030336 
1583.000000	65.015101 
1582.000000	64.998269 
1581.000000	64.981532 
1580.000000	64.966535 
1579.000000	64.954638 
1578.000000	64.946842 
1577.000000	64.943647 
1576.000000	64.945006 
1575.000000	64.950585 
1574.000000	64.959716 
1573.000000	64.971399 
1572.000000	64.984560 
1571.000000	64.997768 
1570.000000	65.009355 
1569.000000	65.017867 
1568.000000	65.021896 
1567.000000	65.020561 
1566.000000	65.013575 
1565.000000	65.001153 
1564.000000	64.984416 
1563.000000	64.964580 
1562.000000	64.942908 
1561.000000	64.920473 
1560.000000	64.897751 
1559.000000	64.875221 
1558.000000	64.853429 
1557.000000	64.833283 
1556.000000	64.816093 
1555.000000	64.803481 
1554.000000	64.796876 
1553.000000	64.797186 
1552.000000	64.804434 
1551.000000	64.817643 
1550.000000	64.835071 
1549.000000	64.854526 
1548.000000	64.874029 
1547.000000	64.892125 
1546.000000	64.908456 
1545.000000	64.923596 
1544.000000	64.938688 
1543.000000	64.955019 
1542.000000	64.973378 
1541.000000	64.993667 
1540.000000	65.014863 
1539.000000	65.035128 
1538.000000	65.052175 
1537.000000	65.064167 
1536.000000	65.069746 
1535.000000	65.068602 
1534.000000	65.061426 
1533.000000	65.049958 
1532.000000	65.036654 
1531.000000	65.024304 
1530.000000	65.015602 
1529.000000	65.012907 
1528.000000	65.017580 
1527.000000	65.029811 
1526.000000	65.048575 
1525.000000	65.071702 
1524.000000	65.095996 
1523.000000	65.117907 
1522.000000	65.133929 
1521.000000	65.141344 
1520.000000	65.138745 
1519.000000	65.125989 
1518.000000	65.104413 
1517.000000	65.076565 
1516.000000	65.045785 
1515.000000	65.015506 
1514.000000	64.988803 
1513.000000	64.967823 
1512.000000	64.953875 
1511.000000	64.947247 
1510.000000	64.947462 
1509.000000	64.953494 
1508.000000	64.964103 
1507.000000	64.977860 
1506.000000	64.993119 
1505.000000	65.008163 
1504.000000	65.020990 
1503.000000	65.029788 
1502.000000	65.032982 
1501.000000	65.029978 
1500.000000	65.021395 
1499.000000	65.009307 
1498.000000	64.996933 
1497.000000	64.987874 
1496.000000	64.985132 
1495.000000	64.990329 
1494.000000	65.002989 
1493.000000	65.020442 
1492.000000	65.038514 
1491.000000	65.052390 
1490.000000	65.058016 
1489.000000	65.052938 
1488.000000	65.037226 
1487.000000	65.013456 
1486.000000	64.986228 
1485.000000	64.960908 
1484.000000	64.942550 
1483.000000	64.934563 
1482.000000	64.937949 
1481.000000	64.951443 
1480.000000	64.971637 
1479.000000	64.994335 
1478.000000	65.015292 
1477.000000	65.031290 
1476.000000	65.040540 
1475.000000	65.042972 
1474.000000	65.039610 
1473.000000	65.032148 
1472.000000	65.022277 
1471.000000	65.011119 
1470.000000	64.999151 
1469.000000	64.986205 
1468.000000	64.972162 
1467.000000	64.957332 
1466.000000	64.942884 
1465.000000	64.930677 
1464.000000	64.923119 
1463.000000	64.922356 
1462.000000	64.929342 
1461.000000	64.943385 
1460.000000	64.961838 
1459.000000	64.980578 
1458.000000	64.994573 
1457.000000	64.999294 
1456.000000	64.991497 
1455.000000	64.970421 
1454.000000	64.937925 
1453.000000	64.898300 
1452.000000	64.857172 
1451.000000	64.820790 
1450.000000	64.794230 
1449.000000	64.780902 
1448.000000	64.781832 
1447.000000	64.796161 
1446.000000	64.821720 
1445.000000	64.855456 
1444.000000	64.894199 
1443.000000	64.934802 
1442.000000	64.974570 
1441.000000	65.010738 
1440.000000	65.040898 
1439.000000	65.063118 
1438.000000	65.076279 
1437.000000	65.080523 
1436.000000	65.077328 
1435.000000	65.069556 
1434.000000	65.060615 
1433.000000	65.054488 
1432.000000	65.054059 
1431.000000	65.060830 
1430.000000	65.074062 
1429.000000	65.091347 
1428.000000	65.108776 
1427.000000	65.122246 
1426.000000	65.128064 
1425.000000	65.124177 
1424.000000	65.110445 
1423.000000	65.088677 
1422.000000	65.061998 
1421.000000	65.034103 
1420.000000	65.008187 
1419.000000	64.986395 
1418.000000	64.969468 
1417.000000	64.956808 
1416.000000	64.946746 
1415.000000	64.937210 
1414.000000	64.926266 
1413.000000	64.912915 
1412.000000	64.897131 
1411.000000	64.880061 
1410.000000	64.863371 
1409.000000	64.849281 
1408.000000	64.839720 
1407.000000	64.836239 
1406.000000	64.839386 
1405.000000	64.848613 
1404.000000	64.862298 
1403.000000	64.878177 
1402.000000	64.893603 
1401.000000	64.906406 
1400.000000	64.915132 
1399.000000	64.919614 
1398.000000	64.920735 
1397.000000	64.920210 
1396.000000	64.919781 
1395.000000	64.920926 
1394.000000	64.924263 
1393.000000	64.929676 
1392.000000	64.936256 
1391.000000	64.942979 
1390.000000	64.949154 
1389.000000	64.954638 
1388.000000	64.960026 
1387.000000	64.966416 
1386.000000	64.975118 
1385.000000	64.987206 
1384.000000	65.003085 
1383.000000	65.022134 
1382.000000	65.042924 
1381.000000	65.063667 
1380.000000	65.082311 
1379.000000	65.097355 
1378.000000	65.107679 
1377.000000	65.113091 
1376.000000	65.113806 
1375.000000	65.110492 
1374.000000	65.104198 
1373.000000	65.095996 
1372.000000	65.087246 
1371.000000	65.079331 
1370.000000	65.073561 
1369.000000	65.071129 
1368.000000	65.072917 
1367.000000	65.079331 
1366.000000	65.090203 
1365.000000	65.104746 
1364.000000	65.121483 
1363.000000	65.138363 
1362.000000	65.152907 
1361.000000	65.162587 
1360.000000	65.164947 
1359.000000	65.158247 
1358.000000	65.141534 
1357.000000	65.115237 
1356.000000	65.081000 
1355.000000	65.041494 
1354.000000	65.000152 
1353.000000	64.960527 
1352.000000	64.926028 
1351.000000	64.899206 
1350.000000	64.881682 
1349.000000	64.873957 
1348.000000	64.875364 
1347.000000	64.884471 
1346.000000	64.899396 
1345.000000	64.918208 
1344.000000	64.938974 
1343.000000	64.960050 
1342.000000	64.979958 
1341.000000	64.997649 
1340.000000	65.011978 
1339.000000	65.022349 
1338.000000	65.028619 
1337.000000	65.031027 
1336.000000	65.030193 
1335.000000	65.027093 
1334.000000	65.022993 
1333.000000	65.018987 
1332.000000	65.016031 
1331.000000	65.014958 
1330.000000	65.016198 
1329.000000	65.020012 
1328.000000	65.026187 
1327.000000	65.034008 
1326.000000	65.042543 
1325.000000	65.050554 
1324.000000	65.056896 
1323.000000	65.060567 
1322.000000	65.060949 
1321.000000	65.058279 
1320.000000	65.053319 
1319.000000	65.047264 
1318.000000	65.040993 
1317.000000	65.035271 
1316.000000	65.029692 
1315.000000	65.022993 
1314.000000	65.013027 
1313.000000	64.997410 
1312.000000	64.974522 
1311.000000	64.944076 
1310.000000	64.907670 
1309.000000	64.868712 
1308.000000	64.831709 
1307.000000	64.801692 
1306.000000	64.782667 
1305.000000	64.777088 
1304.000000	64.785194 
1303.000000	64.805293 
1302.000000	64.833998 
1301.000000	64.867281 
1300.000000	64.900946 
1299.000000	64.931941 
1298.000000	64.958095 
1297.000000	64.978623 
1296.000000	64.993429 
1295.000000	65.003108 
1294.000000	65.008401 
1293.000000	65.010070 
1292.000000	65.008807 
1291.000000	65.005350 
1290.000000	65.000724 
1289.000000	64.995932 
1288.000000	64.992213 
1287.000000	64.990472 
1286.000000	64.991307 
1285.000000	64.994859 
1284.000000	65.000772 
1283.000000	65.008211 
1282.000000	65.016007 
1281.000000	65.022873 
1280.000000	65.027666 
1279.000000	65.029287 
1278.000000	65.026950 
1277.000000	65.020227 
1276.000000	65.009188 
1275.000000	64.994311 
1274.000000	64.976811 
1273.000000	64.958500 
1272.000000	64.941692 
1271.000000	64.928936 
1270.000000	64.922618 
1269.000000	64.924788 
1268.000000	64.936375 
1267.000000	64.957022 
1266.000000	64.984941 
1265.000000	65.017127 
1264.000000	65.049529 
1263.000000	65.078067 
1262.000000	65.098929 
1261.000000	65.109062 
1260.000000	65.106868 
1259.000000	65.092372 
1258.000000	65.067005 
1257.000000	65.033364 
1256.000000	64.994764 
1255.000000	64.954924 
1254.000000	64.917182 
1253.000000	64.884233 
1252.000000	64.857816 
1251.000000	64.838504 
1250.000000	64.825820 
1249.000000	64.818429 
1248.000000	64.814305 
1247.000000	64.811491 
1246.000000	64.808177 
1245.000000	64.803624 
1244.000000	64.797687 
1243.000000	64.791393 
1242.000000	64.786076 
1241.000000	64.783525 
1240.000000	64.785194 
1239.000000	64.792037 
1238.000000	64.804244 
1237.000000	64.821124 
1236.000000	64.841413 
1235.000000	64.863395 
1234.000000	64.885330 
1233.000000	64.905738 
1232.000000	64.923453 
1231.000000	64.937853 
1230.000000	64.948868 
1229.000000	64.956760 
1228.000000	64.961791 
1227.000000	64.964032 
1226.000000	64.963269 
1225.000000	64.959096 
1224.000000	64.951086 
1223.000000	64.938807 
1222.000000	64.922237 
1221.000000	64.901900 
1220.000000	64.879274 
1219.000000	64.856362 
1218.000000	64.835524 
1217.000000	64.819097 
1216.000000	64.808869 
1215.000000	64.805650 
1214.000000	64.809179 
1213.000000	64.818096 
1212.000000	64.830303 
1211.000000	64.843368 
1210.000000	64.854979 
1209.000000	64.863491 
1208.000000	64.867663 
1207.000000	64.866971 
1206.000000	64.861154 
1205.000000	64.850139 
1204.000000	64.834094 
1203.000000	64.813661 
1202.000000	64.789891 
1201.000000	64.764332 
1200.000000	64.739155 
1199.000000	64.716815 
1198.000000	64.699578 
1197.000000	64.689326 
1196.000000	64.686989 
1195.000000	64.692378 
1194.000000	64.704179 
1193.000000	64.720273 
1192.000000	64.738178 
1191.000000	64.755702 
1190.000000	64.771342 
1189.000000	64.784741 
1188.000000	64.796352 
1187.000000	64.807367 
1186.000000	64.819383 
1185.000000	64.833331 
1184.000000	64.849090 
1183.000000	64.865255 
1182.000000	64.879369 
1181.000000	64.888548 
1180.000000	64.890289 
1179.000000	64.883017 
1178.000000	64.866709 
1177.000000	64.842963 
1176.000000	64.814782 
1175.000000	64.786028 
1174.000000	64.760303 
1173.000000	64.740610 
1172.000000	64.728736 
1171.000000	64.724922 
1170.000000	64.727973 
1169.000000	64.735364 
1168.000000	64.744067 
1167.000000	64.750838 
1166.000000	64.753460 
1165.000000	64.750647 
1164.000000	64.742922 
1163.000000	64.732098 
1162.000000	64.721274 
1161.000000	64.713907 
1160.000000	64.712762 
1159.000000	64.719629 
1158.000000	64.734053 
1157.000000	64.753842 
1156.000000	64.774894 
1155.000000	64.792251 
1154.000000	64.801049 
1153.000000	64.797520 
1152.000000	64.779877 
1151.000000	64.748787 
1150.000000	64.706993 
1149.000000	64.658880 
1148.000000	64.609479 
1147.000000	64.563488 
1146.000000	64.524650 
1145.000000	64.495134 
1144.000000	64.475750 
1143.000000	64.466190 
1142.000000	64.465427 
1141.000000	64.472293 
1140.000000	64.485573 
1139.000000	64.504432 
1138.000000	64.527940 
1137.000000	64.555263 
1136.000000	64.584898 
1135.000000	64.615201 
1134.000000	64.643883 
1133.000000	64.668703 
1132.000000	64.687728 
1131.000000	64.699578 
1130.000000	64.703941 
1129.000000	64.701533 
1128.000000	64.693927 
1127.000000	64.683365 
1126.000000	64.672255 
1125.000000	64.662861 
1124.000000	64.656925 
1123.000000	64.655780 
1122.000000	64.660048 
1121.000000	64.669775 
1120.000000	64.684391 
1119.000000	64.702558 
1118.000000	64.722251 
1117.000000	64.740872 
1116.000000	64.755725 
1115.000000	64.764285 
1114.000000	64.765071 
1113.000000	64.757966 
1112.000000	64.744472 
1111.000000	64.727640 
1110.000000	64.711236 
1109.000000	64.699149 
1108.000000	64.693856 
1107.000000	64.696550 
1106.000000	64.705824 
1105.000000	64.718413 
1104.000000	64.729738 
1103.000000	64.735198 
1102.000000	64.731454 
1101.000000	64.717221 
1100.000000	64.693880 
1099.000000	64.665222 
1098.000000	64.636492 
1097.000000	64.612984 
1096.000000	64.598703 
1095.000000	64.595460 
1094.000000	64.602279 
1093.000000	64.615654 
1092.000000	64.630484 
1091.000000	64.641427 
1090.000000	64.644193 
1089.000000	64.636659 
1088.000000	64.619278 
1087.000000	64.594841 
1086.000000	64.567446 
1085.000000	64.541530 
1084.000000	64.520573 
1083.000000	64.506435 
1082.000000	64.499044 
1081.000000	64.496803 
1080.000000	64.497494 
1079.000000	64.499449 
1078.000000	64.501953 
1077.000000	64.505648 
1076.000000	64.511799 
1075.000000	64.521837 
1074.000000	64.536619 
1073.000000	64.555454 
1072.000000	64.575791 
1071.000000	64.593863 
1070.000000	64.605259 
1069.000000	64.606547 
1068.000000	64.596199 
1067.000000	64.575409 
1066.000000	64.547944 
1065.000000	64.519572 
1064.000000	64.496874 
1063.000000	64.485454 
1062.000000	64.488744 
1061.000000	64.507460 
1060.000000	64.539170 
1059.000000	64.579033 
1058.000000	64.620637 
1057.000000	64.657020 
1056.000000	64.682745 
1055.000000	64.693999 
1054.000000	64.690518 
1053.000000	64.675045 
1052.000000	64.653396 
1051.000000	64.633154 
1050.000000	64.621925 
1049.000000	64.625835 
1048.000000	64.647650 
1047.000000	64.686512 
1046.000000	64.737510 
1045.000000	64.793205 
1044.000000	64.844465 
1043.000000	64.882898 
1042.000000	64.901685 
1041.000000	64.897203 
1040.000000	64.868974 
1039.000000	64.819979 
1038.000000	64.755558 
1037.000000	64.682626 
1036.000000	64.608573 
1035.000000	64.540171 
1034.000000	64.482617 
1033.000000	64.439058 
1032.000000	64.410495 
1031.000000	64.396357 
1030.000000	64.394521 
1029.000000	64.402222 
1028.000000	64.416313 
1027.000000	64.434123 
1026.000000	64.453101 
1025.000000	64.471721 
1024.000000	64.488697 
1023.000000	64.503335 
1022.000000	64.515209 
1021.000000	64.524221 
1020.000000	64.530229 
1019.000000	64.533019 
1018.000000	64.532327 
1017.000000	64.528179 
1016.000000	64.520692 
1015.000000	64.511013 
1014.000000	64.501190 
1013.000000	64.494156 
1012.000000	64.492893 
1011.000000	64.500045 
1010.000000	64.517116 
1009.000000	64.543676 
1008.000000	64.577317 
1007.000000	64.613842 
1006.000000	64.648103 
1005.000000	64.675283 
1004.000000	64.692234 
1003.000000	64.697694 
1002.000000	64.692902 
1001.000000	64.681673 
1000.000000	64.669060 
999.000000	 64.660143 
998.000000	 64.658570 
997.000000	 64.665961 
996.000000	 64.681005 
995.000000	 64.700531 
994.000000	 64.719367 
993.000000	 64.732074 
992.000000	 64.733552 
991.000000	 64.720320 
990.000000	 64.691209 
989.000000	 64.647507 
988.000000	 64.592862 
987.000000	 64.532494 
986.000000	 64.472436 
985.000000	 64.418435 
984.000000	 64.374756 
983.000000	 64.343714 
982.000000	 64.325404 
981.000000	 64.318394 
980.000000	 64.320087 
979.000000	 64.328289 
978.000000	 64.341568 
977.000000	 64.360213 
976.000000	 64.386034 
975.000000	 64.421391 
974.000000	 64.467954 
973.000000	 64.524912 
972.000000	 64.588165 
971.000000	 64.650511 
970.000000	 64.702200 
969.000000	 64.734125 
968.000000	 64.740276 
967.000000	 64.719939 
966.000000	 64.678120 
965.000000	 64.624667 
964.000000	 64.572238 
963.000000	 64.532852 
962.000000	 64.515113 
961.000000	 64.522361 
960.000000	 64.552450 
959.000000	 64.599037 
958.000000	 64.653730 
957.000000	 64.708566 
956.000000	 64.757871 
955.000000	 64.799356 
954.000000	 64.833927 
953.000000	 64.864039 
952.000000	 64.892458 
951.000000	 64.920568 
950.000000	 64.947819 
949.000000	 64.972710 
948.000000	 64.992213 
947.000000	 65.004444 
946.000000	 65.006947 
945.000000	 64.998483 
944.000000	 64.977216 
943.000000	 64.941501 
942.000000	 64.889502 
941.000000	 64.820146 
940.000000	 64.734101 
939.000000	 64.634275 
938.000000	 64.526772 
937.000000	 64.420437 
936.000000	 64.325737 
935.000000	 64.252710 
934.000000	 64.209079 
933.000000	 64.198350 
932.000000	 64.219021 
931.000000	 64.264845 
930.000000	 64.325881 
929.000000	 64.390420 
928.000000	 64.447355 
927.000000	 64.487957 
926.000000	 64.506602 
925.000000	 64.501452 
924.000000	 64.473462 
923.000000	 64.426279 
922.000000	 64.365386 
921.000000	 64.297270 
920.000000	 64.229035 
919.000000	 64.167046 
918.000000	 64.116764 
917.000000	 64.081454 
916.000000	 64.062213 
915.000000	 64.057612 
914.000000	 64.064121 
913.000000	 64.077091 
912.000000	 64.091372 
911.000000	 64.103126 
910.000000	 64.110040 
909.000000	 64.112234 
908.000000	 64.111781 
907.000000	 64.112138 
906.000000	 64.116930 
905.000000	 64.129400 
904.000000	 64.151549 
903.000000	 64.183926 
902.000000	 64.225840 
901.000000	 64.276099 
900.000000	 64.333200 
899.000000	 64.395546 
898.000000	 64.461183 
897.000000	 64.527535 
896.000000	 64.591050 
895.000000	 64.647483 
894.000000	 64.692234 
893.000000	 64.721274 
892.000000	 64.731788 
891.000000	 64.723515 
890.000000	 64.698600 
889.000000	 64.662337 
888.000000	 64.621138 
887.000000	 64.582228 
886.000000	 64.550995 
885.000000	 64.530897 
884.000000	 64.521741 
883.000000	 64.520096 
882.000000	 64.520525 
881.000000	 64.517354 
880.000000	 64.506721 
879.000000	 64.487862 
878.000000	 64.463329 
877.000000	 64.438343 
876.000000	 64.419460 
875.000000	 64.412426 
874.000000	 64.420151 
873.000000	 64.441919 
872.000000	 64.473724 
871.000000	 64.509034 
870.000000	 64.541029 
869.000000	 64.563870 
868.000000	 64.574456 
867.000000	 64.572310 
866.000000	 64.559316 
865.000000	 64.538311 
864.000000	 64.511990 
863.000000	 64.482331 
862.000000	 64.449644 
861.000000	 64.413857 
860.000000	 64.375305 
859.000000	 64.335775 
858.000000	 64.299178 
857.000000	 64.270758 
856.000000	 64.256215 
855.000000	 64.259648 
854.000000	 64.282298 
853.000000	 64.321398 
852.000000	 64.370179 
851.000000	 64.419412 
850.000000	 64.459347 
849.000000	 64.482712 
848.000000	 64.486575 
847.000000	 64.473295 
846.000000	 64.449667 
845.000000	 64.425039 
844.000000	 64.408755 
843.000000	 64.407396 
842.000000	 64.423155 
841.000000	 64.454030 
840.000000	 64.494085 
839.000000	 64.535737 
838.000000	 64.571428 
837.000000	 64.596009 
836.000000	 64.607620 
835.000000	 64.607477 
834.000000	 64.599800 
833.000000	 64.590191 
832.000000	 64.584231 
831.000000	 64.586281 
830.000000	 64.597344 
829.000000	 64.615488 
828.000000	 64.635539 
827.000000	 64.650917 
826.000000	 64.654803 
825.000000	 64.642405 
824.000000	 64.612102 
823.000000	 64.565849 
822.000000	 64.509129 
821.000000	 64.449620 
820.000000	 64.395546 
819.000000	 64.353847 
818.000000	 64.328718 
817.000000	 64.320564 
816.000000	 64.326429 
815.000000	 64.340496 
814.000000	 64.355301 
813.000000	 64.363837 
812.000000	 64.360880 
811.000000	 64.344620 
810.000000	 64.316272 
809.000000	 64.280128 
808.000000	 64.242076 
807.000000	 64.208316 
806.000000	 64.184093 
805.000000	 64.171791 
804.000000	 64.170932 
803.000000	 64.177751 
802.000000	 64.186477 
801.000000	 64.190578 
800.000000	 64.184331 
799.000000	 64.164757 
798.000000	 64.132308 
797.000000	 64.090967 
796.000000	 64.047288 
795.000000	 64.009261 
794.000000	 63.984513 
793.000000	 63.978624 
792.000000	 63.994073 
791.000000	 64.030170 
790.000000	 64.083528 
789.000000	 64.149165 
788.000000	 64.221525 
787.000000	 64.295578 
786.000000	 64.367008 
785.000000	 64.432978 
784.000000	 64.491033 
783.000000	 64.538812 
782.000000	 64.573931 
781.000000	 64.593791 
780.000000	 64.596152 
779.000000	 64.580440 
778.000000	 64.547443 
777.000000	 64.500832 
776.000000	 64.445233 
775.000000	 64.386129 
774.000000	 64.328408 
773.000000	 64.275789 
772.000000	 64.230346 
771.000000	 64.192771 
770.000000	 64.162492 
769.000000	 64.138269 
768.000000	 64.118719 
767.000000	 64.102673 
766.000000	 64.088869 
765.000000	 64.076232 
764.000000	 64.063763 
763.000000	 64.050865 
762.000000	 64.037156 
761.000000	 64.022874 
760.000000	 64.009165 
759.000000	 63.997602 
758.000000	 63.989758 
757.000000	 63.986349 
756.000000	 63.987088 
755.000000	 63.990306 
754.000000	 63.992857 
753.000000	 63.991498 
752.000000	 63.984012 
751.000000	 63.969922 
750.000000	 63.950848 
749.000000	 63.929510 
748.000000	 63.909292 
747.000000	 63.892412 
746.000000	 63.879060 
745.000000	 63.867259 
744.000000	 63.853335 
743.000000	 63.833451 
742.000000	 63.804960 
741.000000	 63.767457 
740.000000	 63.723158 
739.000000	 63.676738 
738.000000	 63.633918 
737.000000	 63.599443 
736.000000	 63.575983 
735.000000	 63.562989 
734.000000	 63.557553 
733.000000	 63.555359 
732.000000	 63.552427 
731.000000	 63.546705 
730.000000	 63.538622 
729.000000	 63.530826 
728.000000	 63.527059 
727.000000	 63.530564 
726.000000	 63.542604 
725.000000	 63.561677 
724.000000	 63.583278 
723.000000	 63.601422 
722.000000	 63.609480 
721.000000	 63.602352 
720.000000	 63.577485 
719.000000	 63.535785 
718.000000	 63.481450 
717.000000	 63.421058 
716.000000	 63.362193 
715.000000	 63.312101 
714.000000	 63.276457 
713.000000	 63.258194 
712.000000	 63.257861 
711.000000	 63.273382 
710.000000	 63.300466 
709.000000	 63.333415 
708.000000	 63.365864 
707.000000	 63.392210 
706.000000	 63.408088 
705.000000	 63.411521 
704.000000	 63.402676 
703.000000	 63.384127 
702.000000	 63.360071 
701.000000	 63.335394 
700.000000	 63.314771 
699.000000	 63.301610 
698.000000	 63.297533 
697.000000	 63.302040 
696.000000	 63.312768 
695.000000	 63.326120 
694.000000	 63.338184 
693.000000	 63.345241 
692.000000	 63.344597 
691.000000	 63.335180 
690.000000	 63.318085 
689.000000	 63.295984 
688.000000	 63.272619 
687.000000	 63.252401 
686.000000	 63.239526 
685.000000	 63.237261 
684.000000	 63.246941 
683.000000	 63.267350 
682.000000	 63.294410 
681.000000	 63.322138 
680.000000	 63.343548 
679.000000	 63.351845 
678.000000	 63.342285 
677.000000	 63.313150 
676.000000	 63.266682 
675.000000	 63.208532 
674.000000	 63.146662 
673.000000	 63.089752 
672.000000	 63.044738 
671.000000	 63.015699 
670.000000	 63.002133 
669.000000	 62.999701 
668.000000	 63.000774 
667.000000	 62.996745 
666.000000	 62.979817 
665.000000	 62.945222 
664.000000	 62.892389 
663.000000	 62.825202 
662.000000	 62.751054 
661.000000	 62.679028 
660.000000	 62.618398 
659.000000	 62.576508 
658.000000	 62.557744 
657.000000	 62.562942 
656.000000	 62.589430 
655.000000	 62.632250 
654.000000	 62.685012 
653.000000	 62.741637 
652.000000	 62.797284 
651.000000	 62.848877 
650.000000	 62.894725 
649.000000	 62.933945 
648.000000	 62.965846 
647.000000	 62.989449 
646.000000	 63.003373 
645.000000	 63.005876 
644.000000	 62.996077 
643.000000	 62.973594 
642.000000	 62.940359 
641.000000	 62.898683 
640.000000	 62.851452 
639.000000	 62.801480 
638.000000	 62.751269 
637.000000	 62.702775 
636.000000	 62.657499 
635.000000	 62.617135 
634.000000	 62.583994 
633.000000	 62.561154 
632.000000	 62.551856 
631.000000	 62.558579 
630.000000	 62.581849 
629.000000	 62.618947 
628.000000	 62.664031 
627.000000	 62.708401 
626.000000	 62.742614 
625.000000	 62.758803 
624.000000	 62.752509 
623.000000	 62.723994 
622.000000	 62.677836 
621.000000	 62.621665 
620.000000	 62.564277 
619.000000	 62.513184 
618.000000	 62.473821 
617.000000	 62.448477 
616.000000	 62.437248 
615.000000	 62.438988 
614.000000	 62.452220 
613.000000	 62.475895 
612.000000	 62.509560 
611.000000	 62.552928 
610.000000	 62.604808 
609.000000	 62.662076 
608.000000	 62.719893 
607.000000	 62.771987 
606.000000	 62.811899 
605.000000	 62.834000 
604.000000	 62.835240 
603.000000	 62.815451 
602.000000	 62.776589 
601.000000	 62.722444 
600.000000	 62.657427 
599.000000	 62.586522 
598.000000	 62.515068 
597.000000	 62.448692 
596.000000	 62.393140 
595.000000	 62.354230 
594.000000	 62.336921 
593.000000	 62.344622 
592.000000	 62.377119 
591.000000	 62.431526 
590.000000	 62.501859 
589.000000	 62.580752 
588.000000	 62.659978 
587.000000	 62.732815 
586.000000	 62.794756 
585.000000	 62.844324 
584.000000	 62.882447 
583.000000	 62.911558 
582.000000	 62.934327 
581.000000	 62.952303 
580.000000	 62.965393 
579.000000	 62.972593 
578.000000	 62.972736 
577.000000	 62.965631 
576.000000	 62.952327 
575.000000	 62.935805 
574.000000	 62.919449 
573.000000	 62.906742 
572.000000	 62.899136 
571.000000	 62.895822 
570.000000	 62.892842 
569.000000	 62.884783 
568.000000	 62.865185 
567.000000	 62.828373 
566.000000	 62.771177 
565.000000	 62.694215 
564.000000	 62.602066 
563.000000	 62.502741 
562.000000	 62.406110 
561.000000	 62.321925 
560.000000	 62.257790 
559.000000	 62.217879 
558.000000	 62.201547 
557.000000	 62.203550 
556.000000	 62.215471 
555.000000	 62.228155 
554.000000	 62.232637 
553.000000	 62.222313 
552.000000	 62.194633 
551.000000	 62.151598 
550.000000	 62.098860 
549.000000	 62.044596 
548.000000	 61.997270 
547.000000	 61.963963 
546.000000	 61.948847 
545.000000	 61.952638 
544.000000	 61.972737 
543.000000	 62.003946 
542.000000	 62.039589 
541.000000	 62.073111 
540.000000	 62.099313 
539.000000	 62.115311 
538.000000	 62.120366 
537.000000	 62.115812 
536.000000	 62.104606 
535.000000	 62.089681 
534.000000	 62.073564 
533.000000	 62.056493 
532.000000	 62.037062 
531.000000	 62.011289 
530.000000	 61.974644 
529.000000	 61.922383 
528.000000	 61.851572 
527.000000	 61.763143 
526.000000	 61.662697 
525.000000	 61.560583 
524.000000	 61.469984 
523.000000	 61.405420 
522.000000	 61.378669 
521.000000	 61.395359 
520.000000	 61.452436 
519.000000	 61.538410 
518.000000	 61.635017 
517.000000	 61.720490 
516.000000	 61.774945 
515.000000	 61.785030 
514.000000	 61.746883 
513.000000	 61.665987 
512.000000	 61.555671 
511.000000	 61.433339 
510.000000	 61.315751 
509.000000	 61.216235 
508.000000	 61.140561 
507.000000	 61.087059 
506.000000	 61.047673 
505.000000	 61.011862 
504.000000	 60.970330 
503.000000	 60.917806 
502.000000	 60.857129 
501.000000	 60.798883 
500.000000	 60.758304 
499.000000	 60.750508 
498.000000	 60.786795 
497.000000	 60.870790 
496.000000	 60.996508 
495.000000	 61.149787 
494.000000	 61.311507 
493.000000	 61.463022 
492.000000	 61.591410 
491.000000	 61.692047 
490.000000	 61.768674 
489.000000	 61.830306 
488.000000	 61.888122 
487.000000	 61.949062 
486.000000	 62.013983 
485.000000	 62.074971 
484.000000	 62.118005 
483.000000	 62.126183 
482.000000	 62.088704 
481.000000	 62.000703 
480.000000	 61.868882 
479.000000	 61.705517 
478.000000	 61.527442 
477.000000	 61.348128 
476.000000	 61.174941 
475.000000	 61.006832 
474.000000	 60.836338 
473.000000	 60.654163 
472.000000	 60.455083 
471.000000	 60.241413 
470.000000	 60.025787 
469.000000	 59.830021 
468.000000	 59.681630 
467.000000	 59.606742 
466.000000	 59.623384 
465.000000	 59.735250 
464.000000	 59.928870 
463.000000	 60.175752 
462.000000	 60.435485 
461.000000	 60.664606 
460.000000	 60.822820 
459.000000	 60.881423 
458.000000	 60.826969 
457.000000	 60.661697 
456.000000	 60.402703 
455.000000	 60.080122 
454.000000	 59.727597 
453.000000	 59.375667 
452.000000	 59.048819 
451.000000	 58.764266 
450.000000	 58.532357 
449.000000	 58.357834 
448.000000	 58.245778 
447.000000	 58.202862 
446.000000	 58.238482 
445.000000	 58.361554 
444.000000	 58.575439 
443.000000	 58.872628 
442.000000	 59.231638 
441.000000	 59.618234 
440.000000	 59.986042 
439.000000	 60.288333 
438.000000	 60.488057 
437.000000	 60.567855 
436.000000	 60.539388 
435.000000	 60.434126 
434.000000	 60.303378 
433.000000	 60.189819 
432.000000	 60.119438 
431.000000	 60.082697 
430.000000	 60.041165 
429.000000	 59.931874 
428.000000	 59.689998 
427.000000	 59.268546 
426.000000	 58.658027 
425.000000	 57.894349 
424.000000	 57.057595 
423.000000	 56.249117 
422.000000	 55.563163 
421.000000	 55.075430 
420.000000	 54.827356 
419.000000	 54.813718 
418.000000	 54.986166 
417.000000	 55.283451 
416.000000	 55.647850 
415.000000	 56.029582 
414.000000	 56.394982 
413.000000	 56.729960 
412.000000	 57.032513 
411.000000	 57.291722 
410.000000	 57.491040 
409.000000	 57.602143 
408.000000	 57.601118 
407.000000	 57.483482 
406.000000	 57.270026 
405.000000	 57.008028 
404.000000	 56.759142 
403.000000	 56.612563 
402.000000	 56.623339 
401.000000	 56.799840 
400.000000	 57.077527 
399.000000	 57.347631 
398.000000	 57.448887 
397.000000	 57.205057 
396.000000	 56.476926 
395.000000	 55.234265 
394.000000	 53.476405 
393.000000	 51.216077 
392.000000	 48.559451 
391.000000	 45.698380 
390.000000	 42.802858 
389.000000	 40.006923 
388.000000	 37.401342 
387.000000	 35.045433 
386.000000	 33.000111 
385.000000	 31.345391 
384.000000	 30.148530 
383.000000	 29.497075 
382.000000	 29.417467 
381.000000	 29.949092 
380.000000	 31.088900 
379.000000	 32.849287 
378.000000	 35.255002 
377.000000	 38.291859 
376.000000	 41.906881 
375.000000	 45.923662 
374.000000	 49.915075 
373.000000	 53.468251 
372.000000	 56.066727 
371.000000	 57.670712 
370.000000	 58.769273 

