PE IR       SPECTRUM    SPECTRUM    ASCII       PEDS        1.60        
  -1
C-1A6F~1.ASC
17/03/27
15:36:10.00
17/03/27
15:36:10.00
tln
$C-4040-8_t0014$<tbV0>[7.8,-10.4,8.0,0.0,27,1,0]
370.000000
64









2002,4.07    
MIRTGS : RIGHTBACK : INTERNAL 2
MIR : ON : INTERNAL 2
OPTKBR

0.200000
8
8.000000
FILLER
RATIO
SPECTRUM
UNLOCKED 256

DOUBLE
64
COMBINED
1
0
0


1.000000
RATIO


1
0
TRUE
51149
0
LEFT NOT FITTED RIGHT NOT FITTED 0
NONE
NONE
15600
12.000000
4.427000
51148
TRUE
1 0 8 72 0 0 0 0 

15798.010000






#HDR
-1
-1
#GR
CM-1
%T
0.00002384185791015625
0.0
5000.000000
-1.000000
4631
8
68.249011
11.802196
#DATA
5000.000000	63.000106 
4999.000000	62.944841 
4998.000000	62.882900 
4997.000000	62.820196 
4996.000000	62.765073 
4995.000000	62.727069 
4994.000000	62.713956 
4993.000000	62.728691 
4992.000000	62.768745 
4991.000000	62.826371 
4990.000000	62.889885 
4989.000000	62.945985 
4988.000000	62.983131 
4987.000000	62.993884 
4986.000000	62.976622 
4985.000000	62.935376 
4984.000000	62.877631 
4983.000000	62.811613 
4982.000000	62.744164 
4981.000000	62.678909 
4980.000000	62.615513 
4979.000000	62.551116 
4978.000000	62.481999 
4977.000000	62.406706 
4976.000000	62.328553 
4975.000000	62.255620 
4974.000000	62.198662 
4973.000000	62.168264 
4972.000000	62.172102 
4971.000000	62.210988 
4970.000000	62.277913 
4969.000000	62.358379 
4968.000000	62.432169 
4967.000000	62.479782 
4966.000000	62.486457 
4965.000000	62.447905 
4964.000000	62.370491 
4963.000000	62.272214 
4962.000000	62.177777 
4961.000000	62.113189 
4960.000000	62.098908 
4959.000000	62.145137 
4958.000000	62.249135 
4957.000000	62.397003 
4956.000000	62.566518 
4955.000000	62.732648 
4954.000000	62.871956 
4953.000000	62.964987 
4952.000000	62.998533 
4951.000000	62.966036 
4950.000000	62.867784 
4949.000000	62.708878 
4948.000000	62.499880 
4947.000000	62.256145 
4946.000000	61.997747 
4945.000000	61.747717 
4944.000000	61.530685 
4943.000000	61.370444 
4942.000000	61.286449 
4941.000000	61.289954 
4940.000000	61.382269 
4939.000000	61.553215 
4938.000000	61.782646 
4937.000000	62.042212 
4936.000000	62.300610 
4935.000000	62.527608 
4934.000000	62.699484 
4933.000000	62.801599 
4932.000000	62.831377 
4931.000000	62.797069 
4930.000000	62.717032 
4929.000000	62.615108 
4928.000000	62.517237 
4927.000000	62.445878 
4926.000000	62.416911 
4925.000000	62.436270 
4924.000000	62.499856 
4923.000000	62.594771 
4922.000000	62.703156 
4921.000000	62.806987 
4920.000000	62.890553 
4919.000000	62.946057 
4918.000000	62.974333 
4917.000000	62.984943 
4916.000000	62.991881 
4915.000000	63.010501 
4914.000000	63.052010 
4913.000000	63.121318 
4912.000000	63.215780 
4911.000000	63.326501 
4910.000000	63.441848 
4909.000000	63.550233 
4908.000000	63.644647 
4907.000000	63.721132 
4906.000000	63.779473 
4905.000000	63.820123 
4904.000000	63.842940 
4903.000000	63.846540 
4902.000000	63.828516 
4901.000000	63.787031 
4900.000000	63.721871 
4899.000000	63.637280 
4898.000000	63.540911 
4897.000000	63.443684 
4896.000000	63.355898 
4895.000000	63.284540 
4894.000000	63.230013 
4893.000000	63.186049 
4892.000000	63.140416 
4891.000000	63.078594 
4890.000000	62.987995 
4889.000000	62.861227 
4888.000000	62.700200 
4887.000000	62.515044 
4886.000000	62.324690 
4885.000000	62.149810 
4884.000000	62.012863 
4883.000000	61.931562 
4882.000000	61.917781 
4881.000000	61.974382 
4880.000000	62.096142 
4879.000000	62.270617 
4878.000000	62.479543 
4877.000000	62.701344 
4876.000000	62.913370 
4875.000000	63.094639 
4874.000000	63.227677 
4873.000000	63.300800 
4872.000000	63.309645 
4871.000000	63.257789 
4870.000000	63.157391 
4869.000000	63.026595 
4868.000000	62.886786 
4867.000000	62.758636 
4866.000000	62.660121 
4865.000000	62.602663 
4864.000000	62.590432 
4863.000000	62.619543 
4862.000000	62.680649 
4861.000000	62.760472 
4860.000000	62.844347 
4859.000000	62.919521 
4858.000000	62.975764 
4857.000000	63.008594 
4856.000000	63.018035 
4855.000000	63.009500 
4854.000000	62.991380 
4853.000000	62.973213 
4852.000000	62.963247 
4851.000000	62.967133 
4850.000000	62.986993 
4849.000000	63.021111 
4848.000000	63.065099 
4847.000000	63.112425 
4846.000000	63.156437 
4845.000000	63.192725 
4844.000000	63.219928 
4843.000000	63.239502 
4842.000000	63.254618 
4841.000000	63.269448 
4840.000000	63.287019 
4839.000000	63.308286 
4838.000000	63.330483 
4837.000000	63.348269 
4836.000000	63.353800 
4835.000000	63.340306 
4834.000000	63.302755 
4833.000000	63.239526 
4832.000000	63.153696 
4831.000000	63.052344 
4830.000000	62.946105 
4829.000000	62.847375 
4828.000000	62.767481 
4827.000000	62.714481 
4826.000000	62.691593 
4825.000000	62.696981 
4824.000000	62.723588 
4823.000000	62.760853 
4822.000000	62.797236 
4821.000000	62.822747 
4820.000000	62.830877 
4819.000000	62.820029 
4818.000000	62.792921 
4817.000000	62.755727 
4816.000000	62.716293 
4815.000000	62.682223 
4814.000000	62.659239 
4813.000000	62.650156 
4812.000000	62.654948 
4811.000000	62.670826 
4810.000000	62.693691 
4809.000000	62.718915 
4808.000000	62.742781 
4807.000000	62.762737 
4806.000000	62.777280 
4805.000000	62.785816 
4804.000000	62.788271 
4803.000000	62.784361 
4802.000000	62.773537 
4801.000000	62.754869 
4800.000000	62.727761 
4799.000000	62.692475 
4798.000000	62.650537 
4797.000000	62.605500 
4796.000000	62.562513 
4795.000000	62.528634 
4794.000000	62.511491 
4793.000000	62.517976 
4792.000000	62.552475 
4791.000000	62.615847 
4790.000000	62.704539 
4789.000000	62.810611 
4788.000000	62.923192 
4787.000000	63.030457 
4786.000000	63.122034 
4785.000000	63.190960 
4784.000000	63.234901 
4783.000000	63.255810 
4782.000000	63.259267 
4781.000000	63.253021 
4780.000000	63.244485 
4779.000000	63.239860 
4778.000000	63.241529 
4777.000000	63.249754 
4776.000000	63.260602 
4775.000000	63.268899 
4774.000000	63.267779 
4773.000000	63.251566 
4772.000000	63.215804 
4771.000000	63.158774 
4770.000000	63.081455 
4769.000000	62.987446 
4768.000000	62.882781 
4767.000000	62.775039 
4766.000000	62.672400 
4765.000000	62.582778 
4764.000000	62.512826 
4763.000000	62.467288 
4762.000000	62.448215 
4761.000000	62.455153 
4760.000000	62.485194 
4759.000000	62.534093 
4758.000000	62.595605 
4757.000000	62.663578 
4756.000000	62.731885 
4755.000000	62.795805 
4754.000000	62.851071 
4753.000000	62.895512 
4752.000000	62.928390 
4751.000000	62.950587 
4750.000000	62.963986 
4749.000000	62.970829 
4748.000000	62.973356 
4747.000000	62.972736 
4746.000000	62.969708 
4745.000000	62.963485 
4744.000000	62.952780 
4743.000000	62.935924 
4742.000000	62.911987 
4741.000000	62.880754 
4740.000000	62.843132 
4739.000000	62.801432 
4738.000000	62.759113 
4737.000000	62.719631 
4736.000000	62.685990 
4735.000000	62.660479 
4734.000000	62.644505 
4733.000000	62.638068 
4732.000000	62.640428 
4731.000000	62.650370 
4730.000000	62.666726 
4729.000000	62.688136 
4728.000000	62.713265 
4727.000000	62.740516 
4726.000000	62.767767 
4725.000000	62.792611 
4724.000000	62.812280 
4723.000000	62.823796 
4722.000000	62.824511 
4721.000000	62.812900 
4720.000000	62.788939 
4719.000000	62.754511 
4718.000000	62.713360 
4717.000000	62.670707 
4716.000000	62.632441 
4715.000000	62.604284 
4714.000000	62.590551 
4713.000000	62.593245 
4712.000000	62.611699 
4711.000000	62.642836 
4710.000000	62.681603 
4709.000000	62.722349 
4708.000000	62.759780 
4707.000000	62.790298 
4706.000000	62.812352 
4705.000000	62.826704 
4704.000000	62.835860 
4703.000000	62.843155 
4702.000000	62.851977 
4701.000000	62.864446 
4700.000000	62.881159 
4699.000000	62.900972 
4698.000000	62.921714 
4697.000000	62.940692 
4696.000000	62.955665 
4695.000000	62.965488 
4694.000000	62.970376 
4693.000000	62.971735 
4692.000000	62.971711 
4691.000000	62.972378 
4690.000000	62.975096 
4689.000000	62.979984 
4688.000000	62.986111 
4687.000000	62.991809 
4686.000000	62.995243 
4685.000000	62.995100 
4684.000000	62.990951 
4683.000000	62.983512 
4682.000000	62.974357 
4681.000000	62.965130 
4680.000000	62.956833 
4679.000000	62.949538 
4678.000000	62.941932 
4677.000000	62.931728 
4676.000000	62.916326 
4675.000000	62.893581 
4674.000000	62.863087 
4673.000000	62.825942 
4672.000000	62.785363 
4671.000000	62.745809 
4670.000000	62.712478 
4669.000000	62.689948 
4668.000000	62.681651 
4667.000000	62.688875 
4666.000000	62.710618 
4665.000000	62.743782 
4664.000000	62.783479 
4663.000000	62.824082 
4662.000000	62.859296 
4661.000000	62.883257 
4660.000000	62.890839 
4659.000000	62.878370 
4658.000000	62.844347 
4657.000000	62.789940 
4656.000000	62.719321 
4655.000000	62.639498 
4654.000000	62.559700 
4653.000000	62.489795 
4652.000000	62.438678 
4651.000000	62.412476 
4650.000000	62.413263 
4649.000000	62.438797 
4648.000000	62.482762 
4647.000000	62.536692 
4646.000000	62.591338 
4645.000000	62.639284 
4644.000000	62.675881 
4643.000000	62.700200 
4642.000000	62.714028 
4641.000000	62.720680 
4640.000000	62.723040 
4639.000000	62.722754 
4638.000000	62.719631 
4637.000000	62.712311 
4636.000000	62.699222 
4635.000000	62.679934 
4634.000000	62.656211 
4633.000000	62.631702 
4632.000000	62.611436 
4631.000000	62.599945 
4630.000000	62.599897 
4629.000000	62.611150 
4628.000000	62.630724 
4627.000000	62.653636 
4626.000000	62.674236 
4625.000000	62.688064 
4624.000000	62.692785 
4623.000000	62.689089 
4622.000000	62.679624 
4621.000000	62.667822 
4620.000000	62.656593 
4619.000000	62.646961 
4618.000000	62.638592 
4617.000000	62.629914 
4616.000000	62.619638 
4615.000000	62.607645 
4614.000000	62.595534 
4613.000000	62.587237 
4612.000000	62.586760 
4611.000000	62.597274 
4610.000000	62.619256 
4609.000000	62.649607 
4608.000000	62.682104 
4607.000000	62.708783 
4606.000000	62.722134 
4605.000000	62.717199 
4604.000000	62.693405 
4603.000000	62.654900 
4602.000000	62.609505 
4601.000000	62.566494 
4600.000000	62.534189 
4599.000000	62.517571 
4598.000000	62.516999 
4597.000000	62.528324 
4596.000000	62.544417 
4595.000000	62.557005 
4594.000000	62.559366 
4593.000000	62.547492 
4592.000000	62.521028 
4591.000000	62.483000 
4590.000000	62.437915 
4589.000000	62.391328 
4588.000000	62.347197 
4587.000000	62.308859 
4586.000000	62.278246 
4585.000000	62.256956 
4584.000000	62.246370 
4583.000000	62.248063 
4582.000000	62.263488 
4581.000000	62.293195 
4580.000000	62.335920 
4579.000000	62.388491 
4578.000000	62.445735 
4577.000000	62.501239 
4576.000000	62.548351 
4575.000000	62.581634 
4574.000000	62.597846 
4573.000000	62.596464 
4572.000000	62.580013 
4571.000000	62.553358 
4570.000000	62.522888 
4569.000000	62.495183 
4568.000000	62.475800 
4567.000000	62.468767 
4566.000000	62.475275 
4565.000000	62.494516 
4564.000000	62.522935 
4563.000000	62.555551 
4562.000000	62.585783 
4561.000000	62.607359 
4560.000000	62.614512 
4559.000000	62.602853 
4558.000000	62.570714 
4557.000000	62.519359 
4556.000000	62.453150 
4555.000000	62.378764 
4554.000000	62.304258 
4553.000000	62.237715 
4552.000000	62.185859 
4551.000000	62.152934 
4550.000000	62.139511 
4549.000000	62.142539 
4548.000000	62.156200 
4547.000000	62.173199 
4546.000000	62.185716 
4545.000000	62.187314 
4544.000000	62.173819 
4543.000000	62.144207 
4542.000000	62.100028 
4541.000000	62.045574 
4540.000000	61.985993 
4539.000000	61.927533 
4538.000000	61.876106 
4537.000000	61.837220 
4536.000000	61.815404 
4535.000000	61.814022 
4534.000000	61.835336 
4533.000000	61.879324 
4532.000000	61.943411 
4531.000000	62.021970 
4530.000000	62.106609 
4529.000000	62.186908 
4528.000000	62.251973 
4527.000000	62.292051 
4526.000000	62.300395 
4525.000000	62.274146 
4524.000000	62.214875 
4523.000000	62.128400 
4522.000000	62.023997 
4521.000000	61.913180 
4520.000000	61.808156 
4519.000000	61.720299 
4518.000000	61.658477 
4517.000000	61.627197 
4516.000000	61.626982 
4515.000000	61.653685 
4514.000000	61.701107 
4513.000000	61.762118 
4512.000000	61.830639 
4511.000000	61.902475 
4510.000000	61.975002 
4509.000000	62.044930 
4508.000000	62.109446 
4507.000000	62.164688 
4506.000000	62.207317 
4505.000000	62.234973 
4504.000000	62.247085 
4503.000000	62.245917 
4502.000000	62.234473 
4501.000000	62.216448 
4500.000000	62.193989 
4499.000000	62.167811 
4498.000000	62.136530 
4497.000000	62.097716 
4496.000000	62.049460 
4495.000000	61.991691 
4494.000000	61.927556 
4493.000000	61.862826 
4492.000000	61.805081 
4491.000000	61.761498 
4490.000000	61.734342 
4489.000000	61.722636 
4488.000000	61.720705 
4487.000000	61.723709 
4486.000000	61.729598 
4485.000000	61.741185 
4484.000000	61.769390 
4483.000000	61.825633 
4482.000000	61.915254 
4481.000000	62.035727 
4480.000000	62.174725 
4479.000000	62.313055 
4478.000000	62.427616 
4477.000000	62.500500 
4476.000000	62.525296 
4475.000000	62.507200 
4474.000000	62.462019 
4473.000000	62.410116 
4472.000000	62.370204 
4471.000000	62.355375 
4470.000000	62.370371 
4469.000000	62.409448 
4468.000000	62.459325 
4467.000000	62.508225 
4466.000000	62.549352 
4465.000000	62.580180 
4464.000000	62.603950 
4463.000000	62.625885 
4462.000000	62.655186 
4461.000000	62.695026 
4460.000000	62.752366 
4459.000000	62.835478 
4458.000000	62.960720 
4457.000000	63.148760 
4456.000000	63.423204 
4455.000000	63.803672 
4454.000000	64.298319 
4453.000000	64.896678 
4452.000000	65.567970 
4451.000000	66.264796 
4450.000000	66.928100 
4449.000000	67.500734 
4448.000000	67.931389 
4447.000000	68.186974 
4446.000000	68.249011 
4445.000000	68.117856 
4444.000000	67.800807 
4443.000000	67.311048 
4442.000000	66.662836 
4441.000000	65.873813 
4440.000000	64.970278 
4439.000000	63.990664 
4438.000000	62.990546 
4437.000000	62.037062 
4436.000000	61.200189 
4435.000000	60.541963 
4434.000000	60.098147 
4433.000000	59.878039 
4432.000000	59.859752 
4431.000000	60.000920 
4430.000000	60.240674 
4429.000000	60.520148 
4428.000000	60.786747 
4427.000000	61.008262 
4426.000000	61.165070 
4425.000000	61.259675 
4424.000000	61.305856 
4423.000000	61.324834 
4422.000000	61.335921 
4421.000000	61.349296 
4420.000000	61.362433 
4419.000000	61.364245 
4418.000000	61.342287 
4417.000000	61.282873 
4416.000000	61.177659 
4415.000000	61.028194 
4414.000000	60.847353 
4413.000000	60.656642 
4412.000000	60.480284 
4411.000000	60.341382 
4410.000000	60.254168 
4409.000000	60.214614 
4408.000000	60.204219 
4407.000000	60.197067 
4406.000000	60.167264 
4405.000000	60.098576 
4404.000000	59.986782 
4403.000000	59.844493 
4402.000000	59.691524 
4401.000000	59.541177 
4400.000000	59.404802 
4399.000000	59.274530 
4398.000000	59.152817 
4397.000000	59.049057 
4396.000000	59.001564 
4395.000000	59.068250 
4394.000000	59.326791 
4393.000000	59.854078 
4392.000000	60.697031 
4391.000000	61.850523 
4390.000000	63.238930 
4389.000000	64.722013 
4388.000000	66.117095 
4387.000000	67.237925 
4386.000000	67.942810 
4385.000000	68.165993 
4384.000000	67.940998 
4383.000000	67.383170 
4382.000000	66.657686 
4381.000000	65.931534 
4380.000000	65.335249 
4379.000000	64.931011 
4378.000000	64.716315 
4377.000000	64.627957 
4376.000000	64.588737 
4375.000000	64.519929 
4374.000000	64.376258 
4373.000000	64.147400 
4372.000000	63.853597 
4371.000000	63.537478 
4370.000000	63.238525 
4369.000000	62.987923 
4368.000000	62.790989 
4367.000000	62.639522 
4366.000000	62.516546 
4365.000000	62.407493 
4364.000000	62.308955 
4363.000000	62.226939 
4362.000000	62.175965 
4361.000000	62.165546 
4360.000000	62.195634 
4359.000000	62.258553 
4358.000000	62.340116 
4357.000000	62.423110 
4356.000000	62.491297 
4355.000000	62.537598 
4354.000000	62.562036 
4353.000000	62.566471 
4352.000000	62.554359 
4351.000000	62.527346 
4350.000000	62.485551 
4349.000000	62.430739 
4348.000000	62.363481 
4347.000000	62.283110 
4346.000000	62.189626 
4345.000000	62.086606 
4344.000000	61.979079 
4343.000000	61.873245 
4342.000000	61.775374 
4341.000000	61.690497 
4340.000000	61.622381 
4339.000000	61.572098 
4338.000000	61.540770 
4337.000000	61.529684 
4336.000000	61.539173 
4335.000000	61.567759 
4334.000000	61.611890 
4333.000000	61.665916 
4332.000000	61.722254 
4331.000000	61.772799 
4330.000000	61.810374 
4329.000000	61.830043 
4328.000000	61.830067 
4327.000000	61.811947 
4326.000000	61.779570 
4325.000000	61.738276 
4324.000000	61.694049 
4323.000000	61.651754 
4322.000000	61.614894 
4321.000000	61.585211 
4320.000000	61.562776 
4319.000000	61.547231 
4318.000000	61.538362 
4317.000000	61.536860 
4316.000000	61.543846 
4315.000000	61.560964 
4314.000000	61.589169 
4313.000000	61.627793 
4312.000000	61.673641 
4311.000000	61.721611 
4310.000000	61.765432 
4309.000000	61.799359 
4308.000000	61.819124 
4307.000000	61.823511 
4306.000000	61.814117 
4305.000000	61.794233 
4304.000000	61.767673 
4303.000000	61.737227 
4302.000000	61.704277 
4301.000000	61.669325 
4300.000000	61.632466 
4299.000000	61.594486 
4298.000000	61.557245 
4297.000000	61.524200 
4296.000000	61.499595 
4295.000000	61.487364 
4294.000000	61.489820 
4293.000000	61.506795 
4292.000000	61.535286 
4291.000000	61.570000 
4290.000000	61.604523 
4289.000000	61.632561 
4288.000000	61.649513 
4287.000000	61.653137 
4286.000000	61.644148 
4285.000000	61.625552 
4284.000000	61.601853 
4283.000000	61.577701 
4282.000000	61.557078 
4281.000000	61.542582 
4280.000000	61.535072 
4279.000000	61.533570 
4278.000000	61.535286 
4277.000000	61.536264 
4276.000000	61.531853 
4275.000000	61.518049 
4274.000000	61.492228 
4273.000000	61.454296 
4272.000000	61.406993 
4271.000000	61.356019 
4270.000000	61.308598 
4269.000000	61.272144 
4268.000000	61.253142 
4267.000000	61.254930 
4266.000000	61.276650 
4265.000000	61.313295 
4264.000000	61.356520 
4263.000000	61.396431 
4262.000000	61.423659 
4261.000000	61.431717 
4260.000000	61.418008 
4259.000000	61.384892 
4258.000000	61.338877 
4257.000000	61.289024 
4256.000000	61.244559 
4255.000000	61.213207 
4254.000000	61.199188 
4253.000000	61.203098 
4252.000000	61.222100 
4251.000000	61.250853 
4250.000000	61.283326 
4249.000000	61.314058 
4248.000000	61.339855 
4247.000000	61.359596 
4246.000000	61.374902 
4245.000000	61.388611 
4244.000000	61.404633 
4243.000000	61.426377 
4242.000000	61.456036 
4241.000000	61.494493 
4240.000000	61.540150 
4239.000000	61.590027 
4238.000000	61.638998 
4237.000000	61.681795 
4236.000000	61.712718 
4235.000000	61.726975 
4234.000000	61.721706 
4233.000000	61.696577 
4232.000000	61.654996 
4231.000000	61.603474 
4230.000000	61.550951 
4229.000000	61.507105 
4228.000000	61.480283 
4227.000000	61.475706 
4226.000000	61.494159 
4225.000000	61.531901 
4224.000000	61.581707 
4223.000000	61.634683 
4222.000000	61.682128 
4221.000000	61.717605 
4220.000000	61.738443 
4219.000000	61.745715 
4218.000000	61.742615 
4217.000000	61.733770 
4216.000000	61.723661 
4215.000000	61.715602 
4214.000000	61.710476 
4213.000000	61.707472 
4212.000000	61.705517 
4211.000000	61.703324 
4210.000000	61.700868 
4209.000000	61.698389 
4208.000000	61.696124 
4207.000000	61.694002 
4206.000000	61.691308 
4205.000000	61.686992 
4204.000000	61.679530 
4203.000000	61.668205 
4202.000000	61.653733 
4201.000000	61.637401 
4200.000000	61.620473 
4199.000000	61.603856 
4198.000000	61.587429 
4197.000000	61.569404 
4196.000000	61.546325 
4195.000000	61.514616 
4194.000000	61.470770 
4193.000000	61.412763 
4192.000000	61.340045 
4191.000000	61.254405 
4190.000000	61.159157 
4189.000000	61.058115 
4188.000000	60.956096 
4187.000000	60.856533 
4186.000000	60.764312 
4185.000000	60.684847 
4184.000000	60.625553 
4183.000000	60.594034 
4182.000000	60.598325 
4181.000000	60.644078 
4180.000000	60.733962 
4179.000000	60.864591 
4178.000000	61.028075 
4177.000000	61.212110 
4176.000000	61.402034 
4175.000000	61.582851 
4174.000000	61.740994 
4173.000000	61.866068 
4172.000000	61.952185 
4171.000000	61.998391 
4170.000000	62.008690 
4169.000000	61.990976 
4168.000000	61.956572 
4167.000000	61.917495 
4166.000000	61.885142 
4165.000000	61.866974 
4164.000000	61.867547 
4163.000000	61.885404 
4162.000000	61.914467 
4161.000000	61.944317 
4160.000000	61.963868 
4159.000000	61.963033 
4158.000000	61.934995 
4157.000000	61.878108 
4156.000000	61.796426 
4155.000000	61.698603 
4154.000000	61.595416 
4153.000000	61.498069 
4152.000000	61.415362 
4151.000000	61.353087 
4150.000000	61.313509 
4149.000000	61.295795 
4148.000000	61.296820 
4147.000000	61.312532 
4146.000000	61.339235 
4145.000000	61.372756 
4144.000000	61.409020 
4143.000000	61.444783 
4142.000000	61.478042 
4141.000000	61.506819 
4140.000000	61.530232 
4139.000000	61.549401 
4138.000000	61.567211 
4137.000000	61.588048 
4136.000000	61.616373 
4135.000000	61.655616 
4134.000000	61.706876 
4133.000000	61.768651 
4132.000000	61.836361 
4131.000000	61.903762 
4130.000000	61.963486 
4129.000000	62.009644 
4128.000000	62.037897 
4127.000000	62.046599 
4126.000000	62.036442 
4125.000000	62.010383 
4124.000000	61.972784 
4123.000000	61.928224 
4122.000000	61.881279 
4121.000000	61.836028 
4120.000000	61.794590 
4119.000000	61.756992 
4118.000000	61.721253 
4117.000000	61.684298 
4116.000000	61.642336 
4115.000000	61.592411 
4114.000000	61.532735 
4113.000000	61.464118 
4112.000000	61.389756 
4111.000000	61.315703 
4110.000000	61.248898 
4109.000000	61.196875 
4108.000000	61.165809 
4107.000000	61.159634 
4106.000000	61.178541 
4105.000000	61.219286 
4104.000000	61.275696 
4103.000000	61.340093 
4102.000000	61.403846 
4101.000000	61.460065 
4100.000000	61.504435 
4099.000000	61.536026 
4098.000000	61.556410 
4097.000000	61.569714 
4096.000000	61.581230 
4095.000000	61.595845 
4094.000000	61.616802 
4093.000000	61.644411 
4092.000000	61.676025 
4091.000000	61.706948 
4090.000000	61.731886 
4089.000000	61.745810 
4088.000000	61.745595 
4087.000000	61.731338 
4086.000000	61.706328 
4085.000000	61.675810 
4084.000000	61.645984 
4083.000000	61.622643 
4082.000000	61.609411 
4081.000000	61.607480 
4080.000000	61.614871 
4079.000000	61.627721 
4078.000000	61.640763 
4077.000000	61.648702 
4076.000000	61.647057 
4075.000000	61.633253 
4074.000000	61.606812 
4073.000000	61.568999 
4072.000000	61.522936 
4071.000000	61.472177 
4070.000000	61.421227 
4069.000000	61.374664 
4068.000000	61.336922 
4067.000000	61.311769 
4066.000000	61.301970 
4065.000000	61.309123 
4064.000000	61.333131 
4063.000000	61.372184 
4062.000000	61.422896 
4061.000000	61.480498 
4060.000000	61.539363 
4059.000000	61.593604 
4058.000000	61.637592 
4057.000000	61.666798 
4056.000000	61.678194 
4055.000000	61.670780 
4054.000000	61.645960 
4053.000000	61.607027 
4052.000000	61.559462 
4051.000000	61.509609 
4050.000000	61.463952 
4049.000000	61.427688 
4048.000000	61.404681 
4047.000000	61.396121 
4046.000000	61.400866 
4045.000000	61.415886 
4044.000000	61.436700 
4043.000000	61.459040 
4042.000000	61.479401 
4041.000000	61.495947 
4040.000000	61.508393 
4039.000000	61.517810 
4038.000000	61.525893 
4037.000000	61.534237 
4036.000000	61.543679 
4035.000000	61.554598 
4034.000000	61.566591 
4033.000000	61.579179 
4032.000000	61.591672 
4031.000000	61.603927 
4030.000000	61.615777 
4029.000000	61.627101 
4028.000000	61.637711 
4027.000000	61.647176 
4026.000000	61.655068 
4025.000000	61.660742 
4024.000000	61.663866 
4023.000000	61.664605 
4022.000000	61.663627 
4021.000000	61.662149 
4020.000000	61.661267 
4019.000000	61.661767 
4018.000000	61.663699 
4017.000000	61.666250 
4016.000000	61.667728 
4015.000000	61.666154 
4014.000000	61.659407 
4013.000000	61.646103 
4012.000000	61.625671 
4011.000000	61.598968 
4010.000000	61.567711 
4009.000000	61.533999 
4008.000000	61.500525 
4007.000000	61.469936 
4006.000000	61.444354 
4005.000000	61.425065 
4004.000000	61.412858 
4003.000000	61.407661 
4002.000000	61.408686 
4001.000000	61.414456 
4000.000000	61.422801 
3999.000000	61.431217 
3998.000000	61.437249 
3997.000000	61.438632 
3996.000000	61.433887 
3995.000000	61.422371 
3994.000000	61.404728 
3993.000000	61.382317 
3992.000000	61.357140 
3991.000000	61.330914 
3990.000000	61.305189 
3989.000000	61.280345 
3988.000000	61.255860 
3987.000000	61.230444 
3986.000000	61.202573 
3985.000000	61.170744 
3984.000000	61.134028 
3983.000000	61.092257 
3982.000000	61.046075 
3981.000000	60.996866 
3980.000000	60.946536 
3979.000000	60.897159 
3978.000000	60.851192 
3977.000000	60.810708 
3976.000000	60.778069 
3975.000000	60.755467 
3974.000000	60.744810 
3973.000000	60.747218 
3972.000000	60.762524 
3971.000000	60.789132 
3970.000000	60.823965 
3969.000000	60.862684 
3968.000000	60.900735 
3967.000000	60.933446 
3966.000000	60.957741 
3965.000000	60.972476 
3964.000000	60.978746 
3963.000000	60.979700 
3962.000000	60.979247 
3961.000000	60.981178 
3960.000000	60.987734 
3959.000000	60.999274 
3958.000000	61.013388 
3957.000000	61.025738 
3956.000000	61.031270 
3955.000000	61.025857 
3954.000000	61.007523 
3953.000000	60.977363 
3952.000000	60.939598 
3951.000000	60.900831 
3950.000000	60.868120 
3949.000000	60.847401 
3948.000000	60.842037 
3947.000000	60.851836 
3946.000000	60.873413 
3945.000000	60.900926 
3944.000000	60.927700 
3943.000000	60.948085 
3942.000000	60.958361 
3941.000000	60.957813 
3940.000000	60.947990 
3939.000000	60.932517 
3938.000000	60.915565 
3937.000000	60.901117 
3936.000000	60.891604 
3935.000000	60.888123 
3934.000000	60.890483 
3933.000000	60.897636 
3932.000000	60.908412 
3931.000000	60.921692 
3930.000000	60.936641 
3929.000000	60.952591 
3928.000000	60.968804 
3927.000000	60.984396 
3926.000000	60.998201 
3925.000000	61.008954 
3924.000000	61.015367 
3923.000000	61.016702 
3922.000000	61.012744 
3921.000000	61.004066 
3920.000000	60.991740 
3919.000000	60.977077 
3918.000000	60.961318 
3917.000000	60.945677 
3916.000000	60.930848 
3915.000000	60.917043 
3914.000000	60.904383 
3913.000000	60.892796 
3912.000000	60.882616 
3911.000000	60.874581 
3910.000000	60.869741 
3909.000000	60.869121 
3908.000000	60.873413 
3907.000000	60.882639 
3906.000000	60.896158 
3905.000000	60.912489 
3904.000000	60.929727 
3903.000000	60.945820 
3902.000000	60.959029 
3901.000000	60.968279 
3900.000000	60.973286 
3899.000000	60.974287 
3898.000000	60.971927 
3897.000000	60.966920 
3896.000000	60.960006 
3895.000000	60.951805 
3894.000000	60.942792 
3893.000000	60.933566 
3892.000000	60.924935 
3891.000000	60.917782 
3890.000000	60.913276 
3889.000000	60.912418 
3888.000000	60.915279 
3887.000000	60.921239 
3886.000000	60.928916 
3885.000000	60.936546 
3884.000000	60.942077 
3883.000000	60.943984 
3882.000000	60.941767 
3881.000000	60.936021 
3880.000000	60.928225 
3879.000000	60.920476 
3878.000000	60.914754 
3877.000000	60.912537 
3876.000000	60.914134 
3875.000000	60.918831 
3874.000000	60.924839 
3873.000000	60.929894 
3872.000000	60.931658 
3871.000000	60.928201 
3870.000000	60.918712 
3869.000000	60.903358 
3868.000000	60.883760 
3867.000000	60.862255 
3866.000000	60.842227 
3865.000000	60.827231 
3864.000000	60.820674 
3863.000000	60.825157 
3862.000000	60.841846 
3861.000000	60.870528 
3860.000000	60.909032 
3859.000000	60.953474 
3858.000000	60.998511 
3857.000000	61.038517 
3856.000000	61.068439 
3855.000000	61.084508 
3854.000000	61.085534 
3853.000000	61.073017 
3852.000000	61.050987 
3851.000000	61.024975 
3850.000000	61.000800 
3849.000000	60.983157 
3848.000000	60.974669 
3847.000000	60.975742 
3846.000000	60.984945 
3845.000000	60.999989 
3844.000000	61.018466 
3843.000000	61.038494 
3842.000000	61.058974 
3841.000000	61.079239 
3840.000000	61.098551 
3839.000000	61.115360 
3838.000000	61.127257 
3837.000000	61.130857 
3836.000000	61.122918 
3835.000000	61.100530 
3834.000000	61.062526 
3833.000000	61.009383 
3832.000000	60.944008 
3831.000000	60.871028 
3830.000000	60.795831 
3829.000000	60.724139 
3828.000000	60.660696 
3827.000000	60.609483 
3826.000000	60.573554 
3825.000000	60.554647 
3824.000000	60.552835 
3823.000000	60.566449 
3822.000000	60.592150 
3821.000000	60.624432 
3820.000000	60.656476 
3819.000000	60.680985 
3818.000000	60.691857 
3817.000000	60.685181 
3816.000000	60.660839 
3815.000000	60.622191 
3814.000000	60.576057 
3813.000000	60.531020 
3812.000000	60.495567 
3811.000000	60.476422 
3810.000000	60.476970 
3809.000000	60.496687 
3808.000000	60.531330 
3807.000000	60.574436 
3806.000000	60.618400 
3805.000000	60.656595 
3804.000000	60.683631 
3803.000000	60.696363 
3802.000000	60.693430 
3801.000000	60.675287 
3800.000000	60.643434 
3799.000000	60.599732 
3798.000000	60.546970 
3797.000000	60.488867 
3796.000000	60.429787 
3795.000000	60.374832 
3794.000000	60.329318 
3793.000000	60.298013 
3792.000000	60.283803 
3791.000000	60.287189 
3790.000000	60.305523 
3789.000000	60.333633 
3788.000000	60.364484 
3787.000000	60.390758 
3786.000000	60.406374 
3785.000000	60.407805 
3784.000000	60.393953 
3783.000000	60.367155 
3782.000000	60.331678 
3781.000000	60.293722 
3780.000000	60.259127 
3779.000000	60.233330 
3778.000000	60.220336 
3777.000000	60.222220 
3776.000000	60.239243 
3775.000000	60.269498 
3774.000000	60.309576 
3773.000000	60.354685 
3772.000000	60.399723 
3771.000000	60.439515 
3770.000000	60.469412 
3769.000000	60.486292 
3768.000000	60.488796 
3767.000000	60.477876 
3766.000000	60.456752 
3765.000000	60.429978 
3764.000000	60.402822 
3763.000000	60.380554 
3762.000000	60.367512 
3761.000000	60.366654 
3760.000000	60.379219 
3759.000000	60.404872 
3758.000000	60.441851 
3757.000000	60.487461 
3756.000000	60.538506 
3755.000000	60.591340 
3754.000000	60.642385 
3753.000000	60.688495 
3752.000000	60.726857 
3751.000000	60.755395 
3750.000000	60.772299 
3749.000000	60.776424 
3748.000000	60.767197 
3747.000000	60.745334 
3746.000000	60.712695 
3745.000000	60.672402 
3744.000000	60.628628 
3743.000000	60.586380 
3742.000000	60.550713 
3741.000000	60.526061 
3740.000000	60.514950 
3739.000000	60.517525 
3738.000000	60.531568 
3737.000000	60.552692 
3736.000000	60.575008 
3735.000000	60.592198 
3734.000000	60.598993 
3733.000000	60.592198 
3732.000000	60.571098 
3731.000000	60.537672 
3730.000000	60.495853 
3729.000000	60.451054 
3728.000000	60.408473 
3727.000000	60.372519 
3726.000000	60.346508 
3725.000000	60.332036 
3724.000000	60.329222 
3723.000000	60.336995 
3722.000000	60.353660 
3721.000000	60.376858 
3720.000000	60.404109 
3719.000000	60.432720 
3718.000000	60.460019 
3717.000000	60.483193 
3716.000000	60.499286 
3715.000000	60.505557 
3714.000000	60.499691 
3713.000000	60.480380 
3712.000000	60.447788 
3711.000000	60.403609 
3710.000000	60.350799 
3709.000000	60.293745 
3708.000000	60.237383 
3707.000000	60.185909 
3706.000000	60.142230 
3705.000000	60.107350 
3704.000000	60.080623 
3703.000000	60.060071 
3702.000000	60.043668 
3701.000000	60.029339 
3700.000000	60.016775 
3699.000000	60.007119 
3698.000000	60.002946 
3697.000000	60.007047 
3696.000000	60.021567 
3695.000000	60.046815 
3694.000000	60.080575 
3693.000000	60.118079 
3692.000000	60.152721 
3691.000000	60.177755 
3690.000000	60.187768 
3689.000000	60.180139 
3688.000000	60.156059 
3687.000000	60.120558 
3686.000000	60.081577 
3685.000000	60.048246 
3684.000000	60.029029 
3683.000000	60.029768 
3682.000000	60.052752 
3681.000000	60.095858 
3680.000000	60.153007 
3679.000000	60.215210 
3678.000000	60.272717 
3677.000000	60.316467 
3676.000000	60.339617 
3675.000000	60.338473 
3674.000000	60.313081 
3673.000000	60.266447 
3672.000000	60.203766 
3671.000000	60.131216 
3670.000000	60.055470 
3669.000000	59.982061 
3668.000000	59.915423 
3667.000000	59.858393 
3666.000000	59.812664 
3665.000000	59.778594 
3664.000000	59.755682 
3663.000000	59.742808 
3662.000000	59.738397 
3661.000000	59.741020 
3660.000000	59.749507 
3659.000000	59.763026 
3658.000000	59.780836 
3657.000000	59.802746 
3656.000000	59.828639 
3655.000000	59.858059 
3654.000000	59.889578 
3653.000000	59.920954 
3652.000000	59.948611 
3651.000000	59.968662 
3650.000000	59.977340 
3649.000000	59.971928 
3648.000000	59.951972 
3647.000000	59.919214 
3646.000000	59.877896 
3645.000000	59.833955 
3644.000000	59.794211 
3643.000000	59.764909 
3642.000000	59.750723 
3641.000000	59.753847 
3640.000000	59.773945 
3639.000000	59.808492 
3638.000000	59.852981 
3637.000000	59.902048 
3636.000000	59.950065 
3635.000000	59.991860 
3634.000000	60.022830 
3633.000000	60.039258 
3632.000000	60.038518 
3631.000000	60.019445 
3630.000000	59.982585 
3629.000000	59.930372 
3628.000000	59.867334 
3627.000000	59.799265 
3626.000000	59.732675 
3625.000000	59.673714 
3624.000000	59.627103 
3623.000000	59.595656 
3622.000000	59.579825 
3621.000000	59.578275 
3620.000000	59.588074 
3619.000000	59.605789 
3618.000000	59.628057 
3617.000000	59.651875 
3616.000000	59.674668 
3615.000000	59.694170 
3614.000000	59.708023 
3613.000000	59.713912 
3612.000000	59.709453 
3611.000000	59.693098 
3610.000000	59.664559 
3609.000000	59.625482 
3608.000000	59.579515 
3607.000000	59.531831 
3606.000000	59.488368 
3605.000000	59.454250 
3604.000000	59.432792 
3603.000000	59.424853 
3602.000000	59.429121 
3601.000000	59.442210 
3600.000000	59.460043 
3599.000000	59.478735 
3598.000000	59.495878 
3597.000000	59.510874 
3596.000000	59.524917 
3595.000000	59.540200 
3594.000000	59.558725 
3593.000000	59.581828 
3592.000000	59.608888 
3591.000000	59.637403 
3590.000000	59.663105 
3589.000000	59.681463 
3588.000000	59.688377 
3587.000000	59.681534 
3586.000000	59.660720 
3585.000000	59.628129 
3584.000000	59.587621 
3583.000000	59.544134 
3582.000000	59.502339 
3581.000000	59.465599 
3580.000000	59.435439 
3579.000000	59.411525 
3578.000000	59.392189 
3577.000000	59.375119 
3576.000000	59.358382 
3575.000000	59.341001 
3574.000000	59.323215 
3573.000000	59.306478 
3572.000000	59.292554 
3571.000000	59.283065 
3570.000000	59.278678 
3569.000000	59.279322 
3568.000000	59.283947 
3567.000000	59.291410 
3566.000000	59.300518 
3565.000000	59.310531 
3564.000000	59.321475 
3563.000000	59.333539 
3562.000000	59.347057 
3561.000000	59.361386 
3560.000000	59.374952 
3559.000000	59.384965 
3558.000000	59.388160 
3557.000000	59.381389 
3556.000000	59.362649 
3555.000000	59.331655 
3554.000000	59.290289 
3553.000000	59.241914 
3552.000000	59.190917 
3551.000000	59.141707 
3550.000000	59.098076 
3549.000000	59.062504 
3548.000000	59.035873 
3547.000000	59.017992 
3546.000000	59.007596 
3545.000000	59.002685 
3544.000000	59.001135 
3543.000000	59.000468 
3542.000000	58.998727 
3541.000000	58.994460 
3540.000000	58.987331 
3539.000000	58.977556 
3538.000000	58.966469 
3537.000000	58.956217 
3536.000000	58.949327 
3535.000000	58.948206 
3534.000000	58.954405 
3533.000000	58.968162 
3532.000000	58.988070 
3531.000000	59.011387 
3530.000000	59.034371 
3529.000000	59.053325 
3528.000000	59.065222 
3527.000000	59.068465 
3526.000000	59.062910 
3525.000000	59.049725 
3524.000000	59.031105 
3523.000000	59.009766 
3522.000000	58.988380 
3521.000000	58.968830 
3520.000000	58.952474 
3519.000000	58.939361 
3518.000000	58.928036 
3517.000000	58.915686 
3516.000000	58.898997 
3515.000000	58.874511 
3514.000000	58.839392 
3513.000000	58.792757 
3512.000000	58.735823 
3511.000000	58.672666 
3510.000000	58.609294 
3509.000000	58.553051 
3508.000000	58.511042 
3507.000000	58.488583 
3506.000000	58.487582 
3505.000000	58.506464 
3504.000000	58.540010 
3503.000000	58.581066 
3502.000000	58.621883 
3501.000000	58.656167 
3500.000000	58.680057 
3499.000000	58.692741 
3498.000000	58.696079 
3497.000000	58.693289 
3496.000000	58.688092 
3495.000000	58.683490 
3494.000000	58.681273 
3493.000000	58.682203 
3492.000000	58.685922 
3491.000000	58.692073 
3490.000000	58.700203 
3489.000000	58.710575 
3488.000000	58.723688 
3487.000000	58.739757 
3486.000000	58.758664 
3485.000000	58.779311 
3484.000000	58.800005 
3483.000000	58.818674 
3482.000000	58.833503 
3481.000000	58.843564 
3480.000000	58.848953 
3479.000000	58.850789 
3478.000000	58.850836 
3477.000000	58.850932 
3476.000000	58.852505 
3475.000000	58.856058 
3474.000000	58.861112 
3473.000000	58.866548 
3472.000000	58.870816 
3471.000000	58.872485 
3470.000000	58.870363 
3469.000000	58.863592 
3468.000000	58.852005 
3467.000000	58.835840 
3466.000000	58.815455 
3465.000000	58.791399 
3464.000000	58.764386 
3463.000000	58.735418 
3462.000000	58.705902 
3461.000000	58.677577 
3460.000000	58.652400 
3459.000000	58.632230 
3458.000000	58.618378 
3457.000000	58.611321 
3456.000000	58.610510 
3455.000000	58.614468 
3454.000000	58.620810 
3453.000000	58.626914 
3452.000000	58.630466 
3451.000000	58.629870 
3450.000000	58.624243 
3449.000000	58.613801 
3448.000000	58.599591 
3447.000000	58.583068 
3446.000000	58.565592 
3445.000000	58.548212 
3444.000000	58.531451 
3443.000000	58.515238 
3442.000000	58.499193 
3441.000000	58.482670 
3440.000000	58.465099 
3439.000000	58.446240 
3438.000000	58.426284 
3437.000000	58.405828 
3436.000000	58.385801 
3435.000000	58.367347 
3434.000000	58.351612 
3433.000000	58.339381 
3432.000000	58.330917 
3431.000000	58.326005 
3430.000000	58.323693 
3429.000000	58.322477 
3428.000000	58.320331 
3427.000000	58.315157 
3426.000000	58.305096 
3425.000000	58.288693 
3424.000000	58.265280 
3423.000000	58.235192 
3422.000000	58.199930 
3421.000000	58.161854 
3420.000000	58.124017 
3419.000000	58.089470 
3418.000000	58.061027 
3417.000000	58.040904 
3416.000000	58.030176 
3415.000000	58.028626 
3414.000000	58.035039 
3413.000000	58.047533 
3412.000000	58.063673 
3411.000000	58.081293 
3410.000000	58.098649 
3409.000000	58.114838 
3408.000000	58.129501 
3407.000000	58.142995 
3406.000000	58.155369 
3405.000000	58.166527 
3404.000000	58.175945 
3403.000000	58.182644 
3402.000000	58.185458 
3401.000000	58.183217 
3400.000000	58.175683 
3399.000000	58.163237 
3398.000000	58.147048 
3397.000000	58.128690 
3396.000000	58.109998 
3395.000000	58.092355 
3394.000000	58.076524 
3393.000000	58.062171 
3392.000000	58.048272 
3391.000000	58.033227 
3390.000000	58.015489 
3389.000000	57.993936 
3388.000000	57.968378 
3387.000000	57.939624 
3386.000000	57.909488 
3385.000000	57.880234 
3384.000000	57.854342 
3383.000000	57.833909 
3382.000000	57.820415 
3381.000000	57.814264 
3380.000000	57.814979 
3379.000000	57.821321 
3378.000000	57.831764 
3377.000000	57.844710 
3376.000000	57.858896 
3375.000000	57.873749 
3374.000000	57.889318 
3373.000000	57.905793 
3372.000000	57.923197 
3371.000000	57.941341 
3370.000000	57.959055 
3369.000000	57.974696 
3368.000000	57.985973 
3367.000000	57.990741 
3366.000000	57.987308 
3365.000000	57.975172 
3364.000000	57.955050 
3363.000000	57.928657 
3362.000000	57.898616 
3361.000000	57.867932 
3360.000000	57.839322 
3359.000000	57.814884 
3358.000000	57.796072 
3357.000000	57.783412 
3356.000000	57.776761 
3355.000000	57.775640 
3354.000000	57.779288 
3353.000000	57.786607 
3352.000000	57.796239 
3351.000000	57.806468 
3350.000000	57.814860 
3349.000000	57.819223 
3348.000000	57.817411 
3347.000000	57.808160 
3346.000000	57.791256 
3345.000000	57.767963 
3344.000000	57.740950 
3343.000000	57.713842 
3342.000000	57.690668 
3341.000000	57.674860 
3340.000000	57.668852 
3339.000000	57.673406 
3338.000000	57.687330 
3337.000000	57.707881 
3336.000000	57.731533 
3335.000000	57.754349 
3334.000000	57.772874 
3333.000000	57.784676 
3332.000000	57.788515 
3331.000000	57.784581 
3330.000000	57.773900 
3329.000000	57.758188 
3328.000000	57.739090 
3327.000000	57.718205 
3326.000000	57.696342 
3325.000000	57.673621 
3324.000000	57.649588 
3323.000000	57.623744 
3322.000000	57.595896 
3321.000000	57.566738 
3320.000000	57.537984 
3319.000000	57.512044 
3318.000000	57.491683 
3317.000000	57.479238 
3316.000000	57.475781 
3315.000000	57.480645 
3314.000000	57.491302 
3313.000000	57.503700 
3312.000000	57.513236 
3311.000000	57.515954 
3310.000000	57.509255 
3309.000000	57.492685 
3308.000000	57.468032 
3307.000000	57.438802 
3306.000000	57.409167 
3305.000000	57.382845 
3304.000000	57.362246 
3303.000000	57.348132 
3302.000000	57.339835 
3301.000000	57.335948 
3300.000000	57.335019 
3299.000000	57.335972 
3298.000000	57.338643 
3297.000000	57.343173 
3296.000000	57.349872 
3295.000000	57.358598 
3294.000000	57.368040 
3293.000000	57.376289 
3292.000000	57.380557 
3291.000000	57.378625 
3290.000000	57.369351 
3289.000000	57.353210 
3288.000000	57.332587 
3287.000000	57.311081 
3286.000000	57.292675 
3285.000000	57.280778 
3284.000000	57.277154 
3283.000000	57.281875 
3282.000000	57.293009 
3281.000000	57.307624 
3280.000000	57.322239 
3279.000000	57.333683 
3278.000000	57.339668 
3277.000000	57.339000 
3276.000000	57.331800 
3275.000000	57.318902 
3274.000000	57.301712 
3273.000000	57.281923 
3272.000000	57.260942 
3271.000000	57.240080 
3270.000000	57.220149 
3269.000000	57.201528 
3268.000000	57.184100 
3267.000000	57.167577 
3266.000000	57.151103 
3265.000000	57.133650 
3264.000000	57.114148 
3263.000000	57.091832 
3262.000000	57.066535 
3261.000000	57.038569 
3260.000000	57.009029 
3259.000000	56.979274 
3258.000000	56.951212 
3257.000000	56.926631 
3256.000000	56.907534 
3255.000000	56.895589 
3254.000000	56.892204 
3253.000000	56.898307 
3252.000000	56.913852 
3251.000000	56.937646 
3250.000000	56.967163 
3249.000000	56.998562 
3248.000000	57.027244 
3247.000000	57.048320 
3246.000000	57.057309 
3245.000000	57.051038 
3244.000000	57.028388 
3243.000000	56.990551 
3242.000000	56.940865 
3241.000000	56.884264 
3240.000000	56.826162 
3239.000000	56.771850 
3238.000000	56.725549 
3237.000000	56.690239 
3236.000000	56.667327 
3235.000000	56.657052 
3234.000000	56.658697 
3233.000000	56.671023 
3232.000000	56.692337 
3231.000000	56.720614 
3230.000000	56.753158 
3229.000000	56.787037 
3228.000000	56.819081 
3227.000000	56.846261 
3226.000000	56.865835 
3225.000000	56.876039 
3224.000000	56.876206 
3223.000000	56.866931 
3222.000000	56.849670 
3221.000000	56.826472 
3220.000000	56.799387 
3219.000000	56.770491 
3218.000000	56.741547 
3217.000000	56.714296 
3216.000000	56.690502 
3215.000000	56.672215 
3214.000000	56.661176 
3213.000000	56.658720 
3212.000000	56.665039 
3211.000000	56.679201 
3210.000000	56.698656 
3209.000000	56.719636 
3208.000000	56.737709 
3207.000000	56.748700 
3206.000000	56.749129 
3205.000000	56.737256 
3204.000000	56.712889 
3203.000000	56.677579 
3202.000000	56.634020 
3201.000000	56.585717 
3200.000000	56.536293 
3199.000000	56.489014 
3198.000000	56.446814 
3197.000000	56.412124 
3196.000000	56.387042 
3195.000000	56.373000 
3194.000000	56.370544 
3193.000000	56.379389 
3192.000000	56.397771 
3191.000000	56.423091 
3190.000000	56.451678 
3189.000000	56.479907 
3188.000000	56.504440 
3187.000000	56.522798 
3186.000000	56.533765 
3185.000000	56.536912 
3184.000000	56.533145 
3183.000000	56.523323 
3182.000000	56.508255 
3181.000000	56.488060 
3180.000000	56.462597 
3179.000000	56.431221 
3178.000000	56.393671 
3177.000000	56.350350 
3176.000000	56.302952 
3175.000000	56.254792 
3174.000000	56.210184 
3173.000000	56.173801 
3172.000000	56.149744 
3171.000000	56.140565 
3170.000000	56.146764 
3169.000000	56.166338 
3168.000000	56.195259 
3167.000000	56.228017 
3166.000000	56.259012 
3165.000000	56.283235 
3164.000000	56.297588 
3163.000000	56.300950 
3162.000000	56.294631 
3161.000000	56.281280 
3160.000000	56.264734 
3159.000000	56.248831 
3158.000000	56.236863 
3157.000000	56.230950 
3156.000000	56.231808 
3155.000000	56.239271 
3154.000000	56.252169 
3153.000000	56.269025 
3152.000000	56.287860 
3151.000000	56.306624 
3150.000000	56.323242 
3149.000000	56.335592 
3148.000000	56.341505 
3147.000000	56.338930 
3146.000000	56.326460 
3145.000000	56.303453 
3144.000000	56.270241 
3143.000000	56.228375 
3142.000000	56.180453 
3141.000000	56.129837 
3140.000000	56.080317 
3139.000000	56.035399 
3138.000000	55.997776 
3137.000000	55.968976 
3136.000000	55.949187 
3135.000000	55.937576 
3134.000000	55.932092 
3133.000000	55.930733 
3132.000000	55.931615 
3131.000000	55.933761 
3130.000000	55.936408 
3129.000000	55.939745 
3128.000000	55.943870 
3127.000000	55.949401 
3126.000000	55.956244 
3125.000000	55.964469 
3124.000000	55.974006 
3123.000000	55.984997 
3122.000000	55.997753 
3121.000000	56.012344 
3120.000000	56.028604 
3119.000000	56.045556 
3118.000000	56.061434 
3117.000000	56.073379 
3116.000000	56.077980 
3115.000000	56.072235 
3114.000000	56.054067 
3113.000000	56.023311 
3112.000000	55.981922 
3111.000000	55.934000 
3110.000000	55.884838 
3109.000000	55.839729 
3108.000000	55.802679 
3107.000000	55.775618 
3106.000000	55.758047 
3105.000000	55.747365 
3104.000000	55.739760 
3103.000000	55.731320 
3102.000000	55.719089 
3101.000000	55.701518 
3100.000000	55.679202 
3099.000000	55.653905 
3098.000000	55.628681 
3097.000000	55.606627 
3096.000000	55.590653 
3095.000000	55.582785 
3094.000000	55.584287 
3093.000000	55.595541 
3092.000000	55.616164 
3091.000000	55.644989 
3090.000000	55.680108 
3089.000000	55.718827 
3088.000000	55.757665 
3087.000000	55.792760 
3086.000000	55.820202 
3085.000000	55.836534 
3084.000000	55.839633 
3083.000000	55.828571 
3082.000000	55.804038 
3081.000000	55.768013 
3080.000000	55.723690 
3079.000000	55.674767 
3078.000000	55.625104 
3077.000000	55.578351 
3076.000000	55.537843 
3075.000000	55.506229 
3074.000000	55.485558 
3073.000000	55.476880 
3072.000000	55.480098 
3071.000000	55.493903 
3070.000000	55.515575 
3069.000000	55.541443 
3068.000000	55.567097 
3067.000000	55.588436 
3066.000000	55.602288 
3065.000000	55.607247 
3064.000000	55.603599 
3063.000000	55.593156 
3062.000000	55.578374 
3061.000000	55.562043 
3060.000000	55.546212 
3059.000000	55.532217 
3058.000000	55.520296 
3057.000000	55.510163 
3056.000000	55.500960 
3055.000000	55.492377 
3054.000000	55.483841 
3053.000000	55.475282 
3052.000000	55.466556 
3051.000000	55.457091 
3050.000000	55.446052 
3049.000000	55.432105 
3048.000000	55.413866 
3047.000000	55.390405 
3046.000000	55.361485 
3045.000000	55.328130 
3044.000000	55.292367 
3043.000000	55.256724 
3042.000000	55.223965 
3041.000000	55.196237 
3040.000000	55.175256 
3039.000000	55.162024 
3038.000000	55.156683 
3037.000000	55.158734 
3036.000000	55.167245 
3035.000000	55.181145 
3034.000000	55.198836 
3033.000000	55.218577 
3032.000000	55.238318 
3031.000000	55.256295 
3030.000000	55.271005 
3029.000000	55.281472 
3028.000000	55.287408 
3027.000000	55.289101 
3026.000000	55.287599 
3025.000000	55.283927 
3024.000000	55.278849 
3023.000000	55.272364 
3022.000000	55.264067 
3021.000000	55.252933 
3020.000000	55.238032 
3019.000000	55.218863 
3018.000000	55.195903 
3017.000000	55.170321 
3016.000000	55.144023 
3015.000000	55.118632 
3014.000000	55.095386 
3013.000000	55.074143 
3012.000000	55.053734 
3011.000000	55.031943 
3010.000000	55.006384 
3009.000000	54.975199 
3008.000000	54.938006 
3007.000000	54.896020 
3006.000000	54.852366 
3005.000000	54.811167 
3004.000000	54.777097 
3003.000000	54.753804 
3002.000000	54.743409 
3001.000000	54.745721 
3000.000000	54.758787 
2999.000000	54.778933 
2998.000000	54.801917 
2997.000000	54.824209 
2996.000000	54.843235 
2995.000000	54.857754 
2994.000000	54.867744 
2993.000000	54.873752 
2992.000000	54.876542 
2991.000000	54.876375 
2990.000000	54.872965 
2989.000000	54.865765 
2988.000000	54.854130 
2987.000000	54.838061 
2986.000000	54.818105 
2985.000000	54.795622 
2984.000000	54.772305 
2983.000000	54.749989 
2982.000000	54.730010 
2981.000000	54.713106 
2980.000000	54.699373 
2979.000000	54.688501 
2978.000000	54.679989 
2977.000000	54.673433 
2976.000000	54.668903 
2975.000000	54.666256 
2974.000000	54.665017 
2973.000000	54.664015 
2972.000000	54.661631 
2971.000000	54.655671 
2970.000000	54.644155 
2969.000000	54.625678 
2968.000000	54.600453 
2967.000000	54.569888 
2966.000000	54.536843 
2965.000000	54.504442 
2964.000000	54.475688 
2963.000000	54.452133 
2962.000000	54.433870 
2961.000000	54.419183 
2960.000000	54.405093 
2959.000000	54.388236 
2958.000000	54.365944 
2957.000000	54.336857 
2956.000000	54.301309 
2955.000000	54.261445 
2954.000000	54.220557 
2953.000000	54.182243 
2952.000000	54.149699 
2951.000000	54.124999 
2950.000000	54.108953 
2949.000000	54.101276 
2948.000000	54.100847 
2947.000000	54.106187 
2946.000000	54.115867 
2945.000000	54.128551 
2944.000000	54.143381 
2943.000000	54.159593 
2942.000000	54.176592 
2941.000000	54.193520 
2940.000000	54.209423 
2939.000000	54.223179 
2938.000000	54.233717 
2937.000000	54.240322 
2936.000000	54.242396 
2935.000000	54.239749 
2934.000000	54.232215 
2933.000000	54.219937 
2932.000000	54.202532 
2931.000000	54.179382 
2930.000000	54.149842 
2929.000000	54.113769 
2928.000000	54.071903 
2927.000000	54.026174 
2926.000000	53.979778 
2925.000000	53.936910 
2924.000000	53.901839 
2923.000000	53.878140 
2922.000000	53.867697 
2921.000000	53.870248 
2920.000000	53.883290 
2919.000000	53.902602 
2918.000000	53.922986 
2917.000000	53.939485 
2916.000000	53.948497 
2915.000000	53.948092 
2914.000000	53.938269 
2913.000000	53.920650 
2912.000000	53.897881 
2911.000000	53.872990 
2910.000000	53.848361 
2909.000000	53.825926 
2908.000000	53.806900 
2907.000000	53.792119 
2906.000000	53.782176 
2905.000000	53.777623 
2904.000000	53.778886 
2903.000000	53.786087 
2902.000000	53.798866 
2901.000000	53.815913 
2900.000000	53.834915 
2899.000000	53.853034 
2898.000000	53.866982 
2897.000000	53.873753 
2896.000000	53.871011 
2895.000000	53.857731 
2894.000000	53.834509 
2893.000000	53.803205 
2892.000000	53.766655 
2891.000000	53.728365 
2890.000000	53.691864 
2889.000000	53.660321 
2888.000000	53.635978 
2887.000000	53.620100 
2886.000000	53.612565 
2885.000000	53.612256 
2884.000000	53.617095 
2883.000000	53.624343 
2882.000000	53.631353 
2881.000000	53.635787 
2880.000000	53.636288 
2879.000000	53.632426 
2878.000000	53.624796 
2877.000000	53.614687 
2876.000000	53.603672 
2875.000000	53.593277 
2874.000000	53.584671 
2873.000000	53.578376 
2872.000000	53.574442 
2871.000000	53.572249 
2870.000000	53.571176 
2869.000000	53.570365 
2868.000000	53.569054 
2867.000000	53.566431 
2866.000000	53.561806 
2865.000000	53.554511 
2864.000000	53.543758 
2863.000000	53.529286 
2862.000000	53.511404 
2861.000000	53.491020 
2860.000000	53.469872 
2859.000000	53.449869 
2858.000000	53.432679 
2857.000000	53.419327 
2856.000000	53.409886 
2855.000000	53.403472 
2854.000000	53.398418 
2853.000000	53.392791 
2852.000000	53.385138 
2851.000000	53.374600 
2850.000000	53.361511 
2849.000000	53.346943 
2848.000000	53.332352 
2847.000000	53.319525 
2846.000000	53.309893 
2845.000000	53.304123 
2844.000000	53.302168 
2843.000000	53.303313 
2842.000000	53.306365 
2841.000000	53.309869 
2840.000000	53.312516 
2839.000000	53.313159 
2838.000000	53.310847 
2837.000000	53.304934 
2836.000000	53.295087 
2835.000000	53.281426 
2834.000000	53.264689 
2833.000000	53.246045 
2832.000000	53.227114 
2831.000000	53.209686 
2830.000000	53.195309 
2829.000000	53.185248 
2828.000000	53.180027 
2827.000000	53.179168 
2826.000000	53.181481 
2825.000000	53.185057 
2824.000000	53.187942 
2823.000000	53.188157 
2822.000000	53.184151 
2821.000000	53.175258 
2820.000000	53.161549 
2819.000000	53.143858 
2818.000000	53.123569 
2817.000000	53.102374 
2816.000000	53.082060 
2815.000000	53.064131 
2814.000000	53.049683 
2813.000000	53.039026 
2812.000000	53.031635 
2811.000000	53.026103 
2810.000000	53.020334 
2809.000000	53.012466 
2808.000000	53.001260 
2807.000000	52.986598 
2806.000000	52.969479 
2805.000000	52.951765 
2804.000000	52.935624 
2803.000000	52.922940 
2802.000000	52.914524 
2801.000000	52.910280 
2800.000000	52.908921 
2799.000000	52.908563 
2798.000000	52.907299 
2797.000000	52.903413 
2796.000000	52.895951 
2795.000000	52.884483 
2794.000000	52.869343 
2793.000000	52.851104 
2792.000000	52.830600 
2791.000000	52.808785 
2790.000000	52.786397 
2789.000000	52.764368 
2788.000000	52.743530 
2787.000000	52.724957 
2786.000000	52.709341 
2785.000000	52.697014 
2784.000000	52.687692 
2783.000000	52.680468 
2782.000000	52.674102 
2781.000000	52.667093 
2780.000000	52.658319 
2779.000000	52.647328 
2778.000000	52.634596 
2777.000000	52.621245 
2776.000000	52.608799 
2775.000000	52.598643 
2774.000000	52.591490 
2773.000000	52.587008 
2772.000000	52.583765 
2771.000000	52.579736 
2770.000000	52.572727 
2769.000000	52.561092 
2768.000000	52.544093 
2767.000000	52.522206 
2766.000000	52.496933 
2765.000000	52.470397 
2764.000000	52.444720 
2763.000000	52.421617 
2762.000000	52.402210 
2761.000000	52.386999 
2760.000000	52.376079 
2759.000000	52.369356 
2758.000000	52.366423 
2757.000000	52.367091 
2756.000000	52.370834 
2755.000000	52.376985 
2754.000000	52.384519 
2753.000000	52.392315 
2752.000000	52.398800 
2751.000000	52.402901 
2750.000000	52.404189 
2749.000000	52.402687 
2748.000000	52.399206 
2747.000000	52.394533 
2746.000000	52.389359 
2745.000000	52.383637 
2744.000000	52.376556 
2743.000000	52.366709 
2742.000000	52.352571 
2741.000000	52.333188 
2740.000000	52.308654 
2739.000000	52.280306 
2738.000000	52.250552 
2737.000000	52.222394 
2736.000000	52.198743 
2735.000000	52.181911 
2734.000000	52.172875 
2733.000000	52.171230 
2732.000000	52.174949 
2731.000000	52.181029 
2730.000000	52.186036 
2729.000000	52.186822 
2728.000000	52.181005 
2727.000000	52.167439 
2726.000000	52.146148 
2725.000000	52.118420 
2724.000000	52.086424 
2723.000000	52.052664 
2722.000000	52.019548 
2721.000000	51.989006 
2720.000000	51.961946 
2719.000000	51.938414 
2718.000000	51.917457 
2717.000000	51.897764 
2716.000000	51.878070 
2715.000000	51.857852 
2714.000000	51.837325 
2713.000000	51.817440 
2712.000000	51.799511 
2711.000000	51.784729 
2710.000000	51.773595 
2709.000000	51.765727 
2708.000000	51.759815 
2707.000000	51.754307 
2706.000000	51.747655 
2705.000000	51.738977 
2704.000000	51.728296 
2703.000000	51.716709 
2702.000000	51.705956 
2701.000000	51.698303 
2700.000000	51.695489 
2699.000000	51.698660 
2698.000000	51.707768 
2697.000000	51.721835 
2696.000000	51.739144 
2695.000000	51.757645 
2694.000000	51.775503 
2693.000000	51.790881 
2692.000000	51.802515 
2691.000000	51.809120 
2690.000000	51.809859 
2689.000000	51.803898 
2688.000000	51.790618 
2687.000000	51.769804 
2686.000000	51.741695 
2685.000000	51.707077 
2684.000000	51.667165 
2683.000000	51.623916 
2682.000000	51.579570 
2681.000000	51.536488 
2680.000000	51.496839 
2679.000000	51.462221 
2678.000000	51.433658 
2677.000000	51.411318 
2676.000000	51.394605 
2675.000000	51.382160 
2674.000000	51.372504 
2673.000000	51.363849 
2672.000000	51.355075 
2671.000000	51.345300 
2670.000000	51.334285 
2669.000000	51.322293 
2668.000000	51.309800 
2667.000000	51.297402 
2666.000000	51.285314 
2665.000000	51.273274 
2664.000000	51.260709 
2663.000000	51.246786 
2662.000000	51.230955 
2661.000000	51.213169 
2660.000000	51.194214 
2659.000000	51.175618 
2658.000000	51.159310 
2657.000000	51.147007 
2656.000000	51.139783 
2655.000000	51.137566 
2654.000000	51.139020 
2653.000000	51.141715 
2652.000000	51.142692 
2651.000000	51.138997 
2650.000000	51.128506 
2649.000000	51.110196 
2648.000000	51.084780 
2647.000000	51.054310 
2646.000000	51.021862 
2645.000000	50.990962 
2644.000000	50.964736 
2643.000000	50.945329 
2642.000000	50.933575 
2641.000000	50.928831 
2640.000000	50.929355 
2639.000000	50.932693 
2638.000000	50.936460 
2637.000000	50.938987 
2636.000000	50.939512 
2635.000000	50.938510 
2634.000000	50.937199 
2633.000000	50.937438 
2632.000000	50.940775 
2631.000000	50.948023 
2630.000000	50.958681 
2629.000000	50.971126 
2628.000000	50.982689 
2627.000000	50.990390 
2626.000000	50.991225 
2625.000000	50.983333 
2624.000000	50.965976 
2623.000000	50.939750 
2622.000000	50.906419 
2621.000000	50.868368 
2620.000000	50.828170 
2619.000000	50.788164 
2618.000000	50.750160 
2617.000000	50.715351 
2616.000000	50.684237 
2615.000000	50.656938 
2614.000000	50.633478 
2613.000000	50.613975 
2612.000000	50.598716 
2611.000000	50.588154 
2610.000000	50.582885 
2609.000000	50.583028 
2608.000000	50.588417 
2607.000000	50.598287 
2606.000000	50.611162 
2605.000000	50.625014 
2604.000000	50.637531 
2603.000000	50.646710 
2602.000000	50.650882 
2601.000000	50.649094 
2600.000000	50.641345 
2599.000000	50.628256 
2598.000000	50.611114 
2597.000000	50.591325 
2596.000000	50.570201 
2595.000000	50.548648 
2594.000000	50.527143 
2593.000000	50.505709 
2592.000000	50.484204 
2591.000000	50.462388 
2590.000000	50.440478 
2589.000000	50.418877 
2588.000000	50.398206 
2587.000000	50.379180 
2586.000000	50.362396 
2585.000000	50.348329 
2584.000000	50.337004 
2583.000000	50.327992 
2582.000000	50.320506 
2581.000000	50.313472 
2580.000000	50.305867 
2579.000000	50.296711 
2578.000000	50.285315 
2577.000000	50.271415 
2576.000000	50.255060 
2575.000000	50.236773 
2574.000000	50.217318 
2573.000000	50.197649 
2572.000000	50.178766 
2571.000000	50.161385 
2570.000000	50.145888 
2569.000000	50.132298 
2568.000000	50.120306 
2567.000000	50.109434 
2566.000000	50.099349 
2565.000000	50.090193 
2564.000000	50.082492 
2563.000000	50.077271 
2562.000000	50.075292 
2561.000000	50.076699 
2560.000000	50.080657 
2559.000000	50.085377 
2558.000000	50.088310 
2557.000000	50.086712 
2556.000000	50.078535 
2555.000000	50.063014 
2554.000000	50.040984 
2553.000000	50.014901 
2552.000000	49.988198 
2551.000000	49.964690 
2550.000000	49.947547 
2549.000000	49.938893 
2548.000000	49.939107 
2547.000000	49.946784 
2546.000000	49.959278 
2545.000000	49.973154 
2544.000000	49.985122 
2543.000000	49.992465 
2542.000000	49.993324 
2541.000000	49.987220 
2540.000000	49.974298 
2539.000000	49.955868 
2538.000000	49.933671 
2537.000000	49.909734 
2536.000000	49.886298 
2535.000000	49.865245 
2534.000000	49.848055 
2533.000000	49.835443 
2532.000000	49.827432 
2531.000000	49.823427 
2530.000000	49.822306 
2529.000000	49.822473 
2528.000000	49.822044 
2527.000000	49.818825 
2526.000000	49.810886 
2525.000000	49.796581 
2524.000000	49.774885 
2523.000000	49.745702 
2522.000000	49.710106 
2521.000000	49.670243 
2520.000000	49.628949 
2519.000000	49.589252 
2518.000000	49.553799 
2517.000000	49.524164 
2516.000000	49.500608 
2515.000000	49.482083 
2514.000000	49.466824 
2513.000000	49.452376 
2512.000000	49.437189 
2511.000000	49.420642 
2510.000000	49.403643 
2509.000000	49.388003 
2508.000000	49.376034 
2507.000000	49.369144 
2506.000000	49.367570 
2505.000000	49.369812 
2504.000000	49.373245 
2503.000000	49.374532 
2502.000000	49.371004 
2501.000000	49.361491 
2500.000000	49.346709 
2499.000000	49.328994 
2498.000000	49.311566 
2497.000000	49.297571 
2496.000000	49.288821 
2495.000000	49.285030 
2494.000000	49.284052 
2493.000000	49.282264 
2492.000000	49.275779 
2491.000000	49.261522 
2490.000000	49.238348 
2489.000000	49.207448 
2488.000000	49.171710 
2487.000000	49.135065 
2486.000000	49.101400 
2485.000000	49.073863 
2484.000000	49.053883 
2483.000000	49.041485 
2482.000000	49.035620 
2481.000000	49.034523 
2480.000000	49.036407 
2479.000000	49.039983 
2478.000000	49.044370 
2477.000000	49.049305 
2476.000000	49.054503 
2475.000000	49.059724 
2474.000000	49.064373 
2473.000000	49.067759 
2472.000000	49.069190 
2471.000000	49.068117 
2470.000000	49.064517 
2469.000000	49.058651 
2468.000000	49.050998 
2467.000000	49.041986 
2466.000000	49.031662 
2465.000000	49.019670 
2464.000000	49.005222 
2463.000000	48.987364 
2462.000000	48.965239 
2461.000000	48.938632 
2460.000000	48.908090 
2459.000000	48.874902 
2458.000000	48.841214 
2457.000000	48.809623 
2456.000000	48.782849 
2455.000000	48.763108 
2454.000000	48.751735 
2453.000000	48.748850 
2452.000000	48.753499 
2451.000000	48.763895 
2450.000000	48.777604 
2449.000000	48.792123 
2448.000000	48.805379 
2447.000000	48.815822 
2446.000000	48.822903 
2445.000000	48.826909 
2444.000000	48.828506 
2443.000000	48.828411 
2442.000000	48.826980 
2441.000000	48.823761 
2440.000000	48.817610 
2439.000000	48.806595 
2438.000000	48.788809 
2437.000000	48.762679 
2436.000000	48.727583 
2435.000000	48.684167 
2434.000000	48.634362 
2433.000000	48.581361 
2432.000000	48.528790 
2431.000000	48.480534 
2430.000000	48.440027 
2429.000000	48.409819 
2428.000000	48.391366 
2427.000000	48.384904 
2426.000000	48.389339 
2425.000000	48.402571 
2424.000000	48.421669 
2423.000000	48.443150 
2422.000000	48.463296 
2421.000000	48.478603 
2420.000000	48.485994 
2419.000000	48.483419 
2418.000000	48.470020 
2417.000000	48.446321 
2416.000000	48.414015 
2415.000000	48.375892 
2414.000000	48.335218 
2413.000000	48.295140 
2412.000000	48.258209 
2411.000000	48.226141 
2410.000000	48.199367 
2409.000000	48.177385 
2408.000000	48.158836 
2407.000000	48.141956 
2406.000000	48.125147 
2405.000000	48.107147 
2404.000000	48.087882 
2403.000000	48.067855 
2402.000000	48.048520 
2401.000000	48.031592 
2400.000000	48.018765 
2399.000000	48.010969 
2398.000000	48.008298 
2397.000000	48.009848 
2396.000000	48.013973 
2395.000000	48.018622 
2394.000000	48.021769 
2393.000000	48.022031 
2392.000000	48.018622 
2391.000000	48.011755 
2390.000000	48.002028 
2389.000000	47.990226 
2388.000000	47.976803 
2387.000000	47.961759 
2386.000000	47.944474 
2385.000000	47.924256 
2384.000000	47.900509 
2383.000000	47.873425 
2382.000000	47.844147 
2381.000000	47.814726 
2380.000000	47.787714 
2379.000000	47.765517 
2378.000000	47.749805 
2377.000000	47.741222 
2376.000000	47.739148 
2375.000000	47.741937 
2374.000000	47.747325 
2373.000000	47.753143 
2372.000000	47.757744 
2371.000000	47.760367 
2370.000000	47.761034 
2369.000000	47.760272 
2368.000000	47.758769 
2367.000000	47.757124 
2366.000000	47.755360 
2365.000000	47.753071 
2364.000000	47.749519 
2363.000000	47.743892 
2362.000000	47.735714 
2361.000000	47.724962 
2360.000000	47.711992 
2359.000000	47.697591 
2358.000000	47.682404 
2357.000000	47.666859 
2356.000000	47.650933 
2355.000000	47.634124 
2354.000000	47.615599 
2353.000000	47.594308 
2352.000000	47.569179 
2351.000000	47.539591 
2350.000000	47.505545 
2349.000000	47.467660 
2348.000000	47.427296 
2347.000000	47.386193 
2346.000000	47.346448 
2345.000000	47.309899 
2344.000000	47.278475 
2343.000000	47.253346 
2342.000000	47.235512 
2341.000000	47.225332 
2340.000000	47.222638 
2339.000000	47.226619 
2338.000000	47.235870 
2337.000000	47.248411 
2336.000000	47.261881 
2335.000000	47.273707 
2334.000000	47.281360 
2333.000000	47.282934 
2332.000000	47.277426 
2331.000000	47.264790 
2330.000000	47.246170 
2329.000000	47.223472 
2328.000000	47.199201 
2327.000000	47.175431 
2326.000000	47.153639 
2325.000000	47.134351 
2324.000000	47.117042 
2323.000000	47.100758 
2322.000000	47.084450 
2321.000000	47.067642 
2320.000000	47.050619 
2319.000000	47.034573 
2318.000000	47.021055 
2317.000000	47.011709 
2316.000000	47.007560 
2315.000000	47.008657 
2314.000000	47.013854 
2313.000000	47.021150 
2312.000000	47.028255 
2311.000000	47.033166 
2310.000000	47.034645 
2309.000000	47.032380 
2308.000000	47.027063 
2307.000000	47.019815 
2306.000000	47.011923 
2305.000000	47.004127 
2304.000000	46.996355 
2303.000000	46.987962 
2302.000000	46.977639 
2301.000000	46.964216 
2300.000000	46.946644 
2299.000000	46.924471 
2298.000000	46.897697 
2297.000000	46.867060 
2296.000000	46.833634 
2295.000000	46.798706 
2294.000000	46.763682 
2293.000000	46.729993 
2292.000000	46.699047 
2291.000000	46.671962 
2290.000000	46.649622 
2289.000000	46.632432 
2288.000000	46.620416 
2287.000000	46.613001 
2286.000000	46.609067 
2285.000000	46.606993 
2284.000000	46.604967 
2283.000000	46.601247 
2282.000000	46.594429 
2281.000000	46.583795 
2280.000000	46.569395 
2279.000000	46.551966 
2278.000000	46.532773 
2277.000000	46.513319 
2276.000000	46.495056 
2275.000000	46.479201 
2274.000000	46.466422 
2273.000000	46.456909 
2272.000000	46.450424 
2271.000000	46.446394 
2270.000000	46.444272 
2269.000000	46.443319 
2268.000000	46.442866 
2267.000000	46.442317 
2266.000000	46.441006 
2265.000000	46.438217 
2264.000000	46.432995 
2263.000000	46.424531 
2262.000000	46.412253 
2261.000000	46.396088 
2260.000000	46.376466 
2259.000000	46.354413 
2258.000000	46.331596 
2257.000000	46.309852 
2256.000000	46.290802 
2255.000000	46.275472 
2254.000000	46.264052 
2253.000000	46.255850 
2252.000000	46.249079 
2251.000000	46.241617 
2250.000000	46.231269 
2249.000000	46.216464 
2248.000000	46.196460 
2247.000000	46.171665 
2246.000000	46.143555 
2245.000000	46.114301 
2244.000000	46.086287 
2243.000000	46.061563 
2242.000000	46.041369 
2241.000000	46.026086 
2240.000000	46.014881 
2239.000000	46.006298 
2238.000000	45.998597 
2237.000000	45.990109 
2236.000000	45.979785 
2235.000000	45.967149 
2234.000000	45.952582 
2233.000000	45.936799 
2232.000000	45.920872 
2231.000000	45.905637 
2230.000000	45.891714 
2229.000000	45.879554 
2228.000000	45.869326 
2227.000000	45.860767 
2226.000000	45.853543 
2225.000000	45.847201 
2224.000000	45.841145 
2223.000000	45.834732 
2222.000000	45.827221 
2221.000000	45.818042 
2220.000000	45.806717 
2219.000000	45.793247 
2218.000000	45.778250 
2217.000000	45.762419 
2216.000000	45.747160 
2215.000000	45.733737 
2214.000000	45.723080 
2213.000000	45.715475 
2212.000000	45.710372 
2211.000000	45.706582 
2210.000000	45.702385 
2209.000000	45.695781 
2208.000000	45.685005 
2207.000000	45.668840 
2206.000000	45.646810 
2205.000000	45.619082 
2204.000000	45.586490 
2203.000000	45.550251 
2202.000000	45.511817 
2201.000000	45.472717 
2200.000000	45.434212 
2199.000000	45.397686 
2198.000000	45.364284 
2197.000000	45.335102 
2196.000000	45.310902 
2195.000000	45.292186 
2194.000000	45.279097 
2193.000000	45.271134 
2192.000000	45.267534 
2191.000000	45.267152 
2190.000000	45.268774 
2189.000000	45.271205 
2188.000000	45.273327 
2187.000000	45.273947 
2186.000000	45.271944 
2185.000000	45.266437 
2184.000000	45.256829 
2183.000000	45.242953 
2182.000000	45.225071 
2181.000000	45.204138 
2180.000000	45.181560 
2179.000000	45.159053 
2178.000000	45.138072 
2177.000000	45.119643 
2176.000000	45.103955 
2175.000000	45.090293 
2174.000000	45.077443 
2173.000000	45.064115 
2172.000000	45.049405 
2171.000000	45.033168 
2170.000000	45.016312 
2169.000000	45.000362 
2168.000000	44.986820 
2167.000000	44.976568 
2166.000000	44.969415 
2165.000000	44.964408 
2164.000000	44.959878 
2163.000000	44.954514 
2162.000000	44.947648 
2161.000000	44.939589 
2160.000000	44.931936 
2159.000000	44.926643 
2158.000000	44.925355 
2157.000000	44.928455 
2156.000000	44.934701 
2155.000000	44.940972 
2154.000000	44.943189 
2153.000000	44.937181 
2152.000000	44.920063 
2151.000000	44.891262 
2150.000000	44.853115 
2149.000000	44.810342 
2148.000000	44.769120 
2147.000000	44.735670 
2146.000000	44.714879 
2145.000000	44.709467 
2144.000000	44.719266 
2143.000000	44.741559 
2142.000000	44.771432 
2141.000000	44.802832 
2140.000000	44.829416 
2139.000000	44.845890 
2138.000000	44.848585 
2137.000000	44.835901 
2136.000000	44.808602 
2135.000000	44.769454 
2134.000000	44.722414 
2133.000000	44.672131 
2132.000000	44.622802 
2131.000000	44.577884 
2130.000000	44.539308 
2129.000000	44.507765 
2128.000000	44.482779 
2127.000000	44.463157 
2126.000000	44.447660 
2125.000000	44.435429 
2124.000000	44.426083 
2123.000000	44.419646 
2122.000000	44.416236 
2121.000000	44.415545 
2120.000000	44.416451 
2119.000000	44.417285 
2118.000000	44.416093 
2117.000000	44.411182 
2116.000000	44.401884 
2115.000000	44.388723 
2114.000000	44.373083 
2113.000000	44.357013 
2112.000000	44.342589 
2111.000000	44.331264 
2110.000000	44.323658 
2109.000000	44.319319 
2108.000000	44.316625 
2107.000000	44.313430 
2106.000000	44.307661 
2105.000000	44.297361 
2104.000000	44.281530 
2103.000000	44.259905 
2102.000000	44.233012 
2101.000000	44.202208 
2100.000000	44.169330 
2099.000000	44.136476 
2098.000000	44.105577 
2097.000000	44.078254 
2096.000000	44.055724 
2095.000000	44.038295 
2094.000000	44.025731 
2093.000000	44.016861 
2092.000000	44.010162 
2091.000000	44.004201 
2090.000000	43.997859 
2089.000000	43.990874 
2088.000000	43.983483 
2087.000000	43.976330 
2086.000000	43.970060 
2085.000000	43.964862 
2084.000000	43.959999 
2083.000000	43.953967 
2082.000000	43.944597 
2081.000000	43.929767 
2080.000000	43.907785 
2079.000000	43.877911 
2078.000000	43.840932 
2077.000000	43.798995 
2076.000000	43.755435 
2075.000000	43.714165 
2074.000000	43.678903 
2073.000000	43.652415 
2072.000000	43.635773 
2071.000000	43.628358 
2070.000000	43.627762 
2069.000000	43.630480 
2068.000000	43.632483 
2067.000000	43.629837 
2066.000000	43.619823 
2065.000000	43.601202 
2064.000000	43.574523 
2063.000000	43.541979 
2062.000000	43.506860 
2061.000000	43.472886 
2060.000000	43.443274 
2059.000000	43.420290 
2058.000000	43.404889 
2057.000000	43.396687 
2056.000000	43.394398 
2055.000000	43.396449 
2054.000000	43.401098 
2053.000000	43.407201 
2052.000000	43.413949 
2051.000000	43.420934 
2050.000000	43.427801 
2049.000000	43.433952 
2048.000000	43.438482 
2047.000000	43.440127 
2046.000000	43.437623 
2045.000000	43.429970 
2044.000000	43.416571 
2043.000000	43.397498 
2042.000000	43.373751 
2041.000000	43.346834 
2040.000000	43.318414 
2039.000000	43.290114 
2038.000000	43.263196 
2037.000000	43.238449 
2036.000000	43.216180 
2035.000000	43.196415 
2034.000000	43.178892 
2033.000000	43.163609 
2032.000000	43.150806 
2031.000000	43.140625 
2030.000000	43.133401 
2029.000000	43.128848 
2028.000000	43.126535 
2027.000000	43.125391 
2026.000000	43.124246 
2025.000000	43.121814 
2024.000000	43.116927 
2023.000000	43.109059 
2022.000000	43.098187 
2021.000000	43.084788 
2020.000000	43.069720 
2019.000000	43.053936 
2018.000000	43.038225 
2017.000000	43.023324 
2016.000000	43.009614 
2015.000000	42.997312 
2014.000000	42.986464 
2013.000000	42.977070 
2012.000000	42.968964 
2011.000000	42.961764 
2010.000000	42.954468 
2009.000000	42.945623 
2008.000000	42.933368 
2007.000000	42.915892 
2006.000000	42.891883 
2005.000000	42.861032 
2004.000000	42.824292 
2003.000000	42.784118 
2002.000000	42.743825 
2001.000000	42.707228 
2000.000000	42.677831 
1999.000000	42.658019 
1998.000000	42.648816 
1997.000000	42.649602 
1996.000000	42.658448 
1995.000000	42.672395 
1994.000000	42.688202 
1993.000000	42.702937 
1992.000000	42.714166 
1991.000000	42.720246 
1990.000000	42.720389 
1989.000000	42.714738 
1988.000000	42.703795 
1987.000000	42.688560 
1986.000000	42.670106 
1985.000000	42.649722 
1984.000000	42.628431 
1983.000000	42.606949 
1982.000000	42.585539 
1981.000000	42.564034 
1980.000000	42.541956 
1979.000000	42.518782 
1978.000000	42.494320 
1977.000000	42.468905 
1976.000000	42.443609 
1975.000000	42.419910 
1974.000000	42.399525 
1973.000000	42.383956 
1972.000000	42.374086 
1971.000000	42.369675 
1970.000000	42.369389 
1969.000000	42.371034 
1968.000000	42.371869 
1967.000000	42.369127 
1966.000000	42.360663 
1965.000000	42.345404 
1964.000000	42.323660 
1963.000000	42.296862 
1962.000000	42.267251 
1961.000000	42.237401 
1960.000000	42.209672 
1959.000000	42.185759 
1958.000000	42.166447 
1957.000000	42.151498 
1956.000000	42.139911 
1955.000000	42.130303 
1954.000000	42.121219 
1953.000000	42.111635 
1952.000000	42.101120 
1951.000000	42.089796 
1950.000000	42.078304 
1949.000000	42.067408 
1948.000000	42.057704 
1947.000000	42.049288 
1946.000000	42.041707 
1945.000000	42.033791 
1944.000000	42.024111 
1943.000000	42.011237 
1942.000000	41.994190 
1941.000000	41.972827 
1940.000000	41.948151 
1939.000000	41.922068 
1938.000000	41.896963 
1937.000000	41.875386 
1936.000000	41.859340 
1935.000000	41.849899 
1934.000000	41.846799 
1933.000000	41.848683 
1932.000000	41.853380 
1931.000000	41.858553 
1930.000000	41.862154 
1929.000000	41.862654 
1928.000000	41.859412 
1927.000000	41.852498 
1926.000000	41.842484 
1925.000000	41.829991 
1924.000000	41.815423 
1923.000000	41.799068 
1922.000000	41.780781 
1921.000000	41.760396 
1920.000000	41.737771 
1919.000000	41.713356 
1918.000000	41.688036 
1917.000000	41.663098 
1916.000000	41.640067 
1915.000000	41.620087 
1914.000000	41.603732 
1913.000000	41.590785 
1912.000000	41.580080 
1911.000000	41.569828 
1910.000000	41.557931 
1909.000000	41.542577 
1908.000000	41.522717 
1907.000000	41.498303 
1906.000000	41.470408 
1905.000000	41.440796 
1904.000000	41.411709 
1903.000000	41.385316 
1902.000000	41.363215 
1901.000000	41.346168 
1900.000000	41.334033 
1899.000000	41.325974 
1898.000000	41.320848 
1897.000000	41.317462 
1896.000000	41.314959 
1895.000000	41.312623 
1894.000000	41.309785 
1893.000000	41.305828 
1892.000000	41.299867 
1891.000000	41.290903 
1890.000000	41.277813 
1889.000000	41.259741 
1888.000000	41.236472 
1887.000000	41.208505 
1886.000000	41.177153 
1885.000000	41.144275 
1884.000000	41.112160 
1883.000000	41.082859 
1882.000000	41.057848 
1881.000000	41.038036 
1880.000000	41.023468 
1879.000000	41.013383 
1878.000000	41.006636 
1877.000000	41.001844 
1876.000000	40.997695 
1875.000000	40.992951 
1874.000000	40.986466 
1873.000000	40.977406 
1872.000000	40.965151 
1871.000000	40.949535 
1870.000000	40.930962 
1869.000000	40.910458 
1868.000000	40.889382 
1867.000000	40.869426 
1866.000000	40.852141 
1865.000000	40.838503 
1864.000000	40.828585 
1863.000000	40.821647 
1862.000000	40.816116 
1861.000000	40.809988 
1860.000000	40.801358 
1859.000000	40.788793 
1858.000000	40.771865 
1857.000000	40.751075 
1856.000000	40.728235 
1855.000000	40.705728 
1854.000000	40.686440 
1853.000000	40.672826 
1852.000000	40.666580 
1851.000000	40.668129 
1850.000000	40.676665 
1849.000000	40.690135 
1848.000000	40.705680 
1847.000000	40.719819 
1846.000000	40.729236 
1845.000000	40.731287 
1844.000000	40.724253 
1843.000000	40.707778 
1842.000000	40.682673 
1841.000000	40.650820 
1840.000000	40.614891 
1839.000000	40.577816 
1838.000000	40.542411 
1837.000000	40.510797 
1836.000000	40.484619 
1835.000000	40.464186 
1834.000000	40.449357 
1833.000000	40.439057 
1832.000000	40.431928 
1831.000000	40.426301 
1830.000000	40.420818 
1829.000000	40.414428 
1828.000000	40.406489 
1827.000000	40.396904 
1826.000000	40.385842 
1825.000000	40.373969 
1824.000000	40.362024 
1823.000000	40.350866 
1822.000000	40.341067 
1821.000000	40.333032 
1820.000000	40.326762 
1819.000000	40.321874 
1818.000000	40.317440 
1817.000000	40.312099 
1816.000000	40.304112 
1815.000000	40.291738 
1814.000000	40.273380 
1813.000000	40.248036 
1812.000000	40.215349 
1811.000000	40.175890 
1810.000000	40.131330 
1809.000000	40.083956 
1808.000000	40.036749 
1807.000000	39.992809 
1806.000000	39.955163 
1805.000000	39.926195 
1804.000000	39.907526 
1803.000000	39.899635 
1802.000000	39.901733 
1801.000000	39.911937 
1800.000000	39.927268 
1799.000000	39.944148 
1798.000000	39.958834 
1797.000000	39.968180 
1796.000000	39.970016 
1795.000000	39.963436 
1794.000000	39.949131 
1793.000000	39.929032 
1792.000000	39.906167 
1791.000000	39.883732 
1790.000000	39.864850 
1789.000000	39.851617 
1788.000000	39.844894 
1787.000000	39.844155 
1786.000000	39.847874 
1785.000000	39.853811 
1784.000000	39.859676 
1783.000000	39.863395 
1782.000000	39.863848 
1781.000000	39.860606 
1780.000000	39.854145 
1779.000000	39.845252 
1778.000000	39.834737 
1777.000000	39.822864 
1776.000000	39.809632 
1775.000000	39.794397 
1774.000000	39.776277 
1773.000000	39.754438 
1772.000000	39.728641 
1771.000000	39.699363 
1770.000000	39.668083 
1769.000000	39.636921 
1768.000000	39.608144 
1767.000000	39.583730 
1766.000000	39.564800 
1765.000000	39.551234 
1764.000000	39.541506 
1763.000000	39.533162 
1762.000000	39.523386 
1761.000000	39.509463 
1760.000000	39.489459 
1759.000000	39.462685 
1758.000000	39.429807 
1757.000000	39.392662 
1756.000000	39.353990 
1755.000000	39.316940 
1754.000000	39.284443 
1753.000000	39.258718 
1752.000000	39.240908 
1751.000000	39.230823 
1750.000000	39.227247 
1749.000000	39.228034 
1748.000000	39.230751 
1747.000000	39.233183 
1746.000000	39.233779 
1745.000000	39.231681 
1744.000000	39.227056 
1743.000000	39.220905 
1742.000000	39.214539 
1741.000000	39.209175 
1740.000000	39.205646 
1739.000000	39.203834 
1738.000000	39.203095 
1737.000000	39.202189 
1736.000000	39.199566 
1735.000000	39.193797 
1734.000000	39.183950 
1733.000000	39.169716 
1732.000000	39.151000 
1731.000000	39.128255 
1730.000000	39.102196 
1729.000000	39.074087 
1728.000000	39.045500 
1727.000000	39.018464 
1726.000000	38.995456 
1725.000000	38.978528 
1724.000000	38.969326 
1723.000000	38.967895 
1722.000000	38.972878 
1721.000000	38.981032 
1720.000000	38.987898 
1719.000000	38.988542 
1718.000000	38.978719 
1717.000000	38.955926 
1716.000000	38.920116 
1715.000000	38.873791 
1714.000000	38.821554 
1713.000000	38.769125 
1712.000000	38.722157 
1711.000000	38.684868 
1710.000000	38.659596 
1709.000000	38.646602 
1708.000000	38.644790 
1707.000000	38.652062 
1706.000000	38.665962 
1705.000000	38.684511 
1704.000000	38.706135 
1703.000000	38.729262 
1702.000000	38.752245 
1701.000000	38.773012 
1700.000000	38.788866 
1699.000000	38.797187 
1698.000000	38.795614 
1697.000000	38.782930 
1696.000000	38.759636 
1695.000000	38.728237 
1694.000000	38.692736 
1693.000000	38.658142 
1692.000000	38.629102 
1691.000000	38.609170 
1690.000000	38.599634 
1689.000000	38.599205 
1688.000000	38.604378 
1687.000000	38.610363 
1686.000000	38.612008 
1685.000000	38.605046 
1684.000000	38.587021 
1683.000000	38.557887 
1682.000000	38.519477 
1681.000000	38.475108 
1680.000000	38.428592 
1679.000000	38.383531 
1678.000000	38.342785 
1677.000000	38.307881 
1676.000000	38.279128 
1675.000000	38.255953 
1674.000000	38.237595 
1673.000000	38.223099 
1672.000000	38.211488 
1671.000000	38.201832 
1670.000000	38.193631 
1669.000000	38.186359 
1668.000000	38.179230 
1667.000000	38.171744 
1666.000000	38.163471 
1665.000000	38.154530 
1664.000000	38.145422 
1663.000000	38.137555 
1662.000000	38.132786 
1661.000000	38.133263 
1660.000000	38.140726 
1659.000000	38.156127 
1658.000000	38.179159 
1657.000000	38.208055 
1656.000000	38.239693 
1655.000000	38.270068 
1654.000000	38.294625 
1653.000000	38.309383 
1652.000000	38.311052 
1651.000000	38.297796 
1650.000000	38.269019 
1649.000000	38.226008 
1648.000000	38.171267 
1647.000000	38.108372 
1646.000000	38.041377 
1645.000000	37.974786 
1644.000000	37.912917 
1643.000000	37.859678 
1642.000000	37.817883 
1641.000000	37.789130 
1640.000000	37.773060 
1639.000000	37.767791 
1638.000000	37.769865 
1637.000000	37.774538 
1636.000000	37.777280 
1635.000000	37.774300 
1634.000000	37.763404 
1633.000000	37.744116 
1632.000000	37.717890 
1631.000000	37.687444 
1630.000000	37.655973 
1629.000000	37.626385 
1628.000000	37.601041 
1627.000000	37.581443 
1626.000000	37.567949 
1625.000000	37.560224 
1624.000000	37.557601 
1623.000000	37.559103 
1622.000000	37.563514 
1621.000000	37.569308 
1620.000000	37.574815 
1619.000000	37.578177 
1618.000000	37.577271 
1617.000000	37.570285 
1616.000000	37.555789 
1615.000000	37.533402 
1614.000000	37.503910 
1613.000000	37.469053 
1612.000000	37.430834 
1611.000000	37.391424 
1610.000000	37.352943 
1609.000000	37.316632 
1608.000000	37.282967 
1607.000000	37.251949 
1606.000000	37.223219 
1605.000000	37.196493 
1604.000000	37.171602 
1603.000000	37.148618 
1602.000000	37.127804 
1601.000000	37.109518 
1600.000000	37.093901 
1599.000000	37.080788 
1598.000000	37.069582 
1597.000000	37.059116 
1596.000000	37.048101 
1595.000000	37.035202 
1594.000000	37.019634 
1593.000000	37.000870 
1592.000000	36.979031 
1591.000000	36.954879 
1590.000000	36.929750 
1589.000000	36.905193 
1588.000000	36.882829 
1587.000000	36.864161 
1586.000000	36.850452 
1585.000000	36.842799 
1584.000000	36.841773 
1583.000000	36.847448 
1582.000000	36.859369 
1581.000000	36.876440 
1580.000000	36.896800 
1579.000000	36.917972 
1578.000000	36.937022 
1577.000000	36.950898 
1576.000000	36.956882 
1575.000000	36.953043 
1574.000000	36.938476 
1573.000000	36.913681 
1572.000000	36.880707 
1571.000000	36.843061 
1570.000000	36.805272 
1569.000000	36.772251 
1568.000000	36.748600 
1567.000000	36.737704 
1566.000000	36.741352 
1565.000000	36.759090 
1564.000000	36.788296 
1563.000000	36.824369 
1562.000000	36.861658 
1561.000000	36.894059 
1560.000000	36.916184 
1559.000000	36.924099 
1558.000000	36.915850 
1557.000000	36.891603 
1556.000000	36.853647 
1555.000000	36.805319 
1554.000000	36.750435 
1553.000000	36.692762 
1552.000000	36.635613 
1551.000000	36.581993 
1550.000000	36.534452 
1549.000000	36.495137 
1548.000000	36.465859 
1547.000000	36.447858 
1546.000000	36.441302 
1545.000000	36.444878 
1544.000000	36.455917 
1543.000000	36.470532 
1542.000000	36.484241 
1541.000000	36.492872 
1540.000000	36.492991 
1539.000000	36.482691 
1538.000000	36.461639 
1537.000000	36.431145 
1536.000000	36.393833 
1535.000000	36.352992 
1534.000000	36.312103 
1533.000000	36.274099 
1532.000000	36.241531 
1531.000000	36.216449 
1530.000000	36.200165 
1529.000000	36.193227 
1528.000000	36.195468 
1527.000000	36.205935 
1526.000000	36.222600 
1525.000000	36.242532 
1524.000000	36.262130 
1523.000000	36.277961 
1522.000000	36.287188 
1521.000000	36.288261 
1520.000000	36.281347 
1519.000000	36.268472 
1518.000000	36.253094 
1517.000000	36.239242 
1516.000000	36.230969 
1515.000000	36.230874 
1514.000000	36.239862 
1513.000000	36.256384 
1512.000000	36.277198 
1511.000000	36.297392 
1510.000000	36.312007 
1509.000000	36.316680 
1508.000000	36.308765 
1507.000000	36.287713 
1506.000000	36.255240 
1505.000000	36.214494 
1504.000000	36.169385 
1503.000000	36.123657 
1502.000000	36.080145 
1501.000000	36.040258 
1500.000000	36.003947 
1499.000000	35.970020 
1498.000000	35.937023 
1497.000000	35.903525 
1496.000000	35.868811 
1495.000000	35.832977 
1494.000000	35.796833 
1493.000000	35.761451 
1492.000000	35.727882 
1491.000000	35.696578 
1490.000000	35.667395 
1489.000000	35.639834 
1488.000000	35.613131 
1487.000000	35.586881 
1486.000000	35.561084 
1485.000000	35.536289 
1484.000000	35.513448 
1483.000000	35.493516 
1482.000000	35.477447 
1481.000000	35.465812 
1480.000000	35.458683 
1479.000000	35.455203 
1478.000000	35.454177 
1477.000000	35.454154 
1476.000000	35.453653 
1475.000000	35.451245 
1474.000000	35.446143 
1473.000000	35.438251 
1472.000000	35.428357 
1471.000000	35.417842 
1470.000000	35.408210 
1469.000000	35.400772 
1468.000000	35.396409 
1467.000000	35.395359 
1466.000000	35.397315 
1465.000000	35.401201 
1464.000000	35.405921 
1463.000000	35.410213 
1462.000000	35.412979 
1461.000000	35.413455 
1460.000000	35.411310 
1459.000000	35.406517 
1458.000000	35.399389 
1457.000000	35.390067 
1456.000000	35.378861 
1455.000000	35.365486 
1454.000000	35.349273 
1453.000000	35.328745 
1452.000000	35.302639 
1451.000000	35.269594 
1450.000000	35.228919 
1449.000000	35.180950 
1448.000000	35.127305 
1447.000000	35.070967 
1446.000000	35.015940 
1445.000000	34.966468 
1444.000000	34.926342 
1443.000000	34.898328 
1442.000000	34.883403 
1441.000000	34.880590 
1440.000000	34.887027 
1439.000000	34.898662 
1438.000000	34.911036 
1437.000000	34.920001 
1436.000000	34.922313 
1435.000000	34.916257 
1434.000000	34.901595 
1433.000000	34.879374 
1432.000000	34.851789 
1431.000000	34.821438 
1430.000000	34.791302 
1429.000000	34.763979 
1428.000000	34.741735 
1427.000000	34.726190 
1426.000000	34.718203 
1425.000000	34.717774 
1424.000000	34.723901 
1423.000000	34.734559 
1422.000000	34.746956 
1421.000000	34.757995 
1420.000000	34.764552 
1419.000000	34.763956 
1418.000000	34.754610 
1417.000000	34.736013 
1416.000000	34.708714 
1415.000000	34.674239 
1414.000000	34.634685 
1413.000000	34.592485 
1412.000000	34.549999 
1411.000000	34.509372 
1410.000000	34.472417 
1409.000000	34.440851 
1408.000000	34.415912 
1407.000000	34.398365 
1406.000000	34.388351 
1405.000000	34.385323 
1404.000000	34.387731 
1403.000000	34.393692 
1402.000000	34.400534 
1401.000000	34.406018 
1400.000000	34.408378 
1399.000000	34.406852 
1398.000000	34.401726 
1397.000000	34.393954 
1396.000000	34.384870 
1395.000000	34.375524 
1394.000000	34.366226 
1393.000000	34.356236 
1392.000000	34.344220 
1391.000000	34.328484 
1390.000000	34.307551 
1389.000000	34.280920 
1388.000000	34.249234 
1387.000000	34.214234 
1386.000000	34.178471 
1385.000000	34.144616 
1384.000000	34.114980 
1383.000000	34.090995 
1382.000000	34.073209 
1381.000000	34.061121 
1380.000000	34.053921 
1379.000000	34.050703 
1378.000000	34.050607 
1377.000000	34.052968 
1376.000000	34.057092 
1375.000000	34.061837 
1374.000000	34.065914 
1373.000000	34.067511 
1372.000000	34.064865 
1371.000000	34.056353 
1370.000000	34.041190 
1369.000000	34.019708 
1368.000000	33.993291 
1367.000000	33.964252 
1366.000000	33.935165 
1365.000000	33.908271 
1364.000000	33.884954 
1363.000000	33.865690 
1362.000000	33.849835 
1361.000000	33.836317 
1360.000000	33.824014 
1359.000000	33.812236 
1358.000000	33.800816 
1357.000000	33.790159 
1356.000000	33.780860 
1355.000000	33.773589 
1354.000000	33.768272 
1353.000000	33.764171 
1352.000000	33.759951 
1351.000000	33.753609 
1350.000000	33.743214 
1349.000000	33.727073 
1348.000000	33.704352 
1347.000000	33.675122 
1346.000000	33.640670 
1345.000000	33.603072 
1344.000000	33.564710 
1343.000000	33.528137 
1342.000000	33.495521 
1341.000000	33.468317 
1340.000000	33.447027 
1339.000000	33.430957 
1338.000000	33.418774 
1337.000000	33.408546 
1336.000000	33.398365 
1335.000000	33.386874 
1334.000000	33.373498 
1333.000000	33.358669 
1332.000000	33.343553 
1331.000000	33.329606 
1330.000000	33.318138 
1329.000000	33.309745 
1328.000000	33.304214 
1327.000000	33.300566 
1326.000000	33.297348 
1325.000000	33.293247 
1324.000000	33.287262 
1323.000000	33.279109 
1322.000000	33.269095 
1321.000000	33.257961 
1320.000000	33.246374 
1319.000000	33.234691 
1318.000000	33.222579 
1317.000000	33.209156 
1316.000000	33.193421 
1315.000000	33.174514 
1314.000000	33.152389 
1313.000000	33.127832 
1312.000000	33.102416 
1311.000000	33.078169 
1310.000000	33.057022 
1309.000000	33.040356 
1308.000000	33.028650 
1307.000000	33.021402 
1306.000000	33.017373 
1305.000000	33.015179 
1304.000000	33.013463 
1303.000000	33.011436 
1302.000000	33.008885 
1301.000000	33.005881 
1300.000000	33.002734 
1299.000000	32.999515 
1298.000000	32.995843 
1297.000000	32.990980 
1296.000000	32.983827 
1295.000000	32.973265 
1294.000000	32.958626 
1293.000000	32.939672 
1292.000000	32.916808 
1291.000000	32.890629 
1290.000000	32.861995 
1289.000000	32.831645 
1288.000000	32.799935 
1287.000000	32.767128 
1286.000000	32.733345 
1285.000000	32.699108 
1284.000000	32.665419 
1283.000000	32.633662 
1282.000000	32.605504 
1281.000000	32.582402 
1280.000000	32.565093 
1279.000000	32.553219 
1278.000000	32.545614 
1277.000000	32.539987 
1276.000000	32.534170 
1275.000000	32.526111 
1274.000000	32.514977 
1273.000000	32.501292 
1272.000000	32.486963 
1271.000000	32.474493 
1270.000000	32.466316 
1269.000000	32.464194 
1268.000000	32.468223 
1267.000000	32.477116 
1266.000000	32.487988 
1265.000000	32.497262 
1264.000000	32.501363 
1263.000000	32.497811 
1262.000000	32.485365 
1261.000000	32.464337 
1260.000000	32.436347 
1259.000000	32.403922 
1258.000000	32.369875 
1257.000000	32.336831 
1256.000000	32.307100 
1255.000000	32.282280 
1254.000000	32.263302 
1253.000000	32.250356 
1252.000000	32.243180 
1251.000000	32.240939 
1250.000000	32.242155 
1249.000000	32.244610 
1248.000000	32.245612 
1247.000000	32.242465 
1246.000000	32.232737 
1245.000000	32.215023 
1244.000000	32.189226 
1243.000000	32.156896 
1242.000000	32.121062 
1241.000000	32.085728 
1240.000000	32.055211 
1239.000000	32.032847 
1238.000000	32.020521 
1237.000000	32.018017 
1236.000000	32.023119 
1235.000000	32.031941 
1234.000000	32.039952 
1233.000000	32.043099 
1232.000000	32.038474 
1231.000000	32.025623 
1230.000000	32.006335 
1229.000000	31.984543 
1228.000000	31.964945 
1227.000000	31.952166 
1226.000000	31.949305 
1225.000000	31.957244 
1224.000000	31.974196 
1223.000000	31.996250 
1222.000000	32.017946 
1221.000000	32.033753 
1220.000000	32.039117 
1219.000000	32.031250 
1218.000000	32.010006 
1217.000000	31.977391 
1216.000000	31.937265 
1215.000000	31.894683 
1214.000000	31.854772 
1213.000000	31.821918 
1212.000000	31.798863 
1211.000000	31.786632 
1210.000000	31.784105 
1209.000000	31.788754 
1208.000000	31.796646 
1207.000000	31.803536 
1206.000000	31.805491 
1205.000000	31.799364 
1204.000000	31.783628 
1203.000000	31.758308 
1202.000000	31.725049 
1201.000000	31.686639 
1200.000000	31.646513 
1199.000000	31.607818 
1198.000000	31.573128 
1197.000000	31.544017 
1196.000000	31.520915 
1195.000000	31.503081 
1194.000000	31.489157 
1193.000000	31.477618 
1192.000000	31.467008 
1191.000000	31.456422 
1190.000000	31.445360 
1189.000000	31.433629 
1188.000000	31.421399 
1187.000000	31.408858 
1186.000000	31.396102 
1185.000000	31.382799 
1184.000000	31.368494 
1183.000000	31.352496 
1182.000000	31.334424 
1181.000000	31.313943 
1180.000000	31.291151 
1179.000000	31.266498 
1178.000000	31.240940 
1177.000000	31.215929 
1176.000000	31.193256 
1175.000000	31.174826 
1174.000000	31.162142 
1173.000000	31.156229 
1172.000000	31.157159 
1171.000000	31.164073 
1170.000000	31.175136 
1169.000000	31.187868 
1168.000000	31.199550 
1167.000000	31.207656 
1166.000000	31.210160 
1165.000000	31.205868 
1164.000000	31.194591 
1163.000000	31.176900 
1162.000000	31.153893 
1161.000000	31.127285 
1160.000000	31.098842 
1159.000000	31.070446 
1158.000000	31.043958 
1157.000000	31.020951 
1156.000000	31.002688 
1155.000000	30.989980 
1154.000000	30.982875 
1153.000000	30.980682 
1152.000000	30.981922 
1151.000000	30.984592 
1150.000000	30.986595 
1149.000000	30.986166 
1148.000000	30.982398 
1147.000000	30.975174 
1146.000000	30.965232 
1145.000000	30.953598 
1144.000000	30.941367 
1143.000000	30.928969 
1142.000000	30.915975 
1141.000000	30.900979 
1140.000000	30.882120 
1139.000000	30.857825 
1138.000000	30.827474 
1137.000000	30.791831 
1136.000000	30.753231 
1135.000000	30.714917 
1134.000000	30.680704 
1133.000000	30.653977 
1132.000000	30.636429 
1131.000000	30.627918 
1130.000000	30.626535 
1129.000000	30.629014 
1128.000000	30.631494 
1127.000000	30.630397 
1126.000000	30.623245 
1125.000000	30.609154 
1124.000000	30.588865 
1123.000000	30.564212 
1122.000000	30.537676 
1121.000000	30.511736 
1120.000000	30.488610 
1119.000000	30.469655 
1118.000000	30.455350 
1117.000000	30.445551 
1116.000000	30.439448 
1115.000000	30.435991 
1114.000000	30.433678 
1113.000000	30.430769 
1112.000000	30.425500 
1111.000000	30.416178 
1110.000000	30.401229 
1109.000000	30.379676 
1108.000000	30.350804 
1107.000000	30.314731 
1106.000000	30.272030 
1105.000000	30.223822 
1104.000000	30.171990 
1103.000000	30.118346 
1102.000000	30.065488 
1101.000000	30.015921 
1100.000000	29.972624 
1099.000000	29.938507 
1098.000000	29.916501 
1097.000000	29.908752 
1096.000000	29.916930 
1095.000000	29.941320 
1094.000000	29.980731 
1093.000000	30.032157 
1092.000000	30.090832 
1091.000000	30.150532 
1090.000000	30.204319 
1089.000000	30.245423 
1088.000000	30.268144 
1087.000000	30.268383 
1086.000000	30.244755 
1085.000000	30.198550 
1084.000000	30.133748 
1083.000000	30.056166 
1082.000000	29.973053 
1081.000000	29.891657 
1080.000000	29.818725 
1079.000000	29.759073 
1078.000000	29.715776 
1077.000000	29.689407 
1076.000000	29.678487 
1075.000000	29.679846 
1074.000000	29.689240 
1073.000000	29.702472 
1072.000000	29.715657 
1071.000000	29.726266 
1070.000000	29.732894 
1069.000000	29.735803 
1068.000000	29.736208 
1067.000000	29.736113 
1066.000000	29.737424 
1065.000000	29.741621 
1064.000000	29.749345 
1063.000000	29.760146 
1062.000000	29.772400 
1061.000000	29.784107 
1060.000000	29.792904 
1059.000000	29.796743 
1058.000000	29.794144 
1057.000000	29.784798 
1056.000000	29.769158 
1055.000000	29.748606 
1054.000000	29.724669 
1053.000000	29.699063 
1052.000000	29.672956 
1051.000000	29.647302 
1050.000000	29.622030 
1049.000000	29.596233 
1048.000000	29.568576 
1047.000000	29.537963 
1046.000000	29.503655 
1045.000000	29.465556 
1044.000000	29.424428 
1043.000000	29.381752 
1042.000000	29.339528 
1041.000000	29.299831 
1040.000000	29.264307 
1039.000000	29.233884 
1038.000000	29.208970 
1037.000000	29.189491 
1036.000000	29.174971 
1035.000000	29.164767 
1034.000000	29.158306 
1033.000000	29.154777 
1032.000000	29.153180 
1031.000000	29.152178 
1030.000000	29.149818 
1029.000000	29.143810 
1028.000000	29.131770 
1027.000000	29.112410 
1026.000000	29.085564 
1025.000000	29.053163 
1024.000000	29.018640 
1023.000000	28.986406 
1022.000000	28.960943 
1021.000000	28.945589 
1020.000000	28.941535 
1019.000000	28.947615 
1018.000000	28.960609 
1017.000000	28.975892 
1016.000000	28.988480 
1015.000000	28.994059 
1014.000000	28.989911 
1013.000000	28.975200 
1012.000000	28.951287 
1011.000000	28.921055 
1010.000000	28.888273 
1009.000000	28.857278 
1008.000000	28.831863 
1007.000000	28.815150 
1006.000000	28.808832 
1005.000000	28.813314 
1004.000000	28.827309 
1003.000000	28.848028 
1002.000000	28.871440 
1001.000000	28.892540 
1000.000000	28.906321 
999.000000	 28.908538 
998.000000	 28.896355 
997.000000	 28.869056 
996.000000	 28.827738 
995.000000	 28.775119 
994.000000	 28.714680 
993.000000	 28.650498 
992.000000	 28.586077 
991.000000	 28.524255 
990.000000	 28.466916 
989.000000	 28.415369 
988.000000	 28.370380 
987.000000	 28.332757 
986.000000	 28.303122 
985.000000	 28.281712 
984.000000	 28.268384 
983.000000	 28.262543 
982.000000	 28.262662 
981.000000	 28.266358 
980.000000	 28.270912 
979.000000	 28.273630 
978.000000	 28.272294 
977.000000	 28.265595 
976.000000	 28.253006 
975.000000	 28.234910 
974.000000	 28.212428 
973.000000	 28.187227 
972.000000	 28.161239 
971.000000	 28.136897 
970.000000	 28.116583 
969.000000	 28.102731 
968.000000	 28.097510 
967.000000	 28.102111 
966.000000	 28.116822 
965.000000	 28.139877 
964.000000	 28.167557 
963.000000	 28.194451 
962.000000	 28.214359 
961.000000	 28.221130 
960.000000	 28.209900 
959.000000	 28.178381 
958.000000	 28.127527 
957.000000	 28.060936 
956.000000	 27.984404 
955.000000	 27.904725 
954.000000	 27.828359 
953.000000	 27.760577 
952.000000	 27.704620 
951.000000	 27.661585 
950.000000	 27.630972 
949.000000	 27.611041 
948.000000	 27.599859 
947.000000	 27.595448 
946.000000	 27.596688 
945.000000	 27.602863 
944.000000	 27.614021 
943.000000	 27.629804 
942.000000	 27.649807 
941.000000	 27.672863 
940.000000	 27.697110 
939.000000	 27.719974 
938.000000	 27.738738 
937.000000	 27.751278 
936.000000	 27.755975 
935.000000	 27.752065 
934.000000	 27.740144 
933.000000	 27.722406 
932.000000	 27.701735 
931.000000	 27.681279 
930.000000	 27.663707 
929.000000	 27.650642 
928.000000	 27.642655 
927.000000	 27.639198 
926.000000	 27.638530 
925.000000	 27.638316 
924.000000	 27.637004 
923.000000	 27.633738 
922.000000	 27.628087 
921.000000	 27.620363 
920.000000	 27.611470 
919.000000	 27.602171 
918.000000	 27.593135 
917.000000	 27.583885 
916.000000	 27.573466 
915.000000	 27.559232 
914.000000	 27.538442 
913.000000	 27.506828 
912.000000	 27.460455 
911.000000	 27.395319 
910.000000	 27.308940 
909.000000	 27.200698 
908.000000	 27.072691 
907.000000	 26.930356 
906.000000	 26.782393 
905.000000	 26.640129 
904.000000	 26.515984 
903.000000	 26.422190 
902.000000	 26.368856 
901.000000	 26.362037 
900.000000	 26.402640 
899.000000	 26.485991 
898.000000	 26.602578 
897.000000	 26.739215 
896.000000	 26.881146 
895.000000	 27.014112 
894.000000	 27.126479 
893.000000	 27.209663 
892.000000	 27.259111 
891.000000	 27.274131 
890.000000	 27.257061 
889.000000	 27.212476 
888.000000	 27.146339 
887.000000	 27.065944 
886.000000	 26.978826 
885.000000	 26.893258 
884.000000	 26.816797 
883.000000	 26.756429 
882.000000	 26.716947 
881.000000	 26.700925 
880.000000	 26.707553 
879.000000	 26.733064 
878.000000	 26.771140 
877.000000	 26.814174 
876.000000	 26.854920 
875.000000	 26.887965 
874.000000	 26.910734 
873.000000	 26.923155 
872.000000	 26.926803 
871.000000	 26.923322 
870.000000	 26.913785 
869.000000	 26.897454 
868.000000	 26.872706 
867.000000	 26.836395 
866.000000	 26.786088 
865.000000	 26.720333 
864.000000	 26.640200 
863.000000	 26.548981 
862.000000	 26.451587 
861.000000	 26.354241 
860.000000	 26.263523 
859.000000	 26.185226 
858.000000	 26.123332 
857.000000	 26.079082 
856.000000	 26.051068 
855.000000	 26.035094 
854.000000	 26.025390 
853.000000	 26.015067 
852.000000	 25.997281 
851.000000	 25.966620 
850.000000	 25.920248 
849.000000	 25.858354 
848.000000	 25.784468 
847.000000	 25.704598 
846.000000	 25.626182 
845.000000	 25.556755 
844.000000	 25.502538 
843.000000	 25.467014 
842.000000	 25.450491 
841.000000	 25.450563 
840.000000	 25.462746 
839.000000	 25.481510 
838.000000	 25.501680 
837.000000	 25.518870 
836.000000	 25.530433 
835.000000	 25.535035 
834.000000	 25.533056 
833.000000	 25.525355 
832.000000	 25.513672 
831.000000	 25.499820 
830.000000	 25.485897 
829.000000	 25.473976 
828.000000	 25.466275 
827.000000	 25.464963 
826.000000	 25.471115 
825.000000	 25.484371 
824.000000	 25.502490 
823.000000	 25.521826 
822.000000	 25.537800 
821.000000	 25.545859 
820.000000	 25.542712 
819.000000	 25.527095 
818.000000	 25.499725 
817.000000	 25.463223 
816.000000	 25.421762 
815.000000	 25.380253 
814.000000	 25.343203 
813.000000	 25.313830 
812.000000	 25.294232 
811.000000	 25.284194 
810.000000	 25.281953 
809.000000	 25.283598 
808.000000	 25.284457 
807.000000	 25.279664 
806.000000	 25.265121 
805.000000	 25.238609 
804.000000	 25.199818 
803.000000	 25.151038 
802.000000	 25.096654 
801.000000	 25.042247 
800.000000	 24.993324 
799.000000	 24.954080 
798.000000	 24.926638 
797.000000	 24.910545 
796.000000	 24.903225 
795.000000	 24.901390 
794.000000	 24.902200 
793.000000	 24.904227 
792.000000	 24.907803 
791.000000	 24.914884 
790.000000	 24.927830 
789.000000	 24.948048 
788.000000	 24.975037 
787.000000	 25.005960 
786.000000	 25.035667 
785.000000	 25.058054 
784.000000	 25.067186 
783.000000	 25.059223 
782.000000	 25.032973 
781.000000	 24.990677 
780.000000	 24.937033 
779.000000	 24.878311 
778.000000	 24.820494 
777.000000	 24.768280 
776.000000	 24.723935 
775.000000	 24.687409 
774.000000	 24.656987 
773.000000	 24.630403 
772.000000	 24.605512 
771.000000	 24.581217 
770.000000	 24.557566 
769.000000	 24.535679 
768.000000	 24.517393 
767.000000	 24.504351 
766.000000	 24.497389 
765.000000	 24.495959 
764.000000	 24.498248 
763.000000	 24.501252 
762.000000	 24.501729 
761.000000	 24.496650 
760.000000	 24.484372 
759.000000	 24.464416 
758.000000	 24.437689 
757.000000	 24.405670 
756.000000	 24.370026 
755.000000	 24.331951 
754.000000	 24.291515 
753.000000	 24.248695 
752.000000	 24.203944 
751.000000	 24.158930 
750.000000	 24.116444 
749.000000	 24.080443 
748.000000	 24.055576 
747.000000	 24.045610 
746.000000	 24.052190 
745.000000	 24.073290 
744.000000	 24.103355 
743.000000	 24.133944 
742.000000	 24.155545 
741.000000	 24.160003 
740.000000	 24.142622 
739.000000	 24.103713 
738.000000	 24.048423 
737.000000	 23.985552 
736.000000	 23.925185 
735.000000	 23.876333 
734.000000	 23.844408 
733.000000	 23.830294 
732.000000	 23.829793 
731.000000	 23.835921 
730.000000	 23.839449 
729.000000	 23.831391 
728.000000	 23.804640 
727.000000	 23.755168 
726.000000	 23.682904 
725.000000	 23.590826 
724.000000	 23.485064 
723.000000	 23.373103 
722.000000	 23.263216 
721.000000	 23.163127 
720.000000	 23.079085 
719.000000	 23.015332 
718.000000	 22.973513 
717.000000	 22.952890 
716.000000	 22.950029 
715.000000	 22.959542 
714.000000	 22.975087 
713.000000	 22.990679 
712.000000	 23.001146 
711.000000	 23.003554 
710.000000	 22.997379 
709.000000	 22.985076 
708.000000	 22.970628 
707.000000	 22.959280 
706.000000	 22.956037 
705.000000	 22.964549 
704.000000	 22.986602 
703.000000	 23.020911 
702.000000	 23.063516 
701.000000	 23.107981 
700.000000	 23.147130 
699.000000	 23.173999 
698.000000	 23.183131 
697.000000	 23.171448 
696.000000	 23.139095 
695.000000	 23.088383 
694.000000	 23.023509 
693.000000	 22.949528 
692.000000	 22.871851 
691.000000	 22.794890 
690.000000	 22.721672 
689.000000	 22.654271 
688.000000	 22.593975 
687.000000	 22.541260 
686.000000	 22.495961 
685.000000	 22.457194 
684.000000	 22.423434 
683.000000	 22.392654 
682.000000	 22.362947 
681.000000	 22.331619 
680.000000	 22.296762 
679.000000	 22.257614 
678.000000	 22.215342 
677.000000	 22.172093 
676.000000	 22.131180 
675.000000	 22.096204 
674.000000	 22.070074 
673.000000	 22.053885 
672.000000	 22.046995 
671.000000	 22.046828 
670.000000	 22.049880 
669.000000	 22.052264 
668.000000	 22.051072 
667.000000	 22.045135 
666.000000	 22.035145 
665.000000	 22.023224 
664.000000	 22.012186 
663.000000	 22.004175 
662.000000	 22.000074 
661.000000	 21.999001 
660.000000	 21.997880 
659.000000	 21.991753 
658.000000	 21.975636 
657.000000	 21.945500 
656.000000	 21.898818 
655.000000	 21.835327 
654.000000	 21.757221 
653.000000	 21.668887 
652.000000	 21.575808 
651.000000	 21.483850 
650.000000	 21.398186 
649.000000	 21.322870 
648.000000	 21.260547 
647.000000	 21.212387 
646.000000	 21.177983 
645.000000	 21.155762 
644.000000	 21.143198 
643.000000	 21.137213 
642.000000	 21.133875 
641.000000	 21.129989 
640.000000	 21.122789 
639.000000	 21.111083 
638.000000	 21.094894 
637.000000	 21.076202 
636.000000	 21.058440 
635.000000	 21.045947 
634.000000	 21.043014 
633.000000	 21.053123 
632.000000	 21.077728 
631.000000	 21.115922 
630.000000	 21.164131 
629.000000	 21.216511 
628.000000	 21.265673 
627.000000	 21.303820 
626.000000	 21.323871 
625.000000	 21.320867 
624.000000	 21.292328 
623.000000	 21.239137 
622.000000	 21.164560 
621.000000	 21.074128 
620.000000	 20.974016 
619.000000	 20.871019 
618.000000	 20.770478 
617.000000	 20.676302 
616.000000	 20.590472 
615.000000	 20.513391 
614.000000	 20.444774 
613.000000	 20.384526 
612.000000	 20.333147 
611.000000	 20.291519 
610.000000	 20.261883 
609.000000	 20.246839 
608.000000	 20.248222 
607.000000	 20.265674 
606.000000	 20.296907 
605.000000	 20.337224 
604.000000	 20.379853 
603.000000	 20.416474 
602.000000	 20.439195 
601.000000	 20.441651 
600.000000	 20.420336 
599.000000	 20.375251 
598.000000	 20.309638 
597.000000	 20.229506 
596.000000	 20.142483 
595.000000	 20.056152 
594.000000	 19.977402 
593.000000	 19.910454 
592.000000	 19.857382 
591.000000	 19.816923 
590.000000	 19.785785 
589.000000	 19.758749 
588.000000	 19.730520 
587.000000	 19.695878 
586.000000	 19.650888 
585.000000	 19.593000 
584.000000	 19.521498 
583.000000	 19.436717 
582.000000	 19.339799 
581.000000	 19.232559 
580.000000	 19.117498 
579.000000	 18.998146 
578.000000	 18.879532 
577.000000	 18.767976 
576.000000	 18.670797 
575.000000	 18.595290 
574.000000	 18.547630 
573.000000	 18.530917 
572.000000	 18.544816 
571.000000	 18.584871 
570.000000	 18.643116 
569.000000	 18.709063 
568.000000	 18.771553 
567.000000	 18.820023 
566.000000	 18.846750 
565.000000	 18.847560 
564.000000	 18.822693 
563.000000	 18.776154 
562.000000	 18.714714 
561.000000	 18.646669 
560.000000	 18.579077 
559.000000	 18.517017 
558.000000	 18.462347 
557.000000	 18.414640 
556.000000	 18.371438 
555.000000	 18.329930 
554.000000	 18.288159 
553.000000	 18.245720 
552.000000	 18.204045 
551.000000	 18.166065 
550.000000	 18.134355 
549.000000	 18.110728 
548.000000	 18.095922 
547.000000	 18.089628 
546.000000	 18.090629 
545.000000	 18.096995 
544.000000	 18.106913 
543.000000	 18.118381 
542.000000	 18.130278 
541.000000	 18.140602 
540.000000	 18.146896 
539.000000	 18.145275 
538.000000	 18.131327 
537.000000	 18.100905 
536.000000	 18.051218 
535.000000	 17.982482 
534.000000	 17.898249 
533.000000	 17.805743 
532.000000	 17.714810 
531.000000	 17.635631 
530.000000	 17.576980 
529.000000	 17.542243 
528.000000	 17.528557 
527.000000	 17.525887 
526.000000	 17.519021 
525.000000	 17.489624 
524.000000	 17.420840 
523.000000	 17.300653 
522.000000	 17.126297 
521.000000	 16.905403 
520.000000	 16.656494 
519.000000	 16.405010 
518.000000	 16.179490 
517.000000	 16.005659 
516.000000	 15.901827 
515.000000	 15.875077 
514.000000	 15.920448 
513.000000	 16.021585 
512.000000	 16.155457 
511.000000	 16.295647 
510.000000	 16.419243 
509.000000	 16.509604 
508.000000	 16.559839 
507.000000	 16.570878 
506.000000	 16.551280 
505.000000	 16.512703 
504.000000	 16.467118 
503.000000	 16.423654 
502.000000	 16.386771 
501.000000	 16.356205 
500.000000	 16.327977 
499.000000	 16.296863 
498.000000	 16.257023 
497.000000	 16.204261 
496.000000	 16.136336 
495.000000	 16.054201 
494.000000	 15.961098 
493.000000	 15.863060 
492.000000	 15.767216 
491.000000	 15.681719 
490.000000	 15.614819 
489.000000	 15.573287 
488.000000	 15.561509 
487.000000	 15.579366 
486.000000	 15.621399 
485.000000	 15.676927 
484.000000	 15.731477 
483.000000	 15.769886 
482.000000	 15.778660 
481.000000	 15.749859 
480.000000	 15.682482 
479.000000	 15.582919 
478.000000	 15.463733 
477.000000	 15.340232 
476.000000	 15.227103 
475.000000	 15.134859 
474.000000	 15.067887 
473.000000	 15.024542 
472.000000	 14.998579 
471.000000	 14.980697 
470.000000	 14.961433 
469.000000	 14.933586 
468.000000	 14.893484 
467.000000	 14.840531 
466.000000	 14.776563 
465.000000	 14.703869 
464.000000	 14.624571 
463.000000	 14.539003 
462.000000	 14.446902 
461.000000	 14.348411 
460.000000	 14.244961 
459.000000	 14.140105 
458.000000	 14.039659 
457.000000	 13.950419 
456.000000	 13.879966 
455.000000	 13.834381 
454.000000	 13.817811 
453.000000	 13.829755 
452.000000	 13.867402 
451.000000	 13.925361 
450.000000	 13.997888 
449.000000	 14.078569 
448.000000	 14.163541 
447.000000	 14.251446 
446.000000	 14.341640 
445.000000	 14.432907 
444.000000	 14.521336 
443.000000	 14.599847 
442.000000	 14.660620 
441.000000	 14.696645 
440.000000	 14.701199 
439.000000	 14.670705 
438.000000	 14.611792 
437.000000	 14.537334 
436.000000	 14.460325 
435.000000	 14.391040 
434.000000	 14.341521 
433.000000	 14.316177 
432.000000	 14.305734 
431.000000	 14.294099 
430.000000	 14.268040 
429.000000	 14.216375 
428.000000	 14.134550 
427.000000	 14.024209 
426.000000	 13.893246 
425.000000	 13.750982 
424.000000	 13.607358 
423.000000	 13.464093 
422.000000	 13.313913 
421.000000	 13.143229 
420.000000	 12.938785 
419.000000	 12.693071 
418.000000	 12.411713 
417.000000	 12.127804 
416.000000	 11.900234 
415.000000	 11.802196 
414.000000	 11.909627 
413.000000	 12.267017 
412.000000	 12.889671 
411.000000	 13.755011 
410.000000	 14.824247 
409.000000	 16.039657 
408.000000	 17.352414 
407.000000	 18.752908 
406.000000	 20.241308 
405.000000	 21.805834 
404.000000	 23.402953 
403.000000	 24.957323 
402.000000	 26.350688 
401.000000	 27.445197 
400.000000	 28.106498 
399.000000	 28.259062 
398.000000	 27.880764 
397.000000	 27.025294 
396.000000	 25.802397 
395.000000	 24.371337 
394.000000	 22.887659 
393.000000	 21.480011 
392.000000	 20.234513 
391.000000	 19.198966 
390.000000	 18.379235 
389.000000	 17.775154 
388.000000	 17.390418 
387.000000	 17.276167 
386.000000	 17.537236 
385.000000	 18.337750 
384.000000	 19.841384 
383.000000	 22.183442 
382.000000	 25.409817 
381.000000	 29.451990 
380.000000	 34.080386 
379.000000	 38.960480 
378.000000	 43.718886 
377.000000	 47.992324 
376.000000	 51.523256 
375.000000	 54.148578 
374.000000	 55.802822 
373.000000	 56.530189 
372.000000	 56.433153 
371.000000	 55.728340 
370.000000	 54.735326 

