PE IR       SPECTRUM    SPECTRUM    ASCII       PEDS        1.60        
  -1
C-9AE0~1.ASC
17/03/27
16:52:31.00
17/03/27
16:52:31.00
tln
$C-4040-8_t0029$<tbV0>[-2.6,-7.8,8.0,0.0,27,1,0]
370.000000
64









2002,4.07    
MIRTGS : RIGHTBACK : INTERNAL 2
MIR : ON : INTERNAL 2
OPTKBR

0.200000
8
8.000000
FILLER
RATIO
SPECTRUM
UNLOCKED 256

DOUBLE
64
COMBINED
1
0
0


1.000000
RATIO


1
0
TRUE
51149
0
LEFT NOT FITTED RIGHT NOT FITTED 0
NONE
NONE
15600
12.000000
4.427000
51148
TRUE
1 0 8 72 0 0 0 0 

15798.010000






#HDR
-1
-1
#GR
CM-1
%T
0.00002384185791015625
0.0
5000.000000
-1.000000
4631
8
67.935490
28.926157
#DATA
5000.000000	63.929510 
4999.000000	63.882112 
4998.000000	63.852357 
4997.000000	63.841772 
4996.000000	63.848090 
4995.000000	63.866806 
4994.000000	63.891005 
4993.000000	63.913488 
4992.000000	63.927030 
4991.000000	63.925027 
4990.000000	63.903522 
4989.000000	63.860654 
4988.000000	63.799667 
4987.000000	63.727831 
4986.000000	63.656902 
4985.000000	63.600468 
4984.000000	63.572263 
4983.000000	63.582897 
4982.000000	63.637137 
4981.000000	63.732075 
4980.000000	63.856625 
4979.000000	63.993430 
4978.000000	64.121603 
4977.000000	64.221453 
4976.000000	64.278483 
4975.000000	64.286947 
4974.000000	64.250183 
4973.000000	64.180016 
4972.000000	64.093613 
4971.000000	64.009642 
4970.000000	63.944554 
4969.000000	63.908815 
4968.000000	63.906168 
4967.000000	63.932657 
4966.000000	63.980126 
4965.000000	64.036607 
4964.000000	64.090108 
4963.000000	64.130330 
4962.000000	64.150047 
4961.000000	64.146947 
4960.000000	64.122986 
4959.000000	64.084315 
4958.000000	64.039158 
4957.000000	63.996982 
4956.000000	63.966083 
4955.000000	63.952422 
4954.000000	63.958215 
4953.000000	63.981199 
4952.000000	64.015078 
4951.000000	64.050602 
4950.000000	64.077830 
4949.000000	64.088320 
4948.000000	64.077496 
4947.000000	64.045333 
4946.000000	63.997077 
4945.000000	63.941931 
4944.000000	63.890933 
4943.000000	63.854455 
4942.000000	63.839077 
4941.000000	63.846254 
4940.000000	63.871741 
4939.000000	63.907361 
4938.000000	63.942384 
4937.000000	63.966393 
4936.000000	63.971614 
4935.000000	63.954997 
4934.000000	63.918471 
4933.000000	63.868045 
4932.000000	63.812160 
4931.000000	63.759350 
4930.000000	63.716053 
4929.000000	63.685178 
4928.000000	63.666057 
4927.000000	63.655424 
4926.000000	63.648366 
4925.000000	63.640427 
4924.000000	63.628745 
4923.000000	63.613367 
4922.000000	63.596677 
4921.000000	63.583445 
4920.000000	63.578605 
4919.000000	63.587045 
4918.000000	63.612532 
4917.000000	63.656592 
4916.000000	63.718461 
4915.000000	63.794326 
4914.000000	63.878417 
4913.000000	63.962960 
4912.000000	64.039397 
4911.000000	64.100241 
4910.000000	64.139890 
4909.000000	64.156699 
4908.000000	64.152979 
4907.000000	64.135384 
4906.000000	64.113616 
4905.000000	64.098453 
4904.000000	64.099287 
4903.000000	64.122033 
4902.000000	64.167881 
4901.000000	64.232730 
4900.000000	64.308238 
4899.000000	64.383316 
4898.000000	64.446592 
4897.000000	64.489626 
4896.000000	64.508032 
4895.000000	64.501976 
4894.000000	64.475250 
4893.000000	64.434480 
4892.000000	64.386343 
4891.000000	64.336442 
4890.000000	64.287447 
4889.000000	64.239645 
4888.000000	64.190864 
4887.000000	64.139199 
4886.000000	64.083123 
4885.000000	64.022850 
4884.000000	63.960552 
4883.000000	63.900661 
4882.000000	63.847804 
4881.000000	63.805103 
4880.000000	63.773894 
4879.000000	63.752818 
4878.000000	63.738608 
4877.000000	63.726902 
4876.000000	63.714241 
4875.000000	63.699388 
4874.000000	63.684296 
4873.000000	63.674139 
4872.000000	63.675904 
4871.000000	63.696813 
4870.000000	63.742041 
4869.000000	63.812875 
4868.000000	63.906359 
4867.000000	64.014291 
4866.000000	64.125609 
4865.000000	64.226555 
4864.000000	64.304041 
4863.000000	64.346575 
4862.000000	64.347314 
4861.000000	64.303684 
4860.000000	64.217996 
4859.000000	64.096999 
4858.000000	63.951492 
4857.000000	63.794469 
4856.000000	63.639378 
4855.000000	63.499307 
4854.000000	63.385891 
4853.000000	63.307619 
4852.000000	63.269233 
4851.000000	63.271474 
4850.000000	63.311409 
4849.000000	63.382411 
4848.000000	63.475203 
4847.000000	63.578987 
4846.000000	63.682723 
4845.000000	63.776302 
4844.000000	63.851737 
4843.000000	63.903808 
4842.000000	63.930487 
4841.000000	63.933348 
4840.000000	63.916730 
4839.000000	63.887190 
4838.000000	63.851785 
4837.000000	63.817811 
4836.000000	63.790869 
4835.000000	63.774681 
4834.000000	63.770675 
4833.000000	63.779067 
4832.000000	63.798880 
4831.000000	63.828420 
4830.000000	63.866209 
4829.000000	63.910865 
4828.000000	63.961791 
4827.000000	64.018416 
4826.000000	64.079999 
4825.000000	64.144754 
4824.000000	64.210581 
4823.000000	64.274740 
4822.000000	64.334297 
4821.000000	64.386272 
4820.000000	64.428114 
4819.000000	64.457893 
4818.000000	64.474749 
4817.000000	64.478683 
4816.000000	64.470100 
4815.000000	64.449644 
4814.000000	64.419031 
4813.000000	64.380097 
4812.000000	64.335465 
4811.000000	64.287233 
4810.000000	64.237999 
4809.000000	64.189672 
4808.000000	64.143705 
4807.000000	64.100956 
4806.000000	64.061284 
4805.000000	64.024519 
4804.000000	63.990521 
4803.000000	63.959860 
4802.000000	63.933563 
4801.000000	63.913297 
4800.000000	63.900876 
4799.000000	63.897299 
4798.000000	63.901829 
4797.000000	63.911747 
4796.000000	63.922381 
4795.000000	63.927531 
4794.000000	63.920736 
4793.000000	63.896656 
4792.000000	63.852453 
4791.000000	63.788604 
4790.000000	63.708901 
4789.000000	63.620066 
4788.000000	63.530468 
4787.000000	63.448214 
4786.000000	63.380002 
4785.000000	63.330054 
4784.000000	63.299870 
4783.000000	63.288402 
4782.000000	63.293051 
4781.000000	63.310265 
4780.000000	63.337159 
4779.000000	63.370537 
4778.000000	63.408994 
4777.000000	63.450837 
4776.000000	63.495850 
4775.000000	63.543486 
4774.000000	63.593840 
4773.000000	63.646864 
4772.000000	63.702368 
4771.000000	63.759803 
4770.000000	63.818168 
4769.000000	63.875865 
4768.000000	63.931107 
4767.000000	63.982057 
4766.000000	64.027237 
4765.000000	64.065766 
4764.000000	64.097809 
4763.000000	64.124274 
4762.000000	64.147067 
4761.000000	64.168119 
4760.000000	64.188718 
4759.000000	64.208936 
4758.000000	64.227676 
4757.000000	64.242815 
4756.000000	64.251899 
4755.000000	64.252591 
4754.000000	64.244198 
4753.000000	64.227437 
4752.000000	64.204740 
4751.000000	64.179635 
4750.000000	64.156055 
4749.000000	64.137268 
4748.000000	64.125657 
4747.000000	64.121413 
4746.000000	64.123010 
4745.000000	64.126896 
4744.000000	64.128589 
4743.000000	64.123201 
4742.000000	64.106559 
4741.000000	64.076590 
4740.000000	64.033961 
4739.000000	63.982224 
4738.000000	63.926911 
4737.000000	63.875079 
4736.000000	63.833403 
4735.000000	63.806867 
4734.000000	63.797545 
4733.000000	63.804149 
4732.000000	63.822317 
4731.000000	63.845205 
4730.000000	63.865327 
4729.000000	63.876152 
4728.000000	63.873910 
4727.000000	63.857507 
4726.000000	63.829660 
4725.000000	63.795328 
4724.000000	63.760972 
4723.000000	63.732790 
4722.000000	63.715338 
4721.000000	63.710904 
4720.000000	63.718724 
4719.000000	63.735723 
4718.000000	63.756752 
4717.000000	63.776135 
4716.000000	63.788652 
4715.000000	63.790845 
4714.000000	63.782143 
4713.000000	63.765048 
4712.000000	63.744568 
4711.000000	63.726973 
4710.000000	63.718390 
4709.000000	63.722872 
4708.000000	63.741707 
4707.000000	63.772416 
4706.000000	63.808941 
4705.000000	63.842916 
4704.000000	63.865900 
4703.000000	63.871455 
4702.000000	63.856434 
4701.000000	63.822221 
4700.000000	63.774108 
4699.000000	63.720202 
4698.000000	63.669323 
4697.000000	63.629126 
4696.000000	63.604378 
4695.000000	63.596034 
4694.000000	63.601827 
4693.000000	63.616800 
4692.000000	63.635277 
4691.000000	63.651537 
4690.000000	63.661026 
4689.000000	63.660788 
4688.000000	63.649559 
4687.000000	63.627958 
4686.000000	63.597965 
4685.000000	63.562893 
4684.000000	63.526749 
4683.000000	63.494992 
4682.000000	63.473391 
4681.000000	63.467454 
4680.000000	63.480997 
4679.000000	63.515138 
4678.000000	63.567590 
4677.000000	63.632202 
4676.000000	63.700437 
4675.000000	63.762879 
4674.000000	63.811612 
4673.000000	63.841509 
4672.000000	63.851642 
4671.000000	63.844871 
4670.000000	63.827157 
4669.000000	63.805866 
4668.000000	63.787436 
4667.000000	63.776063 
4666.000000	63.772869 
4665.000000	63.776588 
4664.000000	63.783454 
4663.000000	63.789176 
4662.000000	63.789725 
4661.000000	63.782811 
4660.000000	63.767433 
4659.000000	63.743972 
4658.000000	63.713645 
4657.000000	63.677954 
4656.000000	63.638567 
4655.000000	63.596630 
4654.000000	63.553547 
4653.000000	63.510322 
4652.000000	63.467550 
4651.000000	63.425397 
4650.000000	63.383603 
4649.000000	63.342213 
4648.000000	63.301301 
4647.000000	63.262414 
4646.000000	63.227415 
4645.000000	63.199639 
4644.000000	63.182568 
4643.000000	63.179349 
4642.000000	63.191294 
4641.000000	63.217926 
4640.000000	63.256335 
4639.000000	63.302135 
4638.000000	63.349771 
4637.000000	63.394594 
4636.000000	63.433694 
4635.000000	63.466691 
4634.000000	63.495612 
4633.000000	63.523697 
4632.000000	63.553977 
4631.000000	63.588142 
4630.000000	63.625693 
4629.000000	63.664054 
4628.000000	63.699293 
4627.000000	63.727855 
4626.000000	63.747620 
4625.000000	63.758635 
4624.000000	63.763093 
4623.000000	63.765215 
4622.000000	63.769841 
4621.000000	63.780665 
4620.000000	63.799452 
4619.000000	63.825702 
4618.000000	63.856649 
4617.000000	63.888263 
4616.000000	63.915801 
4615.000000	63.935613 
4614.000000	63.945126 
4613.000000	63.943719 
4612.000000	63.932228 
4611.000000	63.912367 
4610.000000	63.886642 
4609.000000	63.858008 
4608.000000	63.829302 
4607.000000	63.803339 
4606.000000	63.782405 
4605.000000	63.768267 
4604.000000	63.761854 
4603.000000	63.763236 
4602.000000	63.771820 
4601.000000	63.786649 
4600.000000	63.806319 
4599.000000	63.829517 
4598.000000	63.855528 
4597.000000	63.883972 
4596.000000	63.914656 
4595.000000	63.947081 
4594.000000	63.980150 
4593.000000	64.011740 
4592.000000	64.038944 
4591.000000	64.057731 
4590.000000	64.064264 
4589.000000	64.054965 
4588.000000	64.028143 
4587.000000	63.983917 
4586.000000	63.924837 
4585.000000	63.855576 
4584.000000	63.782262 
4583.000000	63.712286 
4582.000000	63.653278 
4581.000000	63.612079 
4580.000000	63.593769 
4579.000000	63.600921 
4578.000000	63.633131 
4577.000000	63.686800 
4576.000000	63.755393 
4575.000000	63.830304 
4574.000000	63.902306 
4573.000000	63.962578 
4572.000000	64.004468 
4571.000000	64.024519 
4570.000000	64.022970 
4569.000000	64.003682 
4568.000000	63.973093 
4567.000000	63.939166 
4566.000000	63.909268 
4565.000000	63.889217 
4564.000000	63.881564 
4563.000000	63.885974 
4562.000000	63.898825 
4561.000000	63.915228 
4560.000000	63.929367 
4559.000000	63.936114 
4558.000000	63.932156 
4557.000000	63.916587 
4556.000000	63.891005 
4555.000000	63.858699 
4554.000000	63.824033 
4553.000000	63.791322 
4552.000000	63.763356 
4551.000000	63.740777 
4550.000000	63.722348 
4549.000000	63.705635 
4548.000000	63.687753 
4547.000000	63.666534 
4546.000000	63.641214 
4545.000000	63.612890 
4544.000000	63.583946 
4543.000000	63.557815 
4542.000000	63.537144 
4541.000000	63.524317 
4540.000000	63.520383 
4539.000000	63.526225 
4538.000000	63.541579 
4537.000000	63.566446 
4536.000000	63.601040 
4535.000000	63.645815 
4534.000000	63.700771 
4533.000000	63.765001 
4532.000000	63.835811 
4531.000000	63.909101 
4530.000000	63.979268 
4529.000000	64.040803 
4528.000000	64.089035 
4527.000000	64.121627 
4526.000000	64.139342 
4525.000000	64.145302 
4524.000000	64.144206 
4523.000000	64.141321 
4522.000000	64.141297 
4521.000000	64.146947 
4520.000000	64.158773 
4519.000000	64.175820 
4518.000000	64.195656 
4517.000000	64.215302 
4516.000000	64.231300 
4515.000000	64.241051 
4514.000000	64.242529 
4513.000000	64.234161 
4512.000000	64.214825 
4511.000000	64.184021 
4510.000000	64.142227 
4509.000000	64.090752 
4508.000000	64.032363 
4507.000000	63.971066 
4506.000000	63.912272 
4505.000000	63.861894 
4504.000000	63.825845 
4503.000000	63.808226 
4502.000000	63.811826 
4501.000000	63.837289 
4500.000000	63.882875 
4499.000000	63.944244 
4498.000000	64.015626 
4497.000000	64.090609 
4496.000000	64.162492 
4495.000000	64.225554 
4494.000000	64.276075 
4493.000000	64.312958 
4492.000000	64.337825 
4491.000000	64.354372 
4490.000000	64.367175 
4489.000000	64.380431 
4488.000000	64.397621 
4487.000000	64.420127 
4486.000000	64.447736 
4485.000000	64.478111 
4484.000000	64.508390 
4483.000000	64.535164 
4482.000000	64.555835 
4481.000000	64.568352 
4480.000000	64.571952 
4479.000000	64.566373 
4478.000000	64.551877 
4477.000000	64.528751 
4476.000000	64.497518 
4475.000000	64.458513 
4474.000000	64.412450 
4473.000000	64.360475 
4472.000000	64.304590 
4471.000000	64.247298 
4470.000000	64.191865 
4469.000000	64.141750 
4468.000000	64.100694 
4467.000000	64.072585 
4466.000000	64.061164 
4465.000000	64.069247 
4464.000000	64.098310 
4463.000000	64.148044 
4462.000000	64.215636 
4461.000000	64.295196 
4460.000000	64.378285 
4459.000000	64.455175 
4458.000000	64.516210 
4457.000000	64.553046 
4456.000000	64.560794 
4455.000000	64.538955 
4454.000000	64.491605 
4453.000000	64.426898 
4452.000000	64.354920 
4451.000000	64.286065 
4450.000000	64.228582 
4449.000000	64.187479 
4448.000000	64.163899 
4447.000000	64.156222 
4446.000000	64.160728 
4445.000000	64.173197 
4444.000000	64.190673 
4443.000000	64.211821 
4442.000000	64.237213 
4441.000000	64.268374 
4440.000000	64.306664 
4439.000000	64.351749 
4438.000000	64.401459 
4437.000000	64.451050 
4436.000000	64.493751 
4435.000000	64.521789 
4434.000000	64.528870 
4433.000000	64.511132 
4432.000000	64.467906 
4431.000000	64.402556 
4430.000000	64.322400 
4429.000000	64.237666 
4428.000000	64.160013 
4427.000000	64.100074 
4426.000000	64.066553 
4425.000000	64.062595 
4424.000000	64.085340 
4423.000000	64.125800 
4422.000000	64.170718 
4421.000000	64.205741 
4420.000000	64.218306 
4419.000000	64.201831 
4418.000000	64.157414 
4417.000000	64.091467 
4416.000000	64.013743 
4415.000000	63.935208 
4414.000000	63.865661 
4413.000000	63.814282 
4412.000000	63.787961 
4411.000000	63.789844 
4410.000000	63.819837 
4409.000000	63.874602 
4408.000000	63.949561 
4407.000000	64.039802 
4406.000000	64.141869 
4405.000000	64.251279 
4404.000000	64.365482 
4403.000000	64.482021 
4402.000000	64.599156 
4401.000000	64.718294 
4400.000000	64.838266 
4399.000000	64.952015 
4398.000000	65.049457 
4397.000000	65.120768 
4396.000000	65.158271 
4395.000000	65.151906 
4394.000000	65.111589 
4393.000000	65.072035 
4392.000000	65.075206 
4391.000000	65.159273 
4390.000000	65.342450 
4389.000000	65.614342 
4388.000000	65.927219 
4387.000000	66.208338 
4386.000000	66.371893 
4385.000000	66.348361 
4384.000000	66.116642 
4383.000000	65.714502 
4382.000000	65.231060 
4381.000000	64.784193 
4380.000000	64.501643 
4379.000000	64.472293 
4378.000000	64.717245 
4377.000000	65.176129 
4376.000000	65.730190 
4375.000000	66.216516 
4374.000000	66.488909 
4373.000000	66.421008 
4372.000000	65.965199 
4371.000000	65.106534 
4370.000000	63.867330 
4369.000000	62.272071 
4368.000000	60.337066 
4367.000000	58.083057 
4366.000000	55.547928 
4365.000000	52.820587 
4364.000000	50.052833 
4363.000000	47.465491 
4362.000000	45.324945 
4361.000000	43.895196 
4360.000000	43.389439 
4359.000000	43.924713 
4358.000000	45.497107 
4357.000000	47.963166 
4356.000000	51.072096 
4355.000000	54.500865 
4354.000000	57.919931 
4353.000000	61.031579 
4352.000000	63.625216 
4351.000000	65.586042 
4350.000000	66.903567 
4349.000000	67.647743 
4348.000000	67.935490 
4347.000000	67.902803 
4346.000000	67.664766 
4345.000000	67.330408 
4344.000000	66.957664 
4343.000000	66.587901 
4342.000000	66.224884 
4341.000000	65.876483 
4340.000000	65.535855 
4339.000000	65.201067 
4338.000000	64.873409 
4337.000000	64.563560 
4336.000000	64.282274 
4335.000000	64.037322 
4334.000000	63.839530 
4333.000000	63.700342 
4332.000000	63.624429 
4331.000000	63.609457 
4330.000000	63.648605 
4329.000000	63.731050 
4328.000000	63.840842 
4327.000000	63.961935 
4326.000000	64.074087 
4325.000000	64.161825 
4324.000000	64.223790 
4323.000000	64.267945 
4322.000000	64.297533 
4321.000000	64.318656 
4320.000000	64.345741 
4319.000000	64.389252 
4318.000000	64.449262 
4317.000000	64.518761 
4316.000000	64.587426 
4315.000000	64.642333 
4314.000000	64.673185 
4313.000000	64.673781 
4312.000000	64.643454 
4311.000000	64.588809 
4310.000000	64.522695 
4309.000000	64.458990 
4308.000000	64.408779 
4307.000000	64.379668 
4306.000000	64.374065 
4305.000000	64.388227 
4304.000000	64.413690 
4303.000000	64.441275 
4302.000000	64.462804 
4301.000000	64.471769 
4300.000000	64.465093 
4299.000000	64.442229 
4298.000000	64.406061 
4297.000000	64.361739 
4296.000000	64.315962 
4295.000000	64.275479 
4294.000000	64.245676 
4293.000000	64.230060 
4292.000000	64.228987 
4291.000000	64.239287 
4290.000000	64.255738 
4289.000000	64.272427 
4288.000000	64.284634 
4287.000000	64.289426 
4286.000000	64.287424 
4285.000000	64.282178 
4284.000000	64.279627 
4283.000000	64.285731 
4282.000000	64.305973 
4281.000000	64.343571 
4280.000000	64.398765 
4279.000000	64.468240 
4278.000000	64.546036 
4277.000000	64.624428 
4276.000000	64.695668 
4275.000000	64.753246 
4274.000000	64.792919 
4273.000000	64.813160 
4272.000000	64.815044 
4271.000000	64.801478 
4270.000000	64.776921 
4269.000000	64.745783 
4268.000000	64.712548 
4267.000000	64.679980 
4266.000000	64.649510 
4265.000000	64.620566 
4264.000000	64.592170 
4263.000000	64.562344 
4262.000000	64.529395 
4261.000000	64.492106 
4260.000000	64.450168 
4259.000000	64.404153 
4258.000000	64.355111 
4257.000000	64.304447 
4256.000000	64.253497 
4255.000000	64.204001 
4254.000000	64.157843 
4253.000000	64.116930 
4252.000000	64.082527 
4251.000000	64.054989 
4250.000000	64.033460 
4249.000000	64.015245 
4248.000000	63.996767 
4247.000000	63.974237 
4246.000000	63.945317 
4245.000000	63.909244 
4244.000000	63.868212 
4243.000000	63.826918 
4242.000000	63.792109 
4241.000000	63.770508 
4240.000000	63.767576 
4239.000000	63.785743 
4238.000000	63.823699 
4237.000000	63.876295 
4236.000000	63.935494 
4235.000000	63.991951 
4234.000000	64.036917 
4233.000000	64.064097 
4232.000000	64.070677 
4231.000000	64.057755 
4230.000000	64.029550 
4229.000000	63.992047 
4228.000000	63.951563 
4227.000000	63.913083 
4226.000000	63.879728 
4225.000000	63.852477 
4224.000000	63.830280 
4223.000000	63.810873 
4222.000000	63.792228 
4221.000000	63.773298 
4220.000000	63.754606 
4219.000000	63.738036 
4218.000000	63.726329 
4217.000000	63.722133 
4216.000000	63.726949 
4215.000000	63.740682 
4214.000000	63.761210 
4213.000000	63.784813 
4212.000000	63.807153 
4211.000000	63.823318 
4210.000000	63.829898 
4209.000000	63.824224 
4208.000000	63.804984 
4207.000000	63.771915 
4206.000000	63.725805 
4205.000000	63.668203 
4204.000000	63.601446 
4203.000000	63.528895 
4202.000000	63.455057 
4201.000000	63.385319 
4200.000000	63.325357 
4199.000000	63.280606 
4198.000000	63.255143 
4197.000000	63.250088 
4196.000000	63.263106 
4195.000000	63.288593 
4194.000000	63.318896 
4193.000000	63.345289 
4192.000000	63.360333 
4191.000000	63.359189 
4190.000000	63.341045 
4189.000000	63.308906 
4188.000000	63.268899 
4187.000000	63.228368 
4186.000000	63.194489 
4185.000000	63.172459 
4184.000000	63.164734 
4183.000000	63.170814 
4182.000000	63.187909 
4181.000000	63.211798 
4180.000000	63.238644 
4179.000000	63.265705 
4178.000000	63.292574 
4177.000000	63.320493 
4176.000000	63.352489 
4175.000000	63.391995 
4174.000000	63.442063 
4173.000000	63.503861 
4172.000000	63.576984 
4171.000000	63.658761 
4170.000000	63.744616 
4169.000000	63.828253 
4168.000000	63.903307 
4167.000000	63.963556 
4166.000000	64.003992 
4165.000000	64.021158 
4164.000000	64.013791 
4163.000000	63.982915 
4162.000000	63.931870 
4161.000000	63.865971 
4160.000000	63.791823 
4159.000000	63.716793 
4158.000000	63.648724 
4157.000000	63.594627 
4156.000000	63.560056 
4155.000000	63.548159 
4154.000000	63.559436 
4153.000000	63.591361 
4152.000000	63.638663 
4151.000000	63.694882 
4150.000000	63.753056 
4149.000000	63.806986 
4148.000000	63.851690 
4147.000000	63.884758 
4146.000000	63.906192 
4145.000000	63.917732 
4144.000000	63.921904 
4143.000000	63.921713 
4142.000000	63.919401 
4141.000000	63.916063 
4140.000000	63.910984 
4139.000000	63.902425 
4138.000000	63.887548 
4137.000000	63.863754 
4136.000000	63.828992 
4135.000000	63.782882 
4134.000000	63.726973 
4133.000000	63.664841 
4132.000000	63.601469 
4131.000000	63.542532 
4130.000000	63.493013 
4129.000000	63.456749 
4128.000000	63.434886 
4127.000000	63.425636 
4126.000000	63.424563 
4125.000000	63.425827 
4124.000000	63.423037 
4123.000000	63.410758 
4122.000000	63.385701 
4121.000000	63.347339 
4120.000000	63.298034 
4119.000000	63.242244 
4118.000000	63.185286 
4117.000000	63.132023 
4116.000000	63.086128 
4115.000000	63.049674 
4114.000000	63.023090 
4113.000000	63.005781 
4112.000000	62.996697 
4111.000000	62.995290 
4110.000000	63.001585 
4109.000000	63.016390 
4108.000000	63.040137 
4107.000000	63.072919 
4106.000000	63.113164 
4105.000000	63.158226 
4104.000000	63.203811 
4103.000000	63.245463 
4102.000000	63.279342 
4101.000000	63.303184 
4100.000000	63.316679 
4099.000000	63.321518 
4098.000000	63.321232 
4097.000000	63.319277 
4096.000000	63.318181 
4095.000000	63.318777 
4094.000000	63.320064 
4093.000000	63.319921 
4092.000000	63.316130 
4091.000000	63.307428 
4090.000000	63.294410 
4089.000000	63.279342 
4088.000000	63.265943 
4087.000000	63.258099 
4086.000000	63.258910 
4085.000000	63.269639 
4084.000000	63.289499 
4083.000000	63.315868 
4082.000000	63.344907 
4081.000000	63.372468 
4080.000000	63.395237 
4079.000000	63.411092 
4078.000000	63.419914 
4077.000000	63.423156 
4076.000000	63.423275 
4075.000000	63.423109 
4074.000000	63.424992 
4073.000000	63.430714 
4072.000000	63.440489 
4071.000000	63.453602 
4070.000000	63.467907 
4069.000000	63.480806 
4068.000000	63.489222 
4067.000000	63.490319 
4066.000000	63.481974 
4065.000000	63.463354 
4064.000000	63.435077 
4063.000000	63.399100 
4062.000000	63.358426 
4061.000000	63.316702 
4060.000000	63.277459 
4059.000000	63.243818 
4058.000000	63.218188 
4057.000000	63.202333 
4056.000000	63.196921 
4055.000000	63.201904 
4054.000000	63.216280 
4053.000000	63.238501 
4052.000000	63.266277 
4051.000000	63.297009 
4050.000000	63.327789 
4049.000000	63.355946 
4048.000000	63.379073 
4047.000000	63.395333 
4046.000000	63.403725 
4045.000000	63.404107 
4044.000000	63.397216 
4043.000000	63.384246 
4042.000000	63.367009 
4041.000000	63.347148 
4040.000000	63.326168 
4039.000000	63.305377 
4038.000000	63.286018 
4037.000000	63.268852 
4036.000000	63.254427 
4035.000000	63.242793 
4034.000000	63.233661 
4033.000000	63.226294 
4032.000000	63.219809 
4031.000000	63.213253 
4030.000000	63.206005 
4029.000000	63.197970 
4028.000000	63.189983 
4027.000000	63.183164 
4026.000000	63.179183 
4025.000000	63.179850 
4024.000000	63.186645 
4023.000000	63.200283 
4022.000000	63.220572 
4021.000000	63.246393 
4020.000000	63.275456 
4019.000000	63.304781 
4018.000000	63.330483 
4017.000000	63.348841 
4016.000000	63.356161 
4015.000000	63.349723 
4014.000000	63.327980 
4013.000000	63.291168 
4012.000000	63.241267 
4011.000000	63.182020 
4010.000000	63.118624 
4009.000000	63.056993 
4008.000000	63.003015 
4007.000000	62.961483 
4006.000000	62.935423 
4005.000000	62.925934 
4004.000000	62.931656 
4003.000000	62.949872 
4002.000000	62.976527 
4001.000000	63.008046 
4000.000000	63.041567 
3999.000000	63.075804 
3998.000000	63.110756 
3997.000000	63.147330 
3996.000000	63.186359 
3995.000000	63.228178 
3994.000000	63.271784 
3993.000000	63.314938 
3992.000000	63.354611 
3991.000000	63.387608 
3990.000000	63.411688 
3989.000000	63.425707 
3988.000000	63.430285 
3987.000000	63.427090 
3986.000000	63.418626 
3985.000000	63.407206 
3984.000000	63.394713 
3983.000000	63.381862 
3982.000000	63.368487 
3981.000000	63.354206 
3980.000000	63.338804 
3979.000000	63.322877 
3978.000000	63.307952 
3977.000000	63.296270 
3976.000000	63.290429 
3975.000000	63.292360 
3974.000000	63.303017 
3973.000000	63.321757 
3972.000000	63.346505 
3971.000000	63.374018 
3970.000000	63.400578 
3969.000000	63.422727 
3968.000000	63.437819 
3967.000000	63.444614 
3966.000000	63.443374 
3965.000000	63.435769 
3964.000000	63.424420 
3963.000000	63.412332 
3962.000000	63.401913 
3961.000000	63.394641 
3960.000000	63.390445 
3959.000000	63.387846 
3958.000000	63.384127 
3957.000000	63.376069 
3956.000000	63.360452 
3955.000000	63.334941 
3954.000000	63.298606 
3953.000000	63.252282 
3952.000000	63.198661 
3951.000000	63.141942 
3950.000000	63.086724 
3949.000000	63.037848 
3948.000000	62.999153 
3947.000000	62.973594 
3946.000000	62.962555 
3945.000000	62.966179 
3944.000000	62.983226 
3943.000000	63.011598 
3942.000000	63.048577 
3941.000000	63.091516 
3940.000000	63.137197 
3939.000000	63.183021 
3938.000000	63.226842 
3937.000000	63.267254 
3936.000000	63.303160 
3935.000000	63.333964 
3934.000000	63.359355 
3933.000000	63.379049 
3932.000000	63.392901 
3931.000000	63.400793 
3930.000000	63.402867 
3929.000000	63.399791 
3928.000000	63.392972 
3927.000000	63.384652 
3926.000000	63.377690 
3925.000000	63.375377 
3924.000000	63.380527 
3923.000000	63.394737 
3922.000000	63.417530 
3921.000000	63.446617 
3920.000000	63.477730 
3919.000000	63.505268 
3918.000000	63.523149 
3917.000000	63.526797 
3916.000000	63.513588 
3915.000000	63.483309 
3914.000000	63.438606 
3913.000000	63.384461 
3912.000000	63.327264 
3911.000000	63.273406 
3910.000000	63.228011 
3909.000000	63.194465 
3908.000000	63.173484 
3907.000000	63.163518 
3906.000000	63.160943 
3905.000000	63.161063 
3904.000000	63.159441 
3903.000000	63.152980 
3902.000000	63.140130 
3901.000000	63.121509 
3900.000000	63.099503 
3899.000000	63.078093 
3898.000000	63.061523 
3897.000000	63.053536 
3896.000000	63.056969 
3895.000000	63.073062 
3894.000000	63.101172 
3893.000000	63.139224 
3892.000000	63.183784 
3891.000000	63.231372 
3890.000000	63.278603 
3889.000000	63.323545 
3888.000000	63.365435 
3887.000000	63.405132 
3886.000000	63.444519 
3885.000000	63.485527 
3884.000000	63.529467 
3883.000000	63.575959 
3882.000000	63.623070 
3881.000000	63.666677 
3880.000000	63.701581 
3879.000000	63.722419 
3878.000000	63.725471 
3877.000000	63.709378 
3876.000000	63.675570 
3875.000000	63.628292 
3874.000000	63.573408 
3873.000000	63.517022 
3872.000000	63.463926 
3871.000000	63.416624 
3870.000000	63.375329 
3869.000000	63.338422 
3868.000000	63.303852 
3867.000000	63.270306 
3866.000000	63.238286 
3865.000000	63.210129 
3864.000000	63.189911 
3863.000000	63.181304 
3862.000000	63.187170 
3861.000000	63.207912 
3860.000000	63.241434 
3859.000000	63.282632 
3858.000000	63.325238 
3857.000000	63.363027 
3856.000000	63.391375 
3855.000000	63.408112 
3854.000000	63.413500 
3853.000000	63.410115 
3852.000000	63.401317 
3851.000000	63.390183 
3850.000000	63.378691 
3849.000000	63.367223 
3848.000000	63.354945 
3847.000000	63.340353 
3846.000000	63.322305 
3845.000000	63.300752 
3844.000000	63.277006 
3843.000000	63.253402 
3842.000000	63.232684 
3841.000000	63.217020 
3840.000000	63.207459 
3839.000000	63.203597 
3838.000000	63.203430 
3837.000000	63.204431 
3836.000000	63.204169 
3835.000000	63.201355 
3834.000000	63.196086 
3833.000000	63.190317 
3832.000000	63.186883 
3831.000000	63.189220 
3830.000000	63.200020 
3829.000000	63.220691 
3828.000000	63.250398 
3827.000000	63.286471 
3826.000000	63.324618 
3825.000000	63.359808 
3824.000000	63.387274 
3823.000000	63.403272 
3822.000000	63.405919 
3821.000000	63.395261 
3820.000000	63.373231 
3819.000000	63.343000 
3818.000000	63.308310 
3817.000000	63.272833 
3816.000000	63.239502 
3815.000000	63.210082 
3814.000000	63.185095 
3813.000000	63.164138 
3812.000000	63.146114 
3811.000000	63.129758 
3810.000000	63.113951 
3809.000000	63.098073 
3808.000000	63.082242 
3807.000000	63.066840 
3806.000000	63.052868 
3805.000000	63.041043 
3804.000000	63.032078 
3803.000000	63.026452 
3802.000000	63.024353 
3801.000000	63.025569 
3800.000000	63.029861 
3799.000000	63.036894 
3798.000000	63.046407 
3797.000000	63.057971 
3796.000000	63.070845 
3795.000000	63.083839 
3794.000000	63.095259 
3793.000000	63.103079 
3792.000000	63.105607 
3791.000000	63.101887 
3790.000000	63.091778 
3789.000000	63.076663 
3788.000000	63.058805 
3787.000000	63.041520 
3786.000000	63.028240 
3785.000000	63.022065 
3784.000000	63.025164 
3783.000000	63.038158 
3782.000000	63.060426 
3781.000000	63.089704 
3780.000000	63.122510 
3779.000000	63.154530 
3778.000000	63.181400 
3777.000000	63.199400 
3776.000000	63.205981 
3775.000000	63.200449 
3774.000000	63.184046 
3773.000000	63.159894 
3772.000000	63.132500 
3771.000000	63.106846 
3770.000000	63.087582 
3769.000000	63.078045 
3768.000000	63.079452 
3767.000000	63.090562 
3766.000000	63.108134 
3765.000000	63.127326 
3764.000000	63.142848 
3763.000000	63.150119 
3762.000000	63.146352 
3761.000000	63.130903 
3760.000000	63.105607 
3759.000000	63.074159 
3758.000000	63.041448 
3757.000000	63.012599 
3756.000000	62.992072 
3755.000000	62.982702 
3754.000000	62.985301 
3753.000000	62.998771 
3752.000000	63.020133 
3751.000000	63.045573 
3750.000000	63.070893 
3749.000000	63.092780 
3748.000000	63.108921 
3747.000000	63.118147 
3746.000000	63.120436 
3745.000000	63.116574 
3744.000000	63.107681 
3743.000000	63.094902 
3742.000000	63.079690 
3741.000000	63.063645 
3740.000000	63.048768 
3739.000000	63.037467 
3738.000000	63.032269 
3737.000000	63.035106 
3736.000000	63.047027 
3735.000000	63.067626 
3734.000000	63.094758 
3733.000000	63.124728 
3732.000000	63.152909 
3731.000000	63.174915 
3730.000000	63.187265 
3729.000000	63.188385 
3728.000000	63.179016 
3727.000000	63.161516 
3726.000000	63.139295 
3725.000000	63.115620 
3724.000000	63.093066 
3723.000000	63.072657 
3722.000000	63.054156 
3721.000000	63.036179 
3720.000000	63.017249 
3719.000000	62.996101 
3718.000000	62.972593 
3717.000000	62.947440 
3716.000000	62.922286 
3715.000000	62.899208 
3714.000000	62.880015 
3713.000000	62.866020 
3712.000000	62.857532 
3711.000000	62.853908 
3710.000000	62.853765 
3709.000000	62.855458 
3708.000000	62.857532 
3707.000000	62.859177 
3706.000000	62.860465 
3705.000000	62.861895 
3704.000000	62.864446 
3703.000000	62.869215 
3702.000000	62.877035 
3701.000000	62.887811 
3700.000000	62.900424 
3699.000000	62.913131 
3698.000000	62.923502 
3697.000000	62.929153 
3696.000000	62.928223 
3695.000000	62.919926 
3694.000000	62.904763 
3693.000000	62.884688 
3692.000000	62.862753 
3691.000000	62.842416 
3690.000000	62.826943 
3689.000000	62.819004 
3688.000000	62.820005 
3687.000000	62.829923 
3686.000000	62.847447 
3685.000000	62.870216 
3684.000000	62.895202 
3683.000000	62.919092 
3682.000000	62.938523 
3681.000000	62.950515 
3680.000000	62.952542 
3679.000000	62.942910 
3678.000000	62.920880 
3677.000000	62.887310 
3676.000000	62.844872 
3675.000000	62.797832 
3674.000000	62.751913 
3673.000000	62.713098 
3672.000000	62.686824 
3671.000000	62.676692 
3670.000000	62.683558 
3669.000000	62.705636 
3668.000000	62.738728 
3667.000000	62.777209 
3666.000000	62.815093 
3665.000000	62.847518 
3664.000000	62.871551 
3663.000000	62.886500 
3662.000000	62.893581 
3661.000000	62.895011 
3660.000000	62.892818 
3659.000000	62.888503 
3658.000000	62.882447 
3657.000000	62.874102 
3656.000000	62.862277 
3655.000000	62.846350 
3654.000000	62.826347 
3653.000000	62.803506 
3652.000000	62.779903 
3651.000000	62.757992 
3650.000000	62.739920 
3649.000000	62.727069 
3648.000000	62.719511 
3647.000000	62.716269 
3646.000000	62.715339 
3645.000000	62.714123 
3644.000000	62.710094 
3643.000000	62.701272 
3642.000000	62.686634 
3641.000000	62.666010 
3640.000000	62.640500 
3639.000000	62.611889 
3638.000000	62.583065 
3637.000000	62.557339 
3636.000000	62.538218 
3635.000000	62.528538 
3634.000000	62.530112 
3633.000000	62.543320 
3632.000000	62.566685 
3631.000000	62.597131 
3630.000000	62.630486 
3629.000000	62.662363 
3628.000000	62.689018 
3627.000000	62.708187 
3626.000000	62.719440 
3625.000000	62.724018 
3624.000000	62.724471 
3623.000000	62.723994 
3622.000000	62.725591 
3621.000000	62.731027 
3620.000000	62.741017 
3619.000000	62.754511 
3618.000000	62.769174 
3617.000000	62.781882 
3616.000000	62.789797 
3615.000000	62.790513 
3614.000000	62.782907 
3613.000000	62.767243 
3612.000000	62.745141 
3611.000000	62.719297 
3610.000000	62.692904 
3609.000000	62.669253 
3608.000000	62.650942 
3607.000000	62.639617 
3606.000000	62.635636 
3605.000000	62.638187 
3604.000000	62.645649 
3603.000000	62.655687 
3602.000000	62.666153 
3601.000000	62.675094 
3600.000000	62.681293 
3599.000000	62.684369 
3598.000000	62.684726 
3597.000000	62.683033 
3596.000000	62.680268 
3595.000000	62.677192 
3594.000000	62.674307 
3593.000000	62.671828 
3592.000000	62.669777 
3591.000000	62.668108 
3590.000000	62.666845 
3589.000000	62.666344 
3588.000000	62.666797 
3587.000000	62.668204 
3586.000000	62.670016 
3585.000000	62.671542 
3584.000000	62.671613 
3583.000000	62.668919 
3582.000000	62.662386 
3581.000000	62.651443 
3580.000000	62.636184 
3579.000000	62.617325 
3578.000000	62.596082 
3577.000000	62.573933 
3576.000000	62.552285 
3575.000000	62.532424 
3574.000000	62.515258 
3573.000000	62.501573 
3572.000000	62.492012 
3571.000000	62.487220 
3570.000000	62.487697 
3569.000000	62.493395 
3568.000000	62.503623 
3567.000000	62.516927 
3566.000000	62.530946 
3565.000000	62.543582 
3564.000000	62.553238 
3563.000000	62.559938 
3562.000000	62.564945 
3561.000000	62.570786 
3560.000000	62.580728 
3559.000000	62.597298 
3558.000000	62.621426 
3557.000000	62.651848 
3556.000000	62.685036 
3555.000000	62.715744 
3554.000000	62.738299 
3553.000000	62.747788 
3552.000000	62.741327 
3551.000000	62.718892 
3550.000000	62.683248 
3549.000000	62.639188 
3548.000000	62.592601 
3547.000000	62.549209 
3546.000000	62.513709 
3545.000000	62.489056 
3544.000000	62.476181 
3543.000000	62.474441 
3542.000000	62.481832 
3541.000000	62.495446 
3540.000000	62.512063 
3539.000000	62.528085 
3538.000000	62.540268 
3537.000000	62.546038 
3536.000000	62.543964 
3535.000000	62.533640 
3534.000000	62.516260 
3533.000000	62.494349 
3532.000000	62.471461 
3531.000000	62.451243 
3530.000000	62.436676 
3529.000000	62.429308 
3528.000000	62.428927 
3527.000000	62.433743 
3526.000000	62.441372 
3525.000000	62.449574 
3524.000000	62.457108 
3523.000000	62.464118 
3522.000000	62.471723 
3521.000000	62.481498 
3520.000000	62.494373 
3519.000000	62.509989 
3518.000000	62.526416 
3517.000000	62.540316 
3516.000000	62.548279 
3515.000000	62.547349 
3514.000000	62.535834 
3513.000000	62.513828 
3512.000000	62.483525 
3511.000000	62.448644 
3510.000000	62.413597 
3509.000000	62.382531 
3508.000000	62.358617 
3507.000000	62.343263 
3506.000000	62.336349 
3505.000000	62.336277 
3504.000000	62.340807 
3503.000000	62.347388 
3502.000000	62.354040 
3501.000000	62.359380 
3500.000000	62.362694 
3499.000000	62.363743 
3498.000000	62.362360 
3497.000000	62.358617 
3496.000000	62.352514 
3495.000000	62.344288 
3494.000000	62.334561 
3493.000000	62.324309 
3492.000000	62.315034 
3491.000000	62.308549 
3490.000000	62.306523 
3489.000000	62.310028 
3488.000000	62.319207 
3487.000000	62.332749 
3486.000000	62.348532 
3485.000000	62.363529 
3484.000000	62.375092 
3483.000000	62.381267 
3482.000000	62.381362 
3481.000000	62.376284 
3480.000000	62.367773 
3479.000000	62.358069 
3478.000000	62.348985 
3477.000000	62.341690 
3476.000000	62.336349 
3475.000000	62.332248 
3474.000000	62.328481 
3473.000000	62.324547 
3472.000000	62.320733 
3471.000000	62.318277 
3470.000000	62.318944 
3469.000000	62.324357 
3468.000000	62.335467 
3467.000000	62.351799 
3466.000000	62.371301 
3465.000000	62.390899 
3464.000000	62.407231 
3463.000000	62.417745 
3462.000000	62.421274 
3461.000000	62.418699 
3460.000000	62.412405 
3459.000000	62.405896 
3458.000000	62.402224 
3457.000000	62.403583 
3456.000000	62.410569 
3455.000000	62.421917 
3454.000000	62.435007 
3453.000000	62.446475 
3452.000000	62.453484 
3451.000000	62.454414 
3450.000000	62.449097 
3449.000000	62.439322 
3448.000000	62.428021 
3447.000000	62.418723 
3446.000000	62.414479 
3445.000000	62.417221 
3444.000000	62.427115 
3443.000000	62.442708 
3442.000000	62.461161 
3441.000000	62.478995 
3440.000000	62.492775 
3439.000000	62.499976 
3438.000000	62.499427 
3437.000000	62.491416 
3436.000000	62.477374 
3435.000000	62.459540 
3434.000000	62.439918 
3433.000000	62.419986 
3432.000000	62.399864 
3431.000000	62.378883 
3430.000000	62.355375 
3429.000000	62.327933 
3428.000000	62.295579 
3427.000000	62.258625 
3426.000000	62.218642 
3425.000000	62.178230 
3424.000000	62.140488 
3423.000000	62.108278 
3422.000000	62.083649 
3421.000000	62.067437 
3420.000000	62.059211 
3419.000000	62.057423 
3418.000000	62.060356 
3417.000000	62.066507 
3416.000000	62.074923 
3415.000000	62.085318 
3414.000000	62.097954 
3413.000000	62.113142 
3412.000000	62.130761 
3411.000000	62.149786 
3410.000000	62.168717 
3409.000000	62.185454 
3408.000000	62.198042 
3407.000000	62.204861 
3406.000000	62.205100 
3405.000000	62.198758 
3404.000000	62.186861 
3403.000000	62.171077 
3402.000000	62.153172 
3401.000000	62.134885 
3400.000000	62.117767 
3399.000000	62.102913 
3398.000000	62.091040 
3397.000000	62.082266 
3396.000000	62.076663 
3395.000000	62.073969 
3394.000000	62.073755 
3393.000000	62.075304 
3392.000000	62.077689 
3391.000000	62.079548 
3390.000000	62.079429 
3389.000000	62.075829 
3388.000000	62.067580 
3387.000000	62.053847 
3386.000000	62.034606 
3385.000000	62.010788 
3384.000000	61.984252 
3383.000000	61.957716 
3382.000000	61.934447 
3381.000000	61.917638 
3380.000000	61.910080 
3379.000000	61.913418 
3378.000000	61.927962 
3377.000000	61.952328 
3376.000000	61.983585 
3375.000000	62.017798 
3374.000000	62.050485 
3373.000000	62.077474 
3372.000000	62.095284 
3371.000000	62.101578 
3370.000000	62.095403 
3369.000000	62.077331 
3368.000000	62.049007 
3367.000000	62.012839 
3366.000000	61.971640 
3365.000000	61.928725 
3364.000000	61.887407 
3363.000000	61.851072 
3362.000000	61.822867 
3361.000000	61.805605 
3360.000000	61.801576 
3359.000000	61.812043 
3358.000000	61.836576 
3357.000000	61.873149 
3356.000000	61.917877 
3355.000000	61.965680 
3354.000000	62.010717 
3353.000000	62.047863 
3352.000000	62.072920 
3351.000000	62.084126 
3350.000000	62.082147 
3349.000000	62.070012 
3348.000000	62.052202 
3347.000000	62.033677 
3346.000000	62.018918 
3345.000000	62.010955 
3344.000000	62.011098 
3343.000000	62.018585 
3342.000000	62.031292 
3341.000000	62.046408 
3340.000000	62.061405 
3339.000000	62.074184 
3338.000000	62.083578 
3337.000000	62.088871 
3336.000000	62.089824 
3335.000000	62.086105 
3334.000000	62.077283 
3333.000000	62.062788 
3332.000000	62.042284 
3331.000000	62.016415 
3330.000000	61.986732 
3329.000000	61.955881 
3328.000000	61.927127 
3327.000000	61.904001 
3326.000000	61.889576 
3325.000000	61.885666 
3324.000000	61.892509 
3323.000000	61.908602 
3322.000000	61.930918 
3321.000000	61.955666 
3320.000000	61.978483 
3319.000000	61.995673 
3318.000000	62.004208 
3317.000000	62.002325 
3316.000000	61.989235 
3315.000000	61.965370 
3314.000000	61.931824 
3313.000000	61.890363 
3312.000000	61.843109 
3311.000000	61.792492 
3310.000000	61.741209 
3309.000000	61.692070 
3308.000000	61.647987 
3307.000000	61.611795 
3306.000000	61.586260 
3305.000000	61.573863 
3304.000000	61.576294 
3303.000000	61.594080 
3302.000000	61.625933 
3301.000000	61.669158 
3300.000000	61.719465 
3299.000000	61.771988 
3298.000000	61.821651 
3297.000000	61.864137 
3296.000000	61.896944 
3295.000000	61.919093 
3294.000000	61.931300 
3293.000000	61.934947 
3292.000000	61.932134 
3291.000000	61.924004 
3290.000000	61.911129 
3289.000000	61.892795 
3288.000000	61.867952 
3287.000000	61.835503 
3286.000000	61.795258 
3285.000000	61.748218 
3284.000000	61.697077 
3283.000000	61.645364 
3282.000000	61.596941 
3281.000000	61.555409 
3280.000000	61.523318 
3279.000000	61.502146 
3278.000000	61.492323 
3277.000000	61.493444 
3276.000000	61.504793 
3275.000000	61.525702 
3274.000000	61.555504 
3273.000000	61.593294 
3272.000000	61.637687 
3271.000000	61.686420 
3270.000000	61.736488 
3269.000000	61.783909 
3268.000000	61.824536 
3267.000000	61.854863 
3266.000000	61.872506 
3265.000000	61.876845 
3264.000000	61.868834 
3263.000000	61.851215 
3262.000000	61.827540 
3261.000000	61.801671 
3260.000000	61.777067 
3259.000000	61.756467 
3258.000000	61.741423 
3257.000000	61.732578 
3256.000000	61.729097 
3255.000000	61.729264 
3254.000000	61.730623 
3253.000000	61.730432 
3252.000000	61.725997 
3251.000000	61.715388 
3250.000000	61.697649 
3249.000000	61.673188 
3248.000000	61.643934 
3247.000000	61.612963 
3246.000000	61.583781 
3245.000000	61.559581 
3244.000000	61.542677 
3243.000000	61.533713 
3242.000000	61.531686 
3241.000000	61.533832 
3240.000000	61.536693 
3239.000000	61.536622 
3238.000000	61.530852 
3237.000000	61.517763 
3236.000000	61.497092 
3235.000000	61.470198 
3234.000000	61.439180 
3233.000000	61.407041 
3232.000000	61.376738 
3231.000000	61.351180 
3230.000000	61.332750 
3229.000000	61.323094 
3228.000000	61.322712 
3227.000000	61.331057 
3226.000000	61.346244 
3225.000000	61.365365 
3224.000000	61.384749 
3223.000000	61.400270 
3222.000000	61.408185 
3221.000000	61.405825 
3220.000000	61.392474 
3219.000000	61.369299 
3218.000000	61.339569 
3217.000000	61.307549 
3216.000000	61.278319 
3215.000000	61.256432 
3214.000000	61.245274 
3213.000000	61.246132 
3212.000000	61.258459 
3211.000000	61.280083 
3210.000000	61.308026 
3209.000000	61.338853 
3208.000000	61.369562 
3207.000000	61.397910 
3206.000000	61.422753 
3205.000000	61.443614 
3204.000000	61.460590 
3203.000000	61.473608 
3202.000000	61.482334 
3201.000000	61.485886 
3200.000000	61.483168 
3199.000000	61.473107 
3198.000000	61.455035 
3197.000000	61.429166 
3196.000000	61.396646 
3195.000000	61.359667 
3194.000000	61.321139 
3193.000000	61.284685 
3192.000000	61.253499 
3191.000000	61.230587 
3190.000000	61.217999 
3189.000000	61.217260 
3188.000000	61.228561 
3187.000000	61.251449 
3186.000000	61.284470 
3185.000000	61.325430 
3184.000000	61.371469 
3183.000000	61.418914 
3182.000000	61.463451 
3181.000000	61.500644 
3180.000000	61.526417 
3179.000000	61.537742 
3178.000000	61.533212 
3177.000000	61.513400 
3176.000000	61.480760 
3175.000000	61.439180 
3174.000000	61.393332 
3173.000000	61.347651 
3172.000000	61.305522 
3171.000000	61.268782 
3170.000000	61.237740 
3169.000000	61.211466 
3168.000000	61.188435 
3167.000000	61.167359 
3166.000000	61.147809 
3165.000000	61.130142 
3164.000000	61.115407 
3163.000000	61.104559 
3162.000000	61.098384 
3161.000000	61.096382 
3160.000000	61.097502 
3159.000000	61.100172 
3158.000000	61.103296 
3157.000000	61.106324 
3156.000000	61.109614 
3155.000000	61.114287 
3154.000000	61.121654 
3153.000000	61.132574 
3152.000000	61.146855 
3151.000000	61.162924 
3150.000000	61.178088 
3149.000000	61.189126 
3148.000000	61.192989 
3147.000000	61.187577 
3146.000000	61.172437 
3145.000000	61.148905 
3144.000000	61.119580 
3143.000000	61.087417 
3142.000000	61.055397 
3141.000000	61.025595 
3140.000000	60.998868 
3139.000000	60.974383 
3138.000000	60.950684 
3137.000000	60.925626 
3136.000000	60.897207 
3135.000000	60.864257 
3134.000000	60.826086 
3133.000000	60.783958 
3132.000000	60.740137 
3131.000000	60.698652 
3130.000000	60.663723 
3129.000000	60.640192 
3128.000000	60.632014 
3127.000000	60.642099 
3126.000000	60.671329 
3125.000000	60.718464 
3124.000000	60.780167 
3123.000000	60.851550 
3122.000000	60.926771 
3121.000000	61.000180 
3120.000000	61.066746 
3119.000000	61.123061 
3118.000000	61.167335 
3117.000000	61.199259 
3116.000000	61.219263 
3115.000000	61.228442 
3114.000000	61.227703 
3113.000000	61.217880 
3112.000000	61.199092 
3111.000000	61.172103 
3110.000000	61.137604 
3109.000000	61.096906 
3108.000000	61.051583 
3107.000000	61.004209 
3106.000000	60.957431 
3105.000000	60.914015 
3104.000000	60.876536 
3103.000000	60.846900 
3102.000000	60.826468 
3101.000000	60.815644 
3100.000000	60.814285 
3099.000000	60.821533 
3098.000000	60.836553 
3097.000000	60.858106 
3096.000000	60.885119 
3095.000000	60.916161 
3094.000000	60.949683 
3093.000000	60.983967 
3092.000000	61.016774 
3091.000000	61.045360 
3090.000000	61.067175 
3089.000000	61.080241 
3088.000000	61.083269 
3087.000000	61.076021 
3086.000000	61.059761 
3085.000000	61.037087 
3084.000000	61.011481 
3083.000000	60.986542 
3082.000000	60.965418 
3081.000000	60.950183 
3080.000000	60.941576 
3079.000000	60.939216 
3078.000000	60.941481 
3077.000000	60.946488 
3076.000000	60.952687 
3075.000000	60.958957 
3074.000000	60.964751 
3073.000000	60.970139 
3072.000000	60.975384 
3071.000000	60.980629 
3070.000000	60.985422 
3069.000000	60.988855 
3068.000000	60.989713 
3067.000000	60.986804 
3066.000000	60.979247 
3065.000000	60.967087 
3064.000000	60.951137 
3063.000000	60.933351 
3062.000000	60.916042 
3061.000000	60.901427 
3060.000000	60.890984 
3059.000000	60.885310 
3058.000000	60.883760 
3057.000000	60.884475 
3056.000000	60.884881 
3055.000000	60.882544 
3054.000000	60.875654 
3053.000000	60.863375 
3052.000000	60.846209 
3051.000000	60.825610 
3050.000000	60.803818 
3049.000000	60.783219 
3048.000000	60.765957 
3047.000000	60.753417 
3046.000000	60.746192 
3045.000000	60.744071 
3044.000000	60.746622 
3043.000000	60.753560 
3042.000000	60.764813 
3041.000000	60.780572 
3040.000000	60.800981 
3039.000000	60.825681 
3038.000000	60.853624 
3037.000000	60.882639 
3036.000000	60.909843 
3035.000000	60.931634 
3034.000000	60.944676 
3033.000000	60.946297 
3032.000000	60.935115 
3031.000000	60.911202 
3030.000000	60.876393 
3029.000000	60.833692 
3028.000000	60.787081 
3027.000000	60.740780 
3026.000000	60.698699 
3025.000000	60.663986 
3024.000000	60.638856 
3023.000000	60.624098 
3022.000000	60.619187 
3021.000000	60.622358 
3020.000000	60.630655 
3019.000000	60.640859 
3018.000000	60.649466 
3017.000000	60.653853 
3016.000000	60.652375 
3015.000000	60.645055 
3014.000000	60.633349 
3013.000000	60.619950 
3012.000000	60.607862 
3011.000000	60.599780 
3010.000000	60.597395 
3009.000000	60.601067 
3008.000000	60.609674 
3007.000000	60.620927 
3006.000000	60.632014 
3005.000000	60.640287 
3004.000000	60.643696 
3003.000000	60.641336 
3002.000000	60.633230 
3001.000000	60.620403 
3000.000000	60.604143 
2999.000000	60.585856 
2998.000000	60.566711 
2997.000000	60.547494 
2996.000000	60.528707 
2995.000000	60.510873 
2994.000000	60.494422 
2993.000000	60.479998 
2992.000000	60.468292 
2991.000000	60.460090 
2990.000000	60.455989 
2989.000000	60.456156 
2988.000000	60.460233 
2987.000000	60.467290 
2986.000000	60.476136 
2985.000000	60.485386 
2984.000000	60.493779 
2983.000000	60.500240 
2982.000000	60.504221 
2981.000000	60.505700 
2980.000000	60.505151 
2979.000000	60.503196 
2978.000000	60.500836 
2977.000000	60.498833 
2976.000000	60.497832 
2975.000000	60.497689 
2974.000000	60.497736 
2973.000000	60.496592 
2972.000000	60.492515 
2971.000000	60.483551 
2970.000000	60.468244 
2969.000000	60.446238 
2968.000000	60.418438 
2967.000000	60.387372 
2966.000000	60.356521 
2965.000000	60.329985 
2964.000000	60.311532 
2963.000000	60.303831 
2962.000000	60.307765 
2961.000000	60.322189 
2960.000000	60.343980 
2959.000000	60.368728 
2958.000000	60.391712 
2957.000000	60.408711 
2956.000000	60.416769 
2955.000000	60.414648 
2954.000000	60.402917 
2953.000000	60.383248 
2952.000000	60.357832 
2951.000000	60.329055 
2950.000000	60.298800 
2949.000000	60.268139 
2948.000000	60.237669 
2947.000000	60.207915 
2946.000000	60.179638 
2945.000000	60.154080 
2944.000000	60.133051 
2943.000000	60.118484 
2942.000000	60.112047 
2941.000000	60.114359 
2940.000000	60.124778 
2939.000000	60.140848 
2938.000000	60.158896 
2937.000000	60.174608 
2936.000000	60.184049 
2935.000000	60.184335 
2934.000000	60.174608 
2933.000000	60.156059 
2932.000000	60.131692 
2931.000000	60.105156 
2930.000000	60.080218 
2929.000000	60.059595 
2928.000000	60.044312 
2927.000000	60.033392 
2926.000000	60.024380 
2925.000000	60.014152 
2924.000000	59.999847 
2923.000000	59.979867 
2922.000000	59.954190 
2921.000000	59.924674 
2920.000000	59.894394 
2919.000000	59.867310 
2918.000000	59.847068 
2917.000000	59.836554 
2916.000000	59.837174 
2915.000000	59.848761 
2914.000000	59.869909 
2913.000000	59.897851 
2912.000000	59.929275 
2911.000000	59.960699 
2910.000000	59.988832 
2909.000000	60.011363 
2908.000000	60.026836 
2907.000000	60.035276 
2906.000000	60.037922 
2905.000000	60.037016 
2904.000000	60.035157 
2903.000000	60.035061 
2902.000000	60.038685 
2901.000000	60.046863 
2900.000000	60.058832 
2899.000000	60.072803 
2898.000000	60.085988 
2897.000000	60.095167 
2896.000000	60.097360 
2895.000000	60.090899 
2894.000000	60.075521 
2893.000000	60.052800 
2892.000000	60.025453 
2891.000000	59.996819 
2890.000000	59.970116 
2889.000000	59.947705 
2888.000000	59.930682 
2887.000000	59.918546 
2886.000000	59.909892 
2885.000000	59.902977 
2884.000000	59.896683 
2883.000000	59.890675 
2882.000000	59.885883 
2881.000000	59.884119 
2880.000000	59.887242 
2879.000000	59.896683 
2878.000000	59.912467 
2877.000000	59.933280 
2876.000000	59.956479 
2875.000000	59.978866 
2874.000000	59.997653 
2873.000000	60.011196 
2872.000000	60.019779 
2871.000000	60.025191 
2870.000000	60.030198 
2869.000000	60.037326 
2868.000000	60.047984 
2867.000000	60.061359 
2866.000000	60.074448 
2865.000000	60.082364 
2864.000000	60.079669 
2863.000000	60.061812 
2862.000000	60.026574 
2861.000000	59.975075 
2860.000000	59.911704 
2859.000000	59.843659 
2858.000000	59.779214 
2857.000000	59.726262 
2856.000000	59.690594 
2855.000000	59.675002 
2854.000000	59.678983 
2853.000000	59.699296 
2852.000000	59.730839 
2851.000000	59.768009 
2850.000000	59.805893 
2849.000000	59.840989 
2848.000000	59.871482 
2847.000000	59.897327 
2846.000000	59.919548 
2845.000000	59.939408 
2844.000000	59.957742 
2843.000000	59.974408 
2842.000000	59.987974 
2841.000000	59.996390 
2840.000000	59.997105 
2839.000000	59.988403 
2838.000000	59.969639 
2837.000000	59.942007 
2836.000000	59.908223 
2835.000000	59.871912 
2834.000000	59.836959 
2833.000000	59.806680 
2832.000000	59.783315 
2831.000000	59.767246 
2830.000000	59.757494 
2829.000000	59.752130 
2828.000000	59.748935 
2827.000000	59.745979 
2826.000000	59.742355 
2825.000000	59.738278 
2824.000000	59.734725 
2823.000000	59.732818 
2822.000000	59.733223 
2821.000000	59.735822 
2820.000000	59.739661 
2819.000000	59.742808 
2818.000000	59.743189 
2817.000000	59.738802 
2816.000000	59.728622 
2815.000000	59.712743 
2814.000000	59.692406 
2813.000000	59.669947 
2812.000000	59.648132 
2811.000000	59.629917 
2810.000000	59.617710 
2809.000000	59.613060 
2808.000000	59.616470 
2807.000000	59.627318 
2806.000000	59.644055 
2805.000000	59.664559 
2804.000000	59.686183 
2803.000000	59.706282 
2802.000000	59.722542 
2801.000000	59.733223 
2800.000000	59.737205 
2799.000000	59.734416 
2798.000000	59.725689 
2797.000000	59.712815 
2796.000000	59.698271 
2795.000000	59.684753 
2794.000000	59.674835 
2793.000000	59.670352 
2792.000000	59.672117 
2791.000000	59.679698 
2790.000000	59.691405 
2789.000000	59.704804 
2788.000000	59.716987 
2787.000000	59.725356 
2786.000000	59.728050 
2785.000000	59.724283 
2784.000000	59.714341 
2783.000000	59.699487 
2782.000000	59.681415 
2781.000000	59.662008 
2780.000000	59.642696 
2779.000000	59.624481 
2778.000000	59.607601 
2777.000000	59.591865 
2776.000000	59.576654 
2775.000000	59.561538 
2774.000000	59.546494 
2773.000000	59.532094 
2772.000000	59.519481 
2771.000000	59.509825 
2770.000000	59.504318 
2769.000000	59.503746 
2768.000000	59.508085 
2767.000000	59.516406 
2766.000000	59.527015 
2765.000000	59.537839 
2764.000000	59.546804 
2763.000000	59.552192 
2762.000000	59.553027 
2761.000000	59.549021 
2760.000000	59.540653 
2759.000000	59.528970 
2758.000000	59.515094 
2757.000000	59.500122 
2756.000000	59.484887 
2755.000000	59.469866 
2754.000000	59.455585 
2753.000000	59.442543 
2752.000000	59.431362 
2751.000000	59.422802 
2750.000000	59.417533 
2749.000000	59.415841 
2748.000000	59.417557 
2747.000000	59.421825 
2746.000000	59.427094 
2745.000000	59.431409 
2744.000000	59.432792 
2743.000000	59.429597 
2742.000000	59.420871 
2741.000000	59.406661 
2740.000000	59.387922 
2739.000000	59.366559 
2738.000000	59.344792 
2737.000000	59.324908 
2736.000000	59.308624 
2735.000000	59.297084 
2734.000000	59.290385 
2733.000000	59.287929 
2732.000000	59.288215 
2731.000000	59.289503 
2730.000000	59.289884 
2729.000000	59.287905 
2728.000000	59.282660 
2727.000000	59.273791 
2726.000000	59.261703 
2725.000000	59.247326 
2724.000000	59.231781 
2723.000000	59.215974 
2722.000000	59.200477 
2721.000000	59.185433 
2720.000000	59.170699 
2719.000000	59.155821 
2718.000000	59.140634 
2717.000000	59.125256 
2716.000000	59.110260 
2715.000000	59.096646 
2714.000000	59.085679 
2713.000000	59.078454 
2712.000000	59.075665 
2711.000000	59.077429 
2710.000000	59.082961 
2709.000000	59.090948 
2708.000000	59.099578 
2707.000000	59.107375 
2706.000000	59.113025 
2705.000000	59.116220 
2704.000000	59.117317 
2703.000000	59.117603 
2702.000000	59.118771 
2701.000000	59.122419 
2700.000000	59.129738 
2699.000000	59.140992 
2698.000000	59.155464 
2697.000000	59.171342 
2696.000000	59.186148 
2695.000000	59.197115 
2694.000000	59.201884 
2693.000000	59.198856 
2692.000000	59.187841 
2691.000000	59.169960 
2690.000000	59.147500 
2689.000000	59.123492 
2688.000000	59.100961 
2687.000000	59.082341 
2686.000000	59.068989 
2685.000000	59.060740 
2684.000000	59.056043 
2683.000000	59.052467 
2682.000000	59.047269 
2681.000000	59.038066 
2680.000000	59.023642 
2679.000000	59.004044 
2678.000000	58.980774 
2677.000000	58.956360 
2676.000000	58.933711 
2675.000000	58.915448 
2674.000000	58.903121 
2673.000000	58.897280 
2672.000000	58.897137 
2671.000000	58.900833 
2670.000000	58.905887 
2669.000000	58.909702 
2668.000000	58.910107 
2667.000000	58.905506 
2666.000000	58.895182 
2665.000000	58.879184 
2664.000000	58.858418 
2663.000000	58.834195 
2662.000000	58.808612 
2661.000000	58.784055 
2660.000000	58.763146 
2659.000000	58.748340 
2658.000000	58.741497 
2657.000000	58.743596 
2656.000000	58.754324 
2655.000000	58.772110 
2654.000000	58.794236 
2653.000000	58.817267 
2652.000000	58.837652 
2651.000000	58.852434 
2650.000000	58.859586 
2649.000000	58.858704 
2648.000000	58.850622 
2647.000000	58.837151 
2646.000000	58.820652 
2645.000000	58.803343 
2644.000000	58.787178 
2643.000000	58.773350 
2642.000000	58.762598 
2641.000000	58.754920 
2640.000000	58.750319 
2639.000000	58.748483 
2638.000000	58.749103 
2637.000000	58.751511 
2636.000000	58.754920 
2635.000000	58.758163 
2634.000000	58.760070 
2633.000000	58.759498 
2632.000000	58.755469 
2631.000000	58.747482 
2630.000000	58.735370 
2629.000000	58.719491 
2628.000000	58.700466 
2627.000000	58.679080 
2626.000000	58.656072 
2625.000000	58.632063 
2624.000000	58.607697 
2623.000000	58.583617 
2622.000000	58.560705 
2621.000000	58.540105 
2620.000000	58.523011 
2619.000000	58.510732 
2618.000000	58.504343 
2617.000000	58.504176 
2616.000000	58.510041 
2615.000000	58.521008 
2614.000000	58.535623 
2613.000000	58.552002 
2612.000000	58.568120 
2611.000000	58.582162 
2610.000000	58.592653 
2609.000000	58.598542 
2608.000000	58.599376 
2607.000000	58.595204 
2606.000000	58.586573 
2605.000000	58.574509 
2604.000000	58.560347 
2603.000000	58.545756 
2602.000000	58.532381 
2601.000000	58.521795 
2600.000000	58.515191 
2599.000000	58.513164 
2598.000000	58.515667 
2597.000000	58.521890 
2596.000000	58.530473 
2595.000000	58.539772 
2594.000000	58.548235 
2593.000000	58.554530 
2592.000000	58.557581 
2591.000000	58.556699 
2590.000000	58.551645 
2589.000000	58.542633 
2588.000000	58.529949 
2587.000000	58.514356 
2586.000000	58.496856 
2585.000000	58.478522 
2584.000000	58.460497 
2583.000000	58.443903 
2582.000000	58.429741 
2581.000000	58.418750 
2580.000000	58.411550 
2579.000000	58.408379 
2578.000000	58.408904 
2577.000000	58.412241 
2576.000000	58.417010 
2575.000000	58.421254 
2574.000000	58.422994 
2573.000000	58.420610 
2572.000000	58.413195 
2571.000000	58.400869 
2570.000000	58.384680 
2569.000000	58.366179 
2568.000000	58.347296 
2567.000000	58.329725 
2566.000000	58.314847 
2565.000000	58.303642 
2564.000000	58.296632 
2563.000000	58.293986 
2562.000000	58.295512 
2561.000000	58.300685 
2560.000000	58.308625 
2559.000000	58.318066 
2558.000000	58.327865 
2557.000000	58.336949 
2556.000000	58.344626 
2555.000000	58.350634 
2554.000000	58.354973 
2553.000000	58.357763 
2552.000000	58.359146 
2551.000000	58.359193 
2550.000000	58.357930 
2549.000000	58.355402 
2548.000000	58.351755 
2547.000000	58.347225 
2546.000000	58.342409 
2545.000000	58.338046 
2544.000000	58.334755 
2543.000000	58.332729 
2542.000000	58.332037 
2541.000000	58.331990 
2540.000000	58.331704 
2539.000000	58.330059 
2538.000000	58.326029 
2537.000000	58.318758 
2536.000000	58.308172 
2535.000000	58.294391 
2534.000000	58.277797 
2533.000000	58.258795 
2532.000000	58.237957 
2531.000000	58.215880 
2530.000000	58.193445 
2529.000000	58.171772 
2528.000000	58.152246 
2527.000000	58.136415 
2526.000000	58.125567 
2525.000000	58.120322 
2524.000000	58.120322 
2523.000000	58.123874 
2522.000000	58.128142 
2521.000000	58.129692 
2520.000000	58.125019 
2519.000000	58.111381 
2518.000000	58.087611 
2517.000000	58.054375 
2516.000000	58.014130 
2515.000000	57.970666 
2514.000000	57.928657 
2513.000000	57.892203 
2512.000000	57.864832 
2511.000000	57.848644 
2510.000000	57.844138 
2509.000000	57.850623 
2508.000000	57.866096 
2507.000000	57.887864 
2506.000000	57.912969 
2505.000000	57.938146 
2504.000000	57.960700 
2503.000000	57.978367 
2502.000000	57.989835 
2501.000000	57.994532 
2500.000000	57.992982 
2499.000000	57.986426 
2498.000000	57.976841 
2497.000000	57.966399 
2496.000000	57.957339 
2495.000000	57.951164 
2494.000000	57.948708 
2493.000000	57.949709 
2492.000000	57.953071 
2491.000000	57.956910 
2490.000000	57.959127 
2489.000000	57.957744 
2488.000000	57.951426 
2487.000000	57.939910 
2486.000000	57.923936 
2485.000000	57.905244 
2484.000000	57.885932 
2483.000000	57.868266 
2482.000000	57.854247 
2481.000000	57.845091 
2480.000000	57.841062 
2479.000000	57.841372 
2478.000000	57.844519 
2477.000000	57.848405 
2476.000000	57.850813 
2475.000000	57.849621 
2474.000000	57.843279 
2473.000000	57.831001 
2472.000000	57.812929 
2471.000000	57.790040 
2470.000000	57.763814 
2469.000000	57.736110 
2468.000000	57.708668 
2467.000000	57.682871 
2466.000000	57.659530 
2465.000000	57.638812 
2464.000000	57.620501 
2463.000000	57.604074 
2462.000000	57.589435 
2461.000000	57.576990 
2460.000000	57.567906 
2459.000000	57.563543 
2458.000000	57.565546 
2457.000000	57.574892 
2456.000000	57.591819 
2455.000000	57.615303 
2454.000000	57.643413 
2453.000000	57.673382 
2452.000000	57.702398 
2451.000000	57.728171 
2450.000000	57.749009 
2449.000000	57.763910 
2448.000000	57.772350 
2447.000000	57.774233 
2446.000000	57.769560 
2445.000000	57.758641 
2444.000000	57.741808 
2443.000000	57.719802 
2442.000000	57.694029 
2441.000000	57.666373 
2440.000000	57.639408 
2439.000000	57.615470 
2438.000000	57.596516 
2437.000000	57.583355 
2436.000000	57.575511 
2435.000000	57.571220 
2434.000000	57.567811 
2433.000000	57.562589 
2432.000000	57.553601 
2431.000000	57.540321 
2430.000000	57.523775 
2429.000000	57.506442 
2428.000000	57.491588 
2427.000000	57.482528 
2426.000000	57.481622 
2425.000000	57.489299 
2424.000000	57.504153 
2423.000000	57.522606 
2422.000000	57.540059 
2421.000000	57.551383 
2420.000000	57.552123 
2419.000000	57.539677 
2418.000000	57.513761 
2417.000000	57.476377 
2416.000000	57.431268 
2415.000000	57.383227 
2414.000000	57.336902 
2413.000000	57.296061 
2412.000000	57.263064 
2411.000000	57.238626 
2410.000000	57.222414 
2409.000000	57.213282 
2408.000000	57.210087 
2407.000000	57.212042 
2406.000000	57.218956 
2405.000000	57.230782 
2404.000000	57.247734 
2403.000000	57.269287 
2402.000000	57.294416 
2401.000000	57.321143 
2400.000000	57.346963 
2399.000000	57.369160 
2398.000000	57.385420 
2397.000000	57.394456 
2396.000000	57.395863 
2395.000000	57.390236 
2394.000000	57.378721 
2393.000000	57.362866 
2392.000000	57.344317 
2391.000000	57.324504 
2390.000000	57.304549 
2389.000000	57.285356 
2388.000000	57.267451 
2387.000000	57.251358 
2386.000000	57.237219 
2385.000000	57.224965 
2384.000000	57.214093 
2383.000000	57.203769 
2382.000000	57.192921 
2381.000000	57.180643 
2380.000000	57.165956 
2379.000000	57.148718 
2378.000000	57.129287 
2377.000000	57.108926 
2376.000000	57.089686 
2375.000000	57.073831 
2374.000000	57.063317 
2373.000000	57.059550 
2372.000000	57.063007 
2371.000000	57.072901 
2370.000000	57.087445 
2369.000000	57.103776 
2368.000000	57.118940 
2367.000000	57.129907 
2366.000000	57.134270 
2365.000000	57.130479 
2364.000000	57.118105 
2363.000000	57.097649 
2362.000000	57.070589 
2361.000000	57.038974 
2360.000000	57.005167 
2359.000000	56.971812 
2358.000000	56.941318 
2357.000000	56.915831 
2356.000000	56.897020 
2355.000000	56.885814 
2354.000000	56.882309 
2353.000000	56.885600 
2352.000000	56.893944 
2351.000000	56.904673 
2350.000000	56.915116 
2349.000000	56.922531 
2348.000000	56.925010 
2347.000000	56.921529 
2346.000000	56.912398 
2345.000000	56.898784 
2344.000000	56.882786 
2343.000000	56.866836 
2342.000000	56.853103 
2341.000000	56.842970 
2340.000000	56.836962 
2339.000000	56.834745 
2338.000000	56.835007 
2337.000000	56.835818 
2336.000000	56.835103 
2335.000000	56.830906 
2334.000000	56.821775 
2333.000000	56.807160 
2332.000000	56.787157 
2331.000000	56.762838 
2330.000000	56.735825 
2329.000000	56.708312 
2328.000000	56.682419 
2327.000000	56.660127 
2326.000000	56.642770 
2325.000000	56.630730 
2324.000000	56.623601 
2323.000000	56.620287 
2322.000000	56.619405 
2321.000000	56.619763 
2320.000000	56.620407 
2319.000000	56.621384 
2318.000000	56.623268 
2317.000000	56.627416 
2316.000000	56.635141 
2315.000000	56.647706 
2314.000000	56.665611 
2313.000000	56.688618 
2312.000000	56.715345 
2311.000000	56.743454 
2310.000000	56.769990 
2309.000000	56.791949 
2308.000000	56.806683 
2307.000000	56.812477 
2306.000000	56.808757 
2305.000000	56.796240 
2304.000000	56.776857 
2303.000000	56.753253 
2302.000000	56.728458 
2301.000000	56.705141 
2300.000000	56.685113 
2299.000000	56.669282 
2298.000000	56.657218 
2297.000000	56.647849 
2296.000000	56.639647 
2295.000000	56.631088 
2294.000000	56.621170 
2293.000000	56.609606 
2292.000000	56.596875 
2291.000000	56.583905 
2290.000000	56.571745 
2289.000000	56.561064 
2288.000000	56.552100 
2287.000000	56.544470 
2286.000000	56.537365 
2285.000000	56.529736 
2284.000000	56.520867 
2283.000000	56.510496 
2282.000000	56.499004 
2281.000000	56.487154 
2280.000000	56.475734 
2279.000000	56.465220 
2278.000000	56.455445 
2277.000000	56.445503 
2276.000000	56.434202 
2275.000000	56.420254 
2274.000000	56.402826 
2273.000000	56.381916 
2272.000000	56.358170 
2271.000000	56.333136 
2270.000000	56.308698 
2269.000000	56.286859 
2268.000000	56.269025 
2267.000000	56.256127 
2266.000000	56.248283 
2265.000000	56.245064 
2264.000000	56.245541 
2263.000000	56.248831 
2262.000000	56.254076 
2261.000000	56.260895 
2260.000000	56.269168 
2259.000000	56.279182 
2258.000000	56.291007 
2257.000000	56.304669 
2256.000000	56.319904 
2255.000000	56.335902 
2254.000000	56.351327 
2253.000000	56.364321 
2252.000000	56.372785 
2251.000000	56.374716 
2250.000000	56.368613 
2249.000000	56.353712 
2248.000000	56.330299 
2247.000000	56.299996 
2246.000000	56.265425 
2245.000000	56.229734 
2244.000000	56.196355 
2243.000000	56.168198 
2242.000000	56.147575 
2241.000000	56.135845 
2240.000000	56.133055 
2239.000000	56.138563 
2238.000000	56.150674 
2237.000000	56.167244 
2236.000000	56.185555 
2235.000000	56.202793 
2234.000000	56.215739 
2233.000000	56.221508 
2232.000000	56.217503 
2231.000000	56.202006 
2230.000000	56.174635 
2229.000000	56.136560 
2228.000000	56.090831 
2227.000000	56.041932 
2226.000000	55.995154 
2225.000000	55.955791 
2224.000000	55.928063 
2223.000000	55.914449 
2222.000000	55.915141 
2221.000000	55.928087 
2220.000000	55.949568 
2219.000000	55.974936 
2218.000000	55.999493 
2217.000000	56.019544 
2216.000000	56.032705 
2215.000000	56.038498 
2214.000000	56.037521 
2213.000000	56.031298 
2212.000000	56.021738 
2211.000000	56.010460 
2210.000000	55.998587 
2209.000000	55.986523 
2208.000000	55.974268 
2207.000000	55.961632 
2206.000000	55.948734 
2205.000000	55.936002 
2204.000000	55.924129 
2203.000000	55.914211 
2202.000000	55.907464 
2201.000000	55.904769 
2200.000000	55.906391 
2199.000000	55.911993 
2198.000000	55.920362 
2197.000000	55.929875 
2196.000000	55.938744 
2195.000000	55.945134 
2194.000000	55.947828 
2193.000000	55.946302 
2192.000000	55.941033 
2191.000000	55.933022 
2190.000000	55.923652 
2189.000000	55.914473 
2188.000000	55.906629 
2187.000000	55.900979 
2186.000000	55.897378 
2185.000000	55.895137 
2184.000000	55.892825 
2183.000000	55.889105 
2182.000000	55.882525 
2181.000000	55.872130 
2180.000000	55.857563 
2179.000000	55.839037 
2178.000000	55.817437 
2177.000000	55.793976 
2176.000000	55.770063 
2175.000000	55.747103 
2174.000000	55.726313 
2173.000000	55.708551 
2172.000000	55.694508 
2171.000000	55.684590 
2170.000000	55.678939 
2169.000000	55.677580 
2168.000000	55.680513 
2167.000000	55.687499 
2166.000000	55.698013 
2165.000000	55.710887 
2164.000000	55.724668 
2163.000000	55.737471 
2162.000000	55.747199 
2161.000000	55.751681 
2160.000000	55.749368 
2159.000000	55.739378 
2158.000000	55.721950 
2157.000000	55.698299 
2156.000000	55.670547 
2155.000000	55.641412 
2154.000000	55.613708 
2153.000000	55.589771 
2152.000000	55.571103 
2151.000000	55.558395 
2150.000000	55.551505 
2149.000000	55.549788 
2148.000000	55.552363 
2147.000000	55.558276 
2146.000000	55.566835 
2145.000000	55.577206 
2144.000000	55.588340 
2143.000000	55.598831 
2142.000000	55.606889 
2141.000000	55.610489 
2140.000000	55.607676 
2139.000000	55.597281 
2138.000000	55.579042 
2137.000000	55.553913 
2136.000000	55.523967 
2135.000000	55.491971 
2134.000000	55.460810 
2133.000000	55.432891 
2132.000000	55.409717 
2131.000000	55.391573 
2130.000000	55.377888 
2129.000000	55.367588 
2128.000000	55.359768 
2127.000000	55.353593 
2126.000000	55.348801 
2125.000000	55.345439 
2124.000000	55.343580 
2123.000000	55.342984 
2122.000000	55.343008 
2121.000000	55.342507 
2120.000000	55.340290 
2119.000000	55.335354 
2118.000000	55.327200 
2117.000000	55.315923 
2116.000000	55.302405 
2115.000000	55.287909 
2114.000000	55.274009 
2113.000000	55.261969 
2112.000000	55.252575 
2111.000000	55.245923 
2110.000000	55.241656 
2109.000000	55.239105 
2108.000000	55.237436 
2107.000000	55.235695 
2106.000000	55.233192 
2105.000000	55.229163 
2104.000000	55.222868 
2103.000000	55.213618 
2102.000000	55.200695 
2101.000000	55.183720 
2100.000000	55.162835 
2099.000000	55.138778 
2098.000000	55.112743 
2097.000000	55.086660 
2096.000000	55.062866 
2095.000000	55.043864 
2094.000000	55.031895 
2093.000000	55.028629 
2092.000000	55.034637 
2091.000000	55.049347 
2090.000000	55.070853 
2089.000000	55.096244 
2088.000000	55.121803 
2087.000000	55.143737 
2086.000000	55.158543 
2085.000000	55.163693 
2084.000000	55.157780 
2083.000000	55.140852 
2082.000000	55.113840 
2081.000000	55.078768 
2080.000000	55.037903 
2079.000000	54.993557 
2078.000000	54.947900 
2077.000000	54.902720 
2076.000000	54.859852 
2075.000000	54.821276 
2074.000000	54.789543 
2073.000000	54.767084 
2072.000000	54.756379 
2071.000000	54.759144 
2070.000000	54.776072 
2069.000000	54.806017 
2068.000000	54.846310 
2067.000000	54.892873 
2066.000000	54.940962 
2065.000000	54.985857 
2064.000000	55.023574 
2063.000000	55.051517 
2062.000000	55.068731 
2061.000000	55.075860 
2060.000000	55.074810 
2059.000000	55.067920 
2058.000000	55.057692 
2057.000000	55.045986 
2056.000000	55.034017 
2055.000000	55.021739 
2054.000000	55.008840 
2053.000000	54.994153 
2052.000000	54.976511 
2051.000000	54.954814 
2050.000000	54.928565 
2049.000000	54.897928 
2048.000000	54.863810 
2047.000000	54.827666 
2046.000000	54.791450 
2045.000000	54.757118 
2044.000000	54.726386 
2043.000000	54.700374 
2042.000000	54.679608 
2041.000000	54.664015 
2040.000000	54.653120 
2039.000000	54.646182 
2038.000000	54.642295 
2037.000000	54.640722 
2036.000000	54.641008 
2035.000000	54.642534 
2034.000000	54.644703 
2033.000000	54.646968 
2032.000000	54.648852 
2031.000000	54.649662 
2030.000000	54.649019 
2029.000000	54.646778 
2028.000000	54.643321 
2027.000000	54.639315 
2026.000000	54.635620 
2025.000000	54.633045 
2024.000000	54.631900 
2023.000000	54.632115 
2022.000000	54.633021 
2021.000000	54.633498 
2020.000000	54.632163 
2019.000000	54.628086 
2018.000000	54.620480 
2017.000000	54.609346 
2016.000000	54.595136 
2015.000000	54.579019 
2014.000000	54.562163 
2013.000000	54.545712 
2012.000000	54.530525 
2011.000000	54.517221 
2010.000000	54.506039 
2009.000000	54.496908 
2008.000000	54.489588 
2007.000000	54.483699 
2006.000000	54.478812 
2005.000000	54.474353 
2004.000000	54.469656 
2003.000000	54.464030 
2002.000000	54.456901 
2001.000000	54.447960 
2000.000000	54.437232 
1999.000000	54.425096 
1998.000000	54.412150 
1997.000000	54.399180 
1996.000000	54.386830 
1995.000000	54.375481 
1994.000000	54.365205 
1993.000000	54.355692 
1992.000000	54.346561 
1991.000000	54.337382 
1990.000000	54.327988 
1989.000000	54.318594 
1988.000000	54.309654 
1987.000000	54.301714 
1986.000000	54.295158 
1985.000000	54.290080 
1984.000000	54.286074 
1983.000000	54.282498 
1982.000000	54.278659 
1981.000000	54.274106 
1980.000000	54.268598 
1979.000000	54.262423 
1978.000000	54.256057 
1977.000000	54.250025 
1976.000000	54.244613 
1975.000000	54.239749 
1974.000000	54.234933 
1973.000000	54.229259 
1972.000000	54.221868 
1971.000000	54.211974 
1970.000000	54.199266 
1969.000000	54.184174 
1968.000000	54.167699 
1967.000000	54.151272 
1966.000000	54.136419 
1965.000000	54.124474 
1964.000000	54.116296 
1963.000000	54.112029 
1962.000000	54.111194 
1961.000000	54.112744 
1960.000000	54.115223 
1959.000000	54.117035 
1958.000000	54.116702 
1957.000000	54.112958 
1956.000000	54.104924 
1955.000000	54.092073 
1954.000000	54.074478 
1953.000000	54.052543 
1952.000000	54.027223 
1951.000000	53.999924 
1950.000000	53.972268 
1949.000000	53.946161 
1948.000000	53.923392 
1947.000000	53.905534 
1946.000000	53.893566 
1945.000000	53.887677 
1944.000000	53.887128 
1943.000000	53.890585 
1942.000000	53.896069 
1941.000000	53.901600 
1940.000000	53.905248 
1939.000000	53.905868 
1938.000000	53.902912 
1937.000000	53.896760 
1936.000000	53.888249 
1935.000000	53.878664 
1934.000000	53.869175 
1933.000000	53.860759 
1932.000000	53.853940 
1931.000000	53.848743 
1930.000000	53.844833 
1929.000000	53.841710 
1928.000000	53.838658 
1927.000000	53.835153 
1926.000000	53.830742 
1925.000000	53.825068 
1924.000000	53.817915 
1923.000000	53.809165 
1922.000000	53.798747 
1921.000000	53.786778 
1920.000000	53.773593 
1919.000000	53.759789 
1918.000000	53.746128 
1917.000000	53.733468 
1916.000000	53.722667 
1915.000000	53.714489 
1914.000000	53.709220 
1913.000000	53.706717 
1912.000000	53.706216 
1911.000000	53.706550 
1910.000000	53.706049 
1909.000000	53.702783 
1908.000000	53.695011 
1907.000000	53.681445 
1906.000000	53.661656 
1905.000000	53.636264 
1904.000000	53.606963 
1903.000000	53.576350 
1902.000000	53.547453 
1901.000000	53.522992 
1900.000000	53.505063 
1899.000000	53.494524 
1898.000000	53.490734 
1897.000000	53.492045 
1896.000000	53.495693 
1895.000000	53.498911 
1894.000000	53.499269 
1893.000000	53.495526 
1892.000000	53.487586 
1891.000000	53.476691 
1890.000000	53.464698 
1889.000000	53.453993 
1888.000000	53.446435 
1887.000000	53.443336 
1886.000000	53.445100 
1885.000000	53.451061 
1884.000000	53.460073 
1883.000000	53.470444 
1882.000000	53.480434 
1881.000000	53.488326 
1880.000000	53.492927 
1879.000000	53.493404 
1878.000000	53.489327 
1877.000000	53.480792 
1876.000000	53.468155 
1875.000000	53.452014 
1874.000000	53.433108 
1873.000000	53.412246 
1872.000000	53.390407 
1871.000000	53.368568 
1870.000000	53.347826 
1869.000000	53.329300 
1868.000000	53.314089 
1867.000000	53.303050 
1866.000000	53.296852 
1865.000000	53.295660 
1864.000000	53.299045 
1863.000000	53.306150 
1862.000000	53.315591 
1861.000000	53.325700 
1860.000000	53.334641 
1859.000000	53.340673 
1858.000000	53.342413 
1857.000000	53.339004 
1856.000000	53.330183 
1855.000000	53.316378 
1854.000000	53.298354 
1853.000000	53.277277 
1852.000000	53.254461 
1851.000000	53.231120 
1850.000000	53.208303 
1849.000000	53.186726 
1848.000000	53.166913 
1847.000000	53.149008 
1846.000000	53.132963 
1845.000000	53.118777 
1844.000000	53.106141 
1843.000000	53.094863 
1842.000000	53.084516 
1841.000000	53.074955 
1840.000000	53.065776 
1839.000000	53.056693 
1838.000000	53.047466 
1837.000000	53.038072 
1836.000000	53.028631 
1835.000000	53.019499 
1834.000000	53.011107 
1833.000000	53.003811 
1832.000000	52.997875 
1831.000000	52.993273 
1830.000000	52.989697 
1829.000000	52.986693 
1828.000000	52.984023 
1827.000000	52.981543 
1826.000000	52.979183 
1825.000000	52.977061 
1824.000000	52.975416 
1823.000000	52.974247 
1822.000000	52.973341 
1821.000000	52.972173 
1820.000000	52.969980 
1819.000000	52.966141 
1818.000000	52.960205 
1817.000000	52.952170 
1816.000000	52.942514 
1815.000000	52.931976 
1814.000000	52.921533 
1813.000000	52.912068 
1812.000000	52.904057 
1811.000000	52.897715 
1810.000000	52.892827 
1809.000000	52.889227 
1808.000000	52.886795 
1807.000000	52.885746 
1806.000000	52.886199 
1805.000000	52.888226 
1804.000000	52.891469 
1803.000000	52.894926 
1802.000000	52.896881 
1801.000000	52.895402 
1800.000000	52.888751 
1799.000000	52.875781 
1798.000000	52.856707 
1797.000000	52.833056 
1796.000000	52.807593 
1795.000000	52.783703 
1794.000000	52.764320 
1793.000000	52.751421 
1792.000000	52.745151 
1791.000000	52.743768 
1790.000000	52.744269 
1789.000000	52.742838 
1788.000000	52.736306 
1787.000000	52.722716 
1786.000000	52.702093 
1785.000000	52.676224 
1784.000000	52.648353 
1783.000000	52.622008 
1782.000000	52.600216 
1781.000000	52.584767 
1780.000000	52.575612 
1779.000000	52.571129 
1778.000000	52.568721 
1777.000000	52.565550 
1776.000000	52.559375 
1775.000000	52.549171 
1774.000000	52.535367 
1773.000000	52.519822 
1772.000000	52.504801 
1771.000000	52.492833 
1770.000000	52.485775 
1769.000000	52.484512 
1768.000000	52.488803 
1767.000000	52.497506 
1766.000000	52.508687 
1765.000000	52.520513 
1764.000000	52.531290 
1763.000000	52.539682 
1762.000000	52.544784 
1761.000000	52.546238 
1760.000000	52.543950 
1759.000000	52.537941 
1758.000000	52.528214 
1757.000000	52.514982 
1756.000000	52.498531 
1755.000000	52.479529 
1754.000000	52.458596 
1753.000000	52.436733 
1752.000000	52.414870 
1751.000000	52.394127 
1750.000000	52.375340 
1749.000000	52.359056 
1748.000000	52.345347 
1747.000000	52.333879 
1746.000000	52.323937 
1745.000000	52.314496 
1744.000000	52.304673 
1743.000000	52.293896 
1742.000000	52.282047 
1741.000000	52.269601 
1740.000000	52.257466 
1739.000000	52.246832 
1738.000000	52.238965 
1737.000000	52.235031 
1736.000000	52.235579 
1735.000000	52.240753 
1734.000000	52.250003 
1733.000000	52.261996 
1732.000000	52.275156 
1731.000000	52.287411 
1730.000000	52.296638 
1729.000000	52.300786 
1728.000000	52.297997 
1727.000000	52.286791 
1726.000000	52.266502 
1725.000000	52.237367 
1724.000000	52.200627 
1723.000000	52.158498 
1722.000000	52.114033 
1721.000000	52.070498 
1720.000000	52.030992 
1719.000000	51.997947 
1718.000000	51.972723 
1717.000000	51.955604 
1716.000000	51.945972 
1715.000000	51.942586 
1714.000000	51.943993 
1713.000000	51.948976 
1712.000000	51.956629 
1711.000000	51.966524 
1710.000000	51.978349 
1709.000000	51.991724 
1708.000000	52.006196 
1707.000000	52.020835 
1706.000000	52.034425 
1705.000000	52.045893 
1704.000000	52.054142 
1703.000000	52.058768 
1702.000000	52.059555 
1701.000000	52.056765 
1700.000000	52.050685 
1699.000000	52.041697 
1698.000000	52.029681 
1697.000000	52.014565 
1696.000000	51.996207 
1695.000000	51.974773 
1694.000000	51.950740 
1693.000000	51.924991 
1692.000000	51.898884 
1691.000000	51.873993 
1690.000000	51.851606 
1689.000000	51.832509 
1688.000000	51.816797 
1687.000000	51.803898 
1686.000000	51.792836 
1685.000000	51.782608 
1684.000000	51.772427 
1683.000000	51.761889 
1682.000000	51.751136 
1681.000000	51.740765 
1680.000000	51.731324 
1679.000000	51.723146 
1678.000000	51.716160 
1677.000000	51.709890 
1676.000000	51.703500 
1675.000000	51.696157 
1674.000000	51.687145 
1673.000000	51.676368 
1672.000000	51.664209 
1671.000000	51.651740 
1670.000000	51.640439 
1669.000000	51.631903 
1668.000000	51.627421 
1667.000000	51.627731 
1666.000000	51.633000 
1665.000000	51.642346 
1664.000000	51.654291 
1663.000000	51.666641 
1662.000000	51.676797 
1661.000000	51.682305 
1660.000000	51.681089 
1659.000000	51.671814 
1658.000000	51.654219 
1657.000000	51.629233 
1656.000000	51.598572 
1655.000000	51.564669 
1654.000000	51.530385 
1653.000000	51.498293 
1652.000000	51.470732 
1651.000000	51.449465 
1650.000000	51.435637 
1649.000000	51.429772 
1648.000000	51.431655 
1647.000000	51.440358 
1646.000000	51.454234 
1645.000000	51.471114 
1644.000000	51.488208 
1643.000000	51.502442 
1642.000000	51.510834 
1641.000000	51.511025 
1640.000000	51.501655 
1639.000000	51.482725 
1638.000000	51.455521 
1637.000000	51.422572 
1636.000000	51.386833 
1635.000000	51.351189 
1634.000000	51.317739 
1633.000000	51.287722 
1632.000000	51.261329 
1631.000000	51.237964 
1630.000000	51.216769 
1629.000000	51.196956 
1628.000000	51.178073 
1627.000000	51.160144 
1626.000000	51.143479 
1625.000000	51.128697 
1624.000000	51.116156 
1623.000000	51.106262 
1622.000000	51.099014 
1621.000000	51.094722 
1620.000000	51.093363 
1619.000000	51.095032 
1618.000000	51.099944 
1617.000000	51.107883 
1616.000000	51.118326 
1615.000000	51.130104 
1614.000000	51.141285 
1613.000000	51.149845 
1612.000000	51.153731 
1611.000000	51.151466 
1610.000000	51.142716 
1609.000000	51.128172 
1608.000000	51.109862 
1607.000000	51.090431 
1606.000000	51.072573 
1605.000000	51.058459 
1604.000000	51.049232 
1603.000000	51.044845 
1602.000000	51.044249 
1601.000000	51.045894 
1600.000000	51.048135 
1599.000000	51.049995 
1598.000000	51.051354 
1597.000000	51.052761 
1596.000000	51.055502 
1595.000000	51.060748 
1594.000000	51.069188 
1593.000000	51.080775 
1592.000000	51.094436 
1591.000000	51.108384 
1590.000000	51.120305 
1589.000000	51.128268 
1588.000000	51.130604 
1587.000000	51.126575 
1586.000000	51.116037 
1585.000000	51.099538 
1584.000000	51.077747 
1583.000000	51.051378 
1582.000000	51.021027 
1581.000000	50.987076 
1580.000000	50.949835 
1579.000000	50.909996 
1578.000000	50.868630 
1577.000000	50.827336 
1576.000000	50.787949 
1575.000000	50.752472 
1574.000000	50.722622 
1573.000000	50.699496 
1572.000000	50.683307 
1571.000000	50.673651 
1570.000000	50.669336 
1569.000000	50.668907 
1568.000000	50.670623 
1567.000000	50.672674 
1566.000000	50.673556 
1565.000000	50.672054 
1564.000000	50.667166 
1563.000000	50.658559 
1562.000000	50.646376 
1561.000000	50.631499 
1560.000000	50.615382 
1559.000000	50.599789 
1558.000000	50.586533 
1557.000000	50.576925 
1556.000000	50.571751 
1555.000000	50.570821 
1554.000000	50.573015 
1553.000000	50.576710 
1552.000000	50.580167 
1551.000000	50.581741 
1550.000000	50.580334 
1549.000000	50.575637 
1548.000000	50.567889 
1547.000000	50.557541 
1546.000000	50.544977 
1545.000000	50.530481 
1544.000000	50.513911 
1543.000000	50.494933 
1542.000000	50.473260 
1541.000000	50.449132 
1540.000000	50.423502 
1539.000000	50.397992 
1538.000000	50.374722 
1537.000000	50.355768 
1536.000000	50.343060 
1535.000000	50.337696 
1534.000000	50.339841 
1533.000000	50.348639 
1532.000000	50.362420 
1531.000000	50.379228 
1530.000000	50.396990 
1529.000000	50.413846 
1528.000000	50.428199 
1527.000000	50.438785 
1526.000000	50.444674 
1525.000000	50.445127 
1524.000000	50.439810 
1523.000000	50.428724 
1522.000000	50.412535 
1521.000000	50.392627 
1520.000000	50.371098 
1519.000000	50.350522 
1518.000000	50.333571 
1517.000000	50.322341 
1516.000000	50.317859 
1515.000000	50.319719 
1514.000000	50.326251 
1513.000000	50.334596 
1512.000000	50.341749 
1511.000000	50.344753 
1510.000000	50.341606 
1509.000000	50.331425 
1508.000000	50.314331 
1507.000000	50.291514 
1506.000000	50.264501 
1505.000000	50.235199 
1504.000000	50.205230 
1503.000000	50.176167 
1502.000000	50.149273 
1501.000000	50.125670 
1500.000000	50.106334 
1499.000000	50.091838 
1498.000000	50.082373 
1497.000000	50.077652 
1496.000000	50.077033 
1495.000000	50.079274 
1494.000000	50.083112 
1493.000000	50.087785 
1492.000000	50.093054 
1491.000000	50.099396 
1490.000000	50.107359 
1489.000000	50.117373 
1488.000000	50.129103 
1487.000000	50.141048 
1486.000000	50.151181 
1485.000000	50.157117 
1484.000000	50.156784 
1483.000000	50.149416 
1482.000000	50.135684 
1481.000000	50.117492 
1480.000000	50.097560 
1479.000000	50.079011 
1478.000000	50.063991 
1477.000000	50.053644 
1476.000000	50.047564 
1475.000000	50.044345 
1474.000000	50.041794 
1473.000000	50.037693 
1472.000000	50.030469 
1471.000000	50.019526 
1470.000000	50.005102 
1469.000000	49.988150 
1468.000000	49.969792 
1467.000000	49.950957 
1466.000000	49.932432 
1465.000000	49.914503 
1464.000000	49.897313 
1463.000000	49.880838 
1462.000000	49.865269 
1461.000000	49.850964 
1460.000000	49.837994 
1459.000000	49.826812 
1458.000000	49.817752 
1457.000000	49.811291 
1456.000000	49.807548 
1455.000000	49.806737 
1454.000000	49.808931 
1453.000000	49.814176 
1452.000000	49.821972 
1451.000000	49.831652 
1450.000000	49.842119 
1449.000000	49.851942 
1448.000000	49.859333 
1447.000000	49.862718 
1446.000000	49.860835 
1445.000000	49.853038 
1444.000000	49.839520 
1443.000000	49.821233 
1442.000000	49.799394 
1441.000000	49.775528 
1440.000000	49.751019 
1439.000000	49.726986 
1438.000000	49.703955 
1437.000000	49.682188 
1436.000000	49.661421 
1435.000000	49.641251 
1434.000000	49.621081 
1433.000000	49.600458 
1432.000000	49.579238 
1431.000000	49.557542 
1430.000000	49.535751 
1429.000000	49.514555 
1428.000000	49.494624 
1427.000000	49.476528 
1426.000000	49.460363 
1425.000000	49.445915 
1424.000000	49.432539 
1423.000000	49.419355 
1422.000000	49.405646 
1421.000000	49.390935 
1420.000000	49.375557 
1419.000000	49.360656 
1418.000000	49.348044 
1417.000000	49.339699 
1416.000000	49.337410 
1415.000000	49.342036 
1414.000000	49.353194 
1413.000000	49.369192 
1412.000000	49.387168 
1411.000000	49.403691 
1410.000000	49.415397 
1409.000000	49.419760 
1408.000000	49.415397 
1407.000000	49.402332 
1406.000000	49.381995 
1405.000000	49.356818 
1404.000000	49.329686 
1403.000000	49.303197 
1402.000000	49.279522 
1401.000000	49.259757 
1400.000000	49.244165 
1399.000000	49.232006 
1398.000000	49.221992 
1397.000000	49.212574 
1396.000000	49.202275 
1395.000000	49.190092 
1394.000000	49.175572 
1393.000000	49.159002 
1392.000000	49.141216 
1391.000000	49.123477 
1390.000000	49.107193 
1389.000000	49.093341 
1388.000000	49.082326 
1387.000000	49.073719 
1386.000000	49.066567 
1385.000000	49.059486 
1384.000000	49.051356 
1383.000000	49.041461 
1382.000000	49.029898 
1381.000000	49.017548 
1380.000000	49.005651 
1379.000000	48.995661 
1378.000000	48.988556 
1377.000000	48.984503 
1376.000000	48.982620 
1375.000000	48.981118 
1374.000000	48.977518 
1373.000000	48.969340 
1372.000000	48.954510 
1371.000000	48.932170 
1370.000000	48.902702 
1369.000000	48.867797 
1368.000000	48.830318 
1367.000000	48.793578 
1366.000000	48.761224 
1365.000000	48.736310 
1364.000000	48.721051 
1363.000000	48.716282 
1362.000000	48.721480 
1361.000000	48.734617 
1360.000000	48.752617 
1359.000000	48.772072 
1358.000000	48.789572 
1357.000000	48.802590 
1356.000000	48.809814 
1355.000000	48.811101 
1354.000000	48.807525 
1353.000000	48.800516 
1352.000000	48.791646 
1351.000000	48.781895 
1350.000000	48.771333 
1349.000000	48.759436 
1348.000000	48.745298 
1347.000000	48.728203 
1346.000000	48.708295 
1345.000000	48.686671 
1344.000000	48.665690 
1343.000000	48.648047 
1342.000000	48.636388 
1341.000000	48.632264 
1340.000000	48.635768 
1339.000000	48.645114 
1338.000000	48.657059 
1337.000000	48.667788 
1336.000000	48.673653 
1335.000000	48.672127 
1334.000000	48.662447 
1333.000000	48.645687 
1332.000000	48.624444 
1331.000000	48.602175 
1330.000000	48.582220 
1329.000000	48.567128 
1328.000000	48.558139 
1327.000000	48.555374 
1326.000000	48.557567 
1325.000000	48.563146 
1324.000000	48.570013 
1323.000000	48.576498 
1322.000000	48.581194 
1321.000000	48.583102 
1320.000000	48.581624 
1319.000000	48.576450 
1318.000000	48.567485 
1317.000000	48.555016 
1316.000000	48.539614 
1315.000000	48.522377 
1314.000000	48.504710 
1313.000000	48.488116 
1312.000000	48.473882 
1311.000000	48.462700 
1310.000000	48.454356 
1309.000000	48.448014 
1308.000000	48.442268 
1307.000000	48.435664 
1306.000000	48.427104 
1305.000000	48.415994 
1304.000000	48.402523 
1303.000000	48.387694 
1302.000000	48.372769 
1301.000000	48.359036 
1300.000000	48.347496 
1299.000000	48.338532 
1298.000000	48.332309 
1297.000000	48.328256 
1296.000000	48.325586 
1295.000000	48.323297 
1294.000000	48.320364 
1293.000000	48.316001 
1292.000000	48.309421 
1291.000000	48.300218 
1290.000000	48.288130 
1289.000000	48.273348 
1288.000000	48.256659 
1287.000000	48.239421 
1286.000000	48.223257 
1285.000000	48.209929 
1284.000000	48.201036 
1283.000000	48.197436 
1282.000000	48.198986 
1281.000000	48.204445 
1280.000000	48.211789 
1279.000000	48.218417 
1278.000000	48.221755 
1277.000000	48.219823 
1276.000000	48.211717 
1275.000000	48.197793 
1274.000000	48.179674 
1273.000000	48.159599 
1272.000000	48.140454 
1271.000000	48.124790 
1270.000000	48.114347 
1269.000000	48.110127 
1268.000000	48.111629 
1267.000000	48.117661 
1266.000000	48.126053 
1265.000000	48.134231 
1264.000000	48.139429 
1263.000000	48.139452 
1262.000000	48.132729 
1261.000000	48.118615 
1260.000000	48.097419 
1259.000000	48.070263 
1258.000000	48.038887 
1257.000000	48.005437 
1256.000000	47.971940 
1255.000000	47.940230 
1254.000000	47.911763 
1253.000000	47.887492 
1252.000000	47.867965 
1251.000000	47.853446 
1250.000000	47.843933 
1249.000000	47.839474 
1248.000000	47.839736 
1247.000000	47.844099 
1246.000000	47.851610 
1245.000000	47.861242 
1244.000000	47.871661 
1243.000000	47.881746 
1242.000000	47.890639 
1241.000000	47.898101 
1240.000000	47.904515 
1239.000000	47.910451 
1238.000000	47.916746 
1237.000000	47.923684 
1236.000000	47.930955 
1235.000000	47.937321 
1234.000000	47.941040 
1233.000000	47.939991 
1232.000000	47.932267 
1231.000000	47.916769 
1230.000000	47.893595 
1229.000000	47.863960 
1228.000000	47.830128 
1227.000000	47.794556 
1226.000000	47.759437 
1225.000000	47.726249 
1224.000000	47.695732 
1223.000000	47.667765 
1222.000000	47.641944 
1221.000000	47.618007 
1220.000000	47.596144 
1219.000000	47.577071 
1218.000000	47.561693 
1217.000000	47.550845 
1216.000000	47.544622 
1215.000000	47.542190 
1214.000000	47.541689 
1213.000000	47.540497 
1212.000000	47.535681 
1211.000000	47.524523 
1210.000000	47.505497 
1209.000000	47.478413 
1208.000000	47.444915 
1207.000000	47.408032 
1206.000000	47.371912 
1205.000000	47.340679 
1204.000000	47.317790 
1203.000000	47.305393 
1202.000000	47.303843 
1201.000000	47.311711 
1200.000000	47.326159 
1199.000000	47.343659 
1198.000000	47.360467 
1197.000000	47.373461 
1196.000000	47.380614 
1195.000000	47.381186 
1194.000000	47.375583 
1193.000000	47.365021 
1192.000000	47.350907 
1191.000000	47.334837 
1190.000000	47.318124 
1189.000000	47.302246 
1188.000000	47.288537 
1187.000000	47.278499 
1186.000000	47.273826 
1185.000000	47.276020 
1184.000000	47.285985 
1183.000000	47.303676 
1182.000000	47.327852 
1181.000000	47.356033 
1180.000000	47.384786 
1179.000000	47.410535 
1178.000000	47.430109 
1177.000000	47.441220 
1176.000000	47.442960 
1175.000000	47.435784 
1174.000000	47.421193 
1173.000000	47.400903 
1172.000000	47.376322 
1171.000000	47.348189 
1170.000000	47.316670 
1169.000000	47.281789 
1168.000000	47.243833 
1167.000000	47.203731 
1166.000000	47.163343 
1165.000000	47.125625 
1164.000000	47.093844 
1163.000000	47.070479 
1162.000000	47.057175 
1161.000000	47.053956 
1160.000000	47.059607 
1159.000000	47.071385 
1158.000000	47.086048 
1157.000000	47.100377 
1156.000000	47.111892 
1155.000000	47.119164 
1154.000000	47.121930 
1153.000000	47.120881 
1152.000000	47.117233 
1151.000000	47.112178 
1150.000000	47.106456 
1149.000000	47.100067 
1148.000000	47.092366 
1147.000000	47.082233 
1146.000000	47.068452 
1145.000000	47.049880 
1144.000000	47.026085 
1143.000000	46.997094 
1142.000000	46.963429 
1141.000000	46.925806 
1140.000000	46.885395 
1139.000000	46.843266 
1138.000000	46.800041 
1137.000000	46.755838 
1136.000000	46.711063 
1135.000000	46.666288 
1134.000000	46.621942 
1133.000000	46.579146 
1132.000000	46.539258 
1131.000000	46.504306 
1130.000000	46.475958 
1129.000000	46.455860 
1128.000000	46.444749 
1127.000000	46.443128 
1126.000000	46.451020 
1125.000000	46.467995 
1124.000000	46.492528 
1123.000000	46.522736 
1122.000000	46.556448 
1121.000000	46.590781 
1120.000000	46.622443 
1119.000000	46.648788 
1118.000000	46.668219 
1117.000000	46.680283 
1116.000000	46.686196 
1115.000000	46.688890 
1114.000000	46.692824 
1113.000000	46.702742 
1112.000000	46.722984 
1111.000000	46.756291 
1110.000000	46.803283 
1109.000000	46.862530 
1108.000000	46.930432 
1107.000000	47.002267 
1106.000000	47.072505 
1105.000000	47.136449 
1104.000000	47.189426 
1103.000000	47.227573 
1102.000000	47.247266 
1101.000000	47.246074 
1100.000000	47.221994 
1099.000000	47.174215 
1098.000000	47.103214 
1097.000000	47.011852 
1096.000000	46.904373 
1095.000000	46.786642 
1094.000000	46.664977 
1093.000000	46.545672 
1092.000000	46.434020 
1091.000000	46.334147 
1090.000000	46.248006 
1089.000000	46.176195 
1088.000000	46.118879 
1087.000000	46.076464 
1086.000000	46.048927 
1085.000000	46.036410 
1084.000000	46.038508 
1083.000000	46.054506 
1082.000000	46.081423 
1081.000000	46.115565 
1080.000000	46.152186 
1079.000000	46.187162 
1078.000000	46.216893 
1077.000000	46.239733 
1076.000000	46.255803 
1075.000000	46.266841 
1074.000000	46.275281 
1073.000000	46.283817 
1072.000000	46.294426 
1071.000000	46.307921 
1070.000000	46.323871 
1069.000000	46.340227 
1068.000000	46.354079 
1067.000000	46.361851 
1066.000000	46.360230 
1065.000000	46.345806 
1064.000000	46.315455 
1063.000000	46.267294 
1062.000000	46.200895 
1061.000000	46.117186 
1060.000000	46.018958 
1059.000000	45.911312 
1058.000000	45.801162 
1057.000000	45.696520 
1056.000000	45.605349 
1055.000000	45.534586 
1054.000000	45.489025 
1053.000000	45.470094 
1052.000000	45.476388 
1051.000000	45.502924 
1050.000000	45.543360 
1049.000000	45.590400 
1048.000000	45.637559 
1047.000000	45.679521 
1046.000000	45.712828 
1045.000000	45.735669 
1044.000000	45.747494 
1043.000000	45.748424 
1042.000000	45.739316 
1041.000000	45.721364 
1040.000000	45.696377 
1039.000000	45.666766 
1038.000000	45.635557 
1037.000000	45.605921 
1036.000000	45.580935 
1035.000000	45.562911 
1034.000000	45.552968 
1033.000000	45.550751 
1032.000000	45.554709 
1031.000000	45.562505 
1030.000000	45.571470 
1029.000000	45.579385 
1028.000000	45.584750 
1027.000000	45.587396 
1026.000000	45.587778 
1025.000000	45.587182 
1024.000000	45.587110 
1023.000000	45.589160 
1022.000000	45.594263 
1021.000000	45.603084 
1020.000000	45.616126 
1019.000000	45.633292 
1018.000000	45.654106 
1017.000000	45.677161 
1016.000000	45.700383 
1015.000000	45.720624 
1014.000000	45.734214 
1013.000000	45.737385 
1012.000000	45.727062 
1011.000000	45.702195 
1010.000000	45.664143 
1009.000000	45.616960 
1008.000000	45.566439 
1007.000000	45.519065 
1006.000000	45.480036 
1005.000000	45.452284 
1004.000000	45.435357 
1003.000000	45.425486 
1002.000000	45.416760 
1001.000000	45.402598 
1000.000000	45.378303 
999.000000	 45.341992 
998.000000	 45.296311 
997.000000	 45.246911 
996.000000	 45.202422 
995.000000	 45.171737 
994.000000	 45.162296 
993.000000	 45.177721 
992.000000	 45.217370 
991.000000	 45.276474 
990.000000	 45.346760 
989.000000	 45.418429 
988.000000	 45.481395 
987.000000	 45.527243 
986.000000	 45.550131 
985.000000	 45.547652 
984.000000	 45.520663 
983.000000	 45.472836 
982.000000	 45.410251 
981.000000	 45.340108 
980.000000	 45.269727 
979.000000	 45.205354 
978.000000	 45.152163 
977.000000	 45.113039 
976.000000	 45.088839 
975.000000	 45.078277 
974.000000	 45.078706 
973.000000	 45.086383 
972.000000	 45.097231 
971.000000	 45.107221 
970.000000	 45.112824 
969.000000	 45.111393 
968.000000	 45.101189 
967.000000	 45.081686 
966.000000	 45.053124 
965.000000	 45.016837 
964.000000	 44.975137 
963.000000	 44.931316 
962.000000	 44.889307 
961.000000	 44.853448 
960.000000	 44.827818 
959.000000	 44.815564 
958.000000	 44.818067 
957.000000	 44.835281 
956.000000	 44.865393 
955.000000	 44.904804 
954.000000	 44.948816 
953.000000	 44.992446 
952.000000	 45.031142 
951.000000	 45.061445 
950.000000	 45.081210 
949.000000	 45.089387 
948.000000	 45.085763 
947.000000	 45.071315 
946.000000	 45.047068 
945.000000	 45.014142 
944.000000	 44.973587 
943.000000	 44.926953 
942.000000	 44.876003 
941.000000	 44.823050 
940.000000	 44.770765 
939.000000	 44.722199 
938.000000	 44.680142 
937.000000	 44.646835 
936.000000	 44.623565 
935.000000	 44.610142 
934.000000	 44.604945 
933.000000	 44.605088 
932.000000	 44.606995 
931.000000	 44.607281 
930.000000	 44.603276 
929.000000	 44.593787 
928.000000	 44.579172 
927.000000	 44.561243 
926.000000	 44.542598 
925.000000	 44.525957 
924.000000	 44.513487 
923.000000	 44.506287 
922.000000	 44.504261 
921.000000	 44.506359 
920.000000	 44.510817 
919.000000	 44.515609 
918.000000	 44.519257 
917.000000	 44.520616 
916.000000	 44.519209 
915.000000	 44.515013 
914.000000	 44.508099 
913.000000	 44.498801 
912.000000	 44.487428 
911.000000	 44.474387 
910.000000	 44.460296 
909.000000	 44.445848 
908.000000	 44.432187 
907.000000	 44.420075 
906.000000	 44.409990 
905.000000	 44.401764 
904.000000	 44.394731 
903.000000	 44.388198 
902.000000	 44.381666 
901.000000	 44.375276 
900.000000	 44.369959 
899.000000	 44.367384 
898.000000	 44.369363 
897.000000	 44.377350 
896.000000	 44.391369 
895.000000	 44.410085 
894.000000	 44.430446 
893.000000	 44.448494 
892.000000	 44.459939 
891.000000	 44.461584 
890.000000	 44.451689 
889.000000	 44.430732 
888.000000	 44.401049 
887.000000	 44.366478 
886.000000	 44.331169 
885.000000	 44.298624 
884.000000	 44.270896 
883.000000	 44.248509 
882.000000	 44.230413 
881.000000	 44.214701 
880.000000	 44.199061 
879.000000	 44.181704 
878.000000	 44.161581 
877.000000	 44.138693 
876.000000	 44.113850 
875.000000	 44.088268 
874.000000	 44.063210 
873.000000	 44.039702 
872.000000	 44.018602 
871.000000	 44.000601 
870.000000	 43.986296 
869.000000	 43.975973 
868.000000	 43.969798 
867.000000	 43.967270 
866.000000	 43.967175 
865.000000	 43.967461 
864.000000	 43.965578 
863.000000	 43.958759 
862.000000	 43.944311 
861.000000	 43.920493 
860.000000	 43.887162 
859.000000	 43.845677 
858.000000	 43.798756 
857.000000	 43.750119 
856.000000	 43.704080 
855.000000	 43.664336 
854.000000	 43.633604 
853.000000	 43.612933 
852.000000	 43.601703 
851.000000	 43.597745 
850.000000	 43.598031 
849.000000	 43.599247 
848.000000	 43.598747 
847.000000	 43.594574 
846.000000	 43.586063 
845.000000	 43.573784 
844.000000	 43.559360 
843.000000	 43.544960 
842.000000	 43.532800 
841.000000	 43.524646 
840.000000	 43.521142 
839.000000	 43.522047 
838.000000	 43.526053 
837.000000	 43.530941 
836.000000	 43.533706 
835.000000	 43.531513 
834.000000	 43.521428 
833.000000	 43.501210 
832.000000	 43.469595 
831.000000	 43.426656 
830.000000	 43.374371 
829.000000	 43.316340 
828.000000	 43.257498 
827.000000	 43.203234 
826.000000	 43.158030 
825.000000	 43.124318 
824.000000	 43.101882 
823.000000	 43.088269 
822.000000	 43.079519 
821.000000	 43.071436 
820.000000	 43.060946 
819.000000	 43.047237 
818.000000	 43.031620 
817.000000	 43.017458 
816.000000	 43.008518 
815.000000	 43.008065 
814.000000	 43.017482 
813.000000	 43.035888 
812.000000	 43.060231 
811.000000	 43.085908 
810.000000	 43.107843 
809.000000	 43.121695 
808.000000	 43.124747 
807.000000	 43.116283 
806.000000	 43.097949 
805.000000	 43.072772 
804.000000	 43.044400 
803.000000	 43.016219 
802.000000	 42.990922 
801.000000	 42.970132 
800.000000	 42.954516 
799.000000	 42.944097 
798.000000	 42.938446 
797.000000	 42.937088 
796.000000	 42.939543 
795.000000	 42.944598 
794.000000	 42.950582 
793.000000	 42.955112 
792.000000	 42.955708 
791.000000	 42.950034 
790.000000	 42.936921 
789.000000	 42.916631 
788.000000	 42.890954 
787.000000	 42.863202 
786.000000	 42.836833 
785.000000	 42.814826 
784.000000	 42.798471 
783.000000	 42.786955 
782.000000	 42.777514 
781.000000	 42.765784 
780.000000	 42.747211 
779.000000	 42.718553 
778.000000	 42.678523 
777.000000	 42.628216 
776.000000	 42.571115 
775.000000	 42.512202 
774.000000	 42.456746 
773.000000	 42.409133 
772.000000	 42.372250 
771.000000	 42.347121 
770.000000	 42.333078 
769.000000	 42.328166 
768.000000	 42.329835 
767.000000	 42.335486 
766.000000	 42.342734 
765.000000	 42.349600 
764.000000	 42.354559 
763.000000	 42.356467 
762.000000	 42.354416 
761.000000	 42.347645 
760.000000	 42.335581 
759.000000	 42.317914 
758.000000	 42.294692 
757.000000	 42.266273 
756.000000	 42.233228 
755.000000	 42.196393 
754.000000	 42.156791 
753.000000	 42.115736 
752.000000	 42.074942 
751.000000	 42.036151 
750.000000	 42.001414 
749.000000	 41.972160 
748.000000	 41.948938 
747.000000	 41.931200 
746.000000	 41.917204 
745.000000	 41.904568 
744.000000	 41.890454 
743.000000	 41.872692 
742.000000	 41.850137 
741.000000	 41.822791 
740.000000	 41.791749 
739.000000	 41.758894 
738.000000	 41.726565 
737.000000	 41.696786 
736.000000	 41.671109 
735.000000	 41.650199 
734.000000	 41.633677 
733.000000	 41.620635 
732.000000	 41.609454 
731.000000	 41.598200 
730.000000	 41.584801 
729.000000	 41.567277 
728.000000	 41.544246 
727.000000	 41.514730 
726.000000	 41.479516 
725.000000	 41.440773 
724.000000	 41.402363 
723.000000	 41.368985 
722.000000	 41.345214 
721.000000	 41.334366 
720.000000	 41.337776 
719.000000	 41.354179 
718.000000	 41.380214 
717.000000	 41.411161 
716.000000	 41.442251 
715.000000	 41.469621 
714.000000	 41.491127 
713.000000	 41.506123 
712.000000	 41.515183 
711.000000	 41.519141 
710.000000	 41.518449 
709.000000	 41.512560 
708.000000	 41.500091 
707.000000	 41.479086 
706.000000	 41.448259 
705.000000	 41.407132 
704.000000	 41.357421 
703.000000	 41.301727 
702.000000	 41.243672 
701.000000	 41.186380 
700.000000	 41.131997 
699.000000	 41.081357 
698.000000	 41.033935 
697.000000	 40.988850 
696.000000	 40.945172 
695.000000	 40.903067 
694.000000	 40.863823 
693.000000	 40.829753 
692.000000	 40.803456 
691.000000	 40.787005 
690.000000	 40.780925 
689.000000	 40.783715 
688.000000	 40.791845 
687.000000	 40.800571 
686.000000	 40.804767 
685.000000	 40.799951 
684.000000	 40.783071 
683.000000	 40.753102 
682.000000	 40.711307 
681.000000	 40.660166 
680.000000	 40.603590 
679.000000	 40.546154 
678.000000	 40.492606 
677.000000	 40.447258 
676.000000	 40.412902 
675.000000	 40.390658 
674.000000	 40.379476 
673.000000	 40.376377 
672.000000	 40.377426 
671.000000	 40.378546 
670.000000	 40.376591 
669.000000	 40.369939 
668.000000	 40.358877 
667.000000	 40.345096 
666.000000	 40.331363 
665.000000	 40.320205 
664.000000	 40.313220 
663.000000	 40.310359 
662.000000	 40.309929 
661.000000	 40.308952 
660.000000	 40.303826 
659.000000	 40.290904 
658.000000	 40.267491 
657.000000	 40.232372 
656.000000	 40.185499 
655.000000	 40.128374 
654.000000	 40.063476 
653.000000	 39.994215 
652.000000	 39.924788 
651.000000	 39.859485 
650.000000	 39.802908 
649.000000	 39.758253 
648.000000	 39.726972 
647.000000	 39.707756 
646.000000	 39.697051 
645.000000	 39.689397 
644.000000	 39.678239 
643.000000	 39.657998 
642.000000	 39.624786 
641.000000	 39.578127 
640.000000	 39.520740 
639.000000	 39.458227 
638.000000	 39.397406 
637.000000	 39.344954 
636.000000	 39.305949 
635.000000	 39.282631 
634.000000	 39.274239 
633.000000	 39.277291 
632.000000	 39.286851 
631.000000	 39.297938 
630.000000	 39.306616 
629.000000	 39.310765 
628.000000	 39.310336 
627.000000	 39.306521 
626.000000	 39.301300 
625.000000	 39.296388 
624.000000	 39.292955 
623.000000	 39.291453 
622.000000	 39.291191 
621.000000	 39.291071 
620.000000	 39.289379 
619.000000	 39.285135 
618.000000	 39.277291 
617.000000	 39.265608 
616.000000	 39.249730 
615.000000	 39.229559 
614.000000	 39.204764 
613.000000	 39.174890 
612.000000	 39.139819 
611.000000	 39.099907 
610.000000	 39.056897 
609.000000	 39.013576 
608.000000	 38.974022 
607.000000	 38.942670 
606.000000	 38.922834 
605.000000	 38.915610 
604.000000	 38.919305 
603.000000	 38.929653 
602.000000	 38.941144 
601.000000	 38.948225 
600.000000	 38.946533 
599.000000	 38.934040 
598.000000	 38.911795 
597.000000	 38.883185 
596.000000	 38.852167 
595.000000	 38.822436 
594.000000	 38.796257 
593.000000	 38.773345 
592.000000	 38.751316 
591.000000	 38.725876 
590.000000	 38.692593 
589.000000	 38.648009 
588.000000	 38.591217 
587.000000	 38.524603 
586.000000	 38.453269 
585.000000	 38.385033 
584.000000	 38.328242 
583.000000	 38.290691 
582.000000	 38.277554 
581.000000	 38.290214 
580.000000	 38.325691 
579.000000	 38.376450 
578.000000	 38.431310 
577.000000	 38.477396 
576.000000	 38.502264 
575.000000	 38.496494 
574.000000	 38.455009 
573.000000	 38.378238 
572.000000	 38.271355 
571.000000	 38.142967 
570.000000	 38.002967 
569.000000	 37.861156 
568.000000	 37.725710 
567.000000	 37.602901 
566.000000	 37.497043 
565.000000	 37.410998 
564.000000	 37.346768 
563.000000	 37.305784 
562.000000	 37.288880 
561.000000	 37.294936 
560.000000	 37.321829 
559.000000	 37.365198 
558.000000	 37.419414 
557.000000	 37.477087 
556.000000	 37.531208 
555.000000	 37.575531 
554.000000	 37.605786 
553.000000	 37.619829 
552.000000	 37.617111 
551.000000	 37.598276 
550.000000	 37.564587 
549.000000	 37.517786 
548.000000	 37.460303 
547.000000	 37.395405 
546.000000	 37.327599 
545.000000	 37.262248 
544.000000	 37.205886 
543.000000	 37.164211 
542.000000	 37.141180 
541.000000	 37.137317 
540.000000	 37.149643 
539.000000	 37.171435 
538.000000	 37.193751 
537.000000	 37.206959 
536.000000	 37.202262 
535.000000	 37.173986 
534.000000	 37.120676 
533.000000	 37.045407 
532.000000	 36.954736 
531.000000	 36.857581 
530.000000	 36.763143 
529.000000	 36.679339 
528.000000	 36.611413 
527.000000	 36.561942 
526.000000	 36.530590 
525.000000	 36.515069 
524.000000	 36.511611 
523.000000	 36.515712 
522.000000	 36.522531 
521.000000	 36.526608 
520.000000	 36.522293 
519.000000	 36.503601 
518.000000	 36.465692 
517.000000	 36.405587 
516.000000	 36.323094 
515.000000	 36.221528 
514.000000	 36.106991 
513.000000	 35.988116 
512.000000	 35.873627 
511.000000	 35.771083 
510.000000	 35.685133 
509.000000	 35.616612 
508.000000	 35.563302 
507.000000	 35.520648 
506.000000	 35.483813 
505.000000	 35.448622 
504.000000	 35.413551 
503.000000	 35.379195 
502.000000	 35.349297 
501.000000	 35.329222 
500.000000	 35.324430 
499.000000	 35.338449 
498.000000	 35.372591 
497.000000	 35.424804 
496.000000	 35.490417 
495.000000	 35.562062 
494.000000	 35.631775 
493.000000	 35.690903 
492.000000	 35.731887 
491.000000	 35.747861 
490.000000	 35.733246 
489.000000	 35.684323 
488.000000	 35.599946 
487.000000	 35.483026 
486.000000	 35.340619 
485.000000	 35.184645 
484.000000	 35.031414 
483.000000	 34.898734 
482.000000	 34.803771 
481.000000	 34.758162 
480.000000	 34.766149 
479.000000	 34.821605 
478.000000	 34.909319 
477.000000	 35.006785 
476.000000	 35.088562 
475.000000	 35.132074 
474.000000	 35.122418 
473.000000	 35.054945 
472.000000	 34.935712 
471.000000	 34.779572 
470.000000	 34.606456 
469.000000	 34.435796 
468.000000	 34.282755 
467.000000	 34.157204 
466.000000	 34.062862 
465.000000	 33.998584 
464.000000	 33.960628 
463.000000	 33.944940 
462.000000	 33.948802 
461.000000	 33.971118 
460.000000	 34.011316 
459.000000	 34.067010 
458.000000	 34.132838 
457.000000	 34.199500 
456.000000	 34.254360 
455.000000	 34.283852 
454.000000	 34.275293 
453.000000	 34.220290 
452.000000	 34.116053 
451.000000	 33.966851 
450.000000	 33.783364 
449.000000	 33.581423 
448.000000	 33.378481 
447.000000	 33.190584 
446.000000	 33.029556 
445.000000	 32.901406 
444.000000	 32.802319 
443.000000	 32.720732 
442.000000	 32.640171 
441.000000	 32.545781 
440.000000	 32.425999 
439.000000	 32.279849 
438.000000	 32.119417 
437.000000	 31.968760 
436.000000	 31.856989 
435.000000	 31.811738 
434.000000	 31.850433 
433.000000	 31.973958 
432.000000	 32.168364 
431.000000	 32.401895 
430.000000	 32.629609 
429.000000	 32.803845 
428.000000	 32.885670 
427.000000	 32.853341 
426.000000	 32.705640 
425.000000	 32.465219 
424.000000	 32.172107 
423.000000	 31.877017 
422.000000	 31.628441 
421.000000	 31.467151 
420.000000	 31.418848 
419.000000	 31.492519 
418.000000	 31.681776 
417.000000	 31.966948 
416.000000	 32.322454 
415.000000	 32.723665 
414.000000	 33.152222 
413.000000	 33.602523 
412.000000	 34.071874 
411.000000	 34.563899 
410.000000	 35.065221 
409.000000	 35.535359 
408.000000	 35.904073 
407.000000	 36.089634 
406.000000	 36.012649 
405.000000	 35.620331 
404.000000	 34.904766 
403.000000	 33.924245 
402.000000	 32.784938 
401.000000	 31.620049 
400.000000	 30.564570 
399.000000	 29.741358 
398.000000	 29.214429 
397.000000	 28.963065 
396.000000	 28.926157 
395.000000	 29.037475 
394.000000	 29.217791 
393.000000	 29.383659 
392.000000	 29.515027 
391.000000	 29.659056 
390.000000	 29.840421 
389.000000	 30.053591 
388.000000	 30.264019 
387.000000	 30.425214 
386.000000	 30.525541 
385.000000	 30.596780 
384.000000	 30.710816 
383.000000	 30.965995 
382.000000	 31.443810 
381.000000	 32.190704 
380.000000	 33.229541 
379.000000	 34.526753 
378.000000	 35.923480 
377.000000	 37.264299 
376.000000	 38.392043 
375.000000	 39.296460 
374.000000	 40.097475 
373.000000	 41.103816 
372.000000	 42.727088 
371.000000	 45.400857 
370.000000	 49.363970 

