PE IR       SPECTRUM    SPECTRUM    ASCII       PEDS        1.60        
  -1
C-9C6E~1.ASC
17/03/27
19:51:26.00
17/03/27
19:51:26.00
tln
$C-4040-8_t0066$<tbV0>[-13.0,0.0,8.0,0.0,27,1,0]
370.000000
64









2002,4.07    
MIRTGS : RIGHTBACK : INTERNAL 2
MIR : ON : INTERNAL 2
OPTKBR

0.200000
8
8.000000
FILLER
RATIO
SPECTRUM
UNLOCKED 256

DOUBLE
64
COMBINED
1
0
0


1.000000
RATIO


1
0
TRUE
51149
0
LEFT NOT FITTED RIGHT NOT FITTED 0
NONE
NONE
15600
12.000000
4.427000
51148
TRUE
1 0 8 72 0 0 0 0 

15798.010000






#HDR
-1
-1
#GR
CM-1
%T
0.00002384185791015625
0.0
5000.000000
-1.000000
4631
8
91.793942
43.431401
#DATA
5000.000000	64.480161 
4999.000000	64.566278 
4998.000000	64.673352 
4997.000000	64.785313 
4996.000000	64.887785 
4995.000000	64.969491 
4994.000000	65.025186 
4993.000000	65.055513 
4992.000000	65.066337 
4991.000000	65.065813 
4990.000000	65.062284 
4989.000000	65.062522 
4988.000000	65.069365 
4987.000000	65.081858 
4986.000000	65.094995 
4985.000000	65.102005 
4984.000000	65.095162 
4983.000000	65.068173 
4982.000000	65.016770 
4981.000000	64.940190 
4980.000000	64.841842 
4979.000000	64.728999 
4978.000000	64.611625 
4977.000000	64.500522 
4976.000000	64.405846 
4975.000000	64.335155 
4974.000000	64.292478 
4973.000000	64.277887 
4972.000000	64.286518 
4971.000000	64.311718 
4970.000000	64.345192 
4969.000000	64.381408 
4968.000000	64.417624 
4967.000000	64.455914 
4966.000000	64.500737 
4965.000000	64.558482 
4964.000000	64.634346 
4963.000000	64.730024 
4962.000000	64.841938 
4961.000000	64.961409 
4960.000000	65.076351 
4959.000000	65.173530 
4958.000000	65.241599 
4957.000000	65.272831 
4956.000000	65.264678 
4955.000000	65.219569 
4954.000000	65.144515 
4953.000000	65.049409 
4952.000000	64.945554 
4951.000000	64.844155 
4950.000000	64.755201 
4949.000000	64.687156 
4948.000000	64.646172 
4947.000000	64.636588 
4946.000000	64.659404 
4945.000000	64.711499 
4944.000000	64.786219 
4943.000000	64.873170 
4942.000000	64.960885 
4941.000000	65.037679 
4940.000000	65.094804 
4939.000000	65.127563 
4938.000000	65.136265 
4937.000000	65.125608 
4936.000000	65.103268 
4935.000000	65.077900 
4934.000000	65.056896 
4933.000000	65.044999 
4932.000000	65.043258 
4931.000000	65.049576 
4930.000000	65.058994 
4929.000000	65.065383 
4928.000000	65.062260 
4927.000000	65.044522 
4926.000000	65.009307 
4925.000000	64.957046 
4924.000000	64.890718 
4923.000000	64.816236 
4922.000000	64.741587 
4921.000000	64.675831 
4920.000000	64.627623 
4919.000000	64.603734 
4918.000000	64.607405 
4917.000000	64.637923 
4916.000000	64.689636 
4915.000000	64.754796 
4914.000000	64.824295 
4913.000000	64.891266 
4912.000000	64.950847 
4911.000000	65.002822 
4910.000000	65.050625 
4909.000000	65.100026 
4908.000000	65.156483 
4907.000000	65.223360 
4906.000000	65.300321 
4905.000000	65.382599 
4904.000000	65.462303 
4903.000000	65.529203 
4902.000000	65.573382 
4901.000000	65.587878 
4900.000000	65.570378 
4899.000000	65.523314 
4898.000000	65.453004 
4897.000000	65.368366 
4896.000000	65.278267 
4895.000000	65.190243 
4894.000000	65.108346 
4893.000000	65.033650 
4892.000000	64.964127 
4891.000000	64.896488 
4890.000000	64.827513 
4889.000000	64.755582 
4888.000000	64.681744 
4887.000000	64.609169 
4886.000000	64.543437 
4885.000000	64.489793 
4884.000000	64.452958 
4883.000000	64.434790 
4882.000000	64.435100 
4881.000000	64.450883 
4880.000000	64.478659 
4879.000000	64.515066 
4878.000000	64.558410 
4877.000000	64.608573 
4876.000000	64.666390 
4875.000000	64.732336 
4874.000000	64.805150 
4873.000000	64.880418 
4872.000000	64.950966 
4871.000000	65.007305 
4870.000000	65.039920 
4869.000000	65.040898 
4868.000000	65.006589 
4867.000000	64.938282 
4866.000000	64.842915 
4865.000000	64.731550 
4864.000000	64.617061 
4863.000000	64.512085 
4862.000000	64.426755 
4861.000000	64.367842 
4860.000000	64.337658 
4859.000000	64.335680 
4858.000000	64.358901 
4857.000000	64.403939 
4856.000000	64.467215 
4855.000000	64.546012 
4854.000000	64.637374 
4853.000000	64.738631 
4852.000000	64.845824 
4851.000000	64.953923 
4850.000000	65.056395 
4849.000000	65.146088 
4848.000000	65.215969 
4847.000000	65.260553 
4846.000000	65.276741 
4845.000000	65.264582 
4844.000000	65.227127 
4843.000000	65.170001 
4842.000000	65.100026 
4841.000000	65.024328 
4840.000000	64.948773 
4839.000000	64.877843 
4838.000000	64.813971 
4837.000000	64.758062 
4836.000000	64.710021 
4835.000000	64.669728 
4834.000000	64.637446 
4833.000000	64.613652 
4832.000000	64.599251 
4831.000000	64.594650 
4830.000000	64.599561 
4829.000000	64.611601 
4828.000000	64.627218 
4827.000000	64.641737 
4826.000000	64.650726 
4825.000000	64.651083 
4824.000000	64.641904 
4823.000000	64.624619 
4822.000000	64.602780 
4821.000000	64.581251 
4820.000000	64.564538 
4819.000000	64.555692 
4818.000000	64.555788 
4817.000000	64.563894 
4816.000000	64.577531 
4815.000000	64.594006 
4814.000000	64.611315 
4813.000000	64.629006 
4812.000000	64.648342 
4811.000000	64.671492 
4810.000000	64.700150 
4809.000000	64.734792 
4808.000000	64.773845 
4807.000000	64.813995 
4806.000000	64.850783 
4805.000000	64.879846 
4804.000000	64.898490 
4803.000000	64.906167 
4802.000000	64.905238 
4801.000000	64.899897 
4800.000000	64.895081 
4799.000000	64.895248 
4798.000000	64.903497 
4797.000000	64.920663 
4796.000000	64.945268 
4795.000000	64.974737 
4794.000000	65.006518 
4793.000000	65.038657 
4792.000000	65.070343 
4791.000000	65.102005 
4790.000000	65.134906 
4789.000000	65.169954 
4788.000000	65.207099 
4787.000000	65.245342 
4786.000000	65.281987 
4785.000000	65.314078 
4784.000000	65.337824 
4783.000000	65.350389 
4782.000000	65.349411 
4781.000000	65.334272 
4780.000000	65.304851 
4779.000000	65.262794 
4778.000000	65.209960 
4777.000000	65.149044 
4776.000000	65.082216 
4775.000000	65.011668 
4774.000000	64.938759 
4773.000000	64.864587 
4772.000000	64.789795 
4771.000000	64.715194 
4770.000000	64.641618 
4769.000000	64.570283 
4768.000000	64.502906 
4767.000000	64.441514 
4766.000000	64.388298 
4765.000000	64.345049 
4764.000000	64.312887 
4763.000000	64.291930 
4762.000000	64.280986 
4761.000000	64.277720 
4760.000000	64.278960 
4759.000000	64.281320 
4758.000000	64.281439 
4757.000000	64.277052 
4756.000000	64.266729 
4755.000000	64.250564 
4754.000000	64.229655 
4753.000000	64.206314 
4752.000000	64.183425 
4751.000000	64.164137 
4750.000000	64.151215 
4749.000000	64.146447 
4748.000000	64.150238 
4747.000000	64.161610 
4746.000000	64.178466 
4745.000000	64.197564 
4744.000000	64.215040 
4743.000000	64.227366 
4742.000000	64.232349 
4741.000000	64.229178 
4740.000000	64.218640 
4739.000000	64.203524 
4738.000000	64.188146 
4737.000000	64.176964 
4736.000000	64.174008 
4735.000000	64.182400 
4734.000000	64.203763 
4733.000000	64.238023 
4732.000000	64.283132 
4731.000000	64.335918 
4730.000000	64.392209 
4729.000000	64.447212 
4728.000000	64.496326 
4727.000000	64.535260 
4726.000000	64.561057 
4725.000000	64.572143 
4724.000000	64.569258 
4723.000000	64.555048 
4722.000000	64.534163 
4721.000000	64.512586 
4720.000000	64.496397 
4719.000000	64.490890 
4718.000000	64.499354 
4717.000000	64.522814 
4716.000000	64.559674 
4715.000000	64.606094 
4714.000000	64.657521 
4713.000000	64.709711 
4712.000000	64.759492 
4711.000000	64.805030 
4710.000000	64.845895 
4709.000000	64.882326 
4708.000000	64.914202 
4707.000000	64.940285 
4706.000000	64.958262 
4705.000000	64.964866 
4704.000000	64.957118 
4703.000000	64.933180 
4702.000000	64.894270 
4701.000000	64.844298 
4700.000000	64.789986 
4699.000000	64.738917 
4698.000000	64.698433 
4697.000000	64.673233 
4696.000000	64.664554 
4695.000000	64.669561 
4694.000000	64.682245 
4693.000000	64.694619 
4692.000000	64.699125 
4691.000000	64.689970 
4690.000000	64.664602 
4689.000000	64.623951 
4688.000000	64.571785 
4687.000000	64.513897 
4686.000000	64.456224 
4685.000000	64.404106 
4684.000000	64.360952 
4683.000000	64.328575 
4682.000000	64.306712 
4681.000000	64.293766 
4680.000000	64.286947 
4679.000000	64.282441 
4678.000000	64.276361 
4677.000000	64.264559 
4676.000000	64.245033 
4675.000000	64.217114 
4674.000000	64.183449 
4673.000000	64.149260 
4672.000000	64.121651 
4671.000000	64.107918 
4670.000000	64.113879 
4669.000000	64.142227 
4668.000000	64.191102 
4667.000000	64.253973 
4666.000000	64.321208 
4665.000000	64.382004 
4664.000000	64.427161 
4663.000000	64.451050 
4662.000000	64.453005 
4661.000000	64.437150 
4660.000000	64.410924 
4659.000000	64.383125 
4658.000000	64.361381 
4657.000000	64.350700 
4656.000000	64.353132 
4655.000000	64.367938 
4654.000000	64.393186 
4653.000000	64.426350 
4652.000000	64.465308 
4651.000000	64.508390 
4650.000000	64.554190 
4649.000000	64.601445 
4648.000000	64.648079 
4647.000000	64.691710 
4646.000000	64.729571 
4645.000000	64.759206 
4644.000000	64.779257 
4643.000000	64.789438 
4642.000000	64.791202 
4641.000000	64.786529 
4640.000000	64.777851 
4639.000000	64.766788 
4638.000000	64.754009 
4637.000000	64.738869 
4636.000000	64.720082 
4635.000000	64.696073 
4634.000000	64.666128 
4633.000000	64.630389 
4632.000000	64.589977 
4631.000000	64.546823 
4630.000000	64.503097 
4629.000000	64.460587 
4628.000000	64.420700 
4627.000000	64.384341 
4626.000000	64.352321 
4625.000000	64.325213 
4624.000000	64.304184 
4623.000000	64.290213 
4622.000000	64.284467 
4621.000000	64.287972 
4620.000000	64.301037 
4619.000000	64.322352 
4618.000000	64.349460 
4617.000000	64.378547 
4616.000000	64.405727 
4615.000000	64.427232 
4614.000000	64.440894 
4613.000000	64.446282 
4612.000000	64.445304 
4611.000000	64.441466 
4610.000000	64.439368 
4609.000000	64.443445 
4608.000000	64.457249 
4607.000000	64.482760 
4606.000000	64.520192 
4605.000000	64.568161 
4604.000000	64.624428 
4603.000000	64.686155 
4602.000000	64.750218 
4601.000000	64.812874 
4600.000000	64.870405 
4599.000000	64.918637 
4598.000000	64.952993 
4597.000000	64.969325 
4596.000000	64.964580 
4595.000000	64.938092 
4594.000000	64.892005 
4593.000000	64.831781 
4592.000000	64.766120 
4591.000000	64.705491 
4590.000000	64.660501 
4589.000000	64.639568 
4588.000000	64.647388 
4587.000000	64.683508 
4586.000000	64.742708 
4585.000000	64.815640 
4584.000000	64.890742 
4583.000000	64.957380 
4582.000000	65.007805 
4581.000000	65.038919 
4580.000000	65.051841 
4579.000000	65.051722 
4578.000000	65.045619 
4577.000000	65.040397 
4576.000000	65.040802 
4575.000000	65.048503 
4574.000000	65.061712 
4573.000000	65.076708 
4572.000000	65.088748 
4571.000000	65.094184 
4570.000000	65.091252 
4569.000000	65.080881 
4568.000000	65.066123 
4567.000000	65.051054 
4566.000000	65.039491 
4565.000000	65.034270 
4564.000000	65.035963 
4563.000000	65.042972 
4562.000000	65.051484 
4561.000000	65.057897 
4560.000000	65.058279 
4559.000000	65.049672 
4558.000000	65.030431 
4557.000000	65.000414 
4556.000000	64.961290 
4555.000000	64.916396 
4554.000000	64.869809 
4553.000000	64.825558 
4552.000000	64.787888 
4551.000000	64.760875 
4550.000000	64.747428 
4549.000000	64.749073 
4548.000000	64.766025 
4547.000000	64.797234 
4546.000000	64.840316 
4545.000000	64.892554 
4544.000000	64.950013 
4543.000000	65.009593 
4542.000000	65.068411 
4541.000000	65.125823 
4540.000000	65.182733 
4539.000000	65.242147 
4538.000000	65.308308 
4537.000000	65.385079 
4536.000000	65.475177 
4535.000000	65.577340 
4534.000000	65.687489 
4533.000000	65.796113 
4532.000000	65.891194 
4531.000000	65.958333 
4530.000000	65.985131 
4529.000000	65.962266 
4528.000000	65.886354 
4527.000000	65.761137 
4526.000000	65.597748 
4525.000000	65.413594 
4524.000000	65.229821 
4523.000000	65.068101 
4522.000000	64.947199 
4521.000000	64.880323 
4520.000000	64.873313 
4519.000000	64.923596 
4518.000000	65.021419 
4517.000000	65.151834 
4516.000000	65.297889 
4515.000000	65.442276 
4514.000000	65.570878 
4513.000000	65.673780 
4512.000000	65.746593 
4511.000000	65.789055 
4510.000000	65.804648 
4509.000000	65.798616 
4508.000000	65.777111 
4507.000000	65.746259 
4506.000000	65.711545 
4505.000000	65.678477 
4504.000000	65.651202 
4503.000000	65.634131 
4502.000000	65.629434 
4501.000000	65.637540 
4500.000000	65.655827 
4499.000000	65.679240 
4498.000000	65.701174 
4497.000000	65.714740 
4496.000000	65.714359 
4495.000000	65.696859 
4494.000000	65.661668 
4493.000000	65.611171 
4492.000000	65.549993 
4491.000000	65.484547 
4490.000000	65.421056 
4489.000000	65.365719 
4488.000000	65.323400 
4487.000000	65.298199 
4486.000000	65.293169 
4485.000000	65.310311 
4484.000000	65.349292 
4483.000000	65.408444 
4482.000000	65.483808 
4481.000000	65.570306 
4480.000000	65.660905 
4479.000000	65.749025 
4478.000000	65.829014 
4477.000000	65.897488 
4476.000000	65.953850 
4475.000000	65.998673 
4474.000000	66.032600 
4473.000000	66.055393 
4472.000000	66.065955 
4471.000000	66.061735 
4470.000000	66.039800 
4469.000000	65.998601 
4468.000000	65.939068 
4467.000000	65.865421 
4466.000000	65.784883 
4465.000000	65.706443 
4464.000000	65.638995 
4463.000000	65.589094 
4462.000000	65.559792 
4461.000000	65.549683 
4460.000000	65.554165 
4459.000000	65.566706 
4458.000000	65.581274 
4457.000000	65.593576 
4456.000000	65.602755 
4455.000000	65.609860 
4454.000000	65.619111 
4453.000000	65.634036 
4452.000000	65.659499 
4451.000000	65.699768 
4450.000000	65.758490 
4449.000000	65.837574 
4448.000000	65.936470 
4447.000000	66.051864 
4446.000000	66.177058 
4445.000000	66.302752 
4444.000000	66.417789 
4443.000000	66.511178 
4442.000000	66.574144 
4441.000000	66.601848 
4440.000000	66.594386 
4439.000000	66.556668 
4438.000000	66.497874 
4437.000000	66.429066 
4436.000000	66.361355 
4435.000000	66.303420 
4434.000000	66.260576 
4433.000000	66.234040 
4432.000000	66.222953 
4431.000000	66.223907 
4430.000000	66.233277 
4429.000000	66.246390 
4428.000000	66.258001 
4427.000000	66.263127 
4426.000000	66.255211 
4425.000000	66.231131 
4424.000000	66.192054 
4423.000000	66.144013 
4422.000000	66.096210 
4421.000000	66.060352 
4420.000000	66.048526 
4419.000000	66.067910 
4418.000000	66.117763 
4417.000000	66.193175 
4416.000000	66.286516 
4415.000000	66.385102 
4414.000000	66.473150 
4413.000000	66.540646 
4412.000000	66.583323 
4411.000000	66.594958 
4410.000000	66.569352 
4409.000000	66.508293 
4408.000000	66.417670 
4407.000000	66.300153 
4406.000000	66.158962 
4405.000000	66.004705 
4404.000000	65.848731 
4403.000000	65.704560 
4402.000000	65.580868 
4401.000000	65.478062 
4400.000000	65.388727 
4399.000000	65.305829 
4398.000000	65.216112 
4397.000000	65.100455 
4396.000000	64.942717 
4395.000000	64.740419 
4394.000000	64.492273 
4393.000000	64.199185 
4392.000000	63.857626 
4391.000000	63.460350 
4390.000000	62.989997 
4389.000000	62.421083 
4388.000000	61.727023 
4387.000000	60.883331 
4386.000000	59.866070 
4385.000000	58.655834 
4384.000000	57.246327 
4383.000000	55.648469 
4382.000000	53.887462 
4381.000000	52.013826 
4380.000000	50.093865 
4379.000000	48.225951 
4378.000000	46.506166 
4377.000000	45.060610 
4376.000000	43.994426 
4375.000000	43.431401 
4374.000000	43.475341 
4373.000000	44.213414 
4372.000000	45.680904 
4371.000000	47.839260 
4370.000000	50.548577 
4369.000000	53.580284 
4368.000000	56.626915 
4367.000000	59.372377 
4366.000000	61.540484 
4365.000000	62.959456 
4364.000000	63.592123 
4363.000000	63.528490 
4362.000000	62.957644 
4361.000000	62.124562 
4360.000000	61.276030 
4359.000000	60.627436 
4358.000000	60.320758 
4357.000000	60.436511 
4356.000000	60.972166 
4355.000000	61.853098 
4354.000000	62.947797 
4353.000000	64.096331 
4352.000000	65.147566 
4351.000000	65.978288 
4350.000000	66.525936 
4349.000000	66.794276 
4348.000000	66.844344 
4347.000000	66.763329 
4346.000000	66.644334 
4345.000000	66.562795 
4344.000000	66.556859 
4343.000000	66.631078 
4342.000000	66.754746 
4341.000000	66.886377 
4340.000000	66.981434 
4339.000000	67.016458 
4338.000000	66.982054 
4337.000000	66.883659 
4336.000000	66.744112 
4335.000000	66.596889 
4334.000000	66.466617 
4333.000000	66.362786 
4332.000000	66.287064 
4331.000000	66.233491 
4330.000000	66.194009 
4329.000000	66.161656 
4328.000000	66.132164 
4327.000000	66.105556 
4326.000000	66.084122 
4325.000000	66.072034 
4324.000000	66.072297 
4323.000000	66.086363 
4322.000000	66.110348 
4321.000000	66.138315 
4320.000000	66.166973 
4319.000000	66.192603 
4318.000000	66.209816 
4317.000000	66.214442 
4316.000000	66.204714 
4315.000000	66.180896 
4314.000000	66.145348 
4313.000000	66.101837 
4312.000000	66.054749 
4311.000000	66.008901 
4310.000000	65.968751 
4309.000000	65.936994 
4308.000000	65.914416 
4307.000000	65.899062 
4306.000000	65.887475 
4305.000000	65.876173 
4304.000000	65.862989 
4303.000000	65.848875 
4302.000000	65.837192 
4301.000000	65.832424 
4300.000000	65.838384 
4299.000000	65.856361 
4298.000000	65.884375 
4297.000000	65.916895 
4296.000000	65.946483 
4295.000000	65.965247 
4294.000000	65.967488 
4293.000000	65.951323 
4292.000000	65.919232 
4291.000000	65.877413 
4290.000000	65.834450 
4289.000000	65.798735 
4288.000000	65.776896 
4287.000000	65.771889 
4286.000000	65.783643 
4285.000000	65.809559 
4284.000000	65.845632 
4283.000000	65.887904 
4282.000000	65.932703 
4281.000000	65.976905 
4280.000000	66.017270 
4279.000000	66.050291 
4278.000000	66.072249 
4277.000000	66.079378 
4276.000000	66.069030 
4275.000000	66.040277 
4274.000000	65.994644 
4273.000000	65.935850 
4272.000000	65.870046 
4271.000000	65.803861 
4270.000000	65.743231 
4269.000000	65.692114 
4268.000000	65.652084 
4267.000000	65.622329 
4266.000000	65.600490 
4265.000000	65.583539 
4264.000000	65.568947 
4263.000000	65.555453 
4262.000000	65.543007 
4261.000000	65.532374 
4260.000000	65.523862 
4259.000000	65.517425 
4258.000000	65.512061 
4257.000000	65.505862 
4256.000000	65.496444 
4255.000000	65.481233 
4254.000000	65.458369 
4253.000000	65.426921 
4252.000000	65.387368 
4251.000000	65.341973 
4250.000000	65.294623 
4249.000000	65.250229 
4248.000000	65.214443 
4247.000000	65.192580 
4246.000000	65.189194 
4245.000000	65.207099 
4244.000000	65.247321 
4243.000000	65.308570 
4242.000000	65.386891 
4241.000000	65.476584 
4240.000000	65.569806 
4239.000000	65.657758 
4238.000000	65.731239 
4237.000000	65.782260 
4236.000000	65.804529 
4235.000000	65.794897 
4234.000000	65.753388 
4233.000000	65.683746 
4232.000000	65.592741 
4231.000000	65.489673 
4230.000000	65.384626 
4229.000000	65.287256 
4228.000000	65.205407 
4227.000000	65.144467 
4226.000000	65.106439 
4225.000000	65.090537 
4224.000000	65.094089 
4223.000000	65.113425 
4222.000000	65.144729 
4221.000000	65.184497 
4220.000000	65.228748 
4219.000000	65.273642 
4218.000000	65.315032 
4217.000000	65.349268 
4216.000000	65.372967 
4215.000000	65.383672 
4214.000000	65.380978 
4213.000000	65.365529 
4212.000000	65.339827 
4211.000000	65.306639 
4210.000000	65.268778 
4209.000000	65.228152 
4208.000000	65.186405 
4207.000000	65.143632 
4206.000000	65.099215 
4205.000000	65.051507 
4204.000000	64.999222 
4203.000000	64.940667 
4202.000000	64.874863 
4201.000000	64.801383 
4200.000000	64.721131 
4199.000000	64.636898 
4198.000000	64.553952 
4197.000000	64.480137 
4196.000000	64.425396 
4195.000000	64.400625 
4194.000000	64.415478 
4193.000000	64.475464 
4192.000000	64.580154 
4191.000000	64.721965 
4190.000000	64.886808 
4189.000000	65.056157 
4188.000000	65.209984 
4187.000000	65.330815 
4186.000000	65.405917 
4185.000000	65.429854 
4184.000000	65.403819 
4183.000000	65.335536 
4182.000000	65.236210 
4181.000000	65.118360 
4180.000000	64.993190 
4179.000000	64.870142 
4178.000000	64.755606 
4177.000000	64.653873 
4176.000000	64.567565 
4175.000000	64.499139 
4174.000000	64.450049 
4173.000000	64.421224 
4172.000000	64.412403 
4171.000000	64.422130 
4170.000000	64.447736 
4169.000000	64.485931 
4168.000000	64.533257 
4167.000000	64.586758 
4166.000000	64.643859 
4165.000000	64.702582 
4164.000000	64.761114 
4163.000000	64.817547 
4162.000000	64.869785 
4161.000000	64.915156 
4160.000000	64.950895 
4159.000000	64.974188 
4158.000000	64.983677 
4157.000000	64.978718 
4156.000000	64.960217 
4155.000000	64.929986 
4154.000000	64.891219 
4153.000000	64.847493 
4152.000000	64.802455 
4151.000000	64.759993 
4150.000000	64.723610 
4149.000000	64.696764 
4148.000000	64.682698 
4147.000000	64.683365 
4146.000000	64.699172 
4145.000000	64.728808 
4144.000000	64.769291 
4143.000000	64.816403 
4142.000000	64.865422 
4141.000000	64.911890 
4140.000000	64.952039 
4139.000000	64.983081 
4138.000000	65.003347 
4137.000000	65.011668 
4136.000000	65.007638 
4135.000000	64.991593 
4134.000000	64.964485 
4133.000000	64.928293 
4132.000000	64.885711 
4131.000000	64.840650 
4130.000000	64.797282 
4129.000000	64.759922 
4128.000000	64.731740 
4127.000000	64.714527 
4126.000000	64.707756 
4125.000000	64.708924 
4124.000000	64.713692 
4123.000000	64.716696 
4122.000000	64.713072 
4121.000000	64.699316 
4120.000000	64.674115 
4119.000000	64.638400 
4118.000000	64.595317 
4117.000000	64.549589 
4116.000000	64.506149 
4115.000000	64.469289 
4114.000000	64.441895 
4113.000000	64.425396 
4112.000000	64.419722 
4111.000000	64.423656 
4110.000000	64.435505 
4109.000000	64.453387 
4108.000000	64.475488 
4107.000000	64.500379 
4106.000000	64.526343 
4105.000000	64.551997 
4104.000000	64.575743 
4103.000000	64.596462 
4102.000000	64.613080 
4101.000000	64.625430 
4100.000000	64.634037 
4099.000000	64.640331 
4098.000000	64.646148 
4097.000000	64.653539 
4096.000000	64.664530 
4095.000000	64.680624 
4094.000000	64.702439 
4093.000000	64.729881 
4092.000000	64.762163 
4091.000000	64.798045 
4090.000000	64.836049 
4089.000000	64.874529 
4088.000000	64.911818 
4087.000000	64.946317 
4086.000000	64.976692 
4085.000000	65.001916 
4084.000000	65.021300 
4083.000000	65.035176 
4082.000000	65.044021 
4081.000000	65.048575 
4080.000000	65.049314 
4079.000000	65.047025 
4078.000000	65.041637 
4077.000000	65.032744 
4076.000000	65.018892 
4075.000000	64.998817 
4074.000000	64.970564 
4073.000000	64.932847 
4072.000000	64.884757 
4071.000000	64.826464 
4070.000000	64.759707 
4069.000000	64.687728 
4068.000000	64.615416 
4067.000000	64.548349 
4066.000000	64.492416 
4065.000000	64.452695 
4064.000000	64.432382 
4063.000000	64.431977 
4062.000000	64.449119 
4061.000000	64.479327 
4060.000000	64.515948 
4059.000000	64.552330 
4058.000000	64.583277 
4057.000000	64.606595 
4056.000000	64.622974 
4055.000000	64.636254 
4054.000000	64.652132 
4053.000000	64.676356 
4052.000000	64.713382 
4051.000000	64.764213 
4050.000000	64.826369 
4049.000000	64.893722 
4048.000000	64.958429 
4047.000000	65.012073 
4046.000000	65.047764 
4045.000000	65.061736 
4044.000000	65.054130 
4043.000000	65.028762 
4042.000000	64.992046 
4041.000000	64.951348 
4040.000000	64.913368 
4039.000000	64.882302 
4038.000000	64.859080 
4037.000000	64.841699 
4036.000000	64.826226 
4035.000000	64.807844 
4034.000000	64.782476 
4033.000000	64.747881 
4032.000000	64.705014 
4031.000000	64.657378 
4030.000000	64.611148 
4029.000000	64.572906 
4028.000000	64.548993 
4027.000000	64.544129 
4026.000000	64.560461 
4025.000000	64.597177 
4024.000000	64.650583 
4023.000000	64.715027 
4022.000000	64.783644 
4021.000000	64.849305 
4020.000000	64.905595 
4019.000000	64.947485 
4018.000000	64.971876 
4017.000000	64.977645 
4016.000000	64.966034 
4015.000000	64.940357 
4014.000000	64.905524 
4013.000000	64.867496 
4012.000000	64.832234 
4011.000000	64.804744 
4010.000000	64.788365 
4009.000000	64.784288 
4008.000000	64.790964 
4007.000000	64.804577 
4006.000000	64.820003 
4005.000000	64.832234 
4004.000000	64.837121 
4003.000000	64.832830 
4002.000000	64.819931 
4001.000000	64.801573 
4000.000000	64.782118 
3999.000000	64.766454 
3998.000000	64.758586 
3997.000000	64.760637 
3996.000000	64.772677 
3995.000000	64.792609 
3994.000000	64.816951 
3993.000000	64.842009 
3992.000000	64.865016 
3991.000000	64.884710 
3990.000000	64.901161 
3989.000000	64.915895 
3988.000000	64.931106 
3987.000000	64.948773 
3986.000000	64.969849 
3985.000000	64.993739 
3984.000000	65.018391 
3983.000000	65.040993 
3982.000000	65.058684 
3981.000000	65.068840 
3980.000000	65.069890 
3979.000000	65.061974 
3978.000000	65.046834 
3977.000000	65.027618 
3976.000000	65.007901 
3975.000000	64.991426 
3974.000000	64.980769 
3973.000000	64.977431 
3972.000000	64.980602 
3971.000000	64.987993 
3970.000000	64.995598 
3969.000000	64.998960 
3968.000000	64.994049 
3967.000000	64.978027 
3966.000000	64.950537 
3965.000000	64.913272 
3964.000000	64.870667 
3963.000000	64.828395 
3962.000000	64.792728 
3961.000000	64.769029 
3960.000000	64.760875 
3959.000000	64.769458 
3958.000000	64.793872 
3957.000000	64.831757 
3956.000000	64.879608 
3955.000000	64.933633 
3954.000000	64.990258 
3953.000000	65.046453 
3952.000000	65.099310 
3951.000000	65.146231 
3950.000000	65.184807 
3949.000000	65.212845 
3948.000000	65.228843 
3947.000000	65.231966 
3946.000000	65.222477 
3945.000000	65.201735 
3944.000000	65.172648 
3943.000000	65.138936 
3942.000000	65.104675 
3941.000000	65.073728 
3940.000000	65.049672 
3939.000000	65.035057 
3938.000000	65.031576 
3937.000000	65.039467 
3936.000000	65.057659 
3935.000000	65.083336 
3934.000000	65.112495 
3933.000000	65.139889 
3932.000000	65.159940 
3931.000000	65.167498 
3930.000000	65.159249 
3929.000000	65.134382 
3928.000000	65.095114 
3927.000000	65.046381 
3926.000000	64.994835 
3925.000000	64.947724 
3924.000000	64.911341 
3923.000000	64.890003 
3922.000000	64.885425 
3921.000000	64.896416 
3920.000000	64.919853 
3919.000000	64.951634 
3918.000000	64.987802 
3917.000000	65.025258 
3916.000000	65.062022 
3915.000000	65.097069 
3914.000000	65.129566 
3913.000000	65.158438 
3912.000000	65.181708 
3911.000000	65.196490 
3910.000000	65.199470 
3909.000000	65.188145 
3908.000000	65.161132 
3907.000000	65.119338 
3906.000000	65.065979 
3905.000000	65.006756 
3904.000000	64.948654 
3903.000000	64.898896 
3902.000000	64.863514 
3901.000000	64.846348 
3900.000000	64.848375 
3899.000000	64.867663 
3898.000000	64.899826 
3897.000000	64.939212 
3896.000000	64.979767 
3895.000000	65.016770 
3894.000000	65.046882 
3893.000000	65.069150 
3892.000000	65.084338 
3891.000000	65.094566 
3890.000000	65.102291 
3889.000000	65.109229 
3888.000000	65.116047 
3887.000000	65.121960 
3886.000000	65.125060 
3885.000000	65.123176 
3884.000000	65.114879 
3883.000000	65.100216 
3882.000000	65.081167 
3881.000000	65.061712 
3880.000000	65.047049 
3879.000000	65.042233 
3878.000000	65.051126 
3877.000000	65.075182 
3876.000000	65.112900 
3875.000000	65.160107 
3874.000000	65.210604 
3873.000000	65.257573 
3872.000000	65.294837 
3871.000000	65.318489 
3870.000000	65.326905 
3869.000000	65.320920 
3868.000000	65.302944 
3867.000000	65.276360 
3866.000000	65.244555 
3865.000000	65.210533 
3864.000000	65.176510 
3863.000000	65.144062 
3862.000000	65.114545 
3861.000000	65.089535 
3860.000000	65.070772 
3859.000000	65.060138 
3858.000000	65.059185 
3857.000000	65.068650 
3856.000000	65.087938 
3855.000000	65.114927 
3854.000000	65.146136 
3853.000000	65.177106 
3852.000000	65.203142 
3851.000000	65.220046 
3850.000000	65.224838 
3849.000000	65.216112 
3848.000000	65.194392 
3847.000000	65.161919 
3846.000000	65.122461 
3845.000000	65.080571 
3844.000000	65.041208 
3843.000000	65.008568 
3842.000000	64.985632 
3841.000000	64.973473 
3840.000000	64.971041 
3839.000000	64.975929 
3838.000000	64.984631 
3837.000000	64.994025 
3836.000000	65.001368 
3835.000000	65.005731 
3834.000000	65.007400 
3833.000000	65.008449 
3832.000000	65.011143 
3831.000000	65.018177 
3830.000000	65.031409 
3829.000000	65.051627 
3828.000000	65.078282 
3827.000000	65.109372 
3826.000000	65.142083 
3825.000000	65.173482 
3824.000000	65.201020 
3823.000000	65.223002 
3822.000000	65.238785 
3821.000000	65.248870 
3820.000000	65.254616 
3819.000000	65.258026 
3818.000000	65.261149 
3817.000000	65.265727 
3816.000000	65.272712 
3815.000000	65.282249 
3814.000000	65.293216 
3813.000000	65.303969 
3812.000000	65.312242 
3811.000000	65.315818 
3810.000000	65.312647 
3809.000000	65.301775 
3808.000000	65.282917 
3807.000000	65.256524 
3806.000000	65.223956 
3805.000000	65.186762 
3804.000000	65.147328 
3803.000000	65.108466 
3802.000000	65.073347 
3801.000000	65.044999 
3800.000000	65.026307 
3799.000000	65.019607 
3798.000000	65.026283 
3797.000000	65.046000 
3796.000000	65.077066 
3795.000000	65.116429 
3794.000000	65.159916 
3793.000000	65.202689 
3792.000000	65.240144 
3791.000000	65.268588 
3790.000000	65.285444 
3789.000000	65.289735 
3788.000000	65.282130 
3787.000000	65.264916 
3786.000000	65.241408 
3785.000000	65.215682 
3784.000000	65.192079 
3783.000000	65.174198 
3782.000000	65.165233 
3781.000000	65.166544 
3780.000000	65.178060 
3779.000000	65.197753 
3778.000000	65.222263 
3777.000000	65.247154 
3776.000000	65.267562 
3775.000000	65.279412 
3774.000000	65.279912 
3773.000000	65.268325 
3772.000000	65.245413 
3771.000000	65.213847 
3770.000000	65.177416 
3769.000000	65.140128 
3768.000000	65.105509 
3767.000000	65.075898 
3766.000000	65.052199 
3765.000000	65.033769 
3764.000000	65.018844 
3763.000000	65.005040 
3762.000000	64.990425 
3761.000000	64.974212 
3760.000000	64.957213 
3759.000000	64.941239 
3758.000000	64.929056 
3757.000000	64.923262 
3756.000000	64.925718 
3755.000000	64.936590 
3754.000000	64.954662 
3753.000000	64.977359 
3752.000000	65.001749 
3751.000000	65.025115 
3750.000000	65.045976 
3749.000000	65.064311 
3748.000000	65.081334 
3747.000000	65.098786 
3746.000000	65.118360 
3745.000000	65.140867 
3744.000000	65.165734 
3743.000000	65.191125 
3742.000000	65.214562 
3741.000000	65.233707 
3740.000000	65.247225 
3739.000000	65.255260 
3738.000000	65.259122 
3737.000000	65.260648 
3736.000000	65.261793 
3735.000000	65.263819 
3734.000000	65.267038 
3733.000000	65.270590 
3732.000000	65.273141 
3731.000000	65.273046 
3730.000000	65.269160 
3729.000000	65.260934 
3728.000000	65.248775 
3727.000000	65.233421 
3726.000000	65.216112 
3725.000000	65.197706 
3724.000000	65.178608 
3723.000000	65.158462 
3722.000000	65.136456 
3721.000000	65.111732 
3720.000000	65.083885 
3719.000000	65.053629 
3718.000000	65.022993 
3717.000000	64.995360 
3716.000000	64.974665 
3715.000000	64.964962 
3714.000000	64.969182 
3713.000000	64.988350 
3712.000000	65.021061 
3711.000000	65.063428 
3710.000000	65.109562 
3709.000000	65.152573 
3708.000000	65.185737 
3707.000000	65.203666 
3706.000000	65.203356 
3705.000000	65.184569 
3704.000000	65.149855 
3703.000000	65.104007 
3702.000000	65.053129 
3701.000000	65.003323 
3700.000000	64.959788 
3699.000000	64.926433 
3698.000000	64.905142 
3697.000000	64.896059 
3696.000000	64.898157 
3695.000000	64.909648 
3694.000000	64.928746 
3693.000000	64.953708 
3692.000000	64.983248 
3691.000000	65.016031 
3690.000000	65.050649 
3689.000000	65.085196 
3688.000000	65.117549 
3687.000000	65.145397 
3686.000000	65.166783 
3685.000000	65.180468 
3684.000000	65.186452 
3683.000000	65.185880 
3682.000000	65.181088 
3681.000000	65.174436 
3680.000000	65.168118 
3679.000000	65.163040 
3678.000000	65.158581 
3677.000000	65.152692 
3676.000000	65.142703 
3675.000000	65.125989 
3674.000000	65.101122 
3673.000000	65.068292 
3672.000000	65.029644 
3671.000000	64.988899 
3670.000000	64.950799 
3669.000000	64.920115 
3668.000000	64.900159 
3667.000000	64.892649 
3666.000000	64.897227 
3665.000000	64.911556 
3664.000000	64.932227 
3663.000000	64.955163 
3662.000000	64.976525 
3661.000000	64.993405 
3660.000000	65.004444 
3659.000000	65.009212 
3658.000000	65.008258 
3657.000000	65.002965 
3656.000000	64.995050 
3655.000000	64.986371 
3654.000000	64.978384 
3653.000000	64.972329 
3652.000000	64.968943 
3651.000000	64.968514 
3650.000000	64.971184 
3649.000000	64.976692 
3648.000000	64.984869 
3647.000000	64.995574 
3646.000000	65.008664 
3645.000000	65.023636 
3644.000000	65.039968 
3643.000000	65.056896 
3642.000000	65.073370 
3641.000000	65.088009 
3640.000000	65.099167 
3639.000000	65.105438 
3638.000000	65.105247 
3637.000000	65.097093 
3636.000000	65.079593 
3635.000000	65.052247 
3634.000000	65.015387 
3633.000000	64.970469 
3632.000000	64.920234 
3631.000000	64.868474 
3630.000000	64.819765 
3629.000000	64.778637 
3628.000000	64.748787 
3627.000000	64.732646 
3626.000000	64.730620 
3625.000000	64.741253 
3624.000000	64.761114 
3623.000000	64.786052 
3622.000000	64.811658 
3621.000000	64.834856 
3620.000000	64.853644 
3619.000000	64.868259 
3618.000000	64.880466 
3617.000000	64.893221 
3616.000000	64.909648 
3615.000000	64.932203 
3614.000000	64.961957 
3613.000000	64.998126 
3612.000000	65.038394 
3611.000000	65.078902 
3610.000000	65.115261 
3609.000000	65.143346 
3608.000000	65.160560 
3607.000000	65.166020 
3606.000000	65.160870 
3605.000000	65.148186 
3604.000000	65.132045 
3603.000000	65.116643 
3602.000000	65.105032 
3601.000000	65.098643 
3600.000000	65.097022 
3599.000000	65.097928 
3598.000000	65.097784 
3597.000000	65.093159 
3596.000000	65.081143 
3595.000000	65.060329 
3594.000000	65.031051 
3593.000000	64.995026 
3592.000000	64.955306 
3591.000000	64.915347 
3590.000000	64.878559 
3589.000000	64.847469 
3588.000000	64.824008 
3587.000000	64.809393 
3586.000000	64.804506 
3585.000000	64.809608 
3584.000000	64.824867 
3583.000000	64.850258 
3582.000000	64.885139 
3581.000000	64.927959 
3580.000000	64.976334 
3579.000000	65.027165 
3578.000000	65.076780 
3577.000000	65.121197 
3576.000000	65.156817 
3575.000000	65.180826 
3574.000000	65.191626 
3573.000000	65.189170 
3572.000000	65.174770 
3571.000000	65.150713 
3570.000000	65.120601 
3569.000000	65.088224 
3568.000000	65.057134 
3567.000000	65.029978 
3566.000000	65.008759 
3565.000000	64.994049 
3564.000000	64.985513 
3563.000000	64.981865 
3562.000000	64.981389 
3561.000000	64.981961 
3560.000000	64.981675 
3559.000000	64.978837 
3558.000000	64.972329 
3557.000000	64.961457 
3556.000000	64.946103 
3555.000000	64.926671 
3554.000000	64.903903 
3553.000000	64.878797 
3552.000000	64.852690 
3551.000000	64.826965 
3550.000000	64.803218 
3549.000000	64.783096 
3548.000000	64.768481 
3547.000000	64.760899 
3546.000000	64.761614 
3545.000000	64.771413 
3544.000000	64.790558 
3543.000000	64.818239 
3542.000000	64.852666 
3541.000000	64.891195 
3540.000000	64.930629 
3539.000000	64.967584 
3538.000000	64.998984 
3537.000000	65.022230 
3536.000000	65.035724 
3535.000000	65.039324 
3534.000000	65.034151 
3533.000000	65.022206 
3532.000000	65.006184 
3531.000000	64.988994 
3530.000000	64.973258 
3529.000000	64.961051 
3528.000000	64.953470 
3527.000000	64.950799 
3526.000000	64.952230 
3525.000000	64.956378 
3524.000000	64.961361 
3523.000000	64.965415 
3522.000000	64.966917 
3521.000000	64.964795 
3520.000000	64.958739 
3519.000000	64.949488 
3518.000000	64.938092 
3517.000000	64.926481 
3516.000000	64.916849 
3515.000000	64.911818 
3514.000000	64.913749 
3513.000000	64.924645 
3512.000000	64.945816 
3511.000000	64.977383 
3510.000000	65.018081 
3509.000000	65.065193 
3508.000000	65.114736 
3507.000000	65.161800 
3506.000000	65.201640 
3505.000000	65.230011 
3504.000000	65.244007 
3503.000000	65.242457 
3502.000000	65.226244 
3501.000000	65.197944 
3500.000000	65.161466 
3499.000000	65.121197 
3498.000000	65.081477 
3497.000000	65.046191 
3496.000000	65.018248 
3495.000000	64.999842 
3494.000000	64.992594 
3493.000000	64.997148 
3492.000000	65.013623 
3491.000000	65.041208 
3490.000000	65.078401 
3489.000000	65.122580 
3488.000000	65.170431 
3487.000000	65.218234 
3486.000000	65.262508 
3485.000000	65.300440 
3484.000000	65.330004 
3483.000000	65.350246 
3482.000000	65.360856 
3481.000000	65.362381 
3480.000000	65.355730 
3479.000000	65.342140 
3478.000000	65.322756 
3477.000000	65.298819 
3476.000000	65.271472 
3475.000000	65.242290 
3474.000000	65.212678 
3473.000000	65.184068 
3472.000000	65.157294 
3471.000000	65.132665 
3470.000000	65.109753 
3469.000000	65.087819 
3468.000000	65.065765 
3467.000000	65.042662 
3466.000000	65.018320 
3465.000000	64.993619 
3464.000000	64.969754 
3463.000000	64.948821 
3462.000000	64.932560 
3461.000000	64.922904 
3460.000000	64.921379 
3459.000000	64.929080 
3458.000000	64.946126 
3457.000000	64.971566 
3456.000000	65.003371 
3455.000000	65.038299 
3454.000000	65.071916 
3453.000000	65.099334 
3452.000000	65.115904 
3451.000000	65.118288 
3450.000000	65.105056 
3449.000000	65.077543 
3448.000000	65.039420 
3447.000000	64.996814 
3446.000000	64.956927 
3445.000000	64.926862 
3444.000000	64.912271 
3443.000000	64.916443 
3442.000000	64.939951 
3441.000000	64.980721 
3440.000000	65.034580 
3439.000000	65.096426 
3438.000000	65.160655 
3437.000000	65.221619 
3436.000000	65.274095 
3435.000000	65.313696 
3434.000000	65.337061 
3433.000000	65.342140 
3432.000000	65.328669 
3431.000000	65.298461 
3430.000000	65.255260 
3429.000000	65.204358 
3428.000000	65.151858 
3427.000000	65.104389 
3426.000000	65.067410 
3425.000000	65.045142 
3424.000000	65.039348 
3423.000000	65.049529 
3422.000000	65.072727 
3421.000000	65.104579 
3420.000000	65.139722 
3419.000000	65.172767 
3418.000000	65.199327 
3417.000000	65.216732 
3416.000000	65.224361 
3415.000000	65.223431 
3414.000000	65.217041 
3413.000000	65.209197 
3412.000000	65.204095 
3411.000000	65.205049 
3410.000000	65.213775 
3409.000000	65.230154 
3408.000000	65.251898 
3407.000000	65.275692 
3406.000000	65.298366 
3405.000000	65.318012 
3404.000000	65.334033 
3403.000000	65.347480 
3402.000000	65.360713 
3401.000000	65.376305 
3400.000000	65.395903 
3399.000000	65.419578 
3398.000000	65.445685 
3397.000000	65.470790 
3396.000000	65.491032 
3395.000000	65.502309 
3394.000000	65.501713 
3393.000000	65.487647 
3392.000000	65.460753 
3391.000000	65.423226 
3390.000000	65.378403 
3389.000000	65.330171 
3388.000000	65.282201 
3387.000000	65.237641 
3386.000000	65.198636 
3385.000000	65.166401 
3384.000000	65.140986 
3383.000000	65.121531 
3382.000000	65.106344 
3381.000000	65.093111 
3380.000000	65.079522 
3379.000000	65.063691 
3378.000000	65.044927 
3377.000000	65.023374 
3376.000000	65.000581 
3375.000000	64.978742 
3374.000000	64.960741 
3373.000000	64.948844 
3372.000000	64.944767 
3371.000000	64.949059 
3370.000000	64.961028 
3369.000000	64.979028 
3368.000000	65.000653 
3367.000000	65.023279 
3366.000000	65.044546 
3365.000000	65.062808 
3364.000000	65.077424 
3363.000000	65.088677 
3362.000000	65.097689 
3361.000000	65.106010 
3360.000000	65.114951 
3359.000000	65.125036 
3358.000000	65.136098 
3357.000000	65.146899 
3356.000000	65.155220 
3355.000000	65.158128 
3354.000000	65.153098 
3353.000000	65.138578 
3352.000000	65.114426 
3351.000000	65.082406 
3350.000000	65.045928 
3349.000000	65.009880 
3348.000000	64.979243 
3347.000000	64.958667 
3346.000000	64.951324 
3345.000000	64.958548 
3344.000000	64.979362 
3343.000000	65.011167 
3342.000000	65.050244 
3341.000000	65.092468 
3340.000000	65.134215 
3339.000000	65.172624 
3338.000000	65.205860 
3337.000000	65.233421 
3336.000000	65.255570 
3335.000000	65.272951 
3334.000000	65.286135 
3333.000000	65.295696 
3332.000000	65.301895 
3331.000000	65.304899 
3330.000000	65.304422 
3329.000000	65.300250 
3328.000000	65.291953 
3327.000000	65.279316 
3326.000000	65.262317 
3325.000000	65.241336 
3324.000000	65.217328 
3323.000000	65.191864 
3322.000000	65.167355 
3321.000000	65.146803 
3320.000000	65.133523 
3319.000000	65.130496 
3318.000000	65.139532 
3317.000000	65.160751 
3316.000000	65.192198 
3315.000000	65.230035 
3314.000000	65.268874 
3313.000000	65.302824 
3312.000000	65.326404 
3311.000000	65.335416 
3310.000000	65.327811 
3309.000000	65.303850 
3308.000000	65.265798 
3307.000000	65.217375 
3306.000000	65.163350 
3305.000000	65.108680 
3304.000000	65.058159 
3303.000000	65.015602 
3302.000000	64.983844 
3301.000000	64.964270 
3300.000000	64.957094 
3299.000000	64.961147 
3298.000000	64.973926 
3297.000000	64.992117 
3296.000000	65.011525 
3295.000000	65.028309 
3294.000000	65.039110 
3293.000000	65.042185 
3292.000000	65.036940 
3291.000000	65.024685 
3290.000000	65.007734 
3289.000000	64.989161 
3288.000000	64.972043 
3287.000000	64.958763 
3286.000000	64.950633 
3285.000000	64.947748 
3284.000000	64.949154 
3283.000000	64.953088 
3282.000000	64.957690 
3281.000000	64.961314 
3280.000000	64.963221 
3279.000000	64.963769 
3278.000000	64.964652 
3277.000000	64.968490 
3276.000000	64.978265 
3275.000000	64.996576 
3274.000000	65.024542 
3273.000000	65.061831 
3272.000000	65.105772 
3271.000000	65.151953 
3270.000000	65.194606 
3269.000000	65.227890 
3268.000000	65.247130 
3267.000000	65.249872 
3266.000000	65.236568 
3265.000000	65.210676 
3264.000000	65.177869 
3263.000000	65.144920 
3262.000000	65.118098 
3261.000000	65.102148 
3260.000000	65.098977 
3259.000000	65.107750 
3258.000000	65.124917 
3257.000000	65.145683 
3256.000000	65.164828 
3255.000000	65.178036 
3254.000000	65.182590 
3253.000000	65.177845 
3252.000000	65.164804 
3251.000000	65.145540 
3250.000000	65.122532 
3249.000000	65.097737 
3248.000000	65.072393 
3247.000000	65.046644 
3246.000000	65.019965 
3245.000000	64.991688 
3244.000000	64.961409 
3243.000000	64.929556 
3242.000000	64.897155 
3241.000000	64.866399 
3240.000000	64.839744 
3239.000000	64.820098 
3238.000000	64.809536 
3237.000000	64.809417 
3236.000000	64.819908 
3235.000000	64.840030 
3234.000000	64.867615 
3233.000000	64.899468 
3232.000000	64.931917 
3231.000000	64.961290 
3230.000000	64.984631 
3229.000000	65.000176 
3228.000000	65.007495 
3227.000000	65.007829 
3226.000000	65.003609 
3225.000000	64.998245 
3224.000000	64.995050 
3223.000000	64.996552 
3222.000000	65.003681 
3221.000000	65.015602 
3220.000000	65.029740 
3219.000000	65.042686 
3218.000000	65.050935 
3217.000000	65.051651 
3216.000000	65.043854 
3215.000000	65.028524 
3214.000000	65.008735 
3213.000000	64.988470 
3212.000000	64.971971 
3211.000000	64.962697 
3210.000000	64.962506 
3209.000000	64.971232 
3208.000000	64.987087 
3207.000000	65.007138 
3206.000000	65.028262 
3205.000000	65.047979 
3204.000000	65.064764 
3203.000000	65.078258 
3202.000000	65.088725 
3201.000000	65.096592 
3200.000000	65.101838 
3199.000000	65.103912 
3198.000000	65.101814 
3197.000000	65.094542 
3196.000000	65.081834 
3195.000000	65.064477 
3194.000000	65.044522 
3193.000000	65.025234 
3192.000000	65.010213 
3191.000000	65.003132 
3190.000000	65.006279 
3189.000000	65.020537 
3188.000000	65.044975 
3187.000000	65.077018 
3186.000000	65.113019 
3185.000000	65.148782 
3184.000000	65.180420 
3183.000000	65.204620 
3182.000000	65.219163 
3181.000000	65.223121 
3180.000000	65.216612 
3179.000000	65.201497 
3178.000000	65.180754 
3177.000000	65.158486 
3176.000000	65.138983 
3175.000000	65.126299 
3174.000000	65.123510 
3173.000000	65.131735 
3172.000000	65.149903 
3171.000000	65.175151 
3170.000000	65.203356 
3169.000000	65.229964 
3168.000000	65.251183 
3167.000000	65.264391 
3166.000000	65.269017 
3165.000000	65.266466 
3164.000000	65.259766 
3163.000000	65.252614 
3162.000000	65.248537 
3161.000000	65.250182 
3160.000000	65.258598 
3159.000000	65.273356 
3158.000000	65.292119 
3157.000000	65.311503 
3156.000000	65.327191 
3155.000000	65.335369 
3154.000000	65.332674 
3153.000000	65.316748 
3152.000000	65.286922 
3151.000000	65.244317 
3150.000000	65.191674 
3149.000000	65.132999 
3148.000000	65.072584 
3147.000000	65.014553 
3146.000000	64.962458 
3145.000000	64.919209 
3144.000000	64.887070 
3143.000000	64.867711 
3142.000000	64.862442 
3141.000000	64.872384 
3140.000000	64.898133 
3139.000000	64.939236 
3138.000000	64.993715 
3137.000000	65.057468 
3136.000000	65.124654 
3135.000000	65.187478 
3134.000000	65.237689 
3133.000000	65.267157 
3132.000000	65.269637 
3131.000000	65.241456 
3130.000000	65.182709 
3129.000000	65.097117 
3128.000000	64.991617 
3127.000000	64.875936 
3126.000000	64.760828 
3125.000000	64.657473 
3124.000000	64.575910 
3123.000000	64.524054 
3122.000000	64.506936 
3121.000000	64.525580 
3120.000000	64.576935 
3119.000000	64.654111 
3118.000000	64.747619 
3117.000000	64.846205 
3116.000000	64.938950 
3115.000000	65.016794 
3114.000000	65.074014 
3113.000000	65.108585 
3112.000000	65.122175 
3111.000000	65.119528 
3110.000000	65.106582 
3109.000000	65.089559 
3108.000000	65.072894 
3107.000000	65.059399 
3106.000000	65.048933 
3105.000000	65.040135 
3104.000000	65.030336 
3103.000000	65.017199 
3102.000000	64.999556 
3101.000000	64.977717 
3100.000000	64.954042 
3099.000000	64.931917 
3098.000000	64.915680 
3097.000000	64.909172 
3096.000000	64.915466 
3095.000000	64.936113 
3094.000000	64.970517 
3093.000000	65.015721 
3092.000000	65.067124 
3091.000000	65.119314 
3090.000000	65.166544 
3089.000000	65.204071 
3088.000000	65.228438 
3087.000000	65.238046 
3086.000000	65.233325 
3085.000000	65.216541 
3084.000000	65.190792 
3083.000000	65.159773 
3082.000000	65.127563 
3081.000000	65.097737 
3080.000000	65.073299 
3079.000000	65.056371 
3078.000000	65.047931 
3077.000000	65.047979 
3076.000000	65.055727 
3075.000000	65.069794 
3074.000000	65.088224 
3073.000000	65.109181 
3072.000000	65.130805 
3071.000000	65.151953 
3070.000000	65.171980 
3069.000000	65.190577 
3068.000000	65.207672 
3067.000000	65.222930 
3066.000000	65.235590 
3065.000000	65.244364 
3064.000000	65.247917 
3063.000000	65.245366 
3062.000000	65.236902 
3061.000000	65.223860 
3060.000000	65.208792 
3059.000000	65.194940 
3058.000000	65.185523 
3057.000000	65.182852 
3056.000000	65.187811 
3055.000000	65.199685 
3054.000000	65.216302 
3053.000000	65.234947 
3052.000000	65.252709 
3051.000000	65.267014 
3050.000000	65.276288 
3049.000000	65.280103 
3048.000000	65.278935 
3047.000000	65.273642 
3046.000000	65.265274 
3045.000000	65.254664 
3044.000000	65.242457 
3043.000000	65.229249 
3042.000000	65.215349 
3041.000000	65.201187 
3040.000000	65.186905 
3039.000000	65.172481 
3038.000000	65.157485 
3037.000000	65.141201 
3036.000000	65.123009 
3035.000000	65.102934 
3034.000000	65.081667 
3033.000000	65.060877 
3032.000000	65.042877 
3031.000000	65.030479 
3030.000000	65.026068 
3029.000000	65.031552 
3028.000000	65.047335 
3027.000000	65.072631 
3026.000000	65.105414 
3025.000000	65.142655 
3024.000000	65.181040 
3023.000000	65.217280 
3022.000000	65.248513 
3021.000000	65.272784 
3020.000000	65.289092 
3019.000000	65.297365 
3018.000000	65.298271 
3017.000000	65.293049 
3016.000000	65.283179 
3015.000000	65.270280 
3014.000000	65.256047 
3013.000000	65.241456 
3012.000000	65.226888 
3011.000000	65.212154 
3010.000000	65.196776 
3009.000000	65.180110 
3008.000000	65.161871 
3007.000000	65.142464 
3006.000000	65.123152 
3005.000000	65.105915 
3004.000000	65.093135 
3003.000000	65.086913 
3002.000000	65.088582 
3001.000000	65.098047 
3000.000000	65.113735 
2999.000000	65.132689 
2998.000000	65.151143 
2997.000000	65.165042 
2996.000000	65.171265 
2995.000000	65.167880 
2994.000000	65.155005 
2993.000000	65.134787 
2992.000000	65.111184 
2991.000000	65.088772 
2990.000000	65.072178 
2989.000000	65.065121 
2988.000000	65.069580 
2987.000000	65.085506 
2986.000000	65.110921 
2985.000000	65.142250 
2984.000000	65.175104 
2983.000000	65.204977 
2982.000000	65.227913 
2981.000000	65.240907 
2980.000000	65.242505 
2979.000000	65.232920 
2978.000000	65.213632 
2977.000000	65.187501 
2976.000000	65.158295 
2975.000000	65.129995 
2974.000000	65.106463 
2973.000000	65.090441 
2972.000000	65.083813 
2971.000000	65.086579 
2970.000000	65.097308 
2969.000000	65.113329 
2968.000000	65.131068 
2967.000000	65.147233 
2966.000000	65.159273 
2965.000000	65.165925 
2964.000000	65.167140 
2963.000000	65.163850 
2962.000000	65.157699 
2961.000000	65.150165 
2960.000000	65.142154 
2959.000000	65.133833 
2958.000000	65.124797 
2957.000000	65.114307 
2956.000000	65.101933 
2955.000000	65.087580 
2954.000000	65.071892 
2953.000000	65.055847 
2952.000000	65.040731 
2951.000000	65.027952 
2950.000000	65.018653 
2949.000000	65.013432 
2948.000000	65.012288 
2947.000000	65.014815 
2946.000000	65.020298 
2945.000000	65.028095 
2944.000000	65.037417 
2943.000000	65.047121 
2942.000000	65.055990 
2941.000000	65.062832 
2940.000000	65.066385 
2939.000000	65.065431 
2938.000000	65.058970 
2937.000000	65.046715 
2936.000000	65.029096 
2935.000000	65.007328 
2934.000000	64.983248 
2933.000000	64.959096 
2932.000000	64.937210 
2931.000000	64.919543 
2930.000000	64.907455 
2929.000000	64.901447 
2928.000000	64.901113 
2927.000000	64.904928 
2926.000000	64.910650 
2925.000000	64.915680 
2924.000000	64.917373 
2923.000000	64.913821 
2922.000000	64.903950 
2921.000000	64.888477 
2920.000000	64.869570 
2919.000000	64.851188 
2918.000000	64.837908 
2917.000000	64.834594 
2916.000000	64.844870 
2915.000000	64.870429 
2914.000000	64.910268 
2913.000000	64.960527 
2912.000000	65.015172 
2911.000000	65.066957 
2910.000000	65.108942 
2909.000000	65.136003 
2908.000000	65.145826 
2907.000000	65.139269 
2906.000000	65.120315 
2905.000000	65.094804 
2904.000000	65.068840 
2903.000000	65.047812 
2902.000000	65.035080 
2901.000000	65.031528 
2900.000000	65.035676 
2899.000000	65.044784 
2898.000000	65.055561 
2897.000000	65.065503 
2896.000000	65.073251 
2895.000000	65.078759 
2894.000000	65.082812 
2893.000000	65.086436 
2892.000000	65.090107 
2891.000000	65.093207 
2890.000000	65.094280 
2889.000000	65.091633 
2888.000000	65.083861 
2887.000000	65.070581 
2886.000000	65.052652 
2885.000000	65.032434 
2884.000000	65.013194 
2883.000000	64.998340 
2882.000000	64.991188 
2881.000000	64.994168 
2880.000000	65.008425 
2879.000000	65.033698 
2878.000000	65.068292 
2877.000000	65.109348 
2876.000000	65.153145 
2875.000000	65.195679 
2874.000000	65.232729 
2873.000000	65.260624 
2872.000000	65.276765 
2871.000000	65.280127 
2870.000000	65.271520 
2869.000000	65.253210 
2868.000000	65.228867 
2867.000000	65.202188 
2866.000000	65.176701 
2865.000000	65.154337 
2864.000000	65.135383 
2863.000000	65.118360 
2862.000000	65.101051 
2861.000000	65.081071 
2860.000000	65.056991 
2859.000000	65.028738 
2858.000000	64.997625 
2857.000000	64.966535 
2856.000000	64.938521 
2855.000000	64.916944 
2854.000000	64.904356 
2853.000000	64.902329 
2852.000000	64.911341 
2851.000000	64.930725 
2850.000000	64.959120 
2849.000000	64.994478 
2848.000000	65.034413 
2847.000000	65.076184 
2846.000000	65.116715 
2845.000000	65.152692 
2844.000000	65.180754 
2843.000000	65.198111 
2842.000000	65.202593 
2841.000000	65.193557 
2840.000000	65.171957 
2839.000000	65.140080 
2838.000000	65.101456 
2837.000000	65.060400 
2836.000000	65.021061 
2835.000000	64.986801 
2834.000000	64.959478 
2833.000000	64.939951 
2832.000000	64.927697 
2831.000000	64.921188 
2830.000000	64.918708 
2829.000000	64.918565 
2828.000000	64.919972 
2827.000000	64.922738 
2826.000000	64.927411 
2825.000000	64.934802 
2824.000000	64.945745 
2823.000000	64.960670 
2822.000000	64.979171 
2821.000000	65.000128 
2820.000000	65.021729 
2819.000000	65.041947 
2818.000000	65.058708 
2817.000000	65.070295 
2816.000000	65.075802 
2815.000000	65.075302 
2814.000000	65.069603 
2813.000000	65.060400 
2812.000000	65.050077 
2811.000000	65.041184 
2810.000000	65.036225 
2809.000000	65.037202 
2808.000000	65.045094 
2807.000000	65.059804 
2806.000000	65.080428 
2805.000000	65.104913 
2804.000000	65.130519 
2803.000000	65.154147 
2802.000000	65.173316 
2801.000000	65.185832 
2800.000000	65.190482 
2799.000000	65.186786 
2798.000000	65.175271 
2797.000000	65.157032 
2796.000000	65.133500 
2795.000000	65.106177 
2794.000000	65.076637 
2793.000000	65.046453 
2792.000000	65.017199 
2791.000000	64.990353 
2790.000000	64.967298 
2789.000000	64.949083 
2788.000000	64.936566 
2787.000000	64.929676 
2786.000000	64.928269 
2785.000000	64.931726 
2784.000000	64.939785 
2783.000000	64.952039 
2782.000000	64.968729 
2781.000000	64.990210 
2780.000000	65.016889 
2779.000000	65.048789 
2778.000000	65.085220 
2777.000000	65.124654 
2776.000000	65.164685 
2775.000000	65.202331 
2774.000000	65.234494 
2773.000000	65.258574 
2772.000000	65.272974 
2771.000000	65.277433 
2770.000000	65.272831 
2769.000000	65.261101 
2768.000000	65.244698 
2767.000000	65.226125 
2766.000000	65.207505 
2765.000000	65.190339 
2764.000000	65.175533 
2763.000000	65.163397 
2762.000000	65.153884 
2761.000000	65.146613 
2760.000000	65.141177 
2759.000000	65.137267 
2758.000000	65.134572 
2757.000000	65.132951 
2756.000000	65.132236 
2755.000000	65.132308 
2754.000000	65.133094 
2753.000000	65.134668 
2752.000000	65.136957 
2751.000000	65.140008 
2750.000000	65.143942 
2749.000000	65.148782 
2748.000000	65.154433 
2747.000000	65.160608 
2746.000000	65.166926 
2745.000000	65.172910 
2744.000000	65.177989 
2743.000000	65.181756 
2742.000000	65.183901 
2741.000000	65.184235 
2740.000000	65.182757 
2739.000000	65.179634 
2738.000000	65.175104 
2737.000000	65.169453 
2736.000000	65.162992 
2735.000000	65.155959 
2734.000000	65.148687 
2733.000000	65.141463 
2732.000000	65.134787 
2731.000000	65.129160 
2730.000000	65.125060 
2729.000000	65.123009 
2728.000000	65.123200 
2727.000000	65.125560 
2726.000000	65.129613 
2725.000000	65.134429 
2724.000000	65.139031 
2723.000000	65.142345 
2722.000000	65.143728 
2721.000000	65.142822 
2720.000000	65.140008 
2719.000000	65.136194 
2718.000000	65.132761 
2717.000000	65.131187 
2716.000000	65.132427 
2715.000000	65.136742 
2714.000000	65.143394 
2713.000000	65.150952 
2712.000000	65.157151 
2711.000000	65.159654 
2710.000000	65.156459 
2709.000000	65.146517 
2708.000000	65.129899 
2707.000000	65.107965 
2706.000000	65.083169 
2705.000000	65.058517 
2704.000000	65.036988 
2703.000000	65.020966 
2702.000000	65.011835 
2701.000000	65.009689 
2700.000000	65.013146 
2699.000000	65.019822 
2698.000000	65.026736 
2697.000000	65.031147 
2696.000000	65.030717 
2695.000000	65.024590 
2694.000000	65.013003 
2693.000000	64.997982 
2692.000000	64.982461 
2691.000000	64.970183 
2690.000000	64.964556 
2689.000000	64.968323 
2688.000000	64.982628 
2687.000000	65.006899 
2686.000000	65.038847 
2685.000000	65.074729 
2684.000000	65.110278 
2683.000000	65.141344 
2682.000000	65.164828 
2681.000000	65.179061 
2680.000000	65.184259 
2679.000000	65.182137 
2678.000000	65.175652 
2677.000000	65.168094 
2676.000000	65.162563 
2675.000000	65.161371 
2674.000000	65.165352 
2673.000000	65.174198 
2672.000000	65.186405 
2671.000000	65.199971 
2670.000000	65.212798 
2669.000000	65.223193 
2668.000000	65.230131 
2667.000000	65.233302 
2666.000000	65.233039 
2665.000000	65.230202 
2664.000000	65.225672 
2663.000000	65.220165 
2662.000000	65.214157 
2661.000000	65.207839 
2660.000000	65.201210 
2659.000000	65.194416 
2658.000000	65.187692 
2657.000000	65.181708 
2656.000000	65.177249 
2655.000000	65.175342 
2654.000000	65.176868 
2653.000000	65.182471 
2652.000000	65.192031 
2651.000000	65.204977 
2650.000000	65.220165 
2649.000000	65.236020 
2648.000000	65.251088 
2647.000000	65.263915 
2646.000000	65.273332 
2645.000000	65.278744 
2644.000000	65.280103 
2643.000000	65.277791 
2642.000000	65.272450 
2641.000000	65.264940 
2640.000000	65.256166 
2639.000000	65.247082 
2638.000000	65.238475 
2637.000000	65.230894 
2636.000000	65.224599 
2635.000000	65.219616 
2634.000000	65.215587 
2633.000000	65.212035 
2632.000000	65.208458 
2631.000000	65.204453 
2630.000000	65.199995 
2629.000000	65.195345 
2628.000000	65.191245 
2627.000000	65.188527 
2626.000000	65.187859 
2625.000000	65.189743 
2624.000000	65.194249 
2623.000000	65.201044 
2622.000000	65.209698 
2621.000000	65.219640 
2620.000000	65.230321 
2619.000000	65.241694 
2618.000000	65.253663 
2617.000000	65.266227 
2616.000000	65.279102 
2615.000000	65.291762 
2614.000000	65.303206 
2613.000000	65.311956 
2612.000000	65.316390 
2611.000000	65.315127 
2610.000000	65.307211 
2609.000000	65.292596 
2608.000000	65.272235 
2607.000000	65.248036 
2606.000000	65.222620 
2605.000000	65.198922 
2604.000000	65.179800 
2603.000000	65.167570 
2602.000000	65.163826 
2601.000000	65.169072 
2600.000000	65.182685 
2599.000000	65.203189 
2598.000000	65.228176 
2597.000000	65.255045 
2596.000000	65.281033 
2595.000000	65.303826 
2594.000000	65.321588 
2593.000000	65.333414 
2592.000000	65.338969 
2591.000000	65.338611 
2590.000000	65.333437 
2589.000000	65.324592 
2588.000000	65.313386 
2587.000000	65.300726 
2586.000000	65.287542 
2585.000000	65.274262 
2584.000000	65.261149 
2583.000000	65.248179 
2582.000000	65.235304 
2581.000000	65.222382 
2580.000000	65.209555 
2579.000000	65.196919 
2578.000000	65.184712 
2577.000000	65.173411 
2576.000000	65.163779 
2575.000000	65.156507 
2574.000000	65.152263 
2573.000000	65.151262 
2572.000000	65.153408 
2571.000000	65.158200 
2570.000000	65.164923 
2569.000000	65.172767 
2568.000000	65.181422 
2567.000000	65.190672 
2566.000000	65.201067 
2565.000000	65.213632 
2564.000000	65.229725 
2563.000000	65.250205 
2562.000000	65.275382 
2561.000000	65.304589 
2560.000000	65.336060 
2559.000000	65.367221 
2558.000000	65.394878 
2557.000000	65.415978 
2556.000000	65.427970 
2555.000000	65.429425 
2554.000000	65.420055 
2553.000000	65.400671 
2552.000000	65.373039 
2551.000000	65.339660 
2550.000000	65.303492 
2549.000000	65.267586 
2548.000000	65.235066 
2547.000000	65.208768 
2546.000000	65.190911 
2545.000000	65.182471 
2544.000000	65.183520 
2543.000000	65.192675 
2542.000000	65.207362 
2541.000000	65.224099 
2540.000000	65.239024 
2539.000000	65.248656 
2538.000000	65.250515 
2537.000000	65.243792 
2536.000000	65.228915 
2535.000000	65.208125 
2534.000000	65.184712 
2533.000000	65.162396 
2532.000000	65.144133 
2531.000000	65.131855 
2530.000000	65.125966 
2529.000000	65.125441 
2528.000000	65.128231 
2527.000000	65.132021 
2526.000000	65.134954 
2525.000000	65.136218 
2524.000000	65.136170 
2523.000000	65.136384 
2522.000000	65.139245 
2521.000000	65.147209 
2520.000000	65.162205 
2519.000000	65.185070 
2518.000000	65.215206 
2517.000000	65.251159 
2516.000000	65.290236 
2515.000000	65.329360 
2514.000000	65.364646 
2513.000000	65.392923 
2512.000000	65.410947 
2511.000000	65.416193 
2510.000000	65.406751 
2509.000000	65.381932 
2508.000000	65.342187 
2507.000000	65.289545 
2506.000000	65.227508 
2505.000000	65.161204 
2504.000000	65.096473 
2503.000000	65.039396 
2502.000000	64.995241 
2501.000000	64.967584 
2500.000000	64.957571 
2499.000000	64.963817 
2498.000000	64.982533 
2497.000000	65.008592 
2496.000000	65.036725 
2495.000000	65.062689 
2494.000000	65.084052 
2493.000000	65.100622 
2492.000000	65.113925 
2491.000000	65.126705 
2490.000000	65.141701 
2489.000000	65.160560 
2488.000000	65.183401 
2487.000000	65.208530 
2486.000000	65.232968 
2485.000000	65.253257 
2484.000000	65.266895 
2483.000000	65.272617 
2482.000000	65.271115 
2481.000000	65.264439 
2480.000000	65.255594 
2479.000000	65.247464 
2478.000000	65.242123 
2477.000000	65.240216 
2476.000000	65.240955 
2475.000000	65.242505 
2474.000000	65.242958 
2473.000000	65.240502 
2472.000000	65.234112 
2471.000000	65.223979 
2470.000000	65.211534 
2469.000000	65.199279 
2468.000000	65.190076 
2467.000000	65.186834 
2466.000000	65.191674 
2465.000000	65.205454 
2464.000000	65.227580 
2463.000000	65.255928 
2462.000000	65.287184 
2461.000000	65.317583 
2460.000000	65.343379 
2459.000000	65.361762 
2458.000000	65.371298 
2457.000000	65.372252 
2456.000000	65.366315 
2455.000000	65.356111 
2454.000000	65.344405 
2453.000000	65.333771 
2452.000000	65.325784 
2451.000000	65.320730 
2450.000000	65.318202 
2449.000000	65.317463 
2448.000000	65.317749 
2447.000000	65.318799 
2446.000000	65.320873 
2445.000000	65.324521 
2444.000000	65.330338 
2443.000000	65.338587 
2442.000000	65.349197 
2441.000000	65.361642 
2440.000000	65.375232 
2439.000000	65.389394 
2438.000000	65.403962 
2437.000000	65.419030 
2436.000000	65.435147 
2435.000000	65.452647 
2434.000000	65.471506 
2433.000000	65.490841 
2432.000000	65.508937 
2431.000000	65.523171 
2430.000000	65.531015 
2429.000000	65.529847 
2428.000000	65.518164 
2427.000000	65.495252 
2426.000000	65.461850 
2425.000000	65.419626 
2424.000000	65.371108 
2423.000000	65.319371 
2422.000000	65.267562 
2421.000000	65.218853 
2420.000000	65.176153 
2419.000000	65.141940 
2418.000000	65.118336 
2417.000000	65.106606 
2416.000000	65.107107 
2415.000000	65.119242 
2414.000000	65.141654 
2413.000000	65.171957 
2412.000000	65.207242 
2411.000000	65.244460 
2410.000000	65.280675 
2409.000000	65.313482 
2408.000000	65.341043 
2407.000000	65.361905 
2406.000000	65.375328 
2405.000000	65.381097 
2404.000000	65.379571 
2403.000000	65.372157 
2402.000000	65.360856 
2401.000000	65.348577 
2400.000000	65.338349 
2399.000000	65.332818 
2398.000000	65.333509 
2397.000000	65.340590 
2396.000000	65.352320 
2395.000000	65.365624 
2394.000000	65.376400 
2393.000000	65.380740 
2392.000000	65.375399 
2391.000000	65.358567 
2390.000000	65.330362 
2389.000000	65.293073 
2388.000000	65.250492 
2387.000000	65.207266 
2386.000000	65.168213 
2385.000000	65.137338 
2384.000000	65.117263 
2383.000000	65.108942 
2382.000000	65.111422 
2381.000000	65.122389 
2380.000000	65.138673 
2379.000000	65.157246 
2378.000000	65.174961 
2377.000000	65.189957 
2376.000000	65.201377 
2375.000000	65.209722 
2374.000000	65.216183 
2373.000000	65.222215 
2372.000000	65.229153 
2371.000000	65.237617 
2370.000000	65.247488 
2369.000000	65.257811 
2368.000000	65.267133 
2367.000000	65.273880 
2366.000000	65.277028 
2365.000000	65.275955 
2364.000000	65.270757 
2363.000000	65.262222 
2362.000000	65.251612 
2361.000000	65.240192 
2360.000000	65.229177 
2359.000000	65.219354 
2358.000000	65.211176 
2357.000000	65.204596 
2356.000000	65.199232 
2355.000000	65.194702 
2354.000000	65.190744 
2353.000000	65.187430 
2352.000000	65.185213 
2351.000000	65.184760 
2350.000000	65.186762 
2349.000000	65.191864 
2348.000000	65.200138 
2347.000000	65.211033 
2346.000000	65.223360 
2345.000000	65.235495 
2344.000000	65.245723 
2343.000000	65.252470 
2342.000000	65.254926 
2341.000000	65.253067 
2340.000000	65.247988 
2339.000000	65.241432 
2338.000000	65.235567 
2337.000000	65.232324 
2336.000000	65.232992 
2335.000000	65.237879 
2334.000000	65.246343 
2333.000000	65.256762 
2332.000000	65.267181 
2331.000000	65.275454 
2330.000000	65.279698 
2329.000000	65.278649 
2328.000000	65.271759 
2327.000000	65.259480 
2326.000000	65.242719 
2325.000000	65.223002 
2324.000000	65.202045 
2323.000000	65.181756 
2322.000000	65.163779 
2321.000000	65.149259 
2320.000000	65.138912 
2319.000000	65.132880 
2318.000000	65.130710 
2317.000000	65.131664 
2316.000000	65.134620 
2315.000000	65.138483 
2314.000000	65.142393 
2313.000000	65.145945 
2312.000000	65.148806 
2311.000000	65.151214 
2310.000000	65.153670 
2309.000000	65.156865 
2308.000000	65.161252 
2307.000000	65.167117 
2306.000000	65.174388 
2305.000000	65.182757 
2304.000000	65.191793 
2303.000000	65.201020 
2302.000000	65.209889 
2301.000000	65.218067 
2300.000000	65.225386 
2299.000000	65.231680 
2298.000000	65.236830 
2297.000000	65.240740 
2296.000000	65.243244 
2295.000000	65.244245 
2294.000000	65.243673 
2293.000000	65.241742 
2292.000000	65.238499 
2291.000000	65.234065 
2290.000000	65.228152 
2289.000000	65.220475 
2288.000000	65.210413 
2287.000000	65.197134 
2286.000000	65.179872 
2285.000000	65.158462 
2284.000000	65.133380 
2283.000000	65.106034 
2282.000000	65.078687 
2281.000000	65.054273 
2280.000000	65.035843 
2279.000000	65.025901 
2278.000000	65.025925 
2277.000000	65.036082 
2276.000000	65.055084 
2275.000000	65.080618 
2274.000000	65.109443 
2273.000000	65.138220 
2272.000000	65.164089 
2271.000000	65.185141 
2270.000000	65.200209 
2269.000000	65.209126 
2268.000000	65.212512 
2267.000000	65.211486 
2266.000000	65.207433 
2265.000000	65.201711 
2264.000000	65.195608 
2263.000000	65.190339 
2262.000000	65.187144 
2261.000000	65.187025 
2260.000000	65.190792 
2259.000000	65.198969 
2258.000000	65.211868 
2257.000000	65.229606 
2256.000000	65.252065 
2255.000000	65.278911 
2254.000000	65.309286 
2253.000000	65.342020 
2252.000000	65.375375 
2251.000000	65.407204 
2250.000000	65.434741 
2249.000000	65.455126 
2248.000000	65.465760 
2247.000000	65.464878 
2246.000000	65.451884 
2245.000000	65.427851 
2244.000000	65.395355 
2243.000000	65.358114 
2242.000000	65.320611 
2241.000000	65.286970 
2240.000000	65.260767 
2239.000000	65.244245 
2238.000000	65.238332 
2237.000000	65.242695 
2236.000000	65.256237 
2235.000000	65.277194 
2234.000000	65.303230 
2233.000000	65.331625 
2232.000000	65.359115 
2231.000000	65.382027 
2230.000000	65.396738 
2229.000000	65.400028 
2228.000000	65.389680 
2227.000000	65.365099 
2226.000000	65.327835 
2225.000000	65.281534 
2224.000000	65.231347 
2223.000000	65.183115 
2222.000000	65.142393 
2221.000000	65.113234 
2220.000000	65.097403 
2219.000000	65.094470 
2218.000000	65.101933 
2217.000000	65.116357 
2216.000000	65.133857 
2215.000000	65.151381 
2214.000000	65.166902 
2213.000000	65.179896 
2212.000000	65.190625 
2211.000000	65.200161 
2210.000000	65.209341 
2209.000000	65.218639 
2208.000000	65.227961 
2207.000000	65.236592 
2206.000000	65.243506 
2205.000000	65.247583 
2204.000000	65.248203 
2203.000000	65.245151 
2202.000000	65.238595 
2201.000000	65.229129 
2200.000000	65.217614 
2199.000000	65.205049 
2198.000000	65.192246 
2197.000000	65.180158 
2196.000000	65.169620 
2195.000000	65.161204 
2194.000000	65.155434 
2193.000000	65.152502 
2192.000000	65.152359 
2191.000000	65.154576 
2190.000000	65.158438 
2189.000000	65.162992 
2188.000000	65.167474 
2187.000000	65.171027 
2186.000000	65.173101 
2185.000000	65.173316 
2184.000000	65.171647 
2183.000000	65.168237 
2182.000000	65.163516 
2181.000000	65.158081 
2180.000000	65.153050 
2179.000000	65.149712 
2178.000000	65.149688 
2177.000000	65.154385 
2176.000000	65.165066 
2175.000000	65.182542 
2174.000000	65.206575 
2173.000000	65.235638 
2172.000000	65.267181 
2171.000000	65.297842 
2170.000000	65.324211 
2169.000000	65.343403 
2168.000000	65.353798 
2167.000000	65.355157 
2166.000000	65.349054 
2165.000000	65.338158 
2164.000000	65.325307 
2163.000000	65.313029 
2162.000000	65.302848 
2161.000000	65.295362 
2160.000000	65.290307 
2159.000000	65.286922 
2158.000000	65.284895 
2157.000000	65.284204 
2156.000000	65.285706 
2155.000000	65.289974 
2154.000000	65.297245 
2153.000000	65.306425 
2152.000000	65.314865 
2151.000000	65.318489 
2150.000000	65.312576 
2149.000000	65.293025 
2148.000000	65.257906 
2147.000000	65.208292 
2146.000000	65.148496 
2145.000000	65.085577 
2144.000000	65.027999 
2143.000000	64.983868 
2142.000000	64.959406 
2141.000000	64.957833 
2140.000000	64.979004 
2139.000000	65.019536 
2138.000000	65.073728 
2137.000000	65.134739 
2136.000000	65.196061 
2135.000000	65.252113 
2134.000000	65.299081 
2133.000000	65.334796 
2132.000000	65.358686 
2131.000000	65.371465 
2130.000000	65.374517 
2129.000000	65.369534 
2128.000000	65.358161 
2127.000000	65.342402 
2126.000000	65.323781 
2125.000000	65.303969 
2124.000000	65.284228 
2123.000000	65.265846 
2122.000000	65.249681 
2121.000000	65.236568 
2120.000000	65.226912 
2119.000000	65.220999 
2118.000000	65.218615 
2117.000000	65.219163 
2116.000000	65.221810 
2115.000000	65.225553 
2114.000000	65.229344 
2113.000000	65.232563 
2112.000000	65.234994 
2111.000000	65.237188 
2110.000000	65.240001 
2109.000000	65.244507 
2108.000000	65.251541 
2107.000000	65.261316 
2106.000000	65.273594 
2105.000000	65.287089 
2104.000000	65.299916 
2103.000000	65.309643 
2102.000000	65.314316 
2101.000000	65.312576 
2100.000000	65.303921 
2099.000000	65.289115 
2098.000000	65.269923 
2097.000000	65.248823 
2096.000000	65.228247 
2095.000000	65.210008 
2094.000000	65.194916 
2093.000000	65.182805 
2092.000000	65.172982 
2091.000000	65.164279 
2090.000000	65.155720 
2089.000000	65.147066 
2088.000000	65.139174 
2087.000000	65.133428 
2086.000000	65.131306 
2085.000000	65.133666 
2084.000000	65.140676 
2083.000000	65.151381 
2082.000000	65.163993 
2081.000000	65.176129 
2080.000000	65.185379 
2079.000000	65.190362 
2078.000000	65.190267 
2077.000000	65.185523 
2076.000000	65.176773 
2075.000000	65.164923 
2074.000000	65.150308 
2073.000000	65.132641 
2072.000000	65.111422 
2071.000000	65.086317 
2070.000000	65.058231 
2069.000000	65.029597 
2068.000000	65.004897 
2067.000000	64.990067 
2066.000000	64.991688 
2065.000000	65.015292 
2064.000000	65.063858 
2063.000000	65.136432 
2062.000000	65.227913 
2061.000000	65.329241 
2060.000000	65.429067 
2059.000000	65.515375 
2058.000000	65.578079 
2057.000000	65.610337 
2056.000000	65.609979 
2055.000000	65.579366 
2054.000000	65.524911 
2053.000000	65.455007 
2052.000000	65.378999 
2051.000000	65.304780 
2050.000000	65.238618 
2049.000000	65.183901 
2048.000000	65.142130 
2047.000000	65.112781 
2046.000000	65.094637 
2045.000000	65.086102 
2044.000000	65.085792 
2043.000000	65.092754 
2042.000000	65.106010 
2041.000000	65.124917 
2040.000000	65.148496 
2039.000000	65.175771 
2038.000000	65.205335 
2037.000000	65.235590 
2036.000000	65.264701 
2035.000000	65.290880 
2034.000000	65.312314 
2033.000000	65.327572 
2032.000000	65.335512 
2031.000000	65.335798 
2030.000000	65.328717 
2029.000000	65.315747 
2028.000000	65.298819 
2027.000000	65.280485 
2026.000000	65.262770 
2025.000000	65.247344 
2024.000000	65.234637 
2023.000000	65.224075 
2022.000000	65.214180 
2021.000000	65.203022 
2020.000000	65.189242 
2019.000000	65.172529 
2018.000000	65.153908 
2017.000000	65.135407 
2016.000000	65.119910 
2015.000000	65.110111 
2014.000000	65.108180 
2013.000000	65.114927 
2012.000000	65.129756 
2011.000000	65.150690 
2010.000000	65.175175 
2009.000000	65.200567 
2008.000000	65.224695 
2007.000000	65.246176 
2006.000000	65.264558 
2005.000000	65.279912 
2004.000000	65.292549 
2003.000000	65.302515 
2002.000000	65.309715 
2001.000000	65.313363 
2000.000000	65.312957 
1999.000000	65.307736 
1998.000000	65.297603 
1997.000000	65.282654 
1996.000000	65.263795 
1995.000000	65.242266 
1994.000000	65.219664 
1993.000000	65.197491 
1992.000000	65.177249 
1991.000000	65.160179 
1990.000000	65.147042 
1989.000000	65.138435 
1988.000000	65.134572 
1987.000000	65.135359 
1986.000000	65.140509 
1985.000000	65.149545 
1984.000000	65.161752 
1983.000000	65.176320 
1982.000000	65.192317 
1981.000000	65.208840 
1980.000000	65.225195 
1979.000000	65.240979 
1978.000000	65.256142 
1977.000000	65.270686 
1976.000000	65.284609 
1975.000000	65.297555 
1974.000000	65.308880 
1973.000000	65.317511 
1972.000000	65.322256 
1971.000000	65.322351 
1970.000000	65.317487 
1969.000000	65.308332 
1968.000000	65.296101 
1967.000000	65.282654 
1966.000000	65.269804 
1965.000000	65.259122 
1964.000000	65.251588 
1963.000000	65.247440 
1962.000000	65.246367 
1961.000000	65.247678 
1960.000000	65.250492 
1959.000000	65.253853 
1958.000000	65.256977 
1957.000000	65.259289 
1956.000000	65.260577 
1955.000000	65.260910 
1954.000000	65.260577 
1953.000000	65.260028 
1952.000000	65.259695 
1951.000000	65.259838 
1950.000000	65.260457 
1949.000000	65.261030 
1948.000000	65.260648 
1947.000000	65.258359 
1946.000000	65.252804 
1945.000000	65.243196 
1944.000000	65.229249 
1943.000000	65.211749 
1942.000000	65.192389 
1941.000000	65.173602 
1940.000000	65.158367 
1939.000000	65.149450 
1938.000000	65.148735 
1937.000000	65.156769 
1936.000000	65.172743 
1935.000000	65.194296 
1934.000000	65.218186 
1933.000000	65.240740 
1932.000000	65.258693 
1931.000000	65.269947 
1930.000000	65.273880 
1929.000000	65.271401 
1928.000000	65.264749 
1927.000000	65.256834 
1926.000000	65.250563 
1925.000000	65.248155 
1924.000000	65.250468 
1923.000000	65.257215 
1922.000000	65.266871 
1921.000000	65.277290 
1920.000000	65.286278 
1919.000000	65.292167 
1918.000000	65.294075 
1917.000000	65.291929 
1916.000000	65.286254 
1915.000000	65.277886 
1914.000000	65.267562 
1913.000000	65.255618 
1912.000000	65.242052 
1911.000000	65.226507 
1910.000000	65.208792 
1909.000000	65.189218 
1908.000000	65.168666 
1907.000000	65.148687 
1906.000000	65.131449 
1905.000000	65.119314 
1904.000000	65.114259 
1903.000000	65.117383 
1902.000000	65.128993 
1901.000000	65.148496 
1900.000000	65.174365 
1899.000000	65.204524 
1898.000000	65.236544 
1897.000000	65.268206 
1896.000000	65.297365 
1895.000000	65.322279 
1894.000000	65.341639 
1893.000000	65.354681 
1892.000000	65.361261 
1891.000000	65.361714 
1890.000000	65.357017 
1889.000000	65.348386 
1888.000000	65.337610 
1887.000000	65.326356 
1886.000000	65.316176 
1885.000000	65.307927 
1884.000000	65.301918 
1883.000000	65.297555 
1882.000000	65.293478 
1881.000000	65.287899 
1880.000000	65.279078 
1879.000000	65.265750 
1878.000000	65.247464 
1877.000000	65.224862 
1876.000000	65.199542 
1875.000000	65.173840 
1874.000000	65.150260 
1873.000000	65.130996 
1872.000000	65.117573 
1871.000000	65.110516 
1870.000000	65.109467 
1869.000000	65.113234 
1868.000000	65.120291 
1867.000000	65.129256 
1866.000000	65.139031 
1865.000000	65.148949 
1864.000000	65.158724 
1863.000000	65.168237 
1862.000000	65.177345 
1861.000000	65.185499 
1860.000000	65.192222 
1859.000000	65.196847 
1858.000000	65.199136 
1857.000000	65.199232 
1856.000000	65.197777 
1855.000000	65.195870 
1854.000000	65.194749 
1853.000000	65.195441 
1852.000000	65.198397 
1851.000000	65.203428 
1850.000000	65.209627 
1849.000000	65.215635 
1848.000000	65.219950 
1847.000000	65.221357 
1846.000000	65.219235 
1845.000000	65.213990 
1844.000000	65.206718 
1843.000000	65.199160 
1842.000000	65.193295 
1841.000000	65.191006 
1840.000000	65.193510 
1839.000000	65.201210 
1838.000000	65.213608 
1837.000000	65.229368 
1836.000000	65.246582 
1835.000000	65.263056 
1834.000000	65.276765 
1833.000000	65.286111 
1832.000000	65.289974 
1831.000000	65.287971 
1830.000000	65.280365 
1829.000000	65.267992 
1828.000000	65.252017 
1827.000000	65.233802 
1826.000000	65.214776 
1825.000000	65.196371 
1824.000000	65.179896 
1823.000000	65.166425 
1822.000000	65.156745 
1821.000000	65.151262 
1820.000000	65.149807 
1819.000000	65.151810 
1818.000000	65.156364 
1817.000000	65.162277 
1816.000000	65.168547 
1815.000000	65.174317 
1814.000000	65.179038 
1813.000000	65.182542 
1812.000000	65.185070 
1811.000000	65.186953 
1810.000000	65.188717 
1809.000000	65.190815 
1808.000000	65.193629 
1807.000000	65.197515 
1806.000000	65.202474 
1805.000000	65.208435 
1804.000000	65.215015 
1803.000000	65.221667 
1802.000000	65.227794 
1801.000000	65.232753 
1800.000000	65.236043 
1799.000000	65.237379 
1798.000000	65.236926 
1797.000000	65.235233 
1796.000000	65.233230 
1795.000000	65.231871 
1794.000000	65.231895 
1793.000000	65.233469 
1792.000000	65.236234 
1791.000000	65.239262 
1790.000000	65.241336 
1789.000000	65.241098 
1788.000000	65.237689 
1787.000000	65.230727 
1786.000000	65.220308 
1785.000000	65.207147 
1784.000000	65.192151 
1783.000000	65.176677 
1782.000000	65.162181 
1781.000000	65.150117 
1780.000000	65.141820 
1779.000000	65.138268 
1778.000000	65.140008 
1777.000000	65.146780 
1776.000000	65.157532 
1775.000000	65.170598 
1774.000000	65.183901 
1773.000000	65.195202 
1772.000000	65.202355 
1771.000000	65.204095 
1770.000000	65.199971 
1769.000000	65.190458 
1768.000000	65.176820 
1767.000000	65.160894 
1766.000000	65.144777 
1765.000000	65.130329 
1764.000000	65.119004 
1763.000000	65.111804 
1762.000000	65.109133 
1761.000000	65.110945 
1760.000000	65.116834 
1759.000000	65.126132 
1758.000000	65.138101 
1757.000000	65.151715 
1756.000000	65.165781 
1755.000000	65.179300 
1754.000000	65.191388 
1753.000000	65.201497 
1752.000000	65.209341 
1751.000000	65.214610 
1750.000000	65.216970 
1749.000000	65.216469 
1748.000000	65.212750 
1747.000000	65.205144 
1746.000000	65.193152 
1745.000000	65.176439 
1744.000000	65.155315 
1743.000000	65.130567 
1742.000000	65.103888 
1741.000000	65.077710 
1740.000000	65.054702 
1739.000000	65.037369 
1738.000000	65.027356 
1737.000000	65.024924 
1736.000000	65.028452 
1735.000000	65.034818 
1734.000000	65.039777 
1733.000000	65.039086 
1732.000000	65.029287 
1731.000000	65.008997 
1730.000000	64.979052 
1729.000000	64.943075 
1728.000000	64.906501 
1727.000000	64.875984 
1726.000000	64.857482 
1725.000000	64.855718 
1724.000000	64.872956 
1723.000000	64.908695 
1722.000000	64.959764 
1721.000000	65.020966 
1720.000000	65.086221 
1719.000000	65.149331 
1718.000000	65.205049 
1717.000000	65.249729 
1716.000000	65.281510 
1715.000000	65.300393 
1714.000000	65.307855 
1713.000000	65.306425 
1712.000000	65.299105 
1711.000000	65.289187 
1710.000000	65.279459 
1709.000000	65.272474 
1708.000000	65.269374 
1707.000000	65.270733 
1706.000000	65.275812 
1705.000000	65.283203 
1704.000000	65.290880 
1703.000000	65.296602 
1702.000000	65.298628 
1701.000000	65.295839 
1700.000000	65.288114 
1699.000000	65.276527 
1698.000000	65.262889 
1697.000000	65.249180 
1696.000000	65.237498 
1695.000000	65.229296 
1694.000000	65.225386 
1693.000000	65.225696 
1692.000000	65.229487 
1691.000000	65.235495 
1690.000000	65.242457 
1689.000000	65.249466 
1688.000000	65.255737 
1687.000000	65.260648 
1686.000000	65.263843 
1685.000000	65.264892 
1684.000000	65.263223 
1683.000000	65.257954 
1682.000000	65.248179 
1681.000000	65.233111 
1680.000000	65.212392 
1679.000000	65.186524 
1678.000000	65.156650 
1677.000000	65.125083 
1676.000000	65.094637 
1675.000000	65.068697 
1674.000000	65.050578 
1673.000000	65.042972 
1672.000000	65.047407 
1671.000000	65.063738 
1670.000000	65.090012 
1669.000000	65.122413 
1668.000000	65.155744 
1667.000000	65.184378 
1666.000000	65.203142 
1665.000000	65.208458 
1664.000000	65.199112 
1663.000000	65.176701 
1662.000000	65.145158 
1661.000000	65.110516 
1660.000000	65.079355 
1659.000000	65.057635 
1658.000000	65.049362 
1657.000000	65.055799 
1656.000000	65.075278 
1655.000000	65.103673 
1654.000000	65.135312 
1653.000000	65.164208 
1652.000000	65.185546 
1651.000000	65.196371 
1650.000000	65.196228 
1649.000000	65.186738 
1648.000000	65.171241 
1647.000000	65.153193 
1646.000000	65.135526 
1645.000000	65.120100 
1644.000000	65.107178 
1643.000000	65.095877 
1642.000000	65.084624 
1641.000000	65.072202 
1640.000000	65.058088 
1639.000000	65.043044 
1638.000000	65.028762 
1637.000000	65.017509 
1636.000000	65.011477 
1635.000000	65.012216 
1634.000000	65.020179 
1633.000000	65.034341 
1632.000000	65.052771 
1631.000000	65.072941 
1630.000000	65.092325 
1629.000000	65.109109 
1628.000000	65.122365 
1627.000000	65.132212 
1626.000000	65.139436 
1625.000000	65.145421 
1624.000000	65.151548 
1623.000000	65.158677 
1622.000000	65.167069 
1621.000000	65.176224 
1620.000000	65.185284 
1619.000000	65.192842 
1618.000000	65.197682 
1617.000000	65.198707 
1616.000000	65.195155 
1615.000000	65.186786 
1614.000000	65.173864 
1613.000000	65.157270 
1612.000000	65.138387 
1611.000000	65.118837 
1610.000000	65.100526 
1609.000000	65.085029 
1608.000000	65.073394 
1607.000000	65.066027 
1606.000000	65.062689 
1605.000000	65.062689 
1604.000000	65.065026 
1603.000000	65.068721 
1602.000000	65.072751 
1601.000000	65.076231 
1600.000000	65.078139 
1599.000000	65.077352 
1598.000000	65.072965 
1597.000000	65.064597 
1596.000000	65.052533 
1595.000000	65.037798 
1594.000000	65.022134 
1593.000000	65.007901 
1592.000000	64.997172 
1591.000000	64.991402 
1590.000000	64.990949 
1589.000000	64.994835 
1588.000000	65.001106 
1587.000000	65.007066 
1586.000000	65.010333 
1585.000000	65.009355 
1584.000000	65.004038 
1583.000000	64.995765 
1582.000000	64.986968 
1581.000000	64.980340 
1580.000000	64.978361 
1579.000000	64.982342 
1578.000000	64.992332 
1577.000000	65.006947 
1576.000000	65.024161 
1575.000000	65.041661 
1574.000000	65.057301 
1573.000000	65.069389 
1572.000000	65.077018 
1571.000000	65.079832 
1570.000000	65.077757 
1569.000000	65.070652 
1568.000000	65.058517 
1567.000000	65.040993 
1566.000000	65.018081 
1565.000000	64.989900 
1564.000000	64.957618 
1563.000000	64.923024 
1562.000000	64.888811 
1561.000000	64.858102 
1560.000000	64.833950 
1559.000000	64.818787 
1558.000000	64.813733 
1557.000000	64.818525 
1556.000000	64.831519 
1555.000000	64.850139 
1554.000000	64.871478 
1553.000000	64.892911 
1552.000000	64.912605 
1551.000000	64.929914 
1550.000000	64.945197 
1549.000000	64.959502 
1548.000000	64.974021 
1547.000000	64.989686 
1546.000000	65.006637 
1545.000000	65.024137 
1544.000000	65.040659 
1543.000000	65.054559 
1542.000000	65.064215 
1541.000000	65.068817 
1540.000000	65.068244 
1539.000000	65.063309 
1538.000000	65.055274 
1537.000000	65.045881 
1536.000000	65.036916 
1535.000000	65.029573 
1534.000000	65.024662 
1533.000000	65.022635 
1532.000000	65.023565 
1531.000000	65.027022 
1530.000000	65.032625 
1529.000000	65.039896 
1528.000000	65.048503 
1527.000000	65.057754 
1526.000000	65.067005 
1525.000000	65.075302 
1524.000000	65.081548 
1523.000000	65.084624 
1522.000000	65.083456 
1521.000000	65.077257 
1520.000000	65.065765 
1519.000000	65.049481 
1518.000000	65.029764 
1517.000000	65.008616 
1516.000000	64.988756 
1515.000000	64.973235 
1514.000000	64.964890 
1513.000000	64.965867 
1512.000000	64.977264 
1511.000000	64.998841 
1510.000000	65.028858 
1509.000000	65.064573 
1508.000000	65.102601 
1507.000000	65.139460 
1506.000000	65.171980 
1505.000000	65.197968 
1504.000000	65.216231 
1503.000000	65.226531 
1502.000000	65.229392 
1501.000000	65.225934 
1500.000000	65.217614 
1499.000000	65.206146 
1498.000000	65.193080 
1497.000000	65.179967 
1496.000000	65.168261 
1495.000000	65.159177 
1494.000000	65.153551 
1493.000000	65.151715 
1492.000000	65.153288 
1491.000000	65.157127 
1490.000000	65.161609 
1489.000000	65.165114 
1488.000000	65.166258 
1487.000000	65.164232 
1486.000000	65.158915 
1485.000000	65.150690 
1484.000000	65.140485 
1483.000000	65.129256 
1482.000000	65.117812 
1481.000000	65.106511 
1480.000000	65.095186 
1479.000000	65.083265 
1478.000000	65.069794 
1477.000000	65.053915 
1476.000000	65.034961 
1475.000000	65.012669 
1474.000000	64.987564 
1473.000000	64.960980 
1472.000000	64.935064 
1471.000000	64.912247 
1470.000000	64.894819 
1469.000000	64.884257 
1468.000000	64.880824 
1467.000000	64.883375 
1466.000000	64.889121 
1465.000000	64.894270 
1464.000000	64.894628 
1463.000000	64.887022 
1462.000000	64.869618 
1461.000000	64.843058 
1460.000000	64.810228 
1459.000000	64.776039 
1458.000000	64.746117 
1457.000000	64.725685 
1456.000000	64.718437 
1455.000000	64.725112 
1454.000000	64.743471 
1453.000000	64.768528 
1452.000000	64.793896 
1451.000000	64.813280 
1450.000000	64.821958 
1449.000000	64.818000 
1448.000000	64.802694 
1447.000000	64.780163 
1446.000000	64.756178 
1445.000000	64.736747 
1444.000000	64.726805 
1443.000000	64.729142 
1442.000000	64.744091 
1441.000000	64.769887 
1440.000000	64.803004 
1439.000000	64.839196 
1438.000000	64.874219 
1437.000000	64.904642 
1436.000000	64.928436 
1435.000000	64.944863 
1434.000000	64.954590 
1433.000000	64.959287 
1432.000000	64.961218 
1431.000000	64.962983 
1430.000000	64.966964 
1429.000000	64.975023 
1428.000000	64.988088 
1427.000000	65.006160 
1426.000000	65.028047 
1425.000000	65.051817 
1424.000000	65.074920 
1423.000000	65.094637 
1422.000000	65.108466 
1421.000000	65.114593 
1420.000000	65.112280 
1419.000000	65.101838 
1418.000000	65.084600 
1417.000000	65.062499 
1416.000000	65.037894 
1415.000000	65.013074 
1414.000000	64.990234 
1413.000000	64.971137 
1412.000000	64.957427 
1411.000000	64.950346 
1410.000000	64.950728 
1409.000000	64.958810 
1408.000000	64.973974 
1407.000000	64.994621 
1406.000000	65.017938 
1405.000000	65.040540 
1404.000000	65.059161 
1403.000000	65.071225 
1402.000000	65.075278 
1401.000000	65.071153 
1400.000000	65.059924 
1399.000000	65.043592 
1398.000000	65.024566 
1397.000000	65.004944 
1396.000000	64.986395 
1395.000000	64.969778 
1394.000000	64.955425 
1393.000000	64.943218 
1392.000000	64.932775 
1391.000000	64.923787 
1390.000000	64.916014 
1389.000000	64.909482 
1388.000000	64.904308 
1387.000000	64.900660 
1386.000000	64.898633 
1385.000000	64.898133 
1384.000000	64.898896 
1383.000000	64.900708 
1382.000000	64.903092 
1381.000000	64.905381 
1380.000000	64.906787 
1379.000000	64.906454 
1378.000000	64.903950 
1377.000000	64.899253 
1376.000000	64.893317 
1375.000000	64.887642 
1374.000000	64.884305 
1373.000000	64.885330 
1372.000000	64.892220 
1371.000000	64.905405 
1370.000000	64.924073 
1369.000000	64.946413 
1368.000000	64.969706 
1367.000000	64.990997 
1366.000000	65.007591 
1365.000000	65.017533 
1364.000000	65.020060 
1363.000000	65.015697 
1362.000000	65.005993 
1361.000000	64.993166 
1360.000000	64.979815 
1359.000000	64.968323 
1358.000000	64.960217 
1357.000000	64.956021 
1356.000000	64.955401 
1355.000000	64.957261 
1354.000000	64.960145 
1353.000000	64.962720 
1352.000000	64.964079 
1351.000000	64.964151 
1350.000000	64.963555 
1349.000000	64.963436 
1348.000000	64.965128 
1347.000000	64.969325 
1346.000000	64.975905 
1345.000000	64.983487 
1344.000000	64.989805 
1343.000000	64.991998 
1342.000000	64.987277 
1341.000000	64.973807 
1340.000000	64.951252 
1339.000000	64.921212 
1338.000000	64.887261 
1337.000000	64.854359 
1336.000000	64.827966 
1335.000000	64.813351 
1334.000000	64.814376 
1333.000000	64.833068 
1332.000000	64.868783 
1331.000000	64.918351 
1330.000000	64.976286 
1329.000000	65.035843 
1328.000000	65.089797 
1327.000000	65.131378 
1326.000000	65.155553 
1325.000000	65.159559 
1324.000000	65.143513 
1323.000000	65.110158 
1322.000000	65.064573 
1321.000000	65.013241 
1320.000000	64.962983 
1319.000000	64.919829 
1318.000000	64.887905 
1317.000000	64.869332 
1316.000000	64.863610 
1315.000000	64.868330 
1314.000000	64.879751 
1313.000000	64.893722 
1312.000000	64.906549 
1311.000000	64.915776 
1310.000000	64.920449 
1309.000000	64.920854 
1308.000000	64.918613 
1307.000000	64.916014 
1306.000000	64.915442 
1305.000000	64.918828 
1304.000000	64.927458 
1303.000000	64.941573 
1302.000000	64.960622 
1301.000000	64.983272 
1300.000000	65.007925 
1299.000000	65.032911 
1298.000000	65.056562 
1297.000000	65.077495 
1296.000000	65.094804 
1295.000000	65.107893 
1294.000000	65.116763 
1293.000000	65.121650 
1292.000000	65.123391 
1291.000000	65.122890 
1290.000000	65.121531 
1289.000000	65.120244 
1288.000000	65.119457 
1287.000000	65.118837 
1286.000000	65.117669 
1285.000000	65.114855 
1284.000000	65.109229 
1283.000000	65.099859 
1282.000000	65.086388 
1281.000000	65.069222 
1280.000000	65.049099 
1279.000000	65.027117 
1278.000000	65.004324 
1277.000000	64.981555 
1276.000000	64.959383 
1275.000000	64.938235 
1274.000000	64.918422 
1273.000000	64.900517 
1272.000000	64.885306 
1271.000000	64.873600 
1270.000000	64.866638 
1269.000000	64.865303 
1268.000000	64.870285 
1267.000000	64.881467 
1266.000000	64.898419 
1265.000000	64.920186 
1264.000000	64.945673 
1263.000000	64.973402 
1262.000000	65.001654 
1261.000000	65.028548 
1260.000000	65.051889 
1259.000000	65.069484 
1258.000000	65.079498 
1257.000000	65.080642 
1256.000000	65.072798 
1255.000000	65.057110 
1254.000000	65.036034 
1253.000000	65.012812 
1252.000000	64.990997 
1251.000000	64.973831 
1250.000000	64.963650 
1249.000000	64.961385 
1248.000000	64.966559 
1247.000000	64.977455 
1246.000000	64.991664 
1245.000000	65.006327 
1244.000000	65.019154 
1243.000000	65.028357 
1242.000000	65.033030 
1241.000000	65.032911 
1240.000000	65.028309 
1239.000000	65.019965 
1238.000000	65.008640 
1237.000000	64.995241 
1236.000000	64.980840 
1235.000000	64.966535 
1234.000000	64.953684 
1233.000000	64.943456 
1232.000000	64.936804 
1231.000000	64.933967 
1230.000000	64.934539 
1229.000000	64.936852 
1228.000000	64.938616 
1227.000000	64.937186 
1226.000000	64.930343 
1225.000000	64.916872 
1224.000000	64.896941 
1223.000000	64.872360 
1222.000000	64.846420 
1221.000000	64.823102 
1220.000000	64.806246 
1219.000000	64.798521 
1218.000000	64.800977 
1217.000000	64.812684 
1216.000000	64.831328 
1215.000000	64.853787 
1214.000000	64.877009 
1213.000000	64.898610 
1212.000000	64.917254 
1211.000000	64.932799 
1210.000000	64.946055 
1209.000000	64.957928 
1208.000000	64.969253 
1207.000000	64.980411 
1206.000000	64.991259 
1205.000000	65.001368 
1204.000000	65.009856 
1203.000000	65.015912 
1202.000000	65.018773 
1201.000000	65.018177 
1200.000000	65.014052 
1199.000000	65.006542 
1198.000000	64.996027 
1197.000000	64.983105 
1196.000000	64.968800 
1195.000000	64.954423 
1194.000000	64.941525 
1193.000000	64.931583 
1192.000000	64.925670 
1191.000000	64.924073 
1190.000000	64.926385 
1189.000000	64.931464 
1188.000000	64.937472 
1187.000000	64.942455 
1186.000000	64.944863 
1185.000000	64.943814 
1184.000000	64.939188 
1183.000000	64.931607 
1182.000000	64.921975 
1181.000000	64.911580 
1180.000000	64.901590 
1179.000000	64.893054 
1178.000000	64.886760 
1177.000000	64.883136 
1176.000000	64.882326 
1175.000000	64.884209 
1174.000000	64.888310 
1173.000000	64.893531 
1172.000000	64.898419 
1171.000000	64.900994 
1170.000000	64.899373 
1169.000000	64.892530 
1168.000000	64.880800 
1167.000000	64.865899 
1166.000000	64.851236 
1165.000000	64.841270 
1164.000000	64.840579 
1163.000000	64.852762 
1162.000000	64.879059 
1161.000000	64.917945 
1160.000000	64.964938 
1159.000000	65.013551 
1158.000000	65.056538 
1157.000000	65.087580 
1156.000000	65.102720 
1155.000000	65.101194 
1154.000000	65.085649 
1153.000000	65.061140 
1152.000000	65.034055 
1151.000000	65.010452 
1150.000000	64.994692 
1149.000000	64.988636 
1148.000000	64.991450 
1147.000000	65.000343 
1146.000000	65.011143 
1145.000000	65.019392 
1144.000000	65.021181 
1143.000000	65.014028 
1142.000000	64.996767 
1141.000000	64.970159 
1140.000000	64.935827 
1139.000000	64.896845 
1138.000000	64.856910 
1137.000000	64.820384 
1136.000000	64.791607 
1135.000000	64.774060 
1134.000000	64.770102 
1133.000000	64.779806 
1132.000000	64.801096 
1131.000000	64.829945 
1130.000000	64.860939 
1129.000000	64.888620 
1128.000000	64.908075 
1127.000000	64.916658 
1126.000000	64.914608 
1125.000000	64.904642 
1124.000000	64.891123 
1123.000000	64.879107 
1122.000000	64.872956 
1121.000000	64.875173 
1120.000000	64.885759 
1119.000000	64.901757 
1118.000000	64.917993 
1117.000000	64.928817 
1116.000000	64.929389 
1115.000000	64.916634 
1114.000000	64.890170 
1113.000000	64.852428 
1112.000000	64.808273 
1111.000000	64.763569 
1110.000000	64.724159 
1109.000000	64.694809 
1108.000000	64.678311 
1107.000000	64.675354 
1106.000000	64.684081 
1105.000000	64.701533 
1104.000000	64.723014 
1103.000000	64.743280 
1102.000000	64.756727 
1101.000000	64.758157 
1100.000000	64.743661 
1099.000000	64.710903 
1098.000000	64.660263 
1097.000000	64.594626 
1096.000000	64.520359 
1095.000000	64.445996 
1094.000000	64.381885 
1093.000000	64.338231 
1092.000000	64.323639 
1091.000000	64.343380 
1090.000000	64.398241 
1089.000000	64.484214 
1088.000000	64.593052 
1087.000000	64.713597 
1086.000000	64.833402 
1085.000000	64.941096 
1084.000000	65.027928 
1083.000000	65.089154 
1082.000000	65.124106 
1081.000000	65.135669 
1080.000000	65.129113 
1079.000000	65.110349 
1078.000000	65.085315 
1077.000000	65.058112 
1076.000000	65.031576 
1075.000000	65.006518 
1074.000000	64.983224 
1073.000000	64.961647 
1072.000000	64.942574 
1071.000000	64.927506 
1070.000000	64.918684 
1069.000000	64.918494 
1068.000000	64.928507 
1067.000000	64.948987 
1066.000000	64.978218 
1065.000000	65.012288 
1064.000000	65.045738 
1063.000000	65.072631 
1062.000000	65.087723 
1061.000000	65.087699 
1060.000000	65.071702 
1059.000000	65.041851 
1058.000000	65.002417 
1057.000000	64.959311 
1056.000000	64.918231 
1055.000000	64.883446 
1054.000000	64.856433 
1053.000000	64.836692 
1052.000000	64.820957 
1051.000000	64.804434 
1050.000000	64.782381 
1049.000000	64.751625 
1048.000000	64.711713 
1047.000000	64.664936 
1046.000000	64.616394 
1045.000000	64.571809 
1044.000000	64.537358 
1043.000000	64.517664 
1042.000000	64.515447 
1041.000000	64.530563 
1040.000000	64.560556 
1039.000000	64.601135 
1038.000000	64.647150 
1037.000000	64.693641 
1036.000000	64.736104 
1035.000000	64.771342 
1034.000000	64.798402 
1033.000000	64.818143 
1032.000000	64.832782 
1031.000000	64.844465 
1030.000000	64.854669 
1029.000000	64.862895 
1028.000000	64.866900 
1027.000000	64.862942 
1026.000000	64.846849 
1025.000000	64.815902 
1024.000000	64.770054 
1023.000000	64.713215 
1022.000000	64.652514 
1021.000000	64.598512 
1020.000000	64.562535 
1019.000000	64.554762 
1018.000000	64.581584 
1017.000000	64.643692 
1016.000000	64.735722 
1015.000000	64.845991 
1014.000000	64.958643 
1013.000000	65.056061 
1012.000000	65.122389 
1011.000000	65.145730 
1010.000000	65.120601 
1009.000000	65.048956 
1008.000000	64.939904 
1007.000000	64.808511 
1006.000000	64.672589 
1005.000000	64.550065 
1004.000000	64.454913 
1003.000000	64.395666 
1002.000000	64.373469 
1001.000000	64.382481 
1000.000000	64.412188 
999.000000	 64.450049 
998.000000	 64.485335 
997.000000	 64.510297 
996.000000	 64.522981 
995.000000	 64.525842 
994.000000	 64.525461 
993.000000	 64.528632 
992.000000	 64.541411 
991.000000	 64.566326 
990.000000	 64.602375 
989.000000	 64.645147 
988.000000	 64.688754 
987.000000	 64.727616 
986.000000	 64.758324 
985.000000	 64.780759 
984.000000	 64.797258 
983.000000	 64.811539 
982.000000	 64.826965 
981.000000	 64.845085 
980.000000	 64.865064 
979.000000	 64.883112 
978.000000	 64.894223 
977.000000	 64.892864 
976.000000	 64.874911 
975.000000	 64.838838 
974.000000	 64.786529 
973.000000	 64.723396 
972.000000	 64.656782 
971.000000	 64.594960 
970.000000	 64.545607 
969.000000	 64.513826 
968.000000	 64.501619 
967.000000	 64.506888 
966.000000	 64.524149 
965.000000	 64.546155 
964.000000	 64.565134 
963.000000	 64.575457 
962.000000	 64.574265 
961.000000	 64.563417 
960.000000	 64.548540 
959.000000	 64.538455 
958.000000	 64.542317 
957.000000	 64.567756 
956.000000	 64.618062 
955.000000	 64.691042 
954.000000	 64.778637 
953.000000	 64.868402 
952.000000	 64.945816 
951.000000	 64.997696 
950.000000	 65.014839 
949.000000	 64.994263 
948.000000	 64.939570 
947.000000	 64.860081 
946.000000	 64.768338 
945.000000	 64.677143 
944.000000	 64.596796 
943.000000	 64.533543 
942.000000	 64.489245 
941.000000	 64.462184 
940.000000	 64.448761 
939.000000	 64.445686 
938.000000	 64.450693 
937.000000	 64.462995 
936.000000	 64.483237 
935.000000	 64.511632 
934.000000	 64.548134 
933.000000	 64.591121 
932.000000	 64.637660 
931.000000	 64.683365 
930.000000	 64.724302 
929.000000	 64.757394 
928.000000	 64.781141 
927.000000	 64.795613 
926.000000	 64.801955 
925.000000	 64.801788 
924.000000	 64.796352 
923.000000	 64.786434 
922.000000	 64.772510 
921.000000	 64.754819 
920.000000	 64.734292 
919.000000	 64.712262 
918.000000	 64.691042 
917.000000	 64.673066 
916.000000	 64.660882 
915.000000	 64.656209 
914.000000	 64.659094 
913.000000	 64.668536 
912.000000	 64.682602 
911.000000	 64.698576 
910.000000	 64.713430 
909.000000	 64.724040 
908.000000	 64.727878 
907.000000	 64.722919 
906.000000	 64.708137 
905.000000	 64.683294 
904.000000	 64.648962 
903.000000	 64.607310 
902.000000	 64.561891 
901.000000	 64.517259 
900.000000	 64.478302 
899.000000	 64.449477 
898.000000	 64.434123 
897.000000	 64.432930 
896.000000	 64.444708 
895.000000	 64.466357 
894.000000	 64.494395 
893.000000	 64.525198 
892.000000	 64.556789 
891.000000	 64.588427 
890.000000	 64.620947 
889.000000	 64.656043 
888.000000	 64.695167 
887.000000	 64.738559 
886.000000	 64.784574 
885.000000	 64.829754 
884.000000	 64.868831 
883.000000	 64.896106 
882.000000	 64.906239 
881.000000	 64.895963 
880.000000	 64.864301 
879.000000	 64.813137 
878.000000	 64.746499 
877.000000	 64.670228 
876.000000	 64.590406 
875.000000	 64.512705 
874.000000	 64.441442 
873.000000	 64.379358 
872.000000	 64.327955 
871.000000	 64.287829 
870.000000	 64.258813 
869.000000	 64.240670 
868.000000	 64.232754 
867.000000	 64.234662 
866.000000	 64.245080 
865.000000	 64.262652 
864.000000	 64.285540 
863.000000	 64.311933 
862.000000	 64.339542 
861.000000	 64.366269 
860.000000	 64.389777 
859.000000	 64.408302 
858.000000	 64.420676 
857.000000	 64.426946 
856.000000	 64.428520 
855.000000	 64.428138 
854.000000	 64.429545 
853.000000	 64.436650 
852.000000	 64.452481 
851.000000	 64.477801 
850.000000	 64.510798 
849.000000	 64.546656 
848.000000	 64.578747 
847.000000	 64.599776 
846.000000	 64.603567 
845.000000	 64.586424 
844.000000	 64.548182 
843.000000	 64.492821 
842.000000	 64.427423 
841.000000	 64.360022 
840.000000	 64.298367 
839.000000	 64.248228 
838.000000	 64.212727 
837.000000	 64.192080 
836.000000	 64.184761 
835.000000	 64.188313 
834.000000	 64.201235 
833.000000	 64.223122 
832.000000	 64.255046 
831.000000	 64.298224 
830.000000	 64.353060 
829.000000	 64.417815 
828.000000	 64.487934 
827.000000	 64.555907 
826.000000	 64.612865 
825.000000	 64.650368 
824.000000	 64.662218 
823.000000	 64.645981 
822.000000	 64.603614 
821.000000	 64.541387 
820.000000	 64.468407 
819.000000	 64.395070 
818.000000	 64.331388 
817.000000	 64.285635 
816.000000	 64.262986 
815.000000	 64.265251 
814.000000	 64.291214 
813.000000	 64.336872 
812.000000	 64.396262 
811.000000	 64.462423 
810.000000	 64.528036 
809.000000	 64.586687 
808.000000	 64.633321 
807.000000	 64.664673 
806.000000	 64.679217 
805.000000	 64.677333 
804.000000	 64.661216 
803.000000	 64.633464 
802.000000	 64.597034 
801.000000	 64.553952 
800.000000	 64.505696 
799.000000	 64.452767 
798.000000	 64.395236 
797.000000	 64.333343 
796.000000	 64.268040 
795.000000	 64.201569 
794.000000	 64.137411 
793.000000	 64.079570 
792.000000	 64.031744 
791.000000	 63.996577 
790.000000	 63.974928 
789.000000	 63.965010 
788.000000	 63.963246 
787.000000	 63.964748 
786.000000	 63.965153 
785.000000	 63.960981 
784.000000	 63.951396 
783.000000	 63.937425 
782.000000	 63.922739 
781.000000	 63.911938 
780.000000	 63.909912 
779.000000	 63.920116 
778.000000	 63.944196 
777.000000	 63.981294 
776.000000	 64.028334 
775.000000	 64.080595 
774.000000	 64.132714 
773.000000	 64.179754 
772.000000	 64.217805 
771.000000	 64.244461 
770.000000	 64.259076 
769.000000	 64.262247 
768.000000	 64.255523 
767.000000	 64.240455 
766.000000	 64.218401 
765.000000	 64.189791 
764.000000	 64.153885 
763.000000	 64.109063 
762.000000	 64.053583 
761.000000	 63.987159 
760.000000	 63.911318 
759.000000	 63.831138 
758.000000	 63.753914 
757.000000	 63.689613 
756.000000	 63.648557 
755.000000	 63.639831 
754.000000	 63.668632 
753.000000	 63.735485 
752.000000	 63.835430 
751.000000	 63.958978 
750.000000	 64.093303 
749.000000	 64.224553 
748.000000	 64.339542 
747.000000	 64.428234 
746.000000	 64.484882 
745.000000	 64.508104 
744.000000	 64.500546 
743.000000	 64.467549 
742.000000	 64.415717 
741.000000	 64.352011 
740.000000	 64.282608 
739.000000	 64.212703 
738.000000	 64.145874 
737.000000	 64.084577 
736.000000	 64.029812 
735.000000	 63.982129 
734.000000	 63.941335 
733.000000	 63.906550 
732.000000	 63.876724 
731.000000	 63.850307 
730.000000	 63.826298 
729.000000	 63.802790 
728.000000	 63.779616 
727.000000	 63.756799 
726.000000	 63.737010 
725.000000	 63.724064 
724.000000	 63.723278 
723.000000	 63.740086 
722.000000	 63.777899 
721.000000	 63.836979 
720.000000	 63.912701 
719.000000	 63.995933 
718.000000	 64.074659 
717.000000	 64.136409 
716.000000	 64.170479 
715.000000	 64.170360 
714.000000	 64.135932 
713.000000	 64.073562 
712.000000	 63.994479 
711.000000	 63.912177 
710.000000	 63.839912 
709.000000	 63.787937 
708.000000	 63.761878 
707.000000	 63.762140 
706.000000	 63.784766 
705.000000	 63.823199 
704.000000	 63.870382 
703.000000	 63.920164 
702.000000	 63.967990 
701.000000	 64.011669 
700.000000	 64.050292 
699.000000	 64.084625 
698.000000	 64.115595 
697.000000	 64.144182 
696.000000	 64.171290 
695.000000	 64.196515 
694.000000	 64.218616 
693.000000	 64.234733 
692.000000	 64.241766 
691.000000	 64.235568 
690.000000	 64.212441 
689.000000	 64.169239 
688.000000	 64.104509 
687.000000	 64.018487 
686.000000	 63.913464 
685.000000	 63.793587 
684.000000	 63.664984 
683.000000	 63.535022 
682.000000	 63.412094 
681.000000	 63.303947 
680.000000	 63.217282 
679.000000	 63.156676 
678.000000	 63.124346 
677.000000	 63.119006 
676.000000	 63.137221 
675.000000	 63.173437 
674.000000	 63.221526 
673.000000	 63.274431 
672.000000	 63.326430 
671.000000	 63.373231 
670.000000	 63.412833 
669.000000	 63.444256 
668.000000	 63.467860 
667.000000	 63.484239 
666.000000	 63.494229 
665.000000	 63.498687 
664.000000	 63.498711 
663.000000	 63.495635 
662.000000	 63.491749 
661.000000	 63.489818 
660.000000	 63.492345 
659.000000	 63.500857 
658.000000	 63.515257 
657.000000	 63.533377 
656.000000	 63.551115 
655.000000	 63.562655 
654.000000	 63.562560 
653.000000	 63.546109 
652.000000	 63.509774 
651.000000	 63.451933 
650.000000	 63.374018 
649.000000	 63.280010 
648.000000	 63.175535 
647.000000	 63.067913 
646.000000	 62.965202 
645.000000	 62.875699 
644.000000	 62.806129 
643.000000	 62.761998 
642.000000	 62.746071 
641.000000	 62.759232 
640.000000	 62.800192 
639.000000	 62.865591 
638.000000	 62.949705 
637.000000	 63.045072 
636.000000	 63.142824 
635.000000	 63.233447 
634.000000	 63.307881 
633.000000	 63.358402 
632.000000	 63.379979 
631.000000	 63.371300 
630.000000	 63.335347 
629.000000	 63.279414 
628.000000	 63.214039 
627.000000	 63.151192 
626.000000	 63.102054 
625.000000	 63.075351 
624.000000	 63.075613 
623.000000	 63.102650 
622.000000	 63.152456 
621.000000	 63.218688 
620.000000	 63.293957 
619.000000	 63.371205 
618.000000	 63.444185 
617.000000	 63.507580 
616.000000	 63.557243 
615.000000	 63.589596 
614.000000	 63.602662 
613.000000	 63.595890 
612.000000	 63.572049 
611.000000	 63.537216 
610.000000	 63.500308 
609.000000	 63.471412 
608.000000	 63.459682 
607.000000	 63.471007 
606.000000	 63.505411 
605.000000	 63.556504 
604.000000	 63.611698 
603.000000	 63.654923 
602.000000	 63.670873 
601.000000	 63.648486 
600.000000	 63.584208 
599.000000	 63.482379 
598.000000	 63.354778 
597.000000	 63.216781 
596.000000	 63.084363 
595.000000	 62.969231 
594.000000	 62.876749 
593.000000	 62.805318 
592.000000	 62.748074 
591.000000	 62.696361 
590.000000	 62.642884 
589.000000	 62.585425 
588.000000	 62.526845 
587.000000	 62.476134 
586.000000	 62.445116 
585.000000	 62.445330 
584.000000	 62.483334 
583.000000	 62.559390 
582.000000	 62.665796 
581.000000	 62.788581 
580.000000	 62.910056 
579.000000	 63.012599 
578.000000	 63.082098 
577.000000	 63.110852 
576.000000	 63.098883 
575.000000	 63.052487 
574.000000	 62.982773 
573.000000	 62.902593 
572.000000	 62.824630 
571.000000	 62.760066 
570.000000	 62.716650 
569.000000	 62.698793 
568.000000	 62.706494 
567.000000	 62.736463 
566.000000	 62.782502 
565.000000	 62.836813 
564.000000	 62.891626 
563.000000	 62.939691 
562.000000	 62.976241 
561.000000	 62.999200 
560.000000	 63.009262 
559.000000	 63.008427 
558.000000	 62.999749 
557.000000	 62.986421 
556.000000	 62.970924 
555.000000	 62.954878 
554.000000	 62.940025 
553.000000	 62.928271 
552.000000	 62.922859 
551.000000	 62.927365 
550.000000	 62.944316 
549.000000	 62.973189 
548.000000	 63.009428 
547.000000	 63.043999 
546.000000	 63.063621 
545.000000	 63.054394 
544.000000	 63.005518 
543.000000	 62.912940 
542.000000	 62.781977 
541.000000	 62.626457 
540.000000	 62.465620 
539.000000	 62.320041 
538.000000	 62.206792 
537.000000	 62.136125 
536.000000	 62.108445 
535.000000	 62.117099 
534.000000	 62.150073 
533.000000	 62.195968 
532.000000	 62.247109 
531.000000	 62.301325 
530.000000	 62.361359 
529.000000	 62.430524 
528.000000	 62.509083 
527.000000	 62.590646 
526.000000	 62.661314 
525.000000	 62.703227 
524.000000	 62.698698 
523.000000	 62.636446 
522.000000	 62.515282 
521.000000	 62.344956 
520.000000	 62.145423 
519.000000	 61.941576 
518.000000	 61.759352 
517.000000	 61.619782 
516.000000	 61.536359 
515.000000	 61.512804 
514.000000	 61.543965 
513.000000	 61.618304 
512.000000	 61.721134 
511.000000	 61.836743 
510.000000	 61.952733 
509.000000	 62.060332 
508.000000	 62.156128 
507.000000	 62.239193 
506.000000	 62.311291 
505.000000	 62.374234 
504.000000	 62.428641 
503.000000	 62.473583 
502.000000	 62.505578 
501.000000	 62.520051 
500.000000	 62.511658 
499.000000	 62.476491 
498.000000	 62.414145 
497.000000	 62.328886 
496.000000	 62.229800 
495.000000	 62.129426 
494.000000	 62.041759 
493.000000	 61.978983 
492.000000	 61.949014 
491.000000	 61.952853 
490.000000	 61.984634 
489.000000	 62.031650 
488.000000	 62.078309 
487.000000	 62.108039 
486.000000	 62.106490 
485.000000	 62.064552 
484.000000	 61.979675 
483.000000	 61.856555 
482.000000	 61.706399 
481.000000	 61.543917 
480.000000	 61.383795 
479.000000	 61.239075 
478.000000	 61.119771 
477.000000	 61.030602 
476.000000	 60.971570 
475.000000	 60.937571 
474.000000	 60.920238 
473.000000	 60.909962 
472.000000	 60.898184 
471.000000	 60.878610 
470.000000	 60.848593 
469.000000	 60.808587 
468.000000	 60.762095 
467.000000	 60.715174 
466.000000	 60.675144 
465.000000	 60.647892 
464.000000	 60.637235 
463.000000	 60.645318 
462.000000	 60.670471 
461.000000	 60.710620 
460.000000	 60.759067 
459.000000	 60.805249 
458.000000	 60.834550 
457.000000	 60.832977 
456.000000	 60.787367 
455.000000	 60.686206 
454.000000	 60.526800 
453.000000	 60.316276 
452.000000	 60.074496 
451.000000	 59.829878 
450.000000	 59.618282 
449.000000	 59.474730 
448.000000	 59.429001 
447.000000	 59.498763 
446.000000	 59.682321 
445.000000	 59.956789 
444.000000	 60.279130 
443.000000	 60.593318 
442.000000	 60.838675 
441.000000	 60.963535 
440.000000	 60.933470 
439.000000	 60.742497 
438.000000	 60.413956 
437.000000	 59.999942 
436.000000	 59.569072 
435.000000	 59.197306 
434.000000	 58.945918 
433.000000	 58.859705 
432.000000	 58.964323 
431.000000	 59.260940 
430.000000	 59.730768 
429.000000	 60.334491 
428.000000	 61.012244 
427.000000	 61.698698 
426.000000	 62.345814 
425.000000	 62.901997 
424.000000	 63.307619 
423.000000	 63.514256 
422.000000	 63.493585 
421.000000	 63.239479 
420.000000	 62.776732 
419.000000	 62.142205 
418.000000	 61.382508 
417.000000	 60.571813 
416.000000	 59.802770 
415.000000	 59.185385 
414.000000	 58.819770 
413.000000	 58.769583 
412.000000	 59.035921 
411.000000	 59.556770 
410.000000	 60.205364 
409.000000	 60.809493 
408.000000	 61.186385 
407.000000	 61.192560 
406.000000	 60.760545 
405.000000	 59.841942 
404.000000	 58.542656 
403.000000	 56.993627 
402.000000	 55.535817 
401.000000	 54.695010 
400.000000	 55.053591 
399.000000	 57.206416 
398.000000	 61.378359 
397.000000	 67.320013 
396.000000	 74.219846 
395.000000	 80.805516 
394.000000	 85.754799 
393.000000	 88.029384 
392.000000	 87.190103 
391.000000	 83.534502 
390.000000	 77.865672 
389.000000	 71.317028 
388.000000	 64.957046 
387.000000	 59.636974 
386.000000	 56.016969 
385.000000	 54.467988 
384.000000	 55.303478 
383.000000	 58.564329 
382.000000	 63.975739 
381.000000	 70.906543 
380.000000	 78.272318 
379.000000	 84.875917 
378.000000	 89.619207 
377.000000	 91.793942 
376.000000	 91.276478 
375.000000	 88.473367 
374.000000	 84.203410 
373.000000	 79.434037 
372.000000	 74.950265 
371.000000	 71.313524 
370.000000	 68.818902 

