PE IR       SPECTRUM    SPECTRUM    ASCII       PEDS        1.60        
  -1
C-458B~1.ASC
17/03/28
00:35:47.00
17/03/28
00:35:47.00
tln
$C-4040-8_t0120$<tbV0>[-10.4,13.0,8.0,0.0,27,1,0]
370.000000
64









2002,4.07    
MIRTGS : RIGHTBACK : INTERNAL 2
MIR : ON : INTERNAL 2
OPTKBR

0.200000
8
8.000000
FILLER
RATIO
SPECTRUM
UNLOCKED 256

DOUBLE
64
COMBINED
1
0
0


1.000000
RATIO


1
0
TRUE
51149
0
LEFT NOT FITTED RIGHT NOT FITTED 0
NONE
NONE
15600
12.000000
4.427000
51148
TRUE
1 0 8 72 0 0 0 0 

15798.010000






#HDR
-1
-1
#GR
CM-1
%T
0.00002384185791015625
0.0
5000.000000
-1.000000
4631
8
70.805120
13.135027
#DATA
5000.000000	64.485454 
4999.000000	64.505076 
4998.000000	64.532709 
4997.000000	64.568471 
4996.000000	64.612078 
4995.000000	64.661145 
4994.000000	64.712619 
4993.000000	64.761853 
4992.000000	64.805769 
4991.000000	64.843606 
4990.000000	64.877533 
4989.000000	64.912080 
4988.000000	64.952945 
4987.000000	65.005278 
4986.000000	65.071415 
4985.000000	65.149307 
4984.000000	65.233063 
4983.000000	65.314054 
4982.000000	65.382719 
4981.000000	65.430617 
4980.000000	65.451979 
4979.000000	65.444397 
4978.000000	65.409636 
4977.000000	65.352320 
4976.000000	65.278124 
4975.000000	65.192794 
4974.000000	65.102076 
4973.000000	65.010571 
4972.000000	64.922261 
4971.000000	64.840126 
4970.000000	64.767527 
4969.000000	64.706850 
4968.000000	64.659619 
4967.000000	64.625239 
4966.000000	64.600944 
4965.000000	64.581584 
4964.000000	64.560413 
4963.000000	64.530062 
4962.000000	64.483928 
4961.000000	64.417815 
4960.000000	64.331030 
4959.000000	64.226627 
4958.000000	64.111018 
4957.000000	63.993763 
4956.000000	63.886070 
4955.000000	63.798904 
4954.000000	63.741207 
4953.000000	63.719105 
4952.000000	63.734936 
4951.000000	63.786482 
4950.000000	63.868021 
4949.000000	63.970685 
4948.000000	64.084744 
4947.000000	64.200067 
4946.000000	64.308834 
4945.000000	64.405012 
4944.000000	64.486002 
4943.000000	64.552140 
4942.000000	64.605641 
4941.000000	64.648914 
4940.000000	64.683604 
4939.000000	64.710831 
4938.000000	64.730358 
4937.000000	64.741754 
4936.000000	64.744400 
4935.000000	64.739274 
4934.000000	64.727687 
4933.000000	64.711952 
4932.000000	64.694142 
4931.000000	64.676284 
4930.000000	64.658832 
4929.000000	64.640927 
4928.000000	64.620995 
4927.000000	64.597702 
4926.000000	64.570760 
4925.000000	64.541578 
4924.000000	64.513635 
4923.000000	64.492440 
4922.000000	64.483141 
4921.000000	64.490318 
4920.000000	64.516544 
4919.000000	64.562082 
4918.000000	64.625239 
4917.000000	64.701604 
4916.000000	64.785385 
4915.000000	64.868545 
4914.000000	64.943075 
4913.000000	65.000319 
4912.000000	65.031695 
4911.000000	65.031361 
4910.000000	64.997410 
4909.000000	64.933395 
4908.000000	64.847850 
4907.000000	64.754462 
4906.000000	64.670038 
4905.000000	64.610505 
4904.000000	64.587616 
4903.000000	64.605712 
4902.000000	64.660954 
4901.000000	64.741826 
4900.000000	64.832520 
4899.000000	64.917540 
4898.000000	64.986062 
4897.000000	65.035128 
4896.000000	65.069603 
4895.000000	65.099859 
4894.000000	65.137481 
4893.000000	65.191173 
4892.000000	65.262532 
4891.000000	65.345335 
4890.000000	65.425848 
4889.000000	65.488338 
4888.000000	65.517258 
4887.000000	65.503358 
4886.000000	65.443778 
4885.000000	65.344619 
4884.000000	65.216732 
4883.000000	65.073704 
4882.000000	64.927268 
4881.000000	64.785051 
4880.000000	64.650011 
4879.000000	64.521741 
4878.000000	64.398980 
4877.000000	64.282059 
4876.000000	64.174199 
4875.000000	64.081931 
4874.000000	64.013028 
4873.000000	63.975024 
4872.000000	63.972473 
4871.000000	64.006066 
4870.000000	64.071106 
4869.000000	64.159250 
4868.000000	64.260196 
4867.000000	64.364123 
4866.000000	64.462852 
4865.000000	64.551210 
4864.000000	64.627385 
4863.000000	64.691567 
4862.000000	64.744615 
4861.000000	64.786720 
4860.000000	64.816737 
4859.000000	64.832258 
4858.000000	64.831280 
4857.000000	64.812564 
4856.000000	64.777231 
4855.000000	64.728975 
4854.000000	64.674663 
4853.000000	64.622378 
4852.000000	64.580130 
4851.000000	64.554166 
4850.000000	64.547824 
4849.000000	64.559721 
4848.000000	64.584374 
4847.000000	64.613842 
4846.000000	64.639973 
4845.000000	64.656424 
4844.000000	64.660072 
4843.000000	64.652228 
4842.000000	64.637207 
4841.000000	64.620375 
4840.000000	64.606094 
4839.000000	64.596223 
4838.000000	64.589810 
4837.000000	64.583587 
4836.000000	64.573979 
4835.000000	64.558482 
4834.000000	64.537382 
4833.000000	64.514660 
4832.000000	64.496541 
4831.000000	64.489555 
4830.000000	64.498162 
4829.000000	64.523005 
4828.000000	64.559912 
4827.000000	64.600133 
4826.000000	64.633083 
4825.000000	64.649343 
4824.000000	64.643192 
4823.000000	64.614391 
4822.000000	64.567732 
4821.000000	64.512038 
4820.000000	64.457607 
4819.000000	64.414048 
4818.000000	64.388465 
4817.000000	64.384341 
4816.000000	64.401936 
4815.000000	64.438700 
4814.000000	64.490580 
4813.000000	64.552736 
4812.000000	64.620518 
4811.000000	64.689660 
4810.000000	64.756011 
4809.000000	64.815616 
4808.000000	64.865207 
4807.000000	64.901375 
4806.000000	64.921307 
4805.000000	64.922142 
4804.000000	64.902782 
4803.000000	64.862585 
4802.000000	64.802598 
4801.000000	64.725089 
4800.000000	64.633870 
4799.000000	64.534759 
4798.000000	64.435362 
4797.000000	64.344358 
4796.000000	64.270544 
4795.000000	64.221525 
4794.000000	64.202284 
4793.000000	64.213633 
4792.000000	64.251708 
4791.000000	64.308738 
4790.000000	64.375090 
4789.000000	64.440655 
4788.000000	64.498138 
4787.000000	64.543867 
4786.000000	64.579343 
4785.000000	64.609980 
4784.000000	64.643335 
4783.000000	64.686560 
4782.000000	64.743614 
4781.000000	64.813804 
4780.000000	64.890933 
4779.000000	64.965915 
4778.000000	65.027618 
4777.000000	65.066909 
4776.000000	65.077304 
4775.000000	65.057444 
4774.000000	65.010190 
4773.000000	64.942455 
4772.000000	64.862370 
4771.000000	64.777684 
4770.000000	64.694261 
4769.000000	64.615988 
4768.000000	64.544034 
4767.000000	64.477992 
4766.000000	64.417290 
4765.000000	64.362573 
4764.000000	64.315819 
4763.000000	64.280748 
4762.000000	64.261388 
4761.000000	64.261102 
4760.000000	64.280939 
4759.000000	64.319086 
4758.000000	64.369916 
4757.000000	64.425349 
4756.000000	64.476370 
4755.000000	64.514923 
4754.000000	64.534950 
4753.000000	64.534568 
4752.000000	64.515662 
4751.000000	64.484429 
4750.000000	64.449310 
4749.000000	64.420104 
4748.000000	64.405202 
4747.000000	64.410758 
4746.000000	64.439511 
4745.000000	64.490175 
4744.000000	64.558172 
4743.000000	64.635992 
4742.000000	64.714932 
4741.000000	64.785480 
4740.000000	64.839005 
4739.000000	64.869260 
4738.000000	64.873409 
4737.000000	64.852595 
4736.000000	64.811563 
4735.000000	64.758372 
4734.000000	64.702391 
4733.000000	64.652514 
4732.000000	64.615154 
4731.000000	64.593100 
4730.000000	64.585614 
4729.000000	64.589095 
4728.000000	64.599299 
4727.000000	64.612150 
4726.000000	64.626598 
4725.000000	64.644694 
4724.000000	64.671444 
4723.000000	64.712119 
4722.000000	64.771103 
4721.000000	64.849328 
4720.000000	64.943432 
4719.000000	65.045261 
4718.000000	65.144371 
4717.000000	65.230178 
4716.000000	65.294623 
4715.000000	65.333962 
4714.000000	65.349149 
4713.000000	65.344882 
4712.000000	65.327906 
4711.000000	65.304756 
4710.000000	65.280604 
4709.000000	65.258240 
4708.000000	65.238142 
4707.000000	65.218782 
4706.000000	65.198755 
4705.000000	65.176773 
4704.000000	65.152835 
4703.000000	65.127682 
4702.000000	65.102195 
4701.000000	65.076971 
4700.000000	65.051841 
4699.000000	65.025901 
4698.000000	64.997696 
4697.000000	64.965724 
4696.000000	64.929389 
4695.000000	64.888691 
4694.000000	64.844298 
4693.000000	64.797496 
4692.000000	64.749574 
4691.000000	64.702463 
4690.000000	64.658498 
4689.000000	64.620590 
4688.000000	64.591526 
4687.000000	64.573979 
4686.000000	64.569830 
4685.000000	64.578723 
4684.000000	64.597678 
4683.000000	64.621233 
4682.000000	64.642643 
4681.000000	64.654755 
4680.000000	64.652276 
4679.000000	64.633131 
4678.000000	64.599323 
4677.000000	64.557504 
4676.000000	64.516806 
4675.000000	64.486122 
4674.000000	64.472460 
4673.000000	64.478850 
4672.000000	64.504671 
4671.000000	64.545512 
4670.000000	64.595437 
4669.000000	64.648628 
4668.000000	64.700722 
4667.000000	64.749360 
4666.000000	64.793801 
4665.000000	64.834094 
4664.000000	64.869451 
4663.000000	64.897489 
4662.000000	64.914298 
4661.000000	64.915370 
4660.000000	64.896965 
4659.000000	64.857554 
4658.000000	64.799332 
4657.000000	64.728426 
4656.000000	64.653420 
4655.000000	64.584589 
4654.000000	64.531016 
4653.000000	64.500141 
4652.000000	64.496803 
4651.000000	64.522767 
4650.000000	64.576816 
4649.000000	64.654827 
4648.000000	64.750361 
4647.000000	64.855003 
4646.000000	64.958596 
4645.000000	65.050983 
4644.000000	65.122771 
4643.000000	65.167474 
4642.000000	65.182328 
4641.000000	65.168929 
4640.000000	65.132880 
4639.000000	65.082502 
4638.000000	65.027546 
4637.000000	64.976453 
4636.000000	64.935302 
4635.000000	64.906454 
4634.000000	64.889121 
4633.000000	64.880442 
4632.000000	64.876985 
4631.000000	64.876079 
4630.000000	64.876508 
4629.000000	64.877939 
4628.000000	64.880442 
4627.000000	64.883017 
4626.000000	64.883446 
4625.000000	64.878177 
4624.000000	64.863181 
4623.000000	64.835429 
4622.000000	64.793968 
4621.000000	64.740729 
4620.000000	64.680576 
4619.000000	64.620113 
4618.000000	64.566826 
4617.000000	64.527320 
4616.000000	64.506554 
4615.000000	64.506030 
4614.000000	64.524745 
4613.000000	64.559769 
4612.000000	64.606881 
4611.000000	64.661526 
4610.000000	64.719200 
4609.000000	64.775753 
4608.000000	64.827299 
4607.000000	64.870262 
4606.000000	64.901518 
4605.000000	64.918446 
4604.000000	64.920210 
4603.000000	64.907646 
4602.000000	64.883375 
4601.000000	64.850997 
4600.000000	64.815020 
4599.000000	64.779329 
4598.000000	64.746499 
4597.000000	64.717078 
4596.000000	64.690256 
4595.000000	64.663934 
4594.000000	64.635276 
4593.000000	64.602375 
4592.000000	64.565205 
4591.000000	64.526319 
4590.000000	64.489936 
4589.000000	64.461779 
4588.000000	64.447140 
4587.000000	64.450168 
4586.000000	64.472150 
4585.000000	64.511394 
4584.000000	64.563298 
4583.000000	64.621520 
4582.000000	64.679288 
4581.000000	64.730858 
4580.000000	64.772415 
4579.000000	64.802408 
4578.000000	64.821290 
4577.000000	64.830803 
4576.000000	64.833068 
4575.000000	64.829421 
4574.000000	64.820337 
4573.000000	64.805817 
4572.000000	64.786601 
4571.000000	64.765405 
4570.000000	64.747309 
4569.000000	64.739537 
4568.000000	64.749622 
4567.000000	64.783811 
4566.000000	64.844298 
4565.000000	64.927911 
4564.000000	65.025806 
4563.000000	65.125489 
4562.000000	65.212607 
4561.000000	65.274286 
4560.000000	65.301752 
4559.000000	65.291929 
4558.000000	65.248465 
4557.000000	65.180683 
4556.000000	65.102314 
4555.000000	65.028524 
4554.000000	64.973735 
4553.000000	64.948916 
4552.000000	64.960551 
4551.000000	65.009808 
4550.000000	65.092277 
4549.000000	65.198922 
4548.000000	65.317726 
4547.000000	65.435194 
4546.000000	65.538096 
4545.000000	65.614986 
4544.000000	65.657687 
4543.000000	65.661692 
4542.000000	65.627169 
4541.000000	65.557527 
4540.000000	65.458488 
4539.000000	65.336942 
4538.000000	65.200924 
4537.000000	65.058779 
4536.000000	64.919185 
4535.000000	64.791059 
4534.000000	64.683175 
4533.000000	64.603471 
4532.000000	64.558553 
4531.000000	64.551663 
4530.000000	64.581179 
4529.000000	64.640808 
4528.000000	64.719963 
4527.000000	64.805173 
4526.000000	64.881825 
4525.000000	64.937257 
4524.000000	64.962744 
4523.000000	64.955115 
4522.000000	64.916944 
4521.000000	64.856100 
4520.000000	64.784097 
4519.000000	64.713549 
4518.000000	64.656329 
4517.000000	64.622330 
4516.000000	64.617991 
4515.000000	64.646244 
4514.000000	64.705657 
4513.000000	64.792275 
4512.000000	64.898395 
4511.000000	65.014219 
4510.000000	65.127730 
4509.000000	65.225720 
4508.000000	65.296030 
4507.000000	65.329122 
4506.000000	65.320611 
4505.000000	65.271353 
4504.000000	65.189123 
4503.000000	65.087747 
4502.000000	64.983701 
4501.000000	64.893198 
4500.000000	64.828276 
4499.000000	64.795088 
4498.000000	64.791727 
4497.000000	64.809560 
4496.000000	64.835357 
4495.000000	64.855504 
4494.000000	64.859366 
4493.000000	64.842271 
4492.000000	64.805746 
4491.000000	64.756870 
4490.000000	64.705133 
4489.000000	64.659833 
4488.000000	64.626479 
4487.000000	64.606404 
4486.000000	64.596438 
4485.000000	64.591264 
4484.000000	64.585685 
4483.000000	64.577174 
4482.000000	64.566969 
4481.000000	64.559864 
4480.000000	64.561891 
4479.000000	64.578843 
4478.000000	64.613533 
4477.000000	64.664983 
4476.000000	64.727306 
4475.000000	64.792656 
4474.000000	64.852881 
4473.000000	64.902234 
4472.000000	64.938735 
4471.000000	64.964365 
4470.000000	64.983773 
4469.000000	65.002846 
4468.000000	65.026426 
4467.000000	65.056085 
4466.000000	65.089440 
4465.000000	65.121102 
4464.000000	65.144038 
4463.000000	65.152716 
4462.000000	65.143942 
4461.000000	65.118503 
4460.000000	65.080213 
4459.000000	65.034508 
4458.000000	64.987349 
4457.000000	64.943456 
4456.000000	64.906406 
4455.000000	64.878368 
4454.000000	64.860057 
4453.000000	64.852499 
4452.000000	64.854550 
4451.000000	64.862680 
4450.000000	64.871287 
4449.000000	64.873290 
4448.000000	64.862442 
4447.000000	64.834570 
4446.000000	64.790391 
4445.000000	64.735555 
4444.000000	64.680337 
4443.000000	64.637017 
4442.000000	64.616179 
4441.000000	64.623236 
4440.000000	64.655876 
4439.000000	64.704370 
4438.000000	64.752745 
4437.000000	64.783811 
4436.000000	64.784741 
4435.000000	64.750838 
4434.000000	64.687538 
4433.000000	64.608335 
4432.000000	64.531970 
4431.000000	64.477419 
4430.000000	64.448547 
4429.000000	64.445567 
4428.000000	64.472246 
4427.000000	64.531707 
4426.000000	64.628195 
4425.000000	64.762997 
4424.000000	64.930105 
4423.000000	65.119314 
4422.000000	65.316820 
4421.000000	65.506958 
4420.000000	65.672898 
4419.000000	65.804052 
4418.000000	65.899252 
4417.000000	65.957641 
4416.000000	65.978169 
4415.000000	65.956759 
4414.000000	65.889000 
4413.000000	65.776419 
4412.000000	65.628528 
4411.000000	65.475416 
4410.000000	65.351104 
4409.000000	65.296101 
4408.000000	65.319991 
4407.000000	65.408635 
4406.000000	65.490221 
4405.000000	65.440106 
4404.000000	65.107488 
4403.000000	64.338755 
4402.000000	63.052654 
4401.000000	61.263489 
4400.000000	59.125661 
4399.000000	56.907892 
4398.000000	54.957365 
4397.000000	53.617668 
4396.000000	53.153729 
4395.000000	53.677248 
4394.000000	55.126142 
4393.000000	57.273602 
4392.000000	59.777808 
4391.000000	62.257337 
4390.000000	64.368247 
4389.000000	65.872454 
4388.000000	66.669440 
4387.000000	66.801738 
4386.000000	66.432046 
4385.000000	65.790271 
4384.000000	65.121483 
4383.000000	64.621686 
4382.000000	64.409351 
4381.000000	64.499592 
4380.000000	64.837574 
4379.000000	65.310287 
4378.000000	65.802645 
4377.000000	66.216826 
4376.000000	66.504645 
4375.000000	66.663885 
4374.000000	66.717791 
4373.000000	66.709375 
4372.000000	66.668939 
4371.000000	66.618323 
4370.000000	66.564154 
4369.000000	66.503858 
4368.000000	66.442871 
4367.000000	66.379570 
4366.000000	66.311621 
4365.000000	66.231870 
4364.000000	66.130852 
4363.000000	66.000962 
4362.000000	65.840077 
4361.000000	65.654397 
4360.000000	65.458059 
4359.000000	65.275907 
4358.000000	65.136623 
4357.000000	65.054750 
4356.000000	65.030264 
4355.000000	65.053033 
4354.000000	65.104985 
4353.000000	65.166950 
4352.000000	65.222692 
4351.000000	65.259838 
4350.000000	65.273952 
4349.000000	65.266656 
4348.000000	65.245318 
4347.000000	65.219235 
4346.000000	65.196847 
4345.000000	65.181589 
4344.000000	65.172791 
4343.000000	65.167355 
4342.000000	65.160298 
4341.000000	65.148043 
4340.000000	65.128564 
4339.000000	65.102624 
4338.000000	65.073084 
4337.000000	65.044236 
4336.000000	65.020608 
4335.000000	65.005373 
4334.000000	65.000343 
4333.000000	65.005397 
4332.000000	65.018272 
4331.000000	65.034961 
4330.000000	65.050673 
4329.000000	65.061211 
4328.000000	65.063261 
4327.000000	65.055751 
4326.000000	65.040540 
4325.000000	65.021920 
4324.000000	65.005350 
4323.000000	64.996409 
4322.000000	64.999437 
4321.000000	65.016317 
4320.000000	65.046453 
4319.000000	65.086364 
4318.000000	65.130734 
4317.000000	65.173578 
4316.000000	65.209555 
4315.000000	65.235018 
4314.000000	65.248584 
4313.000000	65.250802 
4312.000000	65.243768 
4311.000000	65.229725 
4310.000000	65.210533 
4309.000000	65.186834 
4308.000000	65.158367 
4307.000000	65.124249 
4306.000000	65.083909 
4305.000000	65.038132 
4304.000000	64.989447 
4303.000000	64.942002 
4302.000000	64.900851 
4301.000000	64.870619 
4300.000000	64.854955 
4299.000000	64.854764 
4298.000000	64.869046 
4297.000000	64.895129 
4296.000000	64.930009 
4295.000000	64.970731 
4294.000000	65.015077 
4293.000000	65.061497 
4292.000000	65.108418 
4291.000000	65.153956 
4290.000000	65.195155 
4289.000000	65.228080 
4288.000000	65.248203 
4287.000000	65.251588 
4286.000000	65.235590 
4285.000000	65.199804 
4284.000000	65.146446 
4283.000000	65.080308 
4282.000000	65.007472 
4281.000000	64.934325 
4280.000000	64.866280 
4279.000000	64.807033 
4278.000000	64.757823 
4277.000000	64.717841 
4276.000000	64.684867 
4275.000000	64.656424 
4274.000000	64.630270 
4273.000000	64.605498 
4272.000000	64.582204 
4271.000000	64.561724 
4270.000000	64.545512 
4269.000000	64.535474 
4268.000000	64.532423 
4267.000000	64.536714 
4266.000000	64.547371 
4265.000000	64.562988 
4264.000000	64.581394 
4263.000000	64.600849 
4262.000000	64.619708 
4261.000000	64.637422 
4260.000000	64.654159 
4259.000000	64.671158 
4258.000000	64.690065 
4257.000000	64.712738 
4256.000000	64.740467 
4255.000000	64.773321 
4254.000000	64.809727 
4253.000000	64.846301 
4252.000000	64.878487 
4251.000000	64.901018 
4250.000000	64.908981 
4249.000000	64.899396 
4248.000000	64.872026 
4247.000000	64.829182 
4246.000000	64.775395 
4245.000000	64.717292 
4244.000000	64.661836 
4243.000000	64.614701 
4242.000000	64.579772 
4241.000000	64.558219 
4240.000000	64.549517 
4239.000000	64.551734 
4238.000000	64.562869 
4237.000000	64.581203 
4236.000000	64.606308 
4235.000000	64.638900 
4234.000000	64.680337 
4233.000000	64.730954 
4232.000000	64.789605 
4231.000000	64.852976 
4230.000000	64.915537 
4229.000000	64.970421 
4228.000000	65.010905 
4227.000000	65.031909 
4226.000000	65.031003 
4225.000000	65.009450 
4224.000000	64.972305 
4223.000000	64.927721 
4222.000000	64.884972 
4221.000000	64.852976 
4220.000000	64.839196 
4219.000000	64.847731 
4218.000000	64.879441 
4217.000000	64.930605 
4216.000000	64.994502 
4215.000000	65.061450 
4214.000000	65.121054 
4213.000000	65.163064 
4212.000000	65.178537 
4211.000000	65.161919 
4210.000000	65.111923 
4209.000000	65.032815 
4208.000000	64.933681 
4207.000000	64.827513 
4206.000000	64.729022 
4205.000000	64.651489 
4204.000000	64.604687 
4203.000000	64.591622 
4202.000000	64.607930 
4201.000000	64.643144 
4200.000000	64.683413 
4199.000000	64.713668 
4198.000000	64.721155 
4197.000000	64.698028 
4196.000000	64.643144 
4195.000000	64.561247 
4194.000000	64.462304 
4193.000000	64.358282 
4192.000000	64.261627 
4191.000000	64.182758 
4190.000000	64.128947 
4189.000000	64.103460 
4188.000000	64.105963 
4187.000000	64.133691 
4186.000000	64.182257 
4185.000000	64.246439 
4184.000000	64.320516 
4183.000000	64.398717 
4182.000000	64.474725 
4181.000000	64.542007 
4180.000000	64.593195 
4179.000000	64.621448 
4178.000000	64.619374 
4177.000000	64.580965 
4176.000000	64.502239 
4175.000000	64.383530 
4174.000000	64.229774 
4173.000000	64.051198 
4172.000000	63.862991 
4171.000000	63.683891 
4170.000000	63.533425 
4169.000000	63.428926 
4168.000000	63.382434 
4167.000000	63.398814 
4166.000000	63.474011 
4165.000000	63.596820 
4164.000000	63.749837 
4163.000000	63.913917 
4162.000000	64.070034 
4161.000000	64.204049 
4160.000000	64.307355 
4159.000000	64.379048 
4158.000000	64.423251 
4157.000000	64.448595 
4156.000000	64.465022 
4155.000000	64.481306 
4154.000000	64.503550 
4153.000000	64.533400 
4152.000000	64.569640 
4151.000000	64.607882 
4150.000000	64.643263 
4149.000000	64.670705 
4148.000000	64.687037 
4147.000000	64.690542 
4146.000000	64.681601 
4145.000000	64.662194 
4144.000000	64.635705 
4143.000000	64.606738 
4142.000000	64.580392 
4141.000000	64.562511 
4140.000000	64.558553 
4139.000000	64.572501 
4138.000000	64.605879 
4137.000000	64.657402 
4136.000000	64.722847 
4135.000000	64.795780 
4134.000000	64.868593 
4133.000000	64.933657 
4132.000000	64.985227 
4131.000000	65.020728 
4130.000000	65.040469 
4129.000000	65.047192 
4128.000000	65.044593 
4127.000000	65.036749 
4126.000000	65.026354 
4125.000000	65.014576 
4124.000000	65.000772 
4123.000000	64.983606 
4122.000000	64.961719 
4121.000000	64.935135 
4120.000000	64.905095 
4119.000000	64.874196 
4118.000000	64.845252 
4117.000000	64.820861 
4116.000000	64.802408 
4115.000000	64.789628 
4114.000000	64.780902 
4113.000000	64.773631 
4112.000000	64.764809 
4111.000000	64.752054 
4110.000000	64.734148 
4109.000000	64.711380 
4108.000000	64.685058 
4107.000000	64.657711 
4106.000000	64.631772 
4105.000000	64.609980 
4104.000000	64.594769 
4103.000000	64.588117 
4102.000000	64.591145 
4101.000000	64.604330 
4100.000000	64.627528 
4099.000000	64.659619 
4098.000000	64.698433 
4097.000000	64.741158 
4096.000000	64.784479 
4095.000000	64.825129 
4094.000000	64.860367 
4093.000000	64.888501 
4092.000000	64.909100 
4091.000000	64.923000 
4090.000000	64.931988 
4089.000000	64.938354 
4088.000000	64.944148 
4087.000000	64.951086 
4086.000000	64.960169 
4085.000000	64.971613 
4084.000000	64.984726 
4083.000000	64.998936 
4082.000000	65.013432 
4081.000000	65.027356 
4080.000000	65.039658 
4079.000000	65.049338 
4078.000000	65.055370 
4077.000000	65.056920 
4076.000000	65.053701 
4075.000000	65.045905 
4074.000000	65.034556 
4073.000000	65.021371 
4072.000000	65.008330 
4071.000000	64.997482 
4070.000000	64.989948 
4069.000000	64.985966 
4068.000000	64.984226 
4067.000000	64.982318 
4066.000000	64.977407 
4065.000000	64.967083 
4064.000000	64.950013 
4063.000000	64.926624 
4062.000000	64.899206 
4061.000000	64.871740 
4060.000000	64.848852 
4059.000000	64.835023 
4058.000000	64.833760 
4057.000000	64.846611 
4056.000000	64.872884 
4055.000000	64.909362 
4054.000000	64.951133 
4053.000000	64.991855 
4052.000000	65.025305 
4051.000000	65.046119 
4050.000000	65.051031 
4049.000000	65.039420 
4048.000000	65.013122 
4047.000000	64.976024 
4046.000000	64.933490 
4045.000000	64.891028 
4044.000000	64.853429 
4043.000000	64.823913 
4042.000000	64.803767 
4041.000000	64.792752 
4040.000000	64.789557 
4039.000000	64.792418 
4038.000000	64.799571 
4037.000000	64.809775 
4036.000000	64.822435 
4035.000000	64.836859 
4034.000000	64.851999 
4033.000000	64.866209 
4032.000000	64.877438 
4031.000000	64.883470 
4030.000000	64.882445 
4029.000000	64.873743 
4028.000000	64.858007 
4027.000000	64.837098 
4026.000000	64.813518 
4025.000000	64.789843 
4024.000000	64.767575 
4023.000000	64.747214 
4022.000000	64.727902 
4021.000000	64.707827 
4020.000000	64.685273 
4019.000000	64.659309 
4018.000000	64.630818 
4017.000000	64.602375 
4016.000000	64.578199 
4015.000000	64.562702 
4014.000000	64.560103 
4013.000000	64.572954 
4012.000000	64.601826 
4011.000000	64.645123 
4010.000000	64.699578 
4009.000000	64.760875 
4008.000000	64.824366 
4007.000000	64.885854 
4006.000000	64.941954 
4005.000000	64.990162 
4004.000000	65.029144 
4003.000000	65.058088 
4002.000000	65.076708 
4001.000000	65.084910 
4000.000000	65.082907 
3999.000000	65.071201 
3998.000000	65.051054 
3997.000000	65.024399 
3996.000000	64.994239 
3995.000000	64.964175 
3994.000000	64.938426 
3993.000000	64.920759 
3992.000000	64.914035 
3991.000000	64.919352 
3990.000000	64.935898 
3989.000000	64.960670 
3988.000000	64.989042 
3987.000000	65.015769 
3986.000000	65.035986 
3985.000000	65.046620 
3984.000000	65.046954 
3983.000000	65.038990 
3982.000000	65.026521 
3981.000000	65.013980 
3980.000000	65.004944 
3979.000000	65.001058 
3978.000000	65.001535 
3977.000000	65.003466 
3976.000000	65.002942 
3975.000000	64.996123 
3974.000000	64.980602 
3973.000000	64.956760 
3972.000000	64.927697 
3971.000000	64.897966 
3970.000000	64.872813 
3969.000000	64.856433 
3968.000000	64.851117 
3967.000000	64.856123 
3966.000000	64.868593 
3965.000000	64.884161 
3964.000000	64.898467 
3963.000000	64.908337 
3962.000000	64.912462 
3961.000000	64.911413 
3960.000000	64.907455 
3959.000000	64.903521 
3958.000000	64.902830 
3957.000000	64.908123 
3956.000000	64.921426 
3955.000000	64.943528 
3954.000000	64.974188 
3953.000000	65.011930 
3952.000000	65.054392 
3951.000000	65.097928 
3950.000000	65.138173 
3949.000000	65.170192 
3948.000000	65.189290 
3947.000000	65.191674 
3946.000000	65.175151 
3945.000000	65.139794 
3944.000000	65.088486 
3943.000000	65.026235 
3942.000000	64.960074 
3941.000000	64.897274 
3940.000000	64.844441 
3939.000000	64.806222 
3938.000000	64.784669 
3937.000000	64.779090 
3936.000000	64.786624 
3935.000000	64.802980 
3934.000000	64.823627 
3933.000000	64.844822 
3932.000000	64.864158 
3931.000000	64.881253 
3930.000000	64.897179 
3929.000000	64.913725 
3928.000000	64.932203 
3927.000000	64.952778 
3926.000000	64.974021 
3925.000000	64.993023 
3924.000000	65.006375 
3923.000000	65.011119 
3922.000000	65.005445 
3921.000000	64.990067 
3920.000000	64.967370 
3919.000000	64.940762 
3918.000000	64.913582 
3917.000000	64.888191 
3916.000000	64.865303 
3915.000000	64.844012 
3914.000000	64.822578 
3913.000000	64.799523 
3912.000000	64.774584 
3911.000000	64.749455 
3910.000000	64.727425 
3909.000000	64.712834 
3908.000000	64.709234 
3907.000000	64.717793 
3906.000000	64.736533 
3905.000000	64.760279 
3904.000000	64.781785 
3903.000000	64.793682 
3902.000000	64.790487 
3901.000000	64.770293 
3900.000000	64.735651 
3899.000000	64.693427 
3898.000000	64.652943 
3897.000000	64.624428 
3896.000000	64.616560 
3895.000000	64.635014 
3894.000000	64.681172 
3893.000000	64.751839 
3892.000000	64.840245 
3891.000000	64.937019 
3890.000000	65.032362 
3889.000000	65.117049 
3888.000000	65.184044 
3887.000000	65.228986 
3886.000000	65.250658 
3885.000000	65.250563 
3884.000000	65.232229 
3883.000000	65.200209 
3882.000000	65.159940 
3881.000000	65.116095 
3880.000000	65.072607 
3879.000000	65.032124 
3878.000000	64.996528 
3877.000000	64.966535 
3876.000000	64.942479 
3875.000000	64.924263 
3874.000000	64.911937 
3873.000000	64.905524 
3872.000000	64.904952 
3871.000000	64.909672 
3870.000000	64.918637 
3869.000000	64.930367 
3868.000000	64.943242 
3867.000000	64.955568 
3866.000000	64.966082 
3865.000000	64.974260 
3864.000000	64.980411 
3863.000000	64.985346 
3862.000000	64.990258 
3861.000000	64.996457 
3860.000000	65.004467 
3859.000000	65.013861 
3858.000000	65.023374 
3857.000000	65.031528 
3856.000000	65.036916 
3855.000000	65.038585 
3854.000000	65.036606 
3853.000000	65.032148 
3852.000000	65.027117 
3851.000000	65.023779 
3850.000000	65.023303 
3849.000000	65.025424 
3848.000000	65.028476 
3847.000000	65.029788 
3846.000000	65.026044 
3845.000000	65.014553 
3844.000000	64.994120 
3843.000000	64.965271 
3842.000000	64.930343 
3841.000000	64.892625 
3840.000000	64.855623 
3839.000000	64.822173 
3838.000000	64.793825 
3837.000000	64.770674 
3836.000000	64.751911 
3835.000000	64.736223 
3834.000000	64.722466 
3833.000000	64.710044 
3832.000000	64.698958 
3831.000000	64.689922 
3830.000000	64.683699 
3829.000000	64.681148 
3828.000000	64.682316 
3827.000000	64.687395 
3826.000000	64.696311 
3825.000000	64.709615 
3824.000000	64.728093 
3823.000000	64.752626 
3822.000000	64.783620 
3821.000000	64.820337 
3820.000000	64.860606 
3819.000000	64.900636 
3818.000000	64.935636 
3817.000000	64.960741 
3816.000000	64.972352 
3815.000000	64.969062 
3814.000000	64.952468 
3813.000000	64.927196 
3812.000000	64.899849 
3811.000000	64.877915 
3810.000000	64.867568 
3809.000000	64.872741 
3808.000000	64.893531 
3807.000000	64.926242 
3806.000000	64.964222 
3805.000000	64.999461 
3804.000000	65.024852 
3803.000000	65.035724 
3802.000000	65.031337 
3801.000000	65.014553 
3800.000000	64.991331 
3799.000000	64.968633 
3798.000000	64.952898 
3797.000000	64.948248 
3796.000000	64.955687 
3795.000000	64.973092 
3794.000000	64.996027 
3793.000000	65.019106 
3792.000000	65.037751 
3791.000000	65.049386 
3790.000000	65.053319 
3789.000000	65.050911 
3788.000000	65.044879 
3787.000000	65.038347 
3786.000000	65.033531 
3785.000000	65.031456 
3784.000000	65.032219 
3783.000000	65.034675 
3782.000000	65.037703 
3781.000000	65.039825 
3780.000000	65.040063 
3779.000000	65.037941 
3778.000000	65.033364 
3777.000000	65.027046 
3776.000000	65.019893 
3775.000000	65.013504 
3774.000000	65.009689 
3773.000000	65.010333 
3772.000000	65.016841 
3771.000000	65.029644 
3770.000000	65.048003 
3769.000000	65.069293 
3768.000000	65.089273 
3767.000000	65.102744 
3766.000000	65.104579 
3765.000000	65.090799 
3764.000000	65.059471 
3763.000000	65.011596 
3762.000000	64.951109 
3761.000000	64.884233 
3760.000000	64.818334 
3759.000000	64.760446 
3758.000000	64.715957 
3757.000000	64.687681 
3756.000000	64.675784 
3755.000000	64.677906 
3754.000000	64.690327 
3753.000000	64.708971 
3752.000000	64.730787 
3751.000000	64.753723 
3750.000000	64.777898 
3749.000000	64.804267 
3748.000000	64.834976 
3747.000000	64.871621 
3746.000000	64.915108 
3745.000000	64.964985 
3744.000000	65.019416 
3743.000000	65.075373 
3742.000000	65.128970 
3741.000000	65.176105 
3740.000000	65.212988 
3739.000000	65.236783 
3738.000000	65.246081 
3737.000000	65.241050 
3736.000000	65.223574 
3735.000000	65.196752 
3734.000000	65.164804 
3733.000000	65.131711 
3732.000000	65.101480 
3731.000000	65.076541 
3730.000000	65.057945 
3729.000000	65.044903 
3728.000000	65.035676 
3727.000000	65.028047 
3726.000000	65.019822 
3725.000000	65.010046 
3724.000000	64.998865 
3723.000000	64.988017 
3722.000000	64.979934 
3721.000000	64.977407 
3720.000000	64.982175 
3719.000000	64.994740 
3718.000000	65.014028 
3717.000000	65.037369 
3716.000000	65.061020 
3715.000000	65.081214 
3714.000000	65.094947 
3713.000000	65.100455 
3712.000000	65.097427 
3711.000000	65.086984 
3710.000000	65.071368 
3709.000000	65.053033 
3708.000000	65.034437 
3707.000000	65.017724 
3706.000000	65.004611 
3705.000000	64.996290 
3704.000000	64.993262 
3703.000000	64.995336 
3702.000000	65.001559 
3701.000000	65.010523 
3700.000000	65.020370 
3699.000000	65.029239 
3698.000000	65.035724 
3697.000000	65.039038 
3696.000000	65.039062 
3695.000000	65.036201 
3694.000000	65.031290 
3693.000000	65.025067 
3692.000000	65.018153 
3691.000000	65.011000 
3690.000000	65.003752 
3689.000000	64.996576 
3688.000000	64.989662 
3687.000000	64.983510 
3686.000000	64.978766 
3685.000000	64.976096 
3684.000000	64.975976 
3683.000000	64.978432 
3682.000000	64.982771 
3681.000000	64.987659 
3680.000000	64.991545 
3679.000000	64.993000 
3678.000000	64.991164 
3677.000000	64.985990 
3676.000000	64.978218 
3675.000000	64.969396 
3674.000000	64.961504 
3673.000000	64.956450 
3672.000000	64.955735 
3671.000000	64.959979 
3670.000000	64.968919 
3669.000000	64.981150 
3668.000000	64.994668 
3667.000000	65.006756 
3666.000000	65.014839 
3665.000000	65.016841 
3664.000000	65.011525 
3663.000000	64.998888 
3662.000000	64.980030 
3661.000000	64.957189 
3660.000000	64.933276 
3659.000000	64.911293 
3658.000000	64.893746 
3657.000000	64.882040 
3656.000000	64.876222 
3655.000000	64.874815 
3654.000000	64.875626 
3653.000000	64.876103 
3652.000000	64.874243 
3651.000000	64.868927 
3650.000000	64.860510 
3649.000000	64.850544 
3648.000000	64.841699 
3647.000000	64.836692 
3646.000000	64.837646 
3645.000000	64.845800 
3644.000000	64.860939 
3643.000000	64.881753 
3642.000000	64.905953 
3641.000000	64.931058 
3640.000000	64.954686 
3639.000000	64.975261 
3638.000000	64.991688 
3637.000000	65.003395 
3636.000000	65.010356 
3635.000000	65.012741 
3634.000000	65.011239 
3633.000000	65.006732 
3632.000000	65.000629 
3631.000000	64.994740 
3630.000000	64.991044 
3629.000000	64.991021 
3628.000000	64.995503 
3627.000000	65.004205 
3626.000000	65.015602 
3625.000000	65.027189 
3624.000000	65.036082 
3623.000000	65.039634 
3622.000000	65.036201 
3621.000000	65.025711 
3620.000000	65.009570 
3619.000000	64.990472 
3618.000000	64.971637 
3617.000000	64.956331 
3616.000000	64.946651 
3615.000000	64.943814 
3614.000000	64.947724 
3613.000000	64.957618 
3612.000000	64.972329 
3611.000000	64.990615 
3610.000000	65.011429 
3609.000000	65.033793 
3608.000000	65.056681 
3607.000000	65.078926 
3606.000000	65.099096 
3605.000000	65.115404 
3604.000000	65.125966 
3603.000000	65.129232 
3602.000000	65.124464 
3601.000000	65.111994 
3600.000000	65.093493 
3599.000000	65.071892 
3598.000000	65.050649 
3597.000000	65.033173 
3596.000000	65.021800 
3595.000000	65.017366 
3594.000000	65.018630 
3593.000000	65.022754 
3592.000000	65.025901 
3591.000000	65.024185 
3590.000000	65.015029 
3589.000000	64.997744 
3588.000000	64.974212 
3587.000000	64.948201 
3586.000000	64.924645 
3585.000000	64.908361 
3584.000000	64.902639 
3583.000000	64.908027 
3582.000000	64.922380 
3581.000000	64.941287 
3580.000000	64.959359 
3579.000000	64.971804 
3578.000000	64.975452 
3577.000000	64.969706 
3576.000000	64.956188 
3575.000000	64.938044 
3574.000000	64.918756 
3573.000000	64.901018 
3572.000000	64.885950 
3571.000000	64.873194 
3570.000000	64.861392 
3569.000000	64.849066 
3568.000000	64.835739 
3567.000000	64.822387 
3566.000000	64.811444 
3565.000000	64.806342 
3564.000000	64.810013 
3563.000000	64.824485 
3562.000000	64.849376 
3561.000000	64.882397 
3560.000000	64.919590 
3559.000000	64.956474 
3558.000000	64.989113 
3557.000000	65.014696 
3556.000000	65.032052 
3555.000000	65.041661 
3554.000000	65.045261 
3553.000000	65.045118 
3552.000000	65.043640 
3551.000000	65.042877 
3550.000000	65.044236 
3549.000000	65.048456 
3548.000000	65.055656 
3547.000000	65.065479 
3546.000000	65.076971 
3545.000000	65.088844 
3544.000000	65.099549 
3543.000000	65.107417 
3542.000000	65.110874 
3541.000000	65.109062 
3540.000000	65.101647 
3539.000000	65.089559 
3538.000000	65.074300 
3537.000000	65.057611 
3536.000000	65.041351 
3535.000000	65.026950 
3534.000000	65.015888 
3533.000000	65.009307 
3532.000000	65.008330 
3531.000000	65.014052 
3530.000000	65.027117 
3529.000000	65.047454 
3528.000000	65.073657 
3527.000000	65.103244 
3526.000000	65.132594 
3525.000000	65.157866 
3524.000000	65.175485 
3523.000000	65.182852 
3522.000000	65.179061 
3521.000000	65.164947 
3520.000000	65.142631 
3519.000000	65.115070 
3518.000000	65.085196 
3517.000000	65.055370 
3516.000000	65.026974 
3515.000000	65.000581 
3514.000000	64.976501 
3513.000000	64.955043 
3512.000000	64.937257 
3511.000000	64.924550 
3510.000000	64.918422 
3509.000000	64.920067 
3508.000000	64.929533 
3507.000000	64.946007 
3506.000000	64.967465 
3505.000000	64.991474 
3504.000000	65.015625 
3503.000000	65.037894 
3502.000000	65.057039 
3501.000000	65.072512 
3500.000000	65.084362 
3499.000000	65.092706 
3498.000000	65.097403 
3497.000000	65.097832 
3496.000000	65.092849 
3495.000000	65.081071 
3494.000000	65.061283 
3493.000000	65.032911 
3492.000000	64.996433 
3491.000000	64.953923 
3490.000000	64.909005 
3489.000000	64.866065 
3488.000000	64.830040 
3487.000000	64.805173 
3486.000000	64.794826 
3485.000000	64.800524 
3484.000000	64.821982 
3483.000000	64.857053 
3482.000000	64.901995 
3481.000000	64.952158 
3480.000000	65.002393 
3479.000000	65.047478 
3478.000000	65.082931 
3477.000000	65.105628 
3476.000000	65.114021 
3475.000000	65.108275 
3474.000000	65.090274 
3473.000000	65.063595 
3472.000000	65.032649 
3471.000000	65.001964 
3470.000000	64.975404 
3469.000000	64.955377 
3468.000000	64.942216 
3467.000000	64.934372 
3466.000000	64.928793 
3465.000000	64.921712 
3464.000000	64.909982 
3463.000000	64.891743 
3462.000000	64.866828 
3461.000000	64.836907 
3460.000000	64.804387 
3459.000000	64.772319 
3458.000000	64.743065 
3457.000000	64.718699 
3456.000000	64.700245 
3455.000000	64.688706 
3454.000000	64.685034 
3453.000000	64.690566 
3452.000000	64.706707 
3451.000000	64.734625 
3450.000000	64.774131 
3449.000000	64.823627 
3448.000000	64.879703 
3447.000000	64.937233 
3446.000000	64.990043 
3445.000000	65.032434 
3444.000000	65.060186 
3443.000000	65.071463 
3442.000000	65.067195 
3441.000000	65.050172 
3440.000000	65.024232 
3439.000000	64.993381 
3438.000000	64.960980 
3437.000000	64.929103 
3436.000000	64.898657 
3435.000000	64.870095 
3434.000000	64.844083 
3433.000000	64.821743 
3432.000000	64.805006 
3431.000000	64.795970 
3430.000000	64.796948 
3429.000000	64.809346 
3428.000000	64.833569 
3427.000000	64.868187 
3426.000000	64.910149 
3425.000000	64.954972 
3424.000000	64.997291 
3423.000000	65.031886 
3422.000000	65.054440 
3421.000000	65.062332 
3420.000000	65.054941 
3419.000000	65.033769 
3418.000000	65.002393 
3417.000000	64.965844 
3416.000000	64.929986 
3415.000000	64.900422 
3414.000000	64.882063 
3413.000000	64.878225 
3412.000000	64.890050 
3411.000000	64.916038 
3410.000000	64.952230 
3409.000000	64.992785 
3408.000000	65.030765 
3407.000000	65.059828 
3406.000000	65.074968 
3405.000000	65.073990 
3404.000000	65.057492 
3403.000000	65.029168 
3402.000000	64.994525 
3401.000000	64.959931 
3400.000000	64.931178 
3399.000000	64.912295 
3398.000000	64.905095 
3397.000000	64.908957 
3396.000000	64.921522 
3395.000000	64.939546 
3394.000000	64.959931 
3393.000000	64.980149 
3392.000000	64.998579 
3391.000000	65.014338 
3390.000000	65.027356 
3389.000000	65.037608 
3388.000000	65.044879 
3387.000000	65.049433 
3386.000000	65.051507 
3385.000000	65.052247 
3384.000000	65.052866 
3383.000000	65.054464 
3382.000000	65.057206 
3381.000000	65.060424 
3380.000000	65.062427 
3379.000000	65.060567 
3378.000000	65.052247 
3377.000000	65.035533 
3376.000000	65.010404 
3375.000000	64.978837 
3374.000000	64.944982 
3373.000000	64.914131 
3372.000000	64.891552 
3371.000000	64.880990 
3370.000000	64.883828 
3369.000000	64.898610 
3368.000000	64.921402 
3367.000000	64.946746 
3366.000000	64.968943 
3365.000000	64.983391 
3364.000000	64.987206 
3363.000000	64.979624 
3362.000000	64.961743 
3361.000000	64.936041 
3360.000000	64.906167 
3359.000000	64.876294 
3358.000000	64.850568 
3357.000000	64.832496 
3356.000000	64.825105 
3355.000000	64.830136 
3354.000000	64.847731 
3353.000000	64.876461 
3352.000000	64.912939 
3351.000000	64.952683 
3350.000000	64.990544 
3349.000000	65.021800 
3348.000000	65.043044 
3347.000000	65.052628 
3346.000000	65.051412 
3345.000000	65.041828 
3344.000000	65.027213 
3343.000000	65.010762 
3342.000000	64.995169 
3341.000000	64.981865 
3340.000000	64.971160 
3339.000000	64.962649 
3338.000000	64.955806 
3337.000000	64.950132 
3336.000000	64.945363 
3335.000000	64.941024 
3334.000000	64.936518 
3333.000000	64.930582 
3332.000000	64.921712 
3331.000000	64.907956 
3330.000000	64.887762 
3329.000000	64.860534 
3328.000000	64.827132 
3327.000000	64.789915 
3326.000000	64.752697 
3325.000000	64.719843 
3324.000000	64.695525 
3323.000000	64.682531 
3322.000000	64.682221 
3321.000000	64.693951 
3320.000000	64.715504 
3319.000000	64.743876 
3318.000000	64.775633 
3317.000000	64.807677 
3316.000000	64.837479 
3315.000000	64.863324 
3314.000000	64.884185 
3313.000000	64.899587 
3312.000000	64.909553 
3311.000000	64.914321 
3310.000000	64.914345 
3309.000000	64.910268 
3308.000000	64.903068 
3307.000000	64.893841 
3306.000000	64.883995 
3305.000000	64.874744 
3304.000000	64.866924 
3303.000000	64.860677 
3302.000000	64.855384 
3301.000000	64.849805 
3300.000000	64.842271 
3299.000000	64.831781 
3298.000000	64.818024 
3297.000000	64.802336 
3296.000000	64.787387 
3295.000000	64.777112 
3294.000000	64.775490 
3293.000000	64.785742 
3292.000000	64.809608 
3291.000000	64.846324 
3290.000000	64.892411 
3289.000000	64.942336 
3288.000000	64.989471 
3287.000000	65.027284 
3286.000000	65.050911 
3285.000000	65.057849 
3284.000000	65.048384 
3283.000000	65.025281 
3282.000000	64.992952 
3281.000000	64.956474 
3280.000000	64.920353 
3279.000000	64.887857 
3278.000000	64.860558 
3277.000000	64.838528 
3276.000000	64.820790 
3275.000000	64.805865 
3274.000000	64.792776 
3273.000000	64.780759 
3272.000000	64.770317 
3271.000000	64.762210 
3270.000000	64.758205 
3269.000000	64.759731 
3268.000000	64.768433 
3267.000000	64.785122 
3266.000000	64.810061 
3265.000000	64.842605 
3264.000000	64.880871 
3263.000000	64.922213 
3262.000000	64.963030 
3261.000000	64.999413 
3260.000000	65.027809 
3259.000000	65.045452 
3258.000000	65.051150 
3257.000000	65.045380 
3256.000000	65.030598 
3255.000000	65.010690 
3254.000000	64.989852 
3253.000000	64.971661 
3252.000000	64.958214 
3251.000000	64.949584 
3250.000000	64.943909 
3249.000000	64.938163 
3248.000000	64.929318 
3247.000000	64.915561 
3246.000000	64.897108 
3245.000000	64.876222 
3244.000000	64.856815 
3243.000000	64.843201 
3242.000000	64.838695 
3241.000000	64.844703 
3240.000000	64.859938 
3239.000000	64.881205 
3238.000000	64.903807 
3237.000000	64.923310 
3236.000000	64.936780 
3235.000000	64.943408 
3234.000000	64.944839 
3233.000000	64.944219 
3232.000000	64.945101 
3231.000000	64.950037 
3230.000000	64.959478 
3229.000000	64.971423 
3228.000000	64.982008 
3227.000000	64.986681 
3226.000000	64.981460 
3225.000000	64.964127 
3224.000000	64.935064 
3223.000000	64.897155 
3222.000000	64.855146 
3221.000000	64.814519 
3220.000000	64.780187 
3219.000000	64.755702 
3218.000000	64.742374 
3217.000000	64.739441 
3216.000000	64.744353 
3215.000000	64.753866 
3214.000000	64.764952 
3213.000000	64.775061 
3212.000000	64.783024 
3211.000000	64.788556 
3210.000000	64.792442 
3209.000000	64.795589 
3208.000000	64.799284 
3207.000000	64.804387 
3206.000000	64.811754 
3205.000000	64.821958 
3204.000000	64.835286 
3203.000000	64.851784 
3202.000000	64.870643 
3201.000000	64.890193 
3200.000000	64.907813 
3199.000000	64.920306 
3198.000000	64.924621 
3197.000000	64.918780 
3196.000000	64.902472 
3195.000000	64.877581 
3194.000000	64.848375 
3193.000000	64.820575 
3192.000000	64.800477 
3191.000000	64.793205 
3190.000000	64.801430 
3189.000000	64.824843 
3188.000000	64.860105 
3187.000000	64.901757 
3186.000000	64.943528 
3185.000000	64.979982 
3184.000000	65.007519 
3183.000000	65.025281 
3182.000000	65.034627 
3181.000000	65.038919 
3180.000000	65.041732 
3179.000000	65.046405 
3178.000000	65.054869 
3177.000000	65.067529 
3176.000000	65.083241 
3175.000000	65.099358 
3174.000000	65.112662 
3173.000000	65.119647 
3172.000000	65.117645 
3171.000000	65.105128 
3170.000000	65.082287 
3169.000000	65.050745 
3168.000000	65.013766 
3167.000000	64.975476 
3166.000000	64.940595 
3165.000000	64.913272 
3164.000000	64.896655 
3163.000000	64.892220 
3162.000000	64.899611 
3161.000000	64.916658 
3160.000000	64.939880 
3159.000000	64.965176 
3158.000000	64.988780 
3157.000000	65.007591 
3156.000000	65.020179 
3155.000000	65.026521 
3154.000000	65.028071 
3153.000000	65.026855 
3152.000000	65.025067 
3151.000000	65.024566 
3150.000000	65.026330 
3149.000000	65.030336 
3148.000000	65.035581 
3147.000000	65.040469 
3146.000000	65.043306 
3145.000000	65.042734 
3144.000000	65.037846 
3143.000000	65.028429 
3142.000000	65.014743 
3141.000000	64.997506 
3140.000000	64.977717 
3139.000000	64.956545 
3138.000000	64.934968 
3137.000000	64.913964 
3136.000000	64.894223 
3135.000000	64.876651 
3134.000000	64.861893 
3133.000000	64.851093 
3132.000000	64.845132 
3131.000000	64.845108 
3130.000000	64.851689 
3129.000000	64.865112 
3128.000000	64.884734 
3127.000000	64.909005 
3126.000000	64.935493 
3125.000000	64.961361 
3124.000000	64.983940 
3123.000000	65.001082 
3122.000000	65.011954 
3121.000000	65.017199 
3120.000000	65.018796 
3119.000000	65.019607 
3118.000000	65.022611 
3117.000000	65.029811 
3116.000000	65.041756 
3115.000000	65.057134 
3114.000000	65.073108 
3113.000000	65.085983 
3112.000000	65.092086 
3111.000000	65.089035 
3110.000000	65.076255 
3109.000000	65.055131 
3108.000000	65.028953 
3107.000000	65.001821 
3106.000000	64.977931 
3105.000000	64.960741 
3104.000000	64.952325 
3103.000000	64.952921 
3102.000000	64.961504 
3101.000000	64.975976 
3100.000000	64.993929 
3099.000000	65.013265 
3098.000000	65.032434 
3097.000000	65.050411 
3096.000000	65.066814 
3095.000000	65.081429 
3094.000000	65.094232 
3093.000000	65.104937 
3092.000000	65.113401 
3091.000000	65.119361 
3090.000000	65.122938 
3089.000000	65.124654 
3088.000000	65.125465 
3087.000000	65.126442 
3086.000000	65.128684 
3085.000000	65.132641 
3084.000000	65.138411 
3083.000000	65.144824 
3082.000000	65.150046 
3081.000000	65.151476 
3080.000000	65.146660 
3079.000000	65.133738 
3078.000000	65.112066 
3077.000000	65.082740 
3076.000000	65.048384 
3075.000000	65.013146 
3074.000000	64.981651 
3073.000000	64.958333 
3072.000000	64.946556 
3071.000000	64.947867 
3070.000000	64.961838 
3069.000000	64.986038 
3068.000000	65.016460 
3067.000000	65.048027 
3066.000000	65.075635 
3065.000000	65.094709 
3064.000000	65.101981 
3063.000000	65.095925 
3062.000000	65.077161 
3061.000000	65.048003 
3060.000000	65.012311 
3059.000000	64.974808 
3058.000000	64.940357 
3057.000000	64.913368 
3056.000000	64.896893 
3055.000000	64.892411 
3054.000000	64.899659 
3053.000000	64.916777 
3052.000000	64.940857 
3051.000000	64.968347 
3050.000000	64.995718 
3049.000000	65.020060 
3048.000000	65.039515 
3047.000000	65.052890 
3046.000000	65.060377 
3045.000000	65.062832 
3044.000000	65.061783 
3043.000000	65.059065 
3042.000000	65.056562 
3041.000000	65.055966 
3040.000000	65.058326 
3039.000000	65.063858 
3038.000000	65.072035 
3037.000000	65.081429 
3036.000000	65.090155 
3035.000000	65.096187 
3034.000000	65.097737 
3033.000000	65.093803 
3032.000000	65.084266 
3031.000000	65.070033 
3030.000000	65.052843 
3029.000000	65.035009 
3028.000000	65.018653 
3027.000000	65.005493 
3026.000000	64.996719 
3025.000000	64.992833 
3024.000000	64.993858 
3023.000000	64.999461 
3022.000000	65.009212 
3021.000000	65.022635 
3020.000000	65.039277 
3019.000000	65.058422 
3018.000000	65.078735 
3017.000000	65.098643 
3016.000000	65.116381 
3015.000000	65.130305 
3014.000000	65.139150 
3013.000000	65.142655 
3012.000000	65.141630 
3011.000000	65.137982 
3010.000000	65.134143 
3009.000000	65.132784 
3008.000000	65.136051 
3007.000000	65.144944 
3006.000000	65.159320 
3005.000000	65.177774 
3004.000000	65.198254 
3003.000000	65.218424 
3002.000000	65.236401 
3001.000000	65.251350 
3000.000000	65.263199 
2999.000000	65.272760 
2998.000000	65.281081 
2997.000000	65.288901 
2996.000000	65.296125 
2995.000000	65.301918 
2994.000000	65.304541 
2993.000000	65.302276 
2992.000000	65.293574 
2991.000000	65.277934 
2990.000000	65.255737 
2989.000000	65.228676 
2988.000000	65.199017 
2987.000000	65.169191 
2986.000000	65.141582 
2985.000000	65.118026 
2984.000000	65.099644 
2983.000000	65.086698 
2982.000000	65.078997 
2981.000000	65.075945 
2980.000000	65.076684 
2979.000000	65.080118 
2978.000000	65.085029 
2977.000000	65.089964 
2976.000000	65.093398 
2975.000000	65.093851 
2974.000000	65.090012 
2973.000000	65.081167 
2972.000000	65.067219 
2971.000000	65.048646 
2970.000000	65.026402 
2969.000000	65.001654 
2968.000000	64.975738 
2967.000000	64.949774 
2966.000000	64.924931 
2965.000000	64.902257 
2964.000000	64.882779 
2963.000000	64.867115 
2962.000000	64.855480 
2961.000000	64.847517 
2960.000000	64.842367 
2959.000000	64.838910 
2958.000000	64.835786 
2957.000000	64.831924 
2956.000000	64.826703 
2955.000000	64.819860 
2954.000000	64.811706 
2953.000000	64.802813 
2952.000000	64.794206 
2951.000000	64.786696 
2950.000000	64.781141 
2949.000000	64.778113 
2948.000000	64.777898 
2947.000000	64.780592 
2946.000000	64.785861 
2945.000000	64.793133 
2944.000000	64.801597 
2943.000000	64.810204 
2942.000000	64.817976 
2941.000000	64.824151 
2940.000000	64.828491 
2939.000000	64.831042 
2938.000000	64.832496 
2937.000000	64.833998 
2936.000000	64.836573 
2935.000000	64.840817 
2934.000000	64.846563 
2933.000000	64.852952 
2932.000000	64.858412 
2931.000000	64.861154 
2930.000000	64.859700 
2929.000000	64.853239 
2928.000000	64.841914 
2927.000000	64.826774 
2926.000000	64.809417 
2925.000000	64.791607 
2924.000000	64.774894 
2923.000000	64.760279 
2922.000000	64.747929 
2921.000000	64.737439 
2920.000000	64.728069 
2919.000000	64.719414 
2918.000000	64.711499 
2917.000000	64.705085 
2916.000000	64.701461 
2915.000000	64.702272 
2914.000000	64.708805 
2913.000000	64.721727 
2912.000000	64.740514 
2911.000000	64.763665 
2910.000000	64.788651 
2909.000000	64.812660 
2908.000000	64.833068 
2907.000000	64.848113 
2906.000000	64.857292 
2905.000000	64.861416 
2904.000000	64.862442 
2903.000000	64.862847 
2902.000000	64.864897 
2901.000000	64.869832 
2900.000000	64.877367 
2899.000000	64.885830 
2898.000000	64.892339 
2897.000000	64.893841 
2896.000000	64.887881 
2895.000000	64.873409 
2894.000000	64.851403 
2893.000000	64.824461 
2892.000000	64.796519 
2891.000000	64.771914 
2890.000000	64.754223 
2889.000000	64.745616 
2888.000000	64.746594 
2887.000000	64.755702 
2886.000000	64.770364 
2885.000000	64.787483 
2884.000000	64.804434 
2883.000000	64.819526 
2882.000000	64.832282 
2881.000000	64.843153 
2880.000000	64.853239 
2879.000000	64.863371 
2878.000000	64.873909 
2877.000000	64.884519 
2876.000000	64.894151 
2875.000000	64.901304 
2874.000000	64.904570 
2873.000000	64.903068 
2872.000000	64.896655 
2871.000000	64.886140 
2870.000000	64.873099 
2869.000000	64.859557 
2868.000000	64.847540 
2867.000000	64.838528 
2866.000000	64.833235 
2865.000000	64.831352 
2864.000000	64.831829 
2863.000000	64.833211 
2862.000000	64.833927 
2861.000000	64.832901 
2860.000000	64.829969 
2859.000000	64.825987 
2858.000000	64.822435 
2857.000000	64.821195 
2856.000000	64.824080 
2855.000000	64.831995 
2854.000000	64.844822 
2853.000000	64.860892 
2852.000000	64.877486 
2851.000000	64.891505 
2850.000000	64.900135 
2849.000000	64.901685 
2848.000000	64.895749 
2847.000000	64.883542 
2846.000000	64.867615 
2845.000000	64.851093 
2844.000000	64.837145 
2843.000000	64.828324 
2842.000000	64.826011 
2841.000000	64.830613 
2840.000000	64.841437 
2839.000000	64.857196 
2838.000000	64.876484 
2837.000000	64.898180 
2836.000000	64.921641 
2835.000000	64.946770 
2834.000000	64.973950 
2833.000000	65.003395 
2832.000000	65.034961 
2831.000000	65.067791 
2830.000000	65.100169 
2829.000000	65.129709 
2828.000000	65.153694 
2827.000000	65.169763 
2826.000000	65.176081 
2825.000000	65.171957 
2824.000000	65.157794 
2823.000000	65.135121 
2822.000000	65.106320 
2821.000000	65.074467 
2820.000000	65.042972 
2819.000000	65.015268 
2818.000000	64.994740 
2817.000000	64.984011 
2816.000000	64.984917 
2815.000000	64.998102 
2814.000000	65.022659 
2813.000000	65.056276 
2812.000000	65.095210 
2811.000000	65.134811 
2810.000000	65.170145 
2809.000000	65.196800 
2808.000000	65.211606 
2807.000000	65.213346 
2806.000000	65.202426 
2805.000000	65.181040 
2804.000000	65.152478 
2803.000000	65.120410 
2802.000000	65.088176 
2801.000000	65.058374 
2800.000000	65.032887 
2799.000000	65.012550 
2798.000000	64.997625 
2797.000000	64.987969 
2796.000000	64.983367 
2795.000000	64.983487 
2794.000000	64.988183 
2793.000000	64.997386 
2792.000000	65.010976 
2791.000000	65.028738 
2790.000000	65.050077 
2789.000000	65.073800 
2788.000000	65.097999 
2787.000000	65.120387 
2786.000000	65.138363 
2785.000000	65.149283 
2784.000000	65.151143 
2783.000000	65.142989 
2782.000000	65.125250 
2781.000000	65.100002 
2780.000000	65.070605 
2779.000000	65.041303 
2778.000000	65.016150 
2777.000000	64.998626 
2776.000000	64.990687 
2775.000000	64.992380 
2774.000000	65.001869 
2773.000000	65.015959 
2772.000000	65.030813 
2771.000000	65.042853 
2770.000000	65.049314 
2769.000000	65.048909 
2768.000000	65.041732 
2767.000000	65.029430 
2766.000000	65.014576 
2765.000000	65.000200 
2764.000000	64.989376 
2763.000000	64.984583 
2762.000000	64.987730 
2761.000000	64.999532 
2760.000000	65.019893 
2759.000000	65.047335 
2758.000000	65.079355 
2757.000000	65.112471 
2756.000000	65.142607 
2755.000000	65.165686 
2754.000000	65.178394 
2753.000000	65.178894 
2752.000000	65.167069 
2751.000000	65.144634 
2750.000000	65.115022 
2749.000000	65.082454 
2748.000000	65.051460 
2747.000000	65.025830 
2746.000000	65.008020 
2745.000000	64.998769 
2744.000000	64.997482 
2743.000000	65.002250 
2742.000000	65.010643 
2741.000000	65.020179 
2740.000000	65.029144 
2739.000000	65.036678 
2738.000000	65.042972 
2737.000000	65.048861 
2736.000000	65.055346 
2735.000000	65.063285 
2734.000000	65.072846 
2733.000000	65.083575 
2732.000000	65.094208 
2731.000000	65.103220 
2730.000000	65.108990 
2729.000000	65.110230 
2728.000000	65.106225 
2727.000000	65.097188 
2726.000000	65.084028 
2725.000000	65.068030 
2724.000000	65.050625 
2723.000000	65.033292 
2722.000000	65.017294 
2721.000000	65.003633 
2720.000000	64.993095 
2719.000000	64.986276 
2718.000000	64.983725 
2717.000000	64.986014 
2716.000000	64.993476 
2715.000000	65.006017 
2714.000000	65.023016 
2713.000000	65.043258 
2712.000000	65.065050 
2711.000000	65.086531 
2710.000000	65.105962 
2709.000000	65.121769 
2708.000000	65.132927 
2707.000000	65.138936 
2706.000000	65.139818 
2705.000000	65.135717 
2704.000000	65.126967 
2703.000000	65.113973 
2702.000000	65.096998 
2701.000000	65.076375 
2700.000000	65.052795 
2699.000000	65.027451 
2698.000000	65.002083 
2697.000000	64.979290 
2696.000000	64.961957 
2695.000000	64.953279 
2694.000000	64.955687 
2693.000000	64.970707 
2692.000000	64.998149 
2691.000000	65.036010 
2690.000000	65.080499 
2689.000000	65.126681 
2688.000000	65.169167 
2687.000000	65.203309 
2686.000000	65.225911 
2685.000000	65.236091 
2684.000000	65.235257 
2683.000000	65.226650 
2682.000000	65.214395 
2681.000000	65.202641 
2680.000000	65.194034 
2679.000000	65.189409 
2678.000000	65.187644 
2677.000000	65.186262 
2676.000000	65.182375 
2675.000000	65.173864 
2674.000000	65.160083 
2673.000000	65.142083 
2672.000000	65.122532 
2671.000000	65.104985 
2670.000000	65.092825 
2669.000000	65.088248 
2668.000000	65.091562 
2667.000000	65.101194 
2666.000000	65.113997 
2665.000000	65.126132 
2664.000000	65.133976 
2663.000000	65.135169 
2662.000000	65.128970 
2661.000000	65.116357 
2660.000000	65.099501 
2659.000000	65.081048 
2658.000000	65.063810 
2657.000000	65.049695 
2656.000000	65.039634 
2655.000000	65.033268 
2654.000000	65.029740 
2653.000000	65.027642 
2652.000000	65.025925 
2651.000000	65.024065 
2650.000000	65.022063 
2649.000000	65.020871 
2648.000000	65.021729 
2647.000000	65.025925 
2646.000000	65.034198 
2645.000000	65.046572 
2644.000000	65.062332 
2643.000000	65.079784 
2642.000000	65.096855 
2641.000000	65.111255 
2640.000000	65.121221 
2639.000000	65.125727 
2638.000000	65.124678 
2637.000000	65.118622 
2636.000000	65.108990 
2635.000000	65.097403 
2634.000000	65.085315 
2633.000000	65.073537 
2632.000000	65.062308 
2631.000000	65.051221 
2630.000000	65.039467 
2629.000000	65.026402 
2628.000000	65.011858 
2627.000000	64.996337 
2626.000000	64.981126 
2625.000000	64.968156 
2624.000000	64.959502 
2623.000000	64.956688 
2622.000000	64.960479 
2621.000000	64.970350 
2620.000000	64.984774 
2619.000000	65.001416 
2618.000000	65.017914 
2617.000000	65.032005 
2616.000000	65.042567 
2615.000000	65.049576 
2614.000000	65.054106 
2613.000000	65.057826 
2612.000000	65.062499 
2611.000000	65.069270 
2610.000000	65.078473 
2609.000000	65.089392 
2608.000000	65.100550 
2607.000000	65.110301 
2606.000000	65.117239 
2605.000000	65.120673 
2604.000000	65.120482 
2603.000000	65.117311 
2602.000000	65.112233 
2601.000000	65.106534 
2600.000000	65.101337 
2599.000000	65.097546 
2598.000000	65.095877 
2597.000000	65.096545 
2596.000000	65.099501 
2595.000000	65.104222 
2594.000000	65.109848 
2593.000000	65.115284 
2592.000000	65.119242 
2591.000000	65.120506 
2590.000000	65.118360 
2589.000000	65.112876 
2588.000000	65.104913 
2587.000000	65.096187 
2586.000000	65.088844 
2585.000000	65.084934 
2584.000000	65.085601 
2583.000000	65.091133 
2582.000000	65.100550 
2581.000000	65.112113 
2580.000000	65.123796 
2579.000000	65.133881 
2578.000000	65.141606 
2577.000000	65.147137 
2576.000000	65.151453 
2575.000000	65.155792 
2574.000000	65.161013 
2573.000000	65.167188 
2572.000000	65.173459 
2571.000000	65.178132 
2570.000000	65.179276 
2569.000000	65.175366 
2568.000000	65.165901 
2567.000000	65.151572 
2566.000000	65.134477 
2565.000000	65.117406 
2564.000000	65.103554 
2563.000000	65.095353 
2562.000000	65.094518 
2561.000000	65.101647 
2560.000000	65.116286 
2559.000000	65.137314 
2558.000000	65.163135 
2557.000000	65.191912 
2556.000000	65.221691 
2555.000000	65.250587 
2554.000000	65.276646 
2553.000000	65.298032 
2552.000000	65.313076 
2551.000000	65.320563 
2550.000000	65.320062 
2549.000000	65.311884 
2548.000000	65.297293 
2547.000000	65.278410 
2546.000000	65.257859 
2545.000000	65.238380 
2544.000000	65.222191 
2543.000000	65.210413 
2542.000000	65.203380 
2541.000000	65.200161 
2540.000000	65.199232 
2539.000000	65.198755 
2538.000000	65.197086 
2537.000000	65.193343 
2536.000000	65.187335 
2535.000000	65.179753 
2534.000000	65.171885 
2533.000000	65.165138 
2532.000000	65.160822 
2531.000000	65.159559 
2530.000000	65.161037 
2529.000000	65.164256 
2528.000000	65.167784 
2527.000000	65.170168 
2526.000000	65.170550 
2525.000000	65.168666 
2524.000000	65.164899 
2523.000000	65.160155 
2522.000000	65.155243 
2521.000000	65.150618 
2520.000000	65.146017 
2519.000000	65.140604 
2518.000000	65.133094 
2517.000000	65.122461 
2516.000000	65.108108 
2515.000000	65.090155 
2514.000000	65.069675 
2513.000000	65.048289 
2512.000000	65.028190 
2511.000000	65.011096 
2510.000000	64.998531 
2509.000000	64.991164 
2508.000000	64.989209 
2507.000000	64.992499 
2506.000000	65.000700 
2505.000000	65.013408 
2504.000000	65.030169 
2503.000000	65.050482 
2502.000000	65.073370 
2501.000000	65.097308 
2500.000000	65.120196 
2499.000000	65.139412 
2498.000000	65.152430 
2497.000000	65.157628 
2496.000000	65.154480 
2495.000000	65.144109 
2494.000000	65.129160 
2493.000000	65.113425 
2492.000000	65.100955 
2491.000000	65.095281 
2490.000000	65.098762 
2489.000000	65.112018 
2488.000000	65.133666 
2487.000000	65.160989 
2486.000000	65.190505 
2485.000000	65.218496 
2484.000000	65.241909 
2483.000000	65.258383 
2482.000000	65.266656 
2481.000000	65.266299 
2480.000000	65.257310 
2479.000000	65.240240 
2478.000000	65.216040 
2477.000000	65.186357 
2476.000000	65.153694 
2475.000000	65.121316 
2474.000000	65.092921 
2473.000000	65.072131 
2472.000000	65.061902 
2471.000000	65.063476 
2470.000000	65.076231 
2469.000000	65.097880 
2468.000000	65.124940 
2467.000000	65.153479 
2466.000000	65.179824 
2465.000000	65.201449 
2464.000000	65.217161 
2463.000000	65.227031 
2462.000000	65.231943 
2461.000000	65.233159 
2460.000000	65.231847 
2459.000000	65.228843 
2458.000000	65.224504 
2457.000000	65.219235 
2456.000000	65.213370 
2455.000000	65.207600 
2454.000000	65.202474 
2453.000000	65.199112 
2452.000000	65.198016 
2451.000000	65.198802 
2450.000000	65.200138 
2449.000000	65.200090 
2448.000000	65.196609 
2447.000000	65.188097 
2446.000000	65.173721 
2445.000000	65.153408 
2444.000000	65.128684 
2443.000000	65.102362 
2442.000000	65.077662 
2441.000000	65.057563 
2440.000000	65.044426 
2439.000000	65.039587 
2438.000000	65.043044 
2437.000000	65.053701 
2436.000000	65.069603 
2435.000000	65.088391 
2434.000000	65.108227 
2433.000000	65.127062 
2432.000000	65.143227 
2431.000000	65.154242 
2430.000000	65.157389 
2429.000000	65.148806 
2428.000000	65.124440 
2427.000000	65.080928 
2426.000000	65.016388 
2425.000000	64.932847 
2424.000000	64.835810 
2423.000000	64.735937 
2422.000000	64.647102 
2421.000000	64.585161 
2420.000000	64.564228 
2419.000000	64.594173 
2418.000000	64.677572 
2417.000000	64.808702 
2416.000000	64.974093 
2415.000000	65.154743 
2414.000000	65.329384 
2413.000000	65.478444 
2412.000000	65.587258 
2411.000000	65.648150 
2410.000000	65.660929 
2409.000000	65.632128 
2408.000000	65.572619 
2407.000000	65.495109 
2406.000000	65.411257 
2405.000000	65.331149 
2404.000000	65.260887 
2403.000000	65.204405 
2402.000000	65.162086 
2401.000000	65.133380 
2400.000000	65.116333 
2399.000000	65.108585 
2398.000000	65.107893 
2397.000000	65.111565 
2396.000000	65.117883 
2395.000000	65.125513 
2394.000000	65.134358 
2393.000000	65.144991 
2392.000000	65.158557 
2391.000000	65.175914 
2390.000000	65.197181 
2389.000000	65.221095 
2388.000000	65.244984 
2387.000000	65.265202 
2386.000000	65.277814 
2385.000000	65.279722 
2384.000000	65.269970 
2383.000000	65.250229 
2382.000000	65.224313 
2381.000000	65.197253 
2380.000000	65.174770 
2379.000000	65.161299 
2378.000000	65.158843 
2377.000000	65.166497 
2376.000000	65.180826 
2375.000000	65.196800 
2374.000000	65.209484 
2373.000000	65.215349 
2372.000000	65.212774 
2371.000000	65.202665 
2370.000000	65.187978 
2369.000000	65.172648 
2368.000000	65.160274 
2367.000000	65.153145 
2366.000000	65.151596 
2365.000000	65.154170 
2364.000000	65.158081 
2363.000000	65.160298 
2362.000000	65.158653 
2361.000000	65.152359 
2360.000000	65.142440 
2359.000000	65.131354 
2358.000000	65.122151 
2357.000000	65.117764 
2356.000000	65.120220 
2355.000000	65.129995 
2354.000000	65.145826 
2353.000000	65.165472 
2352.000000	65.185594 
2351.000000	65.203309 
2350.000000	65.215897 
2349.000000	65.221548 
2348.000000	65.219473 
2347.000000	65.209746 
2346.000000	65.193414 
2345.000000	65.171909 
2344.000000	65.147089 
2343.000000	65.120959 
2342.000000	65.095567 
2341.000000	65.073108 
2340.000000	65.055298 
2339.000000	65.043544 
2338.000000	65.038657 
2337.000000	65.040683 
2336.000000	65.048861 
2335.000000	65.061783 
2334.000000	65.077280 
2333.000000	65.092873 
2332.000000	65.105986 
2331.000000	65.114474 
2330.000000	65.116882 
2329.000000	65.113019 
2328.000000	65.103530 
2327.000000	65.090298 
2326.000000	65.075802 
2325.000000	65.062665 
2324.000000	65.053534 
2323.000000	65.050029 
2322.000000	65.052771 
2321.000000	65.060901 
2320.000000	65.072536 
2319.000000	65.084862 
2318.000000	65.094971 
2317.000000	65.100359 
2316.000000	65.099430 
2315.000000	65.091800 
2314.000000	65.078353 
2313.000000	65.061140 
2312.000000	65.042853 
2311.000000	65.026426 
2310.000000	65.014290 
2309.000000	65.008163 
2308.000000	65.008687 
2307.000000	65.015220 
2306.000000	65.026140 
2305.000000	65.039038 
2304.000000	65.051484 
2303.000000	65.061211 
2302.000000	65.067052 
2301.000000	65.068745 
2300.000000	65.067100 
2299.000000	65.063977 
2298.000000	65.061354 
2297.000000	65.061330 
2296.000000	65.065097 
2295.000000	65.073013 
2294.000000	65.084218 
2293.000000	65.097165 
2292.000000	65.109777 
2291.000000	65.119981 
2290.000000	65.126156 
2289.000000	65.127444 
2288.000000	65.123772 
2287.000000	65.115904 
2286.000000	65.104866 
2285.000000	65.092015 
2284.000000	65.078663 
2283.000000	65.065836 
2282.000000	65.054607 
2281.000000	65.045619 
2280.000000	65.039348 
2279.000000	65.035915 
2278.000000	65.035271 
2277.000000	65.037131 
2276.000000	65.040922 
2275.000000	65.045905 
2274.000000	65.051341 
2273.000000	65.056681 
2272.000000	65.061593 
2271.000000	65.066337 
2270.000000	65.071201 
2269.000000	65.076589 
2268.000000	65.082812 
2267.000000	65.089583 
2266.000000	65.096259 
2265.000000	65.101814 
2264.000000	65.104985 
2263.000000	65.104961 
2262.000000	65.101432 
2261.000000	65.094852 
2260.000000	65.086460 
2259.000000	65.077900 
2258.000000	65.070962 
2257.000000	65.067005 
2256.000000	65.066766 
2255.000000	65.070128 
2254.000000	65.076208 
2253.000000	65.083765 
2252.000000	65.091562 
2251.000000	65.098714 
2250.000000	65.104627 
2249.000000	65.109157 
2248.000000	65.112304 
2247.000000	65.114045 
2246.000000	65.114307 
2245.000000	65.112757 
2244.000000	65.109229 
2243.000000	65.103816 
2242.000000	65.097188 
2241.000000	65.090465 
2240.000000	65.085291 
2239.000000	65.083432 
2238.000000	65.086269 
2237.000000	65.094614 
2236.000000	65.108323 
2235.000000	65.126419 
2234.000000	65.147209 
2233.000000	65.168619 
2232.000000	65.188503 
2231.000000	65.205216 
2230.000000	65.217304 
2229.000000	65.223836 
2228.000000	65.224146 
2227.000000	65.218043 
2226.000000	65.205645 
2225.000000	65.187692 
2224.000000	65.165543 
2223.000000	65.141367 
2222.000000	65.117907 
2221.000000	65.098214 
2220.000000	65.085124 
2219.000000	65.080666 
2218.000000	65.085673 
2217.000000	65.099549 
2216.000000	65.120291 
2215.000000	65.145039 
2214.000000	65.170550 
2213.000000	65.194153 
2212.000000	65.214061 
2211.000000	65.229725 
2210.000000	65.241718 
2209.000000	65.251564 
2208.000000	65.260910 
2207.000000	65.271162 
2206.000000	65.283155 
2205.000000	65.296792 
2204.000000	65.311241 
2203.000000	65.324950 
2202.000000	65.336155 
2201.000000	65.343236 
2200.000000	65.345120 
2199.000000	65.341377 
2198.000000	65.332555 
2197.000000	65.319800 
2196.000000	65.304970 
2195.000000	65.290117 
2194.000000	65.277242 
2193.000000	65.267920 
2192.000000	65.262937 
2191.000000	65.262079 
2190.000000	65.264105 
2189.000000	65.267252 
2188.000000	65.269327 
2187.000000	65.268635 
2186.000000	65.264201 
2185.000000	65.255999 
2184.000000	65.244817 
2183.000000	65.232181 
2182.000000	65.219807 
2181.000000	65.209007 
2180.000000	65.200757 
2179.000000	65.195512 
2178.000000	65.193295 
2177.000000	65.193772 
2176.000000	65.196371 
2175.000000	65.200424 
2174.000000	65.205073 
2173.000000	65.209388 
2172.000000	65.212297 
2171.000000	65.212726 
2170.000000	65.209674 
2169.000000	65.202498 
2168.000000	65.191388 
2167.000000	65.177321 
2166.000000	65.162062 
2165.000000	65.147590 
2164.000000	65.135765 
2163.000000	65.127682 
2162.000000	65.123438 
2161.000000	65.122175 
2160.000000	65.122365 
2159.000000	65.122246 
2158.000000	65.120482 
2157.000000	65.116095 
2156.000000	65.108776 
2155.000000	65.098738 
2154.000000	65.086507 
2153.000000	65.073084 
2152.000000	65.059494 
2151.000000	65.047001 
2150.000000	65.037012 
2149.000000	65.030694 
2148.000000	65.028905 
2147.000000	65.031862 
2146.000000	65.038943 
2145.000000	65.048503 
2144.000000	65.058135 
2143.000000	65.064930 
2142.000000	65.066170 
2141.000000	65.059876 
2140.000000	65.045475 
2139.000000	65.023827 
2138.000000	64.997196 
2137.000000	64.968800 
2136.000000	64.942312 
2135.000000	64.920902 
2134.000000	64.907145 
2133.000000	64.902210 
2132.000000	64.906215 
2131.000000	64.918398 
2130.000000	64.937353 
2129.000000	64.961051 
2128.000000	64.987277 
2127.000000	65.013813 
2126.000000	65.038442 
2125.000000	65.059232 
2124.000000	65.074801 
2123.000000	65.084362 
2122.000000	65.088009 
2121.000000	65.086674 
2120.000000	65.082263 
2119.000000	65.077018 
2118.000000	65.073156 
2117.000000	65.072107 
2116.000000	65.074229 
2115.000000	65.078592 
2114.000000	65.083527 
2113.000000	65.086936 
2112.000000	65.086913 
2111.000000	65.082430 
2110.000000	65.074086 
2109.000000	65.063881 
2108.000000	65.054750 
2107.000000	65.049886 
2106.000000	65.051984 
2105.000000	65.062379 
2104.000000	65.080952 
2103.000000	65.105700 
2102.000000	65.133070 
2101.000000	65.158987 
2100.000000	65.180110 
2099.000000	65.194225 
2098.000000	65.200352 
2097.000000	65.199446 
2096.000000	65.193796 
2095.000000	65.186762 
2094.000000	65.181684 
2093.000000	65.181136 
2092.000000	65.185976 
2091.000000	65.195345 
2090.000000	65.206742 
2089.000000	65.216302 
2088.000000	65.219473 
2087.000000	65.212297 
2086.000000	65.192103 
2085.000000	65.157985 
2084.000000	65.111374 
2083.000000	65.055274 
2082.000000	64.994502 
2081.000000	64.934062 
2080.000000	64.880132 
2079.000000	64.838457 
2078.000000	64.815258 
2077.000000	64.815425 
2076.000000	64.843273 
2075.000000	64.901351 
2074.000000	64.989757 
2073.000000	65.105319 
2072.000000	65.241003 
2071.000000	65.386366 
2070.000000	65.528011 
2069.000000	65.651416 
2068.000000	65.742897 
2067.000000	65.791845 
2066.000000	65.792846 
2065.000000	65.746760 
2064.000000	65.660429 
2063.000000	65.545463 
2062.000000	65.416812 
2061.000000	65.290021 
2060.000000	65.178894 
2059.000000	65.093207 
2058.000000	65.038132 
2057.000000	65.013456 
2056.000000	65.014767 
2055.000000	65.034294 
2054.000000	65.062713 
2053.000000	65.091538 
2052.000000	65.113735 
2051.000000	65.125703 
2050.000000	65.126252 
2049.000000	65.117311 
2048.000000	65.102052 
2047.000000	65.084528 
2046.000000	65.068316 
2045.000000	65.055990 
2044.000000	65.048837 
2043.000000	65.046977 
2042.000000	65.049815 
2041.000000	65.056943 
2040.000000	65.068721 
2039.000000	65.085792 
2038.000000	65.108823 
2037.000000	65.138244 
2036.000000	65.173745 
2035.000000	65.213465 
2034.000000	65.254116 
2033.000000	65.291666 
2032.000000	65.321993 
2031.000000	65.342187 
2030.000000	65.350842 
2029.000000	65.347909 
2028.000000	65.334773 
2027.000000	65.314316 
2026.000000	65.289783 
2025.000000	65.264105 
2024.000000	65.239858 
2023.000000	65.218925 
2022.000000	65.202522 
2021.000000	65.191626 
2020.000000	65.186476 
2019.000000	65.187144 
2018.000000	65.192866 
2017.000000	65.202379 
2016.000000	65.213680 
2015.000000	65.224313 
2014.000000	65.231657 
2013.000000	65.233469 
2012.000000	65.228343 
2011.000000	65.216183 
2010.000000	65.197944 
2009.000000	65.175485 
2008.000000	65.150880 
2007.000000	65.125989 
2006.000000	65.102052 
2005.000000	65.079712 
2004.000000	65.058898 
2003.000000	65.039205 
2002.000000	65.020251 
2001.000000	65.002417 
2000.000000	64.986300 
1999.000000	64.973330 
1998.000000	64.965057 
1997.000000	64.963316 
1996.000000	64.969086 
1995.000000	64.982724 
1994.000000	65.003156 
1993.000000	65.028429 
1992.000000	65.055918 
1991.000000	65.083289 
1990.000000	65.108633 
1989.000000	65.131163 
1988.000000	65.150928 
1987.000000	65.168476 
1986.000000	65.184378 
1985.000000	65.198683 
1984.000000	65.210485 
1983.000000	65.218329 
1982.000000	65.220403 
1981.000000	65.215373 
1980.000000	65.202713 
1979.000000	65.183043 
1978.000000	65.158152 
1977.000000	65.130782 
1976.000000	65.104293 
1975.000000	65.081596 
1974.000000	65.065145 
1973.000000	65.056538 
1972.000000	65.056037 
1971.000000	65.063190 
1970.000000	65.076613 
1969.000000	65.094494 
1968.000000	65.114688 
1967.000000	65.135049 
1966.000000	65.153479 
1965.000000	65.168023 
1964.000000	65.177106 
1963.000000	65.179634 
1962.000000	65.175080 
1961.000000	65.163636 
1960.000000	65.146327 
1959.000000	65.124869 
1958.000000	65.101385 
1957.000000	65.078234 
1956.000000	65.057492 
1955.000000	65.040850 
1954.000000	65.029358 
1953.000000	65.023326 
1952.000000	65.022492 
1951.000000	65.026164 
1950.000000	65.033435 
1949.000000	65.043091 
1948.000000	65.053820 
1947.000000	65.064263 
1946.000000	65.072989 
1945.000000	65.078902 
1944.000000	65.081143 
1943.000000	65.079379 
1942.000000	65.073966 
1941.000000	65.065765 
1940.000000	65.056180 
1939.000000	65.046691 
1938.000000	65.038561 
1937.000000	65.032696 
1936.000000	65.029549 
1935.000000	65.029072 
1934.000000	65.030646 
1933.000000	65.033602 
1932.000000	65.037488 
1931.000000	65.042066 
1930.000000	65.047240 
1929.000000	65.052938 
1928.000000	65.059113 
1927.000000	65.065574 
1926.000000	65.071940 
1925.000000	65.077924 
1924.000000	65.083432 
1923.000000	65.088844 
1922.000000	65.094733 
1921.000000	65.101861 
1920.000000	65.110683 
1919.000000	65.121197 
1918.000000	65.132784 
1917.000000	65.144228 
1916.000000	65.153717 
1915.000000	65.159630 
1914.000000	65.160584 
1913.000000	65.156030 
1912.000000	65.146136 
1911.000000	65.132093 
1910.000000	65.115237 
1909.000000	65.096831 
1908.000000	65.077781 
1907.000000	65.058398 
1906.000000	65.038728 
1905.000000	65.018653 
1904.000000	64.998269 
1903.000000	64.978122 
1902.000000	64.959287 
1901.000000	64.943170 
1900.000000	64.930915 
1899.000000	64.923381 
1898.000000	64.920926 
1897.000000	64.923429 
1896.000000	64.930248 
1895.000000	64.940524 
1894.000000	64.953398 
1893.000000	64.968395 
1892.000000	64.984893 
1891.000000	65.002608 
1890.000000	65.020966 
1889.000000	65.039467 
1888.000000	65.057468 
1887.000000	65.074729 
1886.000000	65.091419 
1885.000000	65.108060 
1884.000000	65.125894 
1883.000000	65.145826 
1882.000000	65.168237 
1881.000000	65.192365 
1880.000000	65.216469 
1879.000000	65.237832 
1878.000000	65.253257 
1877.000000	65.260100 
1876.000000	65.256834 
1875.000000	65.243482 
1874.000000	65.221548 
1873.000000	65.193843 
1872.000000	65.163612 
1871.000000	65.134119 
1870.000000	65.107870 
1869.000000	65.086317 
1868.000000	65.069770 
1867.000000	65.057921 
1866.000000	65.050029 
1865.000000	65.045332 
1864.000000	65.043401 
1863.000000	65.043997 
1862.000000	65.047407 
1861.000000	65.053415 
1860.000000	65.061926 
1859.000000	65.072703 
1858.000000	65.085506 
1857.000000	65.100002 
1856.000000	65.115833 
1855.000000	65.132594 
1854.000000	65.149688 
1853.000000	65.166473 
1852.000000	65.181899 
1851.000000	65.194821 
1850.000000	65.203928 
1849.000000	65.207910 
1848.000000	65.205550 
1847.000000	65.195822 
1846.000000	65.178108 
1845.000000	65.152549 
1844.000000	65.120100 
1843.000000	65.082859 
1842.000000	65.043568 
1841.000000	65.005588 
1840.000000	64.972519 
1839.000000	64.947366 
1838.000000	64.932465 
1837.000000	64.928770 
1836.000000	64.935421 
1835.000000	64.950346 
1834.000000	64.970326 
1833.000000	64.992046 
1832.000000	65.012454 
1831.000000	65.029597 
1830.000000	65.042662 
1829.000000	65.052103 
1828.000000	65.058946 
1827.000000	65.064764 
1826.000000	65.070605 
1825.000000	65.077400 
1824.000000	65.085577 
1823.000000	65.095210 
1822.000000	65.105819 
1821.000000	65.116405 
1820.000000	65.125298 
1819.000000	65.130400 
1818.000000	65.129303 
1817.000000	65.119886 
1816.000000	65.100860 
1815.000000	65.072393 
1814.000000	65.036392 
1813.000000	64.996242 
1812.000000	64.956760 
1811.000000	64.923143 
1810.000000	64.900279 
1809.000000	64.891219 
1808.000000	64.896893 
1807.000000	64.915990 
1806.000000	64.945006 
1805.000000	64.979052 
1804.000000	65.012884 
1803.000000	65.041685 
1802.000000	65.062022 
1801.000000	65.072059 
1800.000000	65.071749 
1799.000000	65.062260 
1798.000000	65.045928 
1797.000000	65.025544 
1796.000000	65.003991 
1795.000000	64.983773 
1794.000000	64.966821 
1793.000000	64.954543 
1792.000000	64.947342 
1791.000000	64.945149 
1790.000000	64.947462 
1789.000000	64.953780 
1788.000000	64.963459 
1787.000000	64.976143 
1786.000000	64.991712 
1785.000000	65.010237 
1784.000000	65.031695 
1783.000000	65.055751 
1782.000000	65.081763 
1781.000000	65.108489 
1780.000000	65.134429 
1779.000000	65.157794 
1778.000000	65.176868 
1777.000000	65.190362 
1776.000000	65.197849 
1775.000000	65.199613 
1774.000000	65.196633 
1773.000000	65.190196 
1772.000000	65.181636 
1771.000000	65.171933 
1770.000000	65.161490 
1769.000000	65.149950 
1768.000000	65.136766 
1767.000000	65.121054 
1766.000000	65.102386 
1765.000000	65.080904 
1764.000000	65.057396 
1763.000000	65.033316 
1762.000000	65.010452 
1761.000000	64.990282 
1760.000000	64.973711 
1759.000000	64.960718 
1758.000000	64.950299 
1757.000000	64.940690 
1756.000000	64.930200 
1755.000000	64.917516 
1754.000000	64.902448 
1753.000000	64.885807 
1752.000000	64.869594 
1751.000000	64.856123 
1750.000000	64.847731 
1749.000000	64.845705 
1748.000000	64.850354 
1747.000000	64.860439 
1746.000000	64.873695 
1745.000000	64.887452 
1744.000000	64.898943 
1743.000000	64.905953 
1742.000000	64.907026 
1741.000000	64.901661 
1740.000000	64.889764 
1739.000000	64.871382 
1738.000000	64.846849 
1737.000000	64.816641 
1736.000000	64.781594 
1735.000000	64.743256 
1734.000000	64.703989 
1733.000000	64.666819 
1732.000000	64.635062 
1731.000000	64.611887 
1730.000000	64.599299 
1729.000000	64.598298 
1728.000000	64.608263 
1727.000000	64.627599 
1726.000000	64.653635 
1725.000000	64.683985 
1724.000000	64.716506 
1723.000000	64.750075 
1722.000000	64.784073 
1721.000000	64.818668 
1720.000000	64.854240 
1719.000000	64.891171 
1718.000000	64.929318 
1717.000000	64.968228 
1716.000000	65.007400 
1715.000000	65.046215 
1714.000000	65.084147 
1713.000000	65.120601 
1712.000000	65.154671 
1711.000000	65.185260 
1710.000000	65.210866 
1709.000000	65.229630 
1708.000000	65.239429 
1707.000000	65.238928 
1706.000000	65.227627 
1705.000000	65.206098 
1704.000000	65.175843 
1703.000000	65.139698 
1702.000000	65.100932 
1701.000000	65.062689 
1700.000000	65.027642 
1699.000000	64.997673 
1698.000000	64.973616 
1697.000000	64.955258 
1696.000000	64.941549 
1695.000000	64.930844 
1694.000000	64.921426 
1693.000000	64.911770 
1692.000000	64.900612 
1691.000000	64.886832 
1690.000000	64.870214 
1689.000000	64.851546 
1688.000000	64.832425 
1687.000000	64.815092 
1686.000000	64.802575 
1685.000000	64.797997 
1684.000000	64.803886 
1683.000000	64.821648 
1682.000000	64.851236 
1681.000000	64.891076 
1680.000000	64.937734 
1679.000000	64.986801 
1678.000000	65.033531 
1677.000000	65.073847 
1676.000000	65.104889 
1675.000000	65.125775 
1674.000000	65.137267 
1673.000000	65.141749 
1672.000000	65.142560 
1671.000000	65.142512 
1670.000000	65.143465 
1669.000000	65.145230 
1668.000000	65.146708 
1667.000000	65.145254 
1666.000000	65.137887 
1665.000000	65.122246 
1664.000000	65.097784 
1663.000000	65.065789 
1662.000000	65.029358 
1661.000000	64.992713 
1660.000000	64.960360 
1659.000000	64.935851 
1658.000000	64.920902 
1657.000000	64.915084 
1656.000000	64.915847 
1655.000000	64.919495 
1654.000000	64.921903 
1653.000000	64.919495 
1652.000000	64.910340 
1651.000000	64.894175 
1650.000000	64.873027 
1649.000000	64.849567 
1648.000000	64.827418 
1647.000000	64.809870 
1646.000000	64.799547 
1645.000000	64.797902 
1644.000000	64.805150 
1643.000000	64.820718 
1642.000000	64.843344 
1641.000000	64.871191 
1640.000000	64.902067 
1639.000000	64.933419 
1638.000000	64.962625 
1637.000000	64.987015 
1636.000000	65.004324 
1635.000000	65.013074 
1634.000000	65.013122 
1633.000000	65.005540 
1632.000000	64.992570 
1631.000000	64.976835 
1630.000000	64.961385 
1629.000000	64.948511 
1628.000000	64.939332 
1627.000000	64.933514 
1626.000000	64.929747 
1625.000000	64.926075 
1624.000000	64.920639 
1623.000000	64.912533 
1622.000000	64.901781 
1621.000000	64.889883 
1620.000000	64.878988 
1619.000000	64.871716 
1618.000000	64.869976 
1617.000000	64.874649 
1616.000000	64.884853 
1615.000000	64.898347 
1614.000000	64.912033 
1613.000000	64.922499 
1612.000000	64.927029 
1611.000000	64.924168 
1610.000000	64.914226 
1609.000000	64.899277 
1608.000000	64.882755 
1607.000000	64.868712 
1606.000000	64.860844 
1605.000000	64.862060 
1604.000000	64.873433 
1603.000000	64.894413 
1602.000000	64.922404 
1601.000000	64.953327 
1600.000000	64.982533 
1599.000000	65.005302 
1598.000000	65.017986 
1597.000000	65.018320 
1596.000000	65.005898 
1595.000000	64.982318 
1594.000000	64.950633 
1593.000000	64.914917 
1592.000000	64.879417 
1591.000000	64.848017 
1590.000000	64.823484 
1589.000000	64.807415 
1588.000000	64.799904 
1587.000000	64.800071 
1586.000000	64.806294 
1585.000000	64.816784 
1584.000000	64.829969 
1583.000000	64.844560 
1582.000000	64.859437 
1581.000000	64.873695 
1580.000000	64.886403 
1579.000000	64.896512 
1578.000000	64.903235 
1577.000000	64.906096 
1576.000000	64.905023 
1575.000000	64.900541 
1574.000000	64.893460 
1573.000000	64.884710 
1572.000000	64.875125 
1571.000000	64.865350 
1570.000000	64.855766 
1569.000000	64.846491 
1568.000000	64.837789 
1567.000000	64.829921 
1566.000000	64.823341 
1565.000000	64.818429 
1564.000000	64.815521 
1563.000000	64.814615 
1562.000000	64.815092 
1561.000000	64.816212 
1560.000000	64.817023 
1559.000000	64.816999 
1558.000000	64.816236 
1557.000000	64.815545 
1556.000000	64.816522 
1555.000000	64.820742 
1554.000000	64.829158 
1553.000000	64.841675 
1552.000000	64.857029 
1551.000000	64.872908 
1550.000000	64.886736 
1549.000000	64.896345 
1548.000000	64.900541 
1547.000000	64.899849 
1546.000000	64.896345 
1545.000000	64.892959 
1544.000000	64.892983 
1543.000000	64.898896 
1542.000000	64.911961 
1541.000000	64.931845 
1540.000000	64.956736 
1539.000000	64.983582 
1538.000000	65.008926 
1537.000000	65.029883 
1536.000000	65.044188 
1535.000000	65.050482 
1534.000000	65.048503 
1533.000000	65.038990 
1532.000000	65.023612 
1531.000000	65.004706 
1530.000000	64.985108 
1529.000000	64.967870 
1528.000000	64.955639 
1527.000000	64.950275 
1526.000000	64.952230 
1525.000000	64.960336 
1524.000000	64.971971 
1523.000000	64.983582 
1522.000000	64.991211 
1521.000000	64.991545 
1520.000000	64.982676 
1519.000000	64.964866 
1518.000000	64.940333 
1517.000000	64.913034 
1516.000000	64.887928 
1515.000000	64.869928 
1514.000000	64.862751 
1513.000000	64.868354 
1512.000000	64.886522 
1511.000000	64.914798 
1510.000000	64.949297 
1509.000000	64.985466 
1508.000000	65.019083 
1507.000000	65.046811 
1506.000000	65.066599 
1505.000000	65.077972 
1504.000000	65.081667 
1503.000000	65.079283 
1502.000000	65.072774 
1501.000000	65.063714 
1500.000000	65.053009 
1499.000000	65.041017 
1498.000000	65.027761 
1497.000000	65.013003 
1496.000000	64.996719 
1495.000000	64.979243 
1494.000000	64.961504 
1493.000000	64.944839 
1492.000000	64.930939 
1491.000000	64.921402 
1490.000000	64.917349 
1489.000000	64.919376 
1488.000000	64.927458 
1487.000000	64.940834 
1486.000000	64.958119 
1485.000000	64.977097 
1484.000000	64.995360 
1483.000000	65.010261 
1482.000000	65.019512 
1481.000000	65.021371 
1480.000000	65.015292 
1479.000000	65.001773 
1478.000000	64.982986 
1477.000000	64.962482 
1476.000000	64.944577 
1475.000000	64.933466 
1474.000000	64.932465 
1473.000000	64.943146 
1472.000000	64.964747 
1471.000000	64.994430 
1470.000000	65.027523 
1469.000000	65.058541 
1468.000000	65.082502 
1467.000000	65.096044 
1466.000000	65.098094 
1465.000000	65.089988 
1464.000000	65.075159 
1463.000000	65.058207 
1462.000000	65.043711 
1461.000000	65.034914 
1460.000000	65.033674 
1459.000000	65.039563 
1458.000000	65.050745 
1457.000000	65.064001 
1456.000000	65.076088 
1455.000000	65.083742 
1454.000000	65.084671 
1453.000000	65.077304 
1452.000000	65.061020 
1451.000000	65.036392 
1450.000000	65.004920 
1449.000000	64.969182 
1448.000000	64.932417 
1447.000000	64.898371 
1446.000000	64.870810 
1445.000000	64.852786 
1444.000000	64.846181 
1443.000000	64.851045 
1442.000000	64.865684 
1441.000000	64.886689 
1440.000000	64.910006 
1439.000000	64.931726 
1438.000000	64.949345 
1437.000000	64.961957 
1436.000000	64.970493 
1435.000000	64.977288 
1434.000000	64.985036 
1433.000000	64.995837 
1432.000000	65.010571 
1431.000000	65.028333 
1430.000000	65.046525 
1429.000000	65.062141 
1428.000000	65.071630 
1427.000000	65.072536 
1426.000000	65.063524 
1425.000000	65.045213 
1424.000000	65.019559 
1423.000000	64.989662 
1422.000000	64.958834 
1421.000000	64.930033 
1420.000000	64.905238 
1419.000000	64.885282 
1418.000000	64.869856 
1417.000000	64.857888 
1416.000000	64.847898 
1415.000000	64.838409 
1414.000000	64.828348 
1413.000000	64.817309 
1412.000000	64.805603 
1411.000000	64.794301 
1410.000000	64.784622 
1409.000000	64.777803 
1408.000000	64.774537 
1407.000000	64.775013 
1406.000000	64.778304 
1405.000000	64.783191 
1404.000000	64.788174 
1403.000000	64.792108 
1402.000000	64.794373 
1401.000000	64.795207 
1400.000000	64.795470 
1399.000000	64.796304 
1398.000000	64.798760 
1397.000000	64.803242 
1396.000000	64.809226 
1395.000000	64.815354 
1394.000000	64.819717 
1393.000000	64.820337 
1392.000000	64.815688 
1391.000000	64.805245 
1390.000000	64.789795 
1389.000000	64.771008 
1388.000000	64.751076 
1387.000000	64.732241 
1386.000000	64.716458 
1385.000000	64.704871 
1384.000000	64.697504 
1383.000000	64.693951 
1382.000000	64.693307 
1381.000000	64.694452 
1380.000000	64.696502 
1379.000000	64.698767 
1378.000000	64.701199 
1377.000000	64.703774 
1376.000000	64.706850 
1375.000000	64.710736 
1374.000000	64.715623 
1373.000000	64.721655 
1372.000000	64.728832 
1371.000000	64.736962 
1370.000000	64.745593 
1369.000000	64.754056 
1368.000000	64.761447 
1367.000000	64.766836 
1366.000000	64.769458 
1365.000000	64.769029 
1364.000000	64.765954 
1363.000000	64.761471 
1362.000000	64.757251 
1361.000000	64.755320 
1360.000000	64.757394 
1359.000000	64.764595 
1358.000000	64.776968 
1357.000000	64.793276 
1356.000000	64.811515 
1355.000000	64.828801 
1354.000000	64.842152 
1353.000000	64.848899 
1352.000000	64.847469 
1351.000000	64.837431 
1350.000000	64.819645 
1349.000000	64.796018 
1348.000000	64.769172 
1347.000000	64.742040 
1346.000000	64.717531 
1345.000000	64.697861 
1344.000000	64.684486 
1343.000000	64.677953 
1342.000000	64.678120 
1341.000000	64.684224 
1340.000000	64.694881 
1339.000000	64.708709 
1338.000000	64.724516 
1337.000000	64.741301 
1336.000000	64.758181 
1335.000000	64.774751 
1334.000000	64.790749 
1333.000000	64.805960 
1332.000000	64.820122 
1331.000000	64.832711 
1330.000000	64.843249 
1329.000000	64.851093 
1328.000000	64.855957 
1327.000000	64.858198 
1326.000000	64.858698 
1325.000000	64.858865 
1324.000000	64.860200 
1323.000000	64.864134 
1322.000000	64.871001 
1321.000000	64.880347 
1320.000000	64.890456 
1319.000000	64.898729 
1318.000000	64.902186 
1317.000000	64.898514 
1316.000000	64.886164 
1315.000000	64.864826 
1314.000000	64.835810 
1313.000000	64.801597 
1312.000000	64.765334 
1311.000000	64.730095 
1310.000000	64.698410 
1309.000000	64.672017 
1308.000000	64.651942 
1307.000000	64.638447 
1306.000000	64.631342 
1305.000000	64.629983 
1304.000000	64.633536 
1303.000000	64.640831 
1302.000000	64.649987 
1301.000000	64.658856 
1300.000000	64.665126 
1299.000000	64.666891 
1298.000000	64.662647 
1297.000000	64.652371 
1296.000000	64.637112 
1295.000000	64.619445 
1294.000000	64.602613 
1293.000000	64.590382 
1292.000000	64.585924 
1291.000000	64.591550 
1290.000000	64.608049 
1289.000000	64.634466 
1288.000000	64.668440 
1287.000000	64.706611 
1286.000000	64.745187 
1285.000000	64.780473 
1284.000000	64.809322 
1283.000000	64.829564 
1282.000000	64.840173 
1281.000000	64.841175 
1280.000000	64.833354 
1279.000000	64.818358 
1278.000000	64.798188 
1277.000000	64.774990 
1276.000000	64.750671 
1275.000000	64.727020 
1274.000000	64.705252 
1273.000000	64.686512 
1272.000000	64.671397 
1271.000000	64.660215 
1270.000000	64.652943 
1269.000000	64.649367 
1268.000000	64.649033 
1267.000000	64.651203 
1266.000000	64.655184 
1265.000000	64.660191 
1264.000000	64.665794 
1263.000000	64.671540 
1262.000000	64.677524 
1261.000000	64.684033 
1260.000000	64.691662 
1259.000000	64.701032 
1258.000000	64.712738 
1257.000000	64.727091 
1256.000000	64.743995 
1255.000000	64.762711 
1254.000000	64.782023 
1253.000000	64.800190 
1252.000000	64.815354 
1251.000000	64.825606 
1250.000000	64.829349 
1249.000000	64.825558 
1248.000000	64.813923 
1247.000000	64.794993 
1246.000000	64.770102 
1245.000000	64.741230 
1244.000000	64.710974 
1243.000000	64.682006 
1242.000000	64.656949 
1241.000000	64.637970 
1240.000000	64.626598 
1239.000000	64.623427 
1238.000000	64.628314 
1237.000000	64.639830 
1236.000000	64.655923 
1235.000000	64.673733 
1234.000000	64.690232 
1233.000000	64.702701 
1232.000000	64.708924 
1231.000000	64.707970 
1230.000000	64.700460 
1229.000000	64.688253 
1228.000000	64.674186 
1227.000000	64.661169 
1226.000000	64.651513 
1225.000000	64.646220 
1224.000000	64.644980 
1223.000000	64.646220 
1222.000000	64.647650 
1221.000000	64.647030 
1220.000000	64.642977 
1219.000000	64.635229 
1218.000000	64.624786 
1217.000000	64.613699 
1216.000000	64.604330 
1215.000000	64.598417 
1214.000000	64.596843 
1213.000000	64.599132 
1212.000000	64.603805 
1211.000000	64.608502 
1210.000000	64.610910 
1209.000000	64.609241 
1208.000000	64.602684 
1207.000000	64.591598 
1206.000000	64.577317 
1205.000000	64.561581 
1204.000000	64.546775 
1203.000000	64.535069 
1202.000000	64.528346 
1201.000000	64.527654 
1200.000000	64.533305 
1199.000000	64.544558 
1198.000000	64.559984 
1197.000000	64.577484 
1196.000000	64.594769 
1195.000000	64.609980 
1194.000000	64.621806 
1193.000000	64.630007 
1192.000000	64.635348 
1191.000000	64.639449 
1190.000000	64.644217 
1189.000000	64.651298 
1188.000000	64.661788 
1187.000000	64.675426 
1186.000000	64.691019 
1185.000000	64.706110 
1184.000000	64.717841 
1183.000000	64.723491 
1182.000000	64.721155 
1181.000000	64.710164 
1180.000000	64.691329 
1179.000000	64.666771 
1178.000000	64.639401 
1177.000000	64.612436 
1176.000000	64.588832 
1175.000000	64.570784 
1174.000000	64.559531 
1173.000000	64.555239 
1172.000000	64.557147 
1171.000000	64.563965 
1170.000000	64.574122 
1169.000000	64.585947 
1168.000000	64.597797 
1167.000000	64.608073 
1166.000000	64.615440 
1165.000000	64.618754 
1164.000000	64.617371 
1163.000000	64.610934 
1162.000000	64.599585 
1161.000000	64.584183 
1160.000000	64.565944 
1159.000000	64.546370 
1158.000000	64.526915 
1157.000000	64.509034 
1156.000000	64.493680 
1155.000000	64.481329 
1154.000000	64.472007 
1153.000000	64.465165 
1152.000000	64.460086 
1151.000000	64.456176 
1150.000000	64.453101 
1149.000000	64.450764 
1148.000000	64.449429 
1147.000000	64.449644 
1146.000000	64.451861 
1145.000000	64.456224 
1144.000000	64.462685 
1143.000000	64.470934 
1142.000000	64.480400 
1141.000000	64.490151 
1140.000000	64.499735 
1139.000000	64.508509 
1138.000000	64.515805 
1137.000000	64.520573 
1136.000000	64.521503 
1135.000000	64.516925 
1134.000000	64.505434 
1133.000000	64.485979 
1132.000000	64.458298 
1131.000000	64.423608 
1130.000000	64.384770 
1129.000000	64.346337 
1128.000000	64.313340 
1127.000000	64.291071 
1126.000000	64.283847 
1125.000000	64.294147 
1124.000000	64.321684 
1123.000000	64.363813 
1122.000000	64.415717 
1121.000000	64.471387 
1120.000000	64.525032 
1119.000000	64.572429 
1118.000000	64.611792 
1117.000000	64.644050 
1116.000000	64.672350 
1115.000000	64.701080 
1114.000000	64.734172 
1113.000000	64.774250 
1112.000000	64.821028 
1111.000000	64.871907 
1110.000000	64.921259 
1109.000000	64.962911 
1108.000000	64.989924 
1107.000000	64.997220 
1106.000000	64.981484 
1105.000000	64.942932 
1104.000000	64.884400 
1103.000000	64.811134 
1102.000000	64.729547 
1101.000000	64.646720 
1100.000000	64.568662 
1099.000000	64.499640 
1098.000000	64.441943 
1097.000000	64.396095 
1096.000000	64.361476 
1095.000000	64.337062 
1094.000000	64.321875 
1093.000000	64.315295 
1092.000000	64.317536 
1091.000000	64.329290 
1090.000000	64.350557 
1089.000000	64.380240 
1088.000000	64.415979 
1087.000000	64.454221 
1086.000000	64.490127 
1085.000000	64.519143 
1084.000000	64.537739 
1083.000000	64.544725 
1082.000000	64.541220 
1081.000000	64.530920 
1080.000000	64.518713 
1079.000000	64.510250 
1078.000000	64.510178 
1077.000000	64.521670 
1076.000000	64.545822 
1075.000000	64.581465 
1074.000000	64.625787 
1073.000000	64.674186 
1072.000000	64.721417 
1071.000000	64.761781 
1070.000000	64.790368 
1069.000000	64.802861 
1068.000000	64.796233 
1067.000000	64.769387 
1066.000000	64.723682 
1065.000000	64.662933 
1064.000000	64.593100 
1063.000000	64.521503 
1062.000000	64.455842 
1061.000000	64.402890 
1060.000000	64.367699 
1059.000000	64.352107 
1058.000000	64.355444 
1057.000000	64.375019 
1056.000000	64.407229 
1055.000000	64.447760 
1054.000000	64.493012 
1053.000000	64.540123 
1052.000000	64.586973 
1051.000000	64.630985 
1050.000000	64.669537 
1049.000000	64.699721 
1048.000000	64.718914 
1047.000000	64.725017 
1046.000000	64.717602 
1045.000000	64.698433 
1044.000000	64.671373 
1043.000000	64.642071 
1042.000000	64.616060 
1041.000000	64.597868 
1040.000000	64.589357 
1039.000000	64.589428 
1038.000000	64.593911 
1037.000000	64.596915 
1036.000000	64.592647 
1035.000000	64.576888 
1034.000000	64.547896 
1033.000000	64.506840 
1032.000000	64.457702 
1031.000000	64.405870 
1030.000000	64.356660 
1029.000000	64.313602 
1028.000000	64.278030 
1027.000000	64.248800 
1026.000000	64.223051 
1025.000000	64.197134 
1024.000000	64.167928 
1023.000000	64.133810 
1022.000000	64.095091 
1021.000000	64.054274 
1020.000000	64.014530 
1019.000000	63.980031 
1018.000000	63.954234 
1017.000000	63.939929 
1016.000000	63.938117 
1015.000000	63.948488 
1014.000000	63.969326 
1013.000000	63.998556 
1012.000000	64.033937 
1011.000000	64.074063 
1010.000000	64.118266 
1009.000000	64.166831 
1008.000000	64.220118 
1007.000000	64.277815 
1006.000000	64.338016 
1005.000000	64.397358 
1004.000000	64.450836 
1003.000000	64.492940 
1002.000000	64.518404 
1001.000000	64.523959 
1000.000000	64.508843 
999.000000	 64.475584 
998.000000	 64.429140 
997.000000	 64.376878 
996.000000	 64.326333 
995.000000	 64.283609 
994.000000	 64.252662 
993.000000	 64.234662 
992.000000	 64.228391 
991.000000	 64.231014 
990.000000	 64.239120 
989.000000	 64.249753 
988.000000	 64.260816 
987.000000	 64.271330 
986.000000	 64.281105 
985.000000	 64.290332 
984.000000	 64.299559 
983.000000	 64.309453 
982.000000	 64.320659 
981.000000	 64.333605 
980.000000	 64.348721 
979.000000	 64.365696 
978.000000	 64.383578 
977.000000	 64.400434 
976.000000	 64.413666 
975.000000	 64.420533 
974.000000	 64.418458 
973.000000	 64.406347 
972.000000	 64.385008 
971.000000	 64.357328 
970.000000	 64.328098 
969.000000	 64.302492 
968.000000	 64.285206 
967.000000	 64.278650 
966.000000	 64.282727 
965.000000	 64.294362 
964.000000	 64.308476 
963.000000	 64.319348 
962.000000	 64.322209 
961.000000	 64.314222 
960.000000	 64.295339 
959.000000	 64.267992 
958.000000	 64.236164 
957.000000	 64.204430 
956.000000	 64.176821 
955.000000	 64.155769 
954.000000	 64.141869 
953.000000	 64.134311 
952.000000	 64.131522 
951.000000	 64.131832 
950.000000	 64.134335 
949.000000	 64.139270 
948.000000	 64.147734 
947.000000	 64.161133 
946.000000	 64.180588 
945.000000	 64.206004 
944.000000	 64.236140 
943.000000	 64.268517 
942.000000	 64.299726 
941.000000	 64.325976 
940.000000	 64.343810 
939.000000	 64.350986 
938.000000	 64.346623 
937.000000	 64.331245 
936.000000	 64.306640 
935.000000	 64.275908 
934.000000	 64.242315 
933.000000	 64.209103 
932.000000	 64.178943 
931.000000	 64.153814 
930.000000	 64.134883 
929.000000	 64.122462 
928.000000	 64.115762 
927.000000	 64.113211 
926.000000	 64.112639 
925.000000	 64.111924 
924.000000	 64.108943 
923.000000	 64.102888 
922.000000	 64.094257 
921.000000	 64.085578 
920.000000	 64.080142 
919.000000	 64.081978 
918.000000	 64.094853 
917.000000	 64.121127 
916.000000	 64.160680 
915.000000	 64.211177 
914.000000	 64.268183 
913.000000	 64.326524 
912.000000	 64.381051 
911.000000	 64.428329 
910.000000	 64.467310 
909.000000	 64.499020 
908.000000	 64.525794 
907.000000	 64.549708 
906.000000	 64.571523 
905.000000	 64.589619 
904.000000	 64.600491 
903.000000	 64.599752 
902.000000	 64.583587 
901.000000	 64.550924 
900.000000	 64.503359 
899.000000	 64.445543 
898.000000	 64.383459 
897.000000	 64.322900 
896.000000	 64.267921 
895.000000	 64.220070 
894.000000	 64.178180 
893.000000	 64.138936 
892.000000	 64.098668 
891.000000	 64.054799 
890.000000	 64.007258 
889.000000	 63.958168 
888.000000	 63.911914 
887.000000	 63.873744 
886.000000	 63.848161 
885.000000	 63.837051 
884.000000	 63.839673 
883.000000	 63.852477 
882.000000	 63.870000 
881.000000	 63.885998 
880.000000	 63.895368 
879.000000	 63.895106 
878.000000	 63.884902 
877.000000	 63.866853 
876.000000	 63.844370 
875.000000	 63.820934 
874.000000	 63.799476 
873.000000	 63.781380 
872.000000	 63.765740 
871.000000	 63.749289 
870.000000	 63.728404 
869.000000	 63.699269 
868.000000	 63.658976 
867.000000	 63.606381 
866.000000	 63.542938 
865.000000	 63.472318 
864.000000	 63.399767 
863.000000	 63.331294 
862.000000	 63.272833 
861.000000	 63.228535 
860.000000	 63.199973 
859.000000	 63.185715 
858.000000	 63.181662 
857.000000	 63.182210 
856.000000	 63.181424 
855.000000	 63.174915 
854.000000	 63.160514 
853.000000	 63.139891 
852.000000	 63.117623 
851.000000	 63.101530 
850.000000	 63.100504 
849.000000	 63.122868 
848.000000	 63.173985 
847.000000	 63.255572 
846.000000	 63.364434 
845.000000	 63.493037 
844.000000	 63.630080 
843.000000	 63.762712 
842.000000	 63.878178 
841.000000	 63.965582 
840.000000	 64.018058 
839.000000	 64.033627 
838.000000	 64.015483 
837.000000	 63.972115 
836.000000	 63.914275 
835.000000	 63.854670 
834.000000	 63.802742 
833.000000	 63.763785 
832.000000	 63.736796 
831.000000	 63.716101 
830.000000	 63.693261 
829.000000	 63.660120 
828.000000	 63.612937 
827.000000	 63.554167 
826.000000	 63.493466 
825.000000	 63.445425 
824.000000	 63.426232 
823.000000	 63.448834 
822.000000	 63.519334 
821.000000	 63.634228 
820.000000	 63.779997 
819.000000	 63.935470 
818.000000	 64.077401 
817.000000	 64.184904 
816.000000	 64.243888 
815.000000	 64.249563 
814.000000	 64.206767 
813.000000	 64.127826 
812.000000	 64.028382 
811.000000	 63.924098 
810.000000	 63.828587 
809.000000	 63.750219 
808.000000	 63.693141 
807.000000	 63.656473 
806.000000	 63.636803 
805.000000	 63.629436 
804.000000	 63.630151 
803.000000	 63.637161 
802.000000	 63.650941 
801.000000	 63.674378 
800.000000	 63.711023 
799.000000	 63.762927 
798.000000	 63.828468 
797.000000	 63.901567 
796.000000	 63.971781 
795.000000	 64.026308 
794.000000	 64.052367 
793.000000	 64.040231 
792.000000	 63.985633 
791.000000	 63.890504 
790.000000	 63.763403 
789.000000	 63.617706 
788.000000	 63.469505 
787.000000	 63.335180 
786.000000	 63.228058 
785.000000	 63.156628 
784.000000	 63.122725 
783.000000	 63.122081 
782.000000	 63.145589 
781.000000	 63.181114 
780.000000	 63.216972 
779.000000	 63.243055 
778.000000	 63.254594 
777.000000	 63.251185 
776.000000	 63.238024 
775.000000	 63.222837 
774.000000	 63.214254 
773.000000	 63.219070 
772.000000	 63.239240 
771.000000	 63.271236 
770.000000	 63.306689 
769.000000	 63.335084 
768.000000	 63.347148 
767.000000	 63.337612 
766.000000	 63.307285 
765.000000	 63.262796 
764.000000	 63.214659 
763.000000	 63.174724 
762.000000	 63.151741 
761.000000	 63.150143 
760.000000	 63.169836 
759.000000	 63.206505 
758.000000	 63.254356 
757.000000	 63.306713 
756.000000	 63.357782 
755.000000	 63.403391 
754.000000	 63.441038 
753.000000	 63.469576 
752.000000	 63.487672 
751.000000	 63.495135 
750.000000	 63.491868 
749.000000	 63.479995 
748.000000	 63.464236 
747.000000	 63.451242 
746.000000	 63.448834 
745.000000	 63.463640 
744.000000	 63.499450 
743.000000	 63.554763 
742.000000	 63.622498 
741.000000	 63.691568 
740.000000	 63.749098 
739.000000	 63.783240 
738.000000	 63.785552 
737.000000	 63.752460 
736.000000	 63.685870 
735.000000	 63.591742 
734.000000	 63.479542 
733.000000	 63.360023 
732.000000	 63.244438 
731.000000	 63.143420 
730.000000	 63.065385 
729.000000	 63.016152 
728.000000	 62.997627 
727.000000	 63.008356 
726.000000	 63.042759 
725.000000	 63.092064 
724.000000	 63.145065 
723.000000	 63.189339 
722.000000	 63.213729 
721.000000	 63.209676 
720.000000	 63.173174 
719.000000	 63.105344 
718.000000	 63.011574 
717.000000	 62.900352 
716.000000	 62.781238 
715.000000	 62.663197 
714.000000	 62.553429 
713.000000	 62.456965 
712.000000	 62.376356 
711.000000	 62.312722 
710.000000	 62.266206 
709.000000	 62.237167 
708.000000	 62.225461 
707.000000	 62.231421 
706.000000	 62.254858 
705.000000	 62.295269 
704.000000	 62.350273 
703.000000	 62.415957 
702.000000	 62.485456 
701.000000	 62.551450 
700.000000	 62.606859 
699.000000	 62.647199 
698.000000	 62.670826 
697.000000	 62.680459 
696.000000	 62.682652 
695.000000	 62.685871 
694.000000	 62.698483 
693.000000	 62.725496 
692.000000	 62.767291 
691.000000	 62.818479 
690.000000	 62.869286 
689.000000	 62.907385 
688.000000	 62.921524 
687.000000	 62.904334 
686.000000	 62.854242 
685.000000	 62.776708 
684.000000	 62.682676 
683.000000	 62.584757 
682.000000	 62.494921 
681.000000	 62.421560 
680.000000	 62.368988 
679.000000	 62.337255 
678.000000	 62.324261 
677.000000	 62.327551 
676.000000	 62.345576 
675.000000	 62.378835 
674.000000	 62.428545 
673.000000	 62.494897 
672.000000	 62.575650 
671.000000	 62.664723 
670.000000	 62.752246 
669.000000	 62.825894 
668.000000	 62.873077 
667.000000	 62.883949 
666.000000	 62.853717 
665.000000	 62.784242 
664.000000	 62.683916 
663.000000	 62.566399 
662.000000	 62.447643 
661.000000	 62.342929 
660.000000	 62.264704 
659.000000	 62.220430 
658.000000	 62.212109 
657.000000	 62.236523 
656.000000	 62.286520 
655.000000	 62.352275 
654.000000	 62.422919 
653.000000	 62.488293 
652.000000	 62.539267 
651.000000	 62.569904 
650.000000	 62.576484 
649.000000	 62.559866 
648.000000	 62.523794 
647.000000	 62.475872 
646.000000	 62.425923 
645.000000	 62.384605 
644.000000	 62.362170 
643.000000	 62.365269 
642.000000	 62.396550 
641.000000	 62.452363 
640.000000	 62.524342 
639.000000	 62.599563 
638.000000	 62.663722 
637.000000	 62.703680 
636.000000	 62.710309 
635.000000	 62.680459 
634.000000	 62.617349 
633.000000	 62.530303 
632.000000	 62.432599 
631.000000	 62.338757 
630.000000	 62.261176 
629.000000	 62.208104 
628.000000	 62.181568 
627.000000	 62.178230 
626.000000	 62.190055 
625.000000	 62.206912 
624.000000	 62.219023 
623.000000	 62.218713 
622.000000	 62.202358 
621.000000	 62.170481 
620.000000	 62.127518 
619.000000	 62.079477 
618.000000	 62.032938 
617.000000	 61.993145 
616.000000	 61.963248 
615.000000	 61.943864 
614.000000	 61.933493 
613.000000	 61.929607 
612.000000	 61.928939 
611.000000	 61.928844 
610.000000	 61.926412 
609.000000	 61.918950 
608.000000	 61.903357 
607.000000	 61.876416 
606.000000	 61.835718 
605.000000	 61.780190 
604.000000	 61.710619 
603.000000	 61.629986 
602.000000	 61.543464 
601.000000	 61.457753 
600.000000	 61.380314 
599.000000	 61.317873 
598.000000	 61.274886 
597.000000	 61.253261 
596.000000	 61.252117 
595.000000	 61.268448 
594.000000	 61.297082 
593.000000	 61.332201 
592.000000	 61.367750 
591.000000	 61.398363 
590.000000	 61.418747 
589.000000	 61.425662 
588.000000	 61.417508 
587.000000	 61.395621 
586.000000	 61.363840 
585.000000	 61.328339 
584.000000	 61.296916 
583.000000	 61.275625 
582.000000	 61.267304 
581.000000	 61.269879 
580.000000	 61.276984 
579.000000	 61.279201 
578.000000	 61.266922 
577.000000	 61.233282 
576.000000	 61.176729 
575.000000	 61.102271 
574.000000	 61.020755 
573.000000	 60.946488 
572.000000	 60.893964 
571.000000	 60.873174 
570.000000	 60.887932 
569.000000	 60.934638 
568.000000	 61.004376 
567.000000	 61.085414 
566.000000	 61.166810 
565.000000	 61.240911 
564.000000	 61.304497 
563.000000	 61.357998 
562.000000	 61.404800 
561.000000	 61.447763 
560.000000	 61.489605 
559.000000	 61.531829 
558.000000	 61.574363 
557.000000	 61.616587 
556.000000	 61.656188 
555.000000	 61.690235 
554.000000	 61.714911 
553.000000	 61.726307 
552.000000	 61.720991 
551.000000	 61.697340 
550.000000	 61.656689 
549.000000	 61.603713 
548.000000	 61.546826 
547.000000	 61.496138 
546.000000	 61.461877 
545.000000	 61.450886 
544.000000	 61.465549 
543.000000	 61.501646 
542.000000	 61.548757 
541.000000	 61.592745 
540.000000	 61.619710 
539.000000	 61.618995 
538.000000	 61.585855 
537.000000	 61.522173 
536.000000	 61.436200 
535.000000	 61.339306 
534.000000	 61.242341 
533.000000	 61.154079 
532.000000	 61.079978 
531.000000	 61.021494 
530.000000	 60.976862 
529.000000	 60.943317 
528.000000	 60.919022 
527.000000	 60.903453 
526.000000	 60.897326 
525.000000	 60.901927 
524.000000	 60.917735 
523.000000	 60.942864 
522.000000	 60.971999 
521.000000	 60.996866 
520.000000	 61.006975 
519.000000	 60.992169 
518.000000	 60.944199 
517.000000	 60.859084 
516.000000	 60.737633 
515.000000	 60.586118 
514.000000	 60.414576 
513.000000	 60.235071 
512.000000	 60.059332 
511.000000	 59.898328 
510.000000	 59.758949 
509.000000	 59.644055 
508.000000	 59.551692 
507.000000	 59.476947 
506.000000	 59.412574 
505.000000	 59.350633 
504.000000	 59.284520 
503.000000	 59.209942 
502.000000	 59.126424 
501.000000	 59.037017 
500.000000	 58.948469 
499.000000	 58.869433 
498.000000	 58.809494 
497.000000	 58.776378 
496.000000	 58.774471 
495.000000	 58.803009 
494.000000	 58.854532 
493.000000	 58.916640 
492.000000	 58.973789 
491.000000	 59.012365 
490.000000	 59.022068 
489.000000	 59.001302 
488.000000	 58.956670 
487.000000	 58.903193 
486.000000	 58.859848 
485.000000	 58.845686 
484.000000	 58.874940 
483.000000	 58.953142 
482.000000	 59.075760 
481.000000	 59.228396 
480.000000	 59.391069 
479.000000	 59.540987 
478.000000	 59.658265 
477.000000	 59.728693 
476.000000	 59.746336 
475.000000	 59.713387 
474.000000	 59.638619 
473.000000	 59.535384 
472.000000	 59.418892 
471.000000	 59.304928 
470.000000	 59.207868 
469.000000	 59.140157 
468.000000	 59.111261 
467.000000	 59.127378 
466.000000	 59.190273 
465.000000	 59.297609 
464.000000	 59.441685 
463.000000	 59.608793 
462.000000	 59.781479 
461.000000	 59.940004 
460.000000	 60.065960 
459.000000	 60.147690 
458.000000	 60.178828 
457.000000	 60.159873 
456.000000	 60.095047 
455.000000	 59.992313 
454.000000	 59.859180 
453.000000	 59.702229 
452.000000	 59.527373 
451.000000	 59.341669 
450.000000	 59.153819 
449.000000	 58.976054 
448.000000	 58.819985 
447.000000	 58.695745 
446.000000	 58.606219 
445.000000	 58.546686 
444.000000	 58.506059 
443.000000	 58.471417 
442.000000	 58.432483 
441.000000	 58.386874 
440.000000	 58.341503 
439.000000	 58.311080 
438.000000	 58.318877 
437.000000	 58.384847 
436.000000	 58.513402 
435.000000	 58.688354 
434.000000	 58.883333 
433.000000	 59.055685 
432.000000	 59.151434 
431.000000	 59.122729 
430.000000	 58.930397 
429.000000	 58.570647 
428.000000	 58.094334 
427.000000	 57.580280 
426.000000	 57.108616 
425.000000	 56.753373 
424.000000	 56.567454 
423.000000	 56.565093 
422.000000	 56.721568 
421.000000	 56.977105 
420.000000	 57.253289 
419.000000	 57.474899 
418.000000	 57.590031 
417.000000	 57.583069 
416.000000	 57.479977 
415.000000	 57.330250 
414.000000	 57.204389 
413.000000	 57.160878 
412.000000	 57.263541 
411.000000	 57.556033 
410.000000	 58.088088 
409.000000	 58.962106 
408.000000	 60.253453 
407.000000	 62.069010 
406.000000	 64.357185 
405.000000	 66.891813 
404.000000	 69.229006 
403.000000	 70.740175 
402.000000	 70.805120 
401.000000	 69.004106 
400.000000	 65.246629 
399.000000	 59.851455 
398.000000	 53.492331 
397.000000	 47.064065 
396.000000	 41.484498 
395.000000	 37.478566 
394.000000	 35.465931 
393.000000	 35.480117 
392.000000	 37.238192 
391.000000	 40.239524 
390.000000	 43.793010 
389.000000	 47.177004 
388.000000	 49.740314 
387.000000	 51.052856 
386.000000	 50.928044 
385.000000	 49.497103 
384.000000	 47.161650 
383.000000	 44.510483 
382.000000	 42.236614 
381.000000	 40.896844 
380.000000	 40.873670 
379.000000	 42.126393 
378.000000	 44.263648 
377.000000	 46.506929 
376.000000	 47.934818 
375.000000	 47.634983 
374.000000	 44.911384 
373.000000	 39.544081 
372.000000	 31.800961 
371.000000	 22.568368 
370.000000	 13.135027 

