PE IR       SPECTRUM    SPECTRUM    ASCII       PEDS        1.60        
  -1
C-1A6E~1.ASC
17/03/27
15:45:23.00
17/03/27
15:45:23.00
tln
$C-4040-8_t0016$<tbV0>[2.6,-10.4,8.0,0.0,27,1,0]
370.000000
64









2002,4.07    
MIRTGS : RIGHTBACK : INTERNAL 2
MIR : ON : INTERNAL 2
OPTKBR

0.200000
8
8.000000
FILLER
RATIO
SPECTRUM
UNLOCKED 256

DOUBLE
64
COMBINED
1
0
0


1.000000
RATIO


1
0
TRUE
51149
0
LEFT NOT FITTED RIGHT NOT FITTED 0
NONE
NONE
15600
12.000000
4.427000
51148
TRUE
1 0 8 72 0 0 0 0 

15798.010000






#HDR
-1
-1
#GR
CM-1
%T
0.00002384185791015625
0.0
5000.000000
-1.000000
4631
8
70.348167
6.412982
#DATA
5000.000000	63.728713 
4999.000000	63.567972 
4998.000000	63.421201 
4997.000000	63.303995 
4996.000000	63.229298 
4995.000000	63.205599 
4994.000000	63.235044 
4993.000000	63.312101 
4992.000000	63.425254 
4991.000000	63.558721 
4990.000000	63.694834 
4989.000000	63.816022 
4988.000000	63.908123 
4987.000000	63.961505 
4986.000000	63.972592 
4985.000000	63.943576 
4984.000000	63.880872 
4983.000000	63.793087 
4982.000000	63.689565 
4981.000000	63.578891 
4980.000000	63.468074 
4979.000000	63.362908 
4978.000000	63.267803 
4977.000000	63.187360 
4976.000000	63.128447 
4975.000000	63.099288 
4974.000000	63.107228 
4973.000000	63.156294 
4972.000000	63.245415 
4971.000000	63.365936 
4970.000000	63.501763 
4969.000000	63.631105 
4968.000000	63.728713 
4967.000000	63.772845 
4966.000000	63.750123 
4965.000000	63.659787 
4964.000000	63.512897 
4963.000000	63.332772 
4962.000000	63.149905 
4961.000000	62.995886 
4960.000000	62.896776 
4959.000000	62.867903 
4958.000000	62.910842 
4957.000000	63.015127 
4956.000000	63.160920 
4955.000000	63.322806 
4954.000000	63.474202 
4953.000000	63.589143 
4952.000000	63.646006 
4951.000000	63.628482 
4950.000000	63.528704 
4949.000000	63.346648 
4948.000000	63.092851 
4947.000000	62.787556 
4946.000000	62.460517 
4945.000000	62.145519 
4944.000000	61.878228 
4943.000000	61.690020 
4942.000000	61.604928 
4941.000000	61.634993 
4940.000000	61.779284 
4939.000000	62.023639 
4938.000000	62.342023 
4937.000000	62.699699 
4936.000000	63.057971 
4935.000000	63.378524 
4934.000000	63.628840 
4933.000000	63.785028 
4932.000000	63.836932 
4931.000000	63.788199 
4930.000000	63.656568 
4929.000000	63.469910 
4928.000000	63.263392 
4927.000000	63.072729 
4926.000000	62.928128 
4925.000000	62.848901 
4924.000000	62.841057 
4923.000000	62.897229 
4922.000000	63.000178 
4921.000000	63.128161 
4920.000000	63.258743 
4919.000000	63.375854 
4918.000000	63.471317 
4917.000000	63.547086 
4916.000000	63.610434 
4915.000000	63.673162 
4914.000000	63.744688 
4913.000000	63.831567 
4912.000000	63.934659 
4911.000000	64.050269 
4910.000000	64.172673 
4909.000000	64.295053 
4908.000000	64.413213 
4907.000000	64.523315 
4906.000000	64.623093 
4905.000000	64.708828 
4904.000000	64.775109 
4903.000000	64.816117 
4902.000000	64.826893 
4901.000000	64.805221 
4900.000000	64.752650 
4899.000000	64.675402 
4898.000000	64.582800 
4897.000000	64.486122 
4896.000000	64.395046 
4895.000000	64.315652 
4894.000000	64.248251 
4893.000000	64.189052 
4892.000000	64.130353 
4891.000000	64.063763 
4890.000000	63.982105 
4889.000000	63.881731 
4888.000000	63.763689 
4887.000000	63.633441 
4886.000000	63.500332 
4885.000000	63.373208 
4884.000000	63.261842 
4883.000000	63.173890 
4882.000000	63.115739 
4881.000000	63.090562 
4880.000000	63.099932 
4879.000000	63.143229 
4878.000000	63.217473 
4877.000000	63.316583 
4876.000000	63.431811 
4875.000000	63.552069 
4874.000000	63.664817 
4873.000000	63.757705 
4872.000000	63.820362 
4871.000000	63.846421 
4870.000000	63.835239 
4869.000000	63.791847 
4868.000000	63.726305 
4867.000000	63.651657 
4866.000000	63.582086 
4865.000000	63.529729 
4864.000000	63.502836 
4863.000000	63.504004 
4862.000000	63.531446 
4861.000000	63.578915 
4860.000000	63.637804 
4859.000000	63.698720 
4858.000000	63.753557 
4857.000000	63.796639 
4856.000000	63.824605 
4855.000000	63.837456 
4854.000000	63.837122 
4853.000000	63.827705 
4852.000000	63.813924 
4851.000000	63.801121 
4850.000000	63.794469 
4849.000000	63.798522 
4848.000000	63.816618 
4847.000000	63.850188 
4846.000000	63.898515 
4845.000000	63.959097 
4844.000000	64.027833 
4843.000000	64.099144 
4842.000000	64.166545 
4841.000000	64.223957 
4840.000000	64.265847 
4839.000000	64.288282 
4838.000000	64.289355 
4837.000000	64.269328 
4836.000000	64.230346 
4835.000000	64.176702 
4834.000000	64.113521 
4833.000000	64.046454 
4832.000000	63.980507 
4831.000000	63.919997 
4830.000000	63.867735 
4829.000000	63.825392 
4828.000000	63.792991 
4827.000000	63.769435 
4826.000000	63.752865 
4825.000000	63.741517 
4824.000000	63.733410 
4823.000000	63.726353 
4822.000000	63.717961 
4821.000000	63.705921 
4820.000000	63.688230 
4819.000000	63.663864 
4818.000000	63.633632 
4817.000000	63.600397 
4816.000000	63.569068 
4815.000000	63.545799 
4814.000000	63.536572 
4813.000000	63.545656 
4812.000000	63.574099 
4811.000000	63.619089 
4810.000000	63.674759 
4809.000000	63.733077 
4808.000000	63.785552 
4807.000000	63.824748 
4806.000000	63.846325 
4805.000000	63.849043 
4804.000000	63.835072 
4803.000000	63.808298 
4802.000000	63.773012 
4801.000000	63.732957 
4800.000000	63.690853 
4799.000000	63.648557 
4798.000000	63.607478 
4797.000000	63.569617 
4796.000000	63.538050 
4795.000000	63.516783 
4794.000000	63.509750 
4793.000000	63.519740 
4792.000000	63.547325 
4791.000000	63.590455 
4790.000000	63.644266 
4789.000000	63.702058 
4788.000000	63.756203 
4787.000000	63.799643 
4786.000000	63.827204 
4785.000000	63.836073 
4784.000000	63.826513 
4783.000000	63.800740 
4782.000000	63.762903 
4781.000000	63.718152 
4780.000000	63.671731 
4779.000000	63.628768 
4778.000000	63.593316 
4777.000000	63.568806 
4776.000000	63.557004 
4775.000000	63.558363 
4774.000000	63.571619 
4773.000000	63.593554 
4772.000000	63.620018 
4771.000000	63.646459 
4770.000000	63.668775 
4769.000000	63.683867 
4768.000000	63.689970 
4767.000000	63.686728 
4766.000000	63.675093 
4765.000000	63.656830 
4764.000000	63.634204 
4763.000000	63.609337 
4762.000000	63.584256 
4761.000000	63.560676 
4760.000000	63.540005 
4759.000000	63.523769 
4758.000000	63.513350 
4757.000000	63.510560 
4756.000000	63.517570 
4755.000000	63.536453 
4754.000000	63.568305 
4753.000000	63.612484 
4752.000000	63.666582 
4751.000000	63.725948 
4750.000000	63.784027 
4749.000000	63.833260 
4748.000000	63.866519 
4747.000000	63.878560 
4746.000000	63.867115 
4745.000000	63.833498 
4744.000000	63.782572 
4743.000000	63.721489 
4742.000000	63.658499 
4741.000000	63.600945 
4740.000000	63.554048 
4739.000000	63.520026 
4738.000000	63.498473 
4737.000000	63.487100 
4736.000000	63.482856 
4735.000000	63.483166 
4734.000000	63.486599 
4733.000000	63.492798 
4732.000000	63.501930 
4731.000000	63.513803 
4730.000000	63.526844 
4729.000000	63.538098 
4728.000000	63.543224 
4727.000000	63.537716 
4726.000000	63.517689 
4725.000000	63.481307 
4724.000000	63.428950 
4723.000000	63.364195 
4722.000000	63.292264 
4721.000000	63.218808 
4720.000000	63.149118 
4719.000000	63.087034 
4718.000000	63.034701 
4717.000000	62.992739 
4716.000000	62.961173 
4715.000000	62.940120 
4714.000000	62.930369 
4713.000000	62.933206 
4712.000000	62.949943 
4711.000000	62.981128 
4710.000000	63.024950 
4709.000000	63.077163 
4708.000000	63.131046 
4707.000000	63.178753 
4706.000000	63.212728 
4705.000000	63.227581 
4704.000000	63.221216 
4703.000000	63.195705 
4702.000000	63.156867 
4701.000000	63.113570 
4700.000000	63.075232 
4699.000000	63.050937 
4698.000000	63.047122 
4697.000000	63.067531 
4696.000000	63.112640 
4695.000000	63.179922 
4694.000000	63.264656 
4693.000000	63.360762 
4692.000000	63.461709 
4691.000000	63.561010 
4690.000000	63.652682 
4689.000000	63.732099 
4688.000000	63.795900 
4687.000000	63.842606 
4686.000000	63.872528 
4685.000000	63.887786 
4684.000000	63.891601 
4683.000000	63.887381 
4682.000000	63.877534 
4681.000000	63.863277 
4680.000000	63.843941 
4679.000000	63.817930 
4678.000000	63.783407 
4677.000000	63.739347 
4676.000000	63.686990 
4675.000000	63.630199 
4674.000000	63.575434 
4673.000000	63.530158 
4672.000000	63.501763 
4671.000000	63.495659 
4670.000000	63.514137 
4669.000000	63.555479 
4668.000000	63.613867 
4667.000000	63.680672 
4666.000000	63.745999 
4665.000000	63.800525 
4664.000000	63.837385 
4663.000000	63.853096 
4662.000000	63.847613 
4661.000000	63.823461 
4660.000000	63.785314 
4659.000000	63.738775 
4658.000000	63.689041 
4657.000000	63.640213 
4656.000000	63.595867 
4655.000000	63.558602 
4654.000000	63.530182 
4653.000000	63.511228 
4652.000000	63.501453 
4651.000000	63.499355 
4650.000000	63.501715 
4649.000000	63.504910 
4648.000000	63.504600 
4647.000000	63.498067 
4646.000000	63.484072 
4645.000000	63.464593 
4644.000000	63.443970 
4643.000000	63.428521 
4642.000000	63.425159 
4641.000000	63.438796 
4640.000000	63.470649 
4639.000000	63.517618 
4638.000000	63.572716 
4637.000000	63.626480 
4636.000000	63.669204 
4635.000000	63.693380 
4634.000000	63.695406 
4633.000000	63.675761 
4632.000000	63.638401 
4631.000000	63.589334 
4630.000000	63.534832 
4629.000000	63.479709 
4628.000000	63.426661 
4627.000000	63.376712 
4626.000000	63.330006 
4625.000000	63.286542 
4624.000000	63.247132 
4623.000000	63.213920 
4622.000000	63.190364 
4621.000000	63.179802 
4620.000000	63.185119 
4619.000000	63.206577 
4618.000000	63.242697 
4617.000000	63.289451 
4616.000000	63.341903 
4615.000000	63.394570 
4614.000000	63.443326 
4613.000000	63.485908 
4612.000000	63.522434 
4611.000000	63.554501 
4610.000000	63.584566 
4609.000000	63.615059 
4608.000000	63.647556 
4607.000000	63.682246 
4606.000000	63.718438 
4605.000000	63.754892 
4604.000000	63.790321 
4603.000000	63.824033 
4602.000000	63.856291 
4601.000000	63.887906 
4600.000000	63.919997 
4599.000000	63.953089 
4598.000000	63.986349 
4597.000000	64.017462 
4596.000000	64.043474 
4595.000000	64.061021 
4594.000000	64.067983 
4593.000000	64.063191 
4592.000000	64.047789 
4591.000000	64.023613 
4590.000000	63.993000 
4589.000000	63.957715 
4588.000000	63.918757 
4587.000000	63.876605 
4586.000000	63.831901 
4585.000000	63.786172 
4584.000000	63.742041 
4583.000000	63.703203 
4582.000000	63.674259 
4581.000000	63.658213 
4580.000000	63.655543 
4579.000000	63.664007 
4578.000000	63.678979 
4577.000000	63.693904 
4576.000000	63.702154 
4575.000000	63.699507 
4574.000000	63.685441 
4573.000000	63.662958 
4572.000000	63.637566 
4571.000000	63.616037 
4570.000000	63.604283 
4569.000000	63.604831 
4568.000000	63.616919 
4567.000000	63.636326 
4566.000000	63.657426 
4565.000000	63.675403 
4564.000000	63.687562 
4563.000000	63.694381 
4562.000000	63.698911 
4561.000000	63.705849 
4560.000000	63.718438 
4559.000000	63.736796 
4558.000000	63.756728 
4557.000000	63.770794 
4556.000000	63.769125 
4555.000000	63.742280 
4554.000000	63.684082 
4553.000000	63.594365 
4552.000000	63.478183 
4551.000000	63.345170 
4550.000000	63.207221 
4549.000000	63.076186 
4548.000000	62.960553 
4547.000000	62.864851 
4546.000000	62.789225 
4545.000000	62.731409 
4544.000000	62.688302 
4543.000000	62.658643 
4542.000000	62.643146 
4541.000000	62.645244 
4540.000000	62.668490 
4539.000000	62.716031 
4538.000000	62.787151 
4537.000000	62.878298 
4536.000000	62.981772 
4535.000000	63.088345 
4534.000000	63.188409 
4533.000000	63.274645 
4532.000000	63.343262 
4531.000000	63.394641 
4530.000000	63.432240 
4529.000000	63.462114 
4528.000000	63.490843 
4527.000000	63.524293 
4526.000000	63.566184 
4525.000000	63.617324 
4524.000000	63.675713 
4523.000000	63.737154 
4522.000000	63.796591 
4521.000000	63.849210 
4520.000000	63.891410 
4519.000000	63.922119 
4518.000000	63.942384 
4517.000000	63.953852 
4516.000000	63.958907 
4515.000000	63.960552 
4514.000000	63.961911 
4513.000000	63.966608 
4512.000000	63.977289 
4511.000000	63.997459 
4510.000000	64.027547 
4509.000000	64.064884 
4508.000000	64.102959 
4507.000000	64.132404 
4506.000000	64.143586 
4505.000000	64.129829 
4504.000000	64.088702 
4503.000000	64.023447 
4502.000000	63.941764 
4501.000000	63.854312 
4500.000000	63.771176 
4499.000000	63.699650 
4498.000000	63.642477 
4497.000000	63.598346 
4496.000000	63.562822 
4495.000000	63.530945 
4494.000000	63.500261 
4493.000000	63.472270 
4492.000000	63.451671 
4491.000000	63.445782 
4490.000000	63.459444 
4489.000000	63.495898 
4488.000000	63.552713 
4487.000000	63.625907 
4486.000000	63.711380 
4485.000000	63.806152 
4484.000000	63.912773 
4483.000000	64.032578 
4482.000000	64.161205 
4481.000000	64.288926 
4480.000000	64.401125 
4479.000000	64.481878 
4478.000000	64.516425 
4477.000000	64.498829 
4476.000000	64.436602 
4475.000000	64.346909 
4474.000000	64.253640 
4473.000000	64.179086 
4472.000000	64.138245 
4471.000000	64.135527 
4470.000000	64.164948 
4469.000000	64.210820 
4468.000000	64.253115 
4467.000000	64.278554 
4466.000000	64.283967 
4465.000000	64.273929 
4464.000000	64.260244 
4463.000000	64.255452 
4462.000000	64.273071 
4461.000000	64.316010 
4460.000000	64.387750 
4459.000000	64.491415 
4458.000000	64.638710 
4457.000000	64.847731 
4456.000000	65.142607 
4455.000000	65.546154 
4454.000000	66.070938 
4453.000000	66.709899 
4452.000000	67.433047 
4451.000000	68.189907 
4450.000000	68.914914 
4449.000000	69.542503 
4448.000000	70.013189 
4447.000000	70.288419 
4446.000000	70.348167 
4445.000000	70.196008 
4444.000000	69.844651 
4443.000000	69.313168 
4442.000000	68.620991 
4441.000000	67.789053 
4440.000000	66.843986 
4439.000000	65.822410 
4438.000000	64.777779 
4437.000000	63.776254 
4436.000000	62.888836 
4435.000000	62.180399 
4434.000000	61.690831 
4433.000000	61.433863 
4432.000000	61.389636 
4431.000000	61.516714 
4430.000000	61.753630 
4429.000000	62.040829 
4428.000000	62.325477 
4427.000000	62.575674 
4426.000000	62.773466 
4425.000000	62.921094 
4424.000000	63.029360 
4423.000000	63.112711 
4422.000000	63.178706 
4421.000000	63.227319 
4420.000000	63.251662 
4419.000000	63.240432 
4418.000000	63.183522 
4417.000000	63.082289 
4416.000000	62.953543 
4415.000000	62.820625 
4414.000000	62.708616 
4413.000000	62.638974 
4412.000000	62.622666 
4411.000000	62.657856 
4410.000000	62.729883 
4409.000000	62.809562 
4408.000000	62.864565 
4407.000000	62.874865 
4406.000000	62.835836 
4405.000000	62.754940 
4404.000000	62.652134 
4403.000000	62.556600 
4402.000000	62.495517 
4401.000000	62.478876 
4400.000000	62.506222 
4399.000000	62.565374 
4398.000000	62.642693 
4397.000000	62.732100 
4396.000000	62.832307 
4395.000000	62.954592 
4394.000000	63.096308 
4393.000000	63.239502 
4392.000000	63.333010 
4391.000000	63.301539 
4390.000000	63.052868 
4389.000000	62.505769 
4388.000000	61.618328 
4387.000000	60.414624 
4386.000000	58.998990 
4385.000000	57.547903 
4384.000000	56.279182 
4383.000000	55.408620 
4382.000000	55.097293 
4381.000000	55.418324 
4380.000000	56.328916 
4379.000000	57.690668 
4378.000000	59.299612 
4377.000000	60.938167 
4376.000000	62.416505 
4375.000000	63.612580 
4374.000000	64.477157 
4373.000000	65.036916 
4372.000000	65.357160 
4371.000000	65.527677 
4370.000000	65.628218 
4369.000000	65.715241 
4368.000000	65.820598 
4367.000000	65.944862 
4366.000000	66.077184 
4365.000000	66.196465 
4364.000000	66.291069 
4363.000000	66.351556 
4362.000000	66.376471 
4361.000000	66.365385 
4360.000000	66.318273 
4359.000000	66.233944 
4358.000000	66.110277 
4357.000000	65.950798 
4356.000000	65.762782 
4355.000000	65.556955 
4354.000000	65.344429 
4353.000000	65.136718 
4352.000000	64.942359 
4351.000000	64.764046 
4350.000000	64.601087 
4349.000000	64.451456 
4348.000000	64.313578 
4347.000000	64.189887 
4346.000000	64.084267 
4345.000000	63.994836 
4344.000000	63.920855 
4343.000000	63.864421 
4342.000000	63.826060 
4341.000000	63.801121 
4340.000000	63.784384 
4339.000000	63.770318 
4338.000000	63.754248 
4337.000000	63.732695 
4336.000000	63.704538 
4335.000000	63.670825 
4334.000000	63.634133 
4333.000000	63.597607 
4332.000000	63.564205 
4331.000000	63.535952 
4330.000000	63.514232 
4329.000000	63.499379 
4328.000000	63.490653 
4327.000000	63.486337 
4326.000000	63.485026 
4325.000000	63.484835 
4324.000000	63.483262 
4323.000000	63.477921 
4322.000000	63.467121 
4321.000000	63.450312 
4320.000000	63.426971 
4319.000000	63.398289 
4318.000000	63.367104 
4317.000000	63.337278 
4316.000000	63.312363 
4315.000000	63.295459 
4314.000000	63.288450 
4313.000000	63.291287 
4312.000000	63.301777 
4311.000000	63.316726 
4310.000000	63.332867 
4309.000000	63.348603 
4308.000000	63.364458 
4307.000000	63.383364 
4306.000000	63.409519 
4305.000000	63.446593 
4304.000000	63.496112 
4303.000000	63.556337 
4302.000000	63.621926 
4301.000000	63.685250 
4300.000000	63.737797 
4299.000000	63.772821 
4298.000000	63.786530 
4297.000000	63.778662 
4296.000000	63.752222 
4295.000000	63.712596 
4294.000000	63.666176 
4293.000000	63.618993 
4292.000000	63.575863 
4291.000000	63.540363 
4290.000000	63.514161 
4289.000000	63.497829 
4288.000000	63.490581 
4287.000000	63.491344 
4286.000000	63.497996 
4285.000000	63.507747 
4284.000000	63.516950 
4283.000000	63.521718 
4282.000000	63.518548 
4281.000000	63.505077 
4280.000000	63.480854 
4279.000000	63.447833 
4278.000000	63.410377 
4277.000000	63.374590 
4276.000000	63.346719 
4275.000000	63.331389 
4274.000000	63.330960 
4273.000000	63.344550 
4272.000000	63.367938 
4271.000000	63.395047 
4270.000000	63.419461 
4269.000000	63.436460 
4268.000000	63.443636 
4267.000000	63.441824 
4266.000000	63.434576 
4265.000000	63.427257 
4264.000000	63.425111 
4263.000000	63.431954 
4262.000000	63.449025 
4261.000000	63.474702 
4260.000000	63.505530 
4259.000000	63.536572 
4258.000000	63.562822 
4257.000000	63.580250 
4256.000000	63.586807 
4255.000000	63.582110 
4254.000000	63.567280 
4253.000000	63.544392 
4252.000000	63.515710 
4251.000000	63.483452 
4250.000000	63.449239 
4249.000000	63.414454 
4248.000000	63.379979 
4247.000000	63.346362 
4246.000000	63.314008 
4245.000000	63.283014 
4244.000000	63.253712 
4243.000000	63.226509 
4242.000000	63.202643 
4241.000000	63.183069 
4240.000000	63.169360 
4239.000000	63.163161 
4238.000000	63.166022 
4237.000000	63.178277 
4236.000000	63.199472 
4235.000000	63.228178 
4234.000000	63.262200 
4233.000000	63.298535 
4232.000000	63.334155 
4231.000000	63.366460 
4230.000000	63.393688 
4229.000000	63.415050 
4228.000000	63.430905 
4227.000000	63.442659 
4226.000000	63.452053 
4225.000000	63.460683 
4224.000000	63.470005 
4223.000000	63.480687 
4222.000000	63.492751 
4221.000000	63.504862 
4220.000000	63.515448 
4219.000000	63.521933 
4218.000000	63.521909 
4217.000000	63.513207 
4216.000000	63.494157 
4215.000000	63.463926 
4214.000000	63.423275 
4213.000000	63.374137 
4212.000000	63.319253 
4211.000000	63.262009 
4210.000000	63.206386 
4209.000000	63.156247 
4208.000000	63.114523 
4207.000000	63.083362 
4206.000000	63.063669 
4205.000000	63.055062 
4204.000000	63.055777 
4203.000000	63.063120 
4202.000000	63.073706 
4201.000000	63.083481 
4200.000000	63.088107 
4199.000000	63.083529 
4198.000000	63.066244 
4197.000000	63.033890 
4196.000000	62.985706 
4195.000000	62.922525 
4194.000000	62.847375 
4193.000000	62.765192 
4192.000000	62.682819 
4191.000000	62.607765 
4190.000000	62.547898 
4189.000000	62.509918 
4188.000000	62.498974 
4187.000000	62.516951 
4186.000000	62.562632 
4185.000000	62.631273 
4184.000000	62.715625 
4183.000000	62.806344 
4182.000000	62.894344 
4181.000000	62.971591 
4180.000000	63.033366 
4179.000000	63.078141 
4178.000000	63.108706 
4177.000000	63.130521 
4176.000000	63.150930 
4175.000000	63.177061 
4174.000000	63.213729 
4173.000000	63.262176 
4172.000000	63.319492 
4171.000000	63.379383 
4170.000000	63.432979 
4169.000000	63.471078 
4168.000000	63.486361 
4167.000000	63.475203 
4166.000000	63.438487 
4165.000000	63.381290 
4164.000000	63.312506 
4163.000000	63.242459 
4162.000000	63.180613 
4161.000000	63.133788 
4160.000000	63.105702 
4159.000000	63.095545 
4158.000000	63.099193 
4157.000000	63.109827 
4156.000000	63.120198 
4155.000000	63.123655 
4154.000000	63.115811 
4153.000000	63.094854 
4152.000000	63.061118 
4151.000000	63.017606 
4150.000000	62.968945 
4149.000000	62.920641 
4148.000000	62.877631 
4147.000000	62.844204 
4146.000000	62.823390 
4145.000000	62.816548 
4144.000000	62.823271 
4143.000000	62.841796 
4142.000000	62.869572 
4141.000000	62.902975 
4140.000000	62.938547 
4139.000000	62.973523 
4138.000000	63.006544 
4137.000000	63.037133 
4136.000000	63.066196 
4135.000000	63.095426 
4134.000000	63.126611 
4133.000000	63.161420 
4132.000000	63.199734 
4131.000000	63.239669 
4130.000000	63.277435 
4129.000000	63.308525 
4128.000000	63.328027 
4127.000000	63.332056 
4126.000000	63.318610 
4125.000000	63.288807 
4124.000000	63.246560 
4123.000000	63.197994 
4122.000000	63.150358 
4121.000000	63.110399 
4120.000000	63.082671 
4119.000000	63.068604 
4118.000000	63.066291 
4117.000000	63.071107 
4116.000000	63.076782 
4115.000000	63.077211 
4114.000000	63.067722 
4113.000000	63.046550 
4112.000000	63.014769 
4111.000000	62.976527 
4110.000000	62.937045 
4109.000000	62.902021 
4108.000000	62.875962 
4107.000000	62.861633 
4106.000000	62.859272 
4105.000000	62.867188 
4104.000000	62.882637 
4103.000000	62.902617 
4102.000000	62.924408 
4101.000000	62.946462 
4100.000000	62.968277 
4099.000000	62.990427 
4098.000000	63.013458 
4097.000000	63.038063 
4096.000000	63.064169 
4095.000000	63.091278 
4094.000000	63.118052 
4093.000000	63.142848 
4092.000000	63.163805 
4091.000000	63.179349 
4090.000000	63.188743 
4089.000000	63.191962 
4088.000000	63.189768 
4087.000000	63.184046 
4086.000000	63.176989 
4085.000000	63.170981 
4084.000000	63.167667 
4083.000000	63.168025 
4082.000000	63.171744 
4081.000000	63.177251 
4080.000000	63.181829 
4079.000000	63.182497 
4078.000000	63.176465 
4077.000000	63.161754 
4076.000000	63.138246 
4075.000000	63.107442 
4074.000000	63.072752 
4073.000000	63.038921 
4072.000000	63.010954 
4071.000000	62.992978 
4070.000000	62.987399 
4069.000000	62.994408 
4068.000000	63.011693 
4067.000000	63.034820 
4066.000000	63.058257 
4065.000000	63.076639 
4064.000000	63.085818 
4063.000000	63.084268 
4062.000000	63.073325 
4061.000000	63.057088 
4060.000000	63.041472 
4059.000000	63.032436 
4058.000000	63.035058 
4057.000000	63.051748 
4056.000000	63.081860 
4055.000000	63.121509 
4054.000000	63.164949 
4053.000000	63.205361 
4052.000000	63.236927 
4051.000000	63.255453 
4050.000000	63.259172 
4049.000000	63.248753 
4048.000000	63.226532 
4047.000000	63.195943 
4046.000000	63.160324 
4045.000000	63.122844 
4044.000000	63.085842 
4043.000000	63.051629 
4042.000000	63.022708 
4041.000000	63.002109 
4040.000000	62.993144 
4039.000000	62.999081 
4038.000000	63.022160 
4037.000000	63.062500 
4036.000000	63.117504 
4035.000000	63.181805 
4034.000000	63.247847 
4033.000000	63.307213 
4032.000000	63.351964 
4031.000000	63.376450 
4030.000000	63.378357 
4029.000000	63.359332 
4028.000000	63.324451 
4027.000000	63.281154 
4026.000000	63.237261 
4025.000000	63.200068 
4024.000000	63.173913 
4023.000000	63.160490 
4022.000000	63.157844 
4021.000000	63.161802 
4020.000000	63.166570 
4019.000000	63.166952 
4018.000000	63.158774 
4017.000000	63.139939 
4016.000000	63.110733 
4015.000000	63.073253 
4014.000000	63.030934 
4013.000000	62.987589 
4012.000000	62.946867 
4011.000000	62.911772 
4010.000000	62.884521 
4009.000000	62.866449 
4008.000000	62.858295 
4007.000000	62.860512 
4006.000000	62.872982 
4005.000000	62.895345 
4004.000000	62.926769 
4003.000000	62.965846 
4002.000000	63.010263 
4001.000000	63.056731 
4000.000000	63.101792 
3999.000000	63.141679 
3998.000000	63.173055 
3997.000000	63.193154 
3996.000000	63.200283 
3995.000000	63.194012 
3994.000000	63.175725 
3993.000000	63.147974 
3992.000000	63.114237 
3991.000000	63.078022 
3990.000000	63.042926 
3989.000000	63.011217 
3988.000000	62.983989 
3987.000000	62.960839 
3986.000000	62.940478 
3985.000000	62.921166 
3984.000000	62.901568 
3983.000000	62.881278 
3982.000000	62.861132 
3981.000000	62.842845 
3980.000000	62.828397 
3979.000000	62.819337 
3978.000000	62.816166 
3977.000000	62.817502 
3976.000000	62.820768 
3975.000000	62.822532 
3974.000000	62.820053 
3973.000000	62.812232 
3972.000000	62.800335 
3971.000000	62.787556 
3970.000000	62.778162 
3969.000000	62.776470 
3968.000000	62.785077 
3967.000000	62.803649 
3966.000000	62.829208 
3965.000000	62.856745 
3964.000000	62.880778 
3963.000000	62.896776 
3962.000000	62.902712 
3961.000000	62.899541 
3960.000000	62.890768 
3959.000000	62.881374 
3958.000000	62.875914 
3957.000000	62.877154 
3956.000000	62.885475 
3955.000000	62.899136 
3954.000000	62.915134 
3953.000000	62.930679 
3952.000000	62.944507 
3951.000000	62.957048 
3950.000000	62.970328 
3949.000000	62.986564 
3948.000000	63.006830 
3947.000000	63.030219 
3946.000000	63.053464 
3945.000000	63.071560 
3944.000000	63.079309 
3943.000000	63.072586 
3942.000000	63.050103 
3941.000000	63.013386 
3940.000000	62.967324 
3939.000000	62.918138 
3938.000000	62.872147 
3937.000000	62.834191 
3936.000000	62.806415 
3935.000000	62.788653 
3934.000000	62.778878 
3933.000000	62.774586 
3932.000000	62.773799 
3931.000000	62.776041 
3930.000000	62.782311 
3929.000000	62.794280 
3928.000000	62.813186 
3927.000000	62.838864 
3926.000000	62.869286 
3925.000000	62.900519 
3924.000000	62.927603 
3923.000000	62.945890 
3922.000000	62.952017 
3921.000000	62.944984 
3920.000000	62.926363 
3919.000000	62.900209 
3918.000000	62.871742 
3917.000000	62.846350 
3916.000000	62.828135 
3915.000000	62.819457 
3914.000000	62.820577 
3913.000000	62.830281 
3912.000000	62.846088 
3911.000000	62.865328 
3910.000000	62.885499 
3909.000000	62.904715 
3908.000000	62.921690 
3907.000000	62.935042 
3906.000000	62.943768 
3905.000000	62.947130 
3904.000000	62.944841 
3903.000000	62.937021 
3902.000000	62.924790 
3901.000000	62.910103 
3900.000000	62.895560 
3899.000000	62.883591 
3898.000000	62.875843 
3897.000000	62.872648 
3896.000000	62.872648 
3895.000000	62.873435 
3894.000000	62.871909 
3893.000000	62.865495 
3892.000000	62.853097 
3891.000000	62.835812 
3890.000000	62.816333 
3889.000000	62.798595 
3888.000000	62.786269 
3887.000000	62.782168 
3886.000000	62.787199 
3885.000000	62.800478 
3884.000000	62.819552 
3883.000000	62.841367 
3882.000000	62.863445 
3881.000000	62.884402 
3880.000000	62.904334 
3879.000000	62.924361 
3878.000000	62.945699 
3877.000000	62.969064 
3876.000000	62.993812 
3875.000000	63.018202 
3874.000000	63.039374 
3873.000000	63.054680 
3872.000000	63.062047 
3871.000000	63.060903 
3870.000000	63.051986 
3869.000000	63.036847 
3868.000000	63.017296 
3867.000000	62.994647 
3866.000000	62.969970 
3865.000000	62.944102 
3864.000000	62.918376 
3863.000000	62.895059 
3862.000000	62.877345 
3861.000000	62.869453 
3860.000000	62.875032 
3859.000000	62.896299 
3858.000000	62.932443 
3857.000000	62.979125 
3856.000000	63.028931 
3855.000000	63.072681 
3854.000000	63.101887 
3853.000000	63.110852 
3852.000000	63.098216 
3851.000000	63.067507 
3850.000000	63.025712 
3849.000000	62.981390 
3848.000000	62.942361 
3847.000000	62.913656 
3846.000000	62.897229 
3845.000000	62.891602 
3844.000000	62.893509 
3843.000000	62.898683 
3842.000000	62.903499 
3841.000000	62.905240 
3840.000000	62.902593 
3839.000000	62.895393 
3838.000000	62.883567 
3837.000000	62.867355 
3836.000000	62.846803 
3835.000000	62.822008 
3834.000000	62.793207 
3833.000000	62.761306 
3832.000000	62.728190 
3831.000000	62.696218 
3830.000000	62.667918 
3829.000000	62.645578 
3828.000000	62.630248 
3827.000000	62.622666 
3826.000000	62.622952 
3825.000000	62.630939 
3824.000000	62.646150 
3823.000000	62.667703 
3822.000000	62.694287 
3821.000000	62.723755 
3820.000000	62.753105 
3819.000000	62.779307 
3818.000000	62.799835 
3817.000000	62.813401 
3816.000000	62.820529 
3815.000000	62.823319 
3814.000000	62.825250 
3813.000000	62.830328 
3812.000000	62.842273 
3811.000000	62.863492 
3810.000000	62.894511 
3809.000000	62.933993 
3808.000000	62.978458 
3807.000000	63.023424 
3806.000000	63.063454 
3805.000000	63.094091 
3804.000000	63.111305 
3803.000000	63.112282 
3802.000000	63.095521 
3801.000000	63.061380 
3800.000000	63.011884 
3799.000000	62.950420 
3798.000000	62.881731 
3797.000000	62.811493 
3796.000000	62.745213 
3795.000000	62.687540 
3794.000000	62.641239 
3793.000000	62.607026 
3792.000000	62.583780 
3791.000000	62.568974 
3790.000000	62.559103 
3789.000000	62.550878 
3788.000000	62.541866 
3787.000000	62.531256 
3786.000000	62.519383 
3785.000000	62.508010 
3784.000000	62.499284 
3783.000000	62.495899 
3782.000000	62.499833 
3781.000000	62.512683 
3780.000000	62.535095 
3779.000000	62.566876 
3778.000000	62.607049 
3777.000000	62.653756 
3776.000000	62.704324 
3775.000000	62.755489 
3774.000000	62.803459 
3773.000000	62.844729 
3772.000000	62.876510 
3771.000000	62.897014 
3770.000000	62.905859 
3769.000000	62.903404 
3768.000000	62.890577 
3767.000000	62.868595 
3766.000000	62.839078 
3765.000000	62.803268 
3764.000000	62.762689 
3763.000000	62.719464 
3762.000000	62.676787 
3761.000000	62.638950 
3760.000000	62.611174 
3759.000000	62.598419 
3758.000000	62.604784 
3757.000000	62.632060 
3756.000000	62.679100 
3755.000000	62.741637 
3754.000000	62.813043 
3753.000000	62.885618 
3752.000000	62.951946 
3751.000000	63.006043 
3750.000000	63.044261 
3749.000000	63.065314 
3748.000000	63.070106 
3747.000000	63.060903 
3746.000000	63.040995 
3745.000000	63.014101 
3744.000000	62.983989 
3743.000000	62.954545 
3742.000000	62.929344 
3741.000000	62.911272 
3740.000000	62.901949 
3739.000000	62.901258 
3738.000000	62.906670 
3737.000000	62.913966 
3736.000000	62.917327 
3735.000000	62.911224 
3734.000000	62.891745 
3733.000000	62.857747 
3732.000000	62.811827 
3731.000000	62.759566 
3730.000000	62.708187 
3729.000000	62.664818 
3728.000000	62.634348 
3727.000000	62.618565 
3726.000000	62.615823 
3725.000000	62.621974 
3724.000000	62.631583 
3723.000000	62.640023 
3722.000000	62.644767 
3721.000000	62.645864 
3720.000000	62.645387 
3719.000000	62.646603 
3718.000000	62.652444 
3717.000000	62.664151 
3716.000000	62.680435 
3715.000000	62.697839 
3714.000000	62.711572 
3713.000000	62.717485 
3712.000000	62.713313 
3711.000000	62.699222 
3710.000000	62.677812 
3709.000000	62.653756 
3708.000000	62.632036 
3707.000000	62.616157 
3706.000000	62.607121 
3705.000000	62.603187 
3704.000000	62.600612 
3703.000000	62.594628 
3702.000000	62.581324 
3701.000000	62.558960 
3700.000000	62.528848 
3699.000000	62.494993 
3698.000000	62.463235 
3697.000000	62.439560 
3696.000000	62.428498 
3695.000000	62.431669 
3694.000000	62.447261 
3693.000000	62.470507 
3692.000000	62.494802 
3691.000000	62.513589 
3690.000000	62.521862 
3689.000000	62.517380 
3688.000000	62.501549 
3687.000000	62.478780 
3686.000000	62.455677 
3685.000000	62.439250 
3684.000000	62.435817 
3683.000000	62.449216 
3682.000000	62.480592 
3681.000000	62.527585 
3680.000000	62.585568 
3679.000000	62.648010 
3678.000000	62.707972 
3677.000000	62.758827 
3676.000000	62.795591 
3675.000000	62.815356 
3674.000000	62.817406 
3673.000000	62.803053 
3672.000000	62.775206 
3671.000000	62.737679 
3670.000000	62.694811 
3669.000000	62.650632 
3668.000000	62.608790 
3667.000000	62.572002 
3666.000000	62.542200 
3665.000000	62.520170 
3664.000000	62.505722 
3663.000000	62.497711 
3662.000000	62.494707 
3661.000000	62.495207 
3660.000000	62.497997 
3659.000000	62.502217 
3658.000000	62.507367 
3657.000000	62.513351 
3656.000000	62.519788 
3655.000000	62.525987 
3654.000000	62.530398 
3653.000000	62.530684 
3652.000000	62.524104 
3651.000000	62.507891 
3650.000000	62.480306 
3649.000000	62.441468 
3648.000000	62.393593 
3647.000000	62.340760 
3646.000000	62.288284 
3645.000000	62.241792 
3644.000000	62.206196 
3643.000000	62.184381 
3642.000000	62.177371 
3641.000000	62.183928 
3640.000000	62.201571 
3639.000000	62.227153 
3638.000000	62.257671 
3637.000000	62.290763 
3636.000000	62.324738 
3635.000000	62.358283 
3634.000000	62.390089 
3633.000000	62.418460 
3632.000000	62.441253 
3631.000000	62.456130 
3630.000000	62.461256 
3629.000000	62.455654 
3628.000000	62.439966 
3627.000000	62.416195 
3626.000000	62.387228 
3625.000000	62.355995 
3624.000000	62.325215 
3623.000000	62.296915 
3622.000000	62.272310 
3621.000000	62.251949 
3620.000000	62.236547 
3619.000000	62.226819 
3618.000000	62.223553 
3617.000000	62.227272 
3616.000000	62.237977 
3615.000000	62.254548 
3614.000000	62.274479 
3613.000000	62.294077 
3612.000000	62.309002 
3611.000000	62.315297 
3610.000000	62.310171 
3609.000000	62.292623 
3608.000000	62.263894 
3607.000000	62.226796 
3606.000000	62.185478 
3605.000000	62.144041 
3604.000000	62.105917 
3603.000000	62.073993 
3602.000000	62.050247 
3601.000000	62.035918 
3600.000000	62.031912 
3599.000000	62.038850 
3598.000000	62.057185 
3597.000000	62.086868 
3596.000000	62.127327 
3595.000000	62.176966 
3594.000000	62.233495 
3593.000000	62.293791 
3592.000000	62.353944 
3591.000000	62.409591 
3590.000000	62.456130 
3589.000000	62.489819 
3588.000000	62.507843 
3587.000000	62.508893 
3586.000000	62.493157 
3585.000000	62.462806 
3584.000000	62.421250 
3583.000000	62.372970 
3582.000000	62.322449 
3581.000000	62.274098 
3580.000000	62.230801 
3579.000000	62.194323 
3578.000000	62.164807 
3577.000000	62.141251 
3576.000000	62.122321 
3575.000000	62.106823 
3574.000000	62.094187 
3573.000000	62.084674 
3572.000000	62.078952 
3571.000000	62.078237 
3570.000000	62.082982 
3569.000000	62.093257 
3568.000000	62.108373 
3567.000000	62.127065 
3566.000000	62.147808 
3565.000000	62.168812 
3564.000000	62.188887 
3563.000000	62.206959 
3562.000000	62.222123 
3561.000000	62.233424 
3560.000000	62.240076 
3559.000000	62.241148 
3558.000000	62.235665 
3557.000000	62.223052 
3556.000000	62.203645 
3555.000000	62.178611 
3554.000000	62.150216 
3553.000000	62.120938 
3552.000000	62.093234 
3551.000000	62.068939 
3550.000000	62.049055 
3549.000000	62.033414 
3548.000000	62.020993 
3547.000000	62.010502 
3546.000000	62.000894 
3545.000000	61.991572 
3544.000000	61.982607 
3543.000000	61.974525 
3542.000000	61.968159 
3541.000000	61.964154 
3540.000000	61.962723 
3539.000000	61.963391 
3538.000000	61.965107 
3537.000000	61.966562 
3536.000000	61.966371 
3535.000000	61.963534 
3534.000000	61.957550 
3533.000000	61.948466 
3532.000000	61.936759 
3531.000000	61.923027 
3530.000000	61.908102 
3529.000000	61.892747 
3528.000000	61.877965 
3527.000000	61.864686 
3526.000000	61.854076 
3525.000000	61.847090 
3524.000000	61.844706 
3523.000000	61.847496 
3522.000000	61.855459 
3521.000000	61.867809 
3520.000000	61.882925 
3519.000000	61.898469 
3518.000000	61.911487 
3517.000000	61.918878 
3516.000000	61.918067 
3515.000000	61.907887 
3514.000000	61.888599 
3513.000000	61.862468 
3512.000000	61.833190 
3511.000000	61.805248 
3510.000000	61.783194 
3509.000000	61.770462 
3508.000000	61.768722 
3507.000000	61.777472 
3506.000000	61.794209 
3505.000000	61.815190 
3504.000000	61.836338 
3503.000000	61.854195 
3502.000000	61.866760 
3501.000000	61.873555 
3500.000000	61.875677 
3499.000000	61.874818 
3498.000000	61.872696 
3497.000000	61.870360 
3496.000000	61.867833 
3495.000000	61.864876 
3494.000000	61.861085 
3493.000000	61.856794 
3492.000000	61.853003 
3491.000000	61.851549 
3490.000000	61.854195 
3489.000000	61.862063 
3488.000000	61.874699 
3487.000000	61.889982 
3486.000000	61.904263 
3485.000000	61.912894 
3484.000000	61.911606 
3483.000000	61.897706 
3482.000000	61.870884 
3481.000000	61.833786 
3480.000000	61.791539 
3479.000000	61.750674 
3478.000000	61.717844 
3477.000000	61.698365 
3476.000000	61.694955 
3475.000000	61.707210 
3474.000000	61.731791 
3473.000000	61.763238 
3472.000000	61.795234 
3471.000000	61.821913 
3470.000000	61.838984 
3469.000000	61.844372 
3468.000000	61.838626 
3467.000000	61.824464 
3466.000000	61.806011 
3465.000000	61.787319 
3464.000000	61.771750 
3463.000000	61.760807 
3462.000000	61.754274 
3461.000000	61.750054 
3460.000000	61.745285 
3459.000000	61.736702 
3458.000000	61.722159 
3457.000000	61.701059 
3456.000000	61.674308 
3455.000000	61.644697 
3454.000000	61.615633 
3453.000000	61.591196 
3452.000000	61.574769 
3451.000000	61.568808 
3450.000000	61.574244 
3449.000000	61.590290 
3448.000000	61.614799 
3447.000000	61.644506 
3446.000000	61.675763 
3445.000000	61.704826 
3444.000000	61.728215 
3443.000000	61.743235 
3442.000000	61.748385 
3441.000000	61.743354 
3440.000000	61.729073 
3439.000000	61.707735 
3438.000000	61.682224 
3437.000000	61.656308 
3436.000000	61.633586 
3435.000000	61.617183 
3434.000000	61.609053 
3433.000000	61.609935 
3432.000000	61.618828 
3431.000000	61.633586 
3430.000000	61.651015 
3429.000000	61.667656 
3428.000000	61.680507 
3427.000000	61.687326 
3426.000000	61.687278 
3425.000000	61.680555 
3424.000000	61.668634 
3423.000000	61.653614 
3422.000000	61.637759 
3421.000000	61.623167 
3420.000000	61.611676 
3419.000000	61.604690 
3418.000000	61.603355 
3417.000000	61.608505 
3416.000000	61.620688 
3415.000000	61.639809 
3414.000000	61.664986 
3413.000000	61.694121 
3412.000000	61.724019 
3411.000000	61.750483 
3410.000000	61.769008 
3409.000000	61.775398 
3408.000000	61.767148 
3407.000000	61.743426 
3406.000000	61.705493 
3405.000000	61.656284 
3404.000000	61.600208 
3403.000000	61.542081 
3402.000000	61.486625 
3401.000000	61.437559 
3400.000000	61.397409 
3399.000000	61.367344 
3398.000000	61.347460 
3397.000000	61.337113 
3396.000000	61.334943 
3395.000000	61.339569 
3394.000000	61.349463 
3393.000000	61.363101 
3392.000000	61.378574 
3391.000000	61.394095 
3390.000000	61.407899 
3389.000000	61.418366 
3388.000000	61.424398 
3387.000000	61.425900 
3386.000000	61.423945 
3385.000000	61.420559 
3384.000000	61.418509 
3383.000000	61.420941 
3382.000000	61.430168 
3381.000000	61.447381 
3380.000000	61.471629 
3379.000000	61.500048 
3378.000000	61.527991 
3377.000000	61.550164 
3376.000000	61.561560 
3375.000000	61.559009 
3374.000000	61.541843 
3373.000000	61.512541 
3372.000000	61.475682 
3371.000000	61.437177 
3370.000000	61.402583 
3369.000000	61.376190 
3368.000000	61.359715 
3367.000000	61.352157 
3366.000000	61.350440 
3365.000000	61.350584 
3364.000000	61.348700 
3363.000000	61.342310 
3362.000000	61.330842 
3361.000000	61.315560 
3360.000000	61.299061 
3359.000000	61.284184 
3358.000000	61.273050 
3357.000000	61.266398 
3356.000000	61.263608 
3355.000000	61.262989 
3354.000000	61.262369 
3353.000000	61.259818 
3352.000000	61.254453 
3351.000000	61.246347 
3350.000000	61.236667 
3349.000000	61.227130 
3348.000000	61.219406 
3347.000000	61.214709 
3346.000000	61.213159 
3345.000000	61.214208 
3344.000000	61.216449 
3343.000000	61.218237 
3342.000000	61.218261 
3341.000000	61.215662 
3340.000000	61.210322 
3339.000000	61.202979 
3338.000000	61.194992 
3337.000000	61.188077 
3336.000000	61.183977 
3335.000000	61.184239 
3334.000000	61.189723 
3333.000000	61.200523 
3332.000000	61.215925 
3331.000000	61.234426 
3330.000000	61.253833 
3329.000000	61.271619 
3328.000000	61.285233 
3327.000000	61.292648 
3326.000000	61.292552 
3325.000000	61.284661 
3324.000000	61.269617 
3323.000000	61.249160 
3322.000000	61.225652 
3321.000000	61.201930 
3320.000000	61.180734 
3319.000000	61.164331 
3318.000000	61.154413 
3317.000000	61.151790 
3316.000000	61.156368 
3315.000000	61.167311 
3314.000000	61.182737 
3313.000000	61.200308 
3312.000000	61.217403 
3311.000000	61.231374 
3310.000000	61.240124 
3309.000000	61.242389 
3308.000000	61.237931 
3307.000000	61.227512 
3306.000000	61.212706 
3305.000000	61.195349 
3304.000000	61.177420 
3303.000000	61.160635 
3302.000000	61.146306 
3301.000000	61.135268 
3300.000000	61.127972 
3299.000000	61.124587 
3298.000000	61.125087 
3297.000000	61.128950 
3296.000000	61.135292 
3295.000000	61.142587 
3294.000000	61.148834 
3293.000000	61.151838 
3292.000000	61.149311 
3291.000000	61.139750 
3290.000000	61.122560 
3289.000000	61.098599 
3288.000000	61.070156 
3287.000000	61.040711 
3286.000000	61.014294 
3285.000000	60.994744 
3284.000000	60.984730 
3283.000000	60.985517 
3282.000000	60.996675 
3281.000000	61.016178 
3280.000000	61.040878 
3279.000000	61.067056 
3278.000000	61.091303 
3277.000000	61.110854 
3276.000000	61.124038 
3275.000000	61.130428 
3274.000000	61.130499 
3273.000000	61.125469 
3272.000000	61.116671 
3271.000000	61.105179 
3270.000000	61.091637 
3269.000000	61.076354 
3268.000000	61.059308 
3267.000000	61.040568 
3266.000000	61.020326 
3265.000000	60.999226 
3264.000000	60.978221 
3263.000000	60.958242 
3262.000000	60.940146 
3261.000000	60.924243 
3260.000000	60.910463 
3259.000000	60.898327 
3258.000000	60.887145 
3257.000000	60.876441 
3256.000000	60.865855 
3255.000000	60.855555 
3254.000000	60.846042 
3253.000000	60.838007 
3252.000000	60.831999 
3251.000000	60.828185 
3250.000000	60.826015 
3249.000000	60.824441 
3248.000000	60.822057 
3247.000000	60.817360 
3246.000000	60.809087 
3245.000000	60.796856 
3244.000000	60.781025 
3243.000000	60.763168 
3242.000000	60.745263 
3241.000000	60.729908 
3240.000000	60.719347 
3239.000000	60.715436 
3238.000000	60.719084 
3237.000000	60.730028 
3236.000000	60.746955 
3235.000000	60.767602 
3234.000000	60.789203 
3233.000000	60.809087 
3232.000000	60.825109 
3231.000000	60.835862 
3230.000000	60.840868 
3229.000000	60.840582 
3228.000000	60.836172 
3227.000000	60.829329 
3226.000000	60.821771 
3225.000000	60.815191 
3224.000000	60.811042 
3223.000000	60.810422 
3222.000000	60.813832 
3221.000000	60.821056 
3220.000000	60.831260 
3219.000000	60.843133 
3218.000000	60.855031 
3217.000000	60.865473 
3216.000000	60.873341 
3215.000000	60.878300 
3214.000000	60.880422 
3213.000000	60.880303 
3212.000000	60.878324 
3211.000000	60.875034 
3210.000000	60.870003 
3209.000000	60.862159 
3208.000000	60.849785 
3207.000000	60.831212 
3206.000000	60.805177 
3205.000000	60.771679 
3204.000000	60.731792 
3203.000000	60.687851 
3202.000000	60.642910 
3201.000000	60.600233 
3200.000000	60.562539 
3199.000000	60.531473 
3198.000000	60.507702 
3197.000000	60.490989 
3196.000000	60.480523 
3195.000000	60.475516 
3194.000000	60.475254 
3193.000000	60.479378 
3192.000000	60.487532 
3191.000000	60.499501 
3190.000000	60.514640 
3189.000000	60.532283 
3188.000000	60.551381 
3187.000000	60.570764 
3186.000000	60.589718 
3185.000000	60.607624 
3184.000000	60.624408 
3183.000000	60.639882 
3182.000000	60.653662 
3181.000000	60.664582 
3180.000000	60.670948 
3179.000000	60.670518 
3178.000000	60.661077 
3177.000000	60.641002 
3176.000000	60.610318 
3175.000000	60.570859 
3174.000000	60.526371 
3173.000000	60.481858 
3172.000000	60.443115 
3171.000000	60.415172 
3170.000000	60.401678 
3169.000000	60.403919 
3168.000000	60.420608 
3167.000000	60.448360 
3166.000000	60.482406 
3165.000000	60.517454 
3164.000000	60.548806 
3163.000000	60.573053 
3162.000000	60.588550 
3161.000000	60.595107 
3160.000000	60.594105 
3159.000000	60.587692 
3158.000000	60.578274 
3157.000000	60.568356 
3156.000000	60.560011 
3155.000000	60.554838 
3154.000000	60.553669 
3153.000000	60.557126 
3152.000000	60.565042 
3151.000000	60.576629 
3150.000000	60.590362 
3149.000000	60.604238 
3148.000000	60.615587 
3147.000000	60.621500 
3146.000000	60.619258 
3145.000000	60.606884 
3144.000000	60.583353 
3143.000000	60.548734 
3142.000000	60.504531 
3141.000000	60.453534 
3140.000000	60.399317 
3139.000000	60.345745 
3138.000000	60.296630 
3137.000000	60.255146 
3136.000000	60.223627 
3135.000000	60.203599 
3134.000000	60.194945 
3133.000000	60.197067 
3132.000000	60.208749 
3131.000000	60.228776 
3130.000000	60.255289 
3129.000000	60.286736 
3128.000000	60.321354 
3127.000000	60.357546 
3126.000000	60.393476 
3125.000000	60.427570 
3124.000000	60.458230 
3123.000000	60.484576 
3122.000000	60.506200 
3121.000000	60.523533 
3120.000000	60.537624 
3119.000000	60.549998 
3118.000000	60.562109 
3117.000000	60.574936 
3116.000000	60.588502 
3115.000000	60.601711 
3114.000000	60.612487 
3113.000000	60.618138 
3112.000000	60.615730 
3111.000000	60.603117 
3110.000000	60.579323 
3109.000000	60.544729 
3108.000000	60.501241 
3107.000000	60.452246 
3106.000000	60.402131 
3105.000000	60.355257 
3104.000000	60.315680 
3103.000000	60.286521 
3102.000000	60.269331 
3101.000000	60.263967 
3100.000000	60.268735 
3099.000000	60.280537 
3098.000000	60.295772 
3097.000000	60.310935 
3096.000000	60.323262 
3095.000000	60.330843 
3094.000000	60.333275 
3093.000000	60.331392 
3092.000000	60.326790 
3091.000000	60.320901 
3090.000000	60.314917 
3089.000000	60.309267 
3088.000000	60.303473 
3087.000000	60.296511 
3086.000000	60.287451 
3085.000000	60.275959 
3084.000000	60.262799 
3083.000000	60.249614 
3082.000000	60.238671 
3081.000000	60.232353 
3080.000000	60.232234 
3079.000000	60.238862 
3078.000000	60.251212 
3077.000000	60.267162 
3076.000000	60.283946 
3075.000000	60.298585 
3074.000000	60.308647 
3073.000000	60.312557 
3072.000000	60.310077 
3071.000000	60.301971 
3070.000000	60.289406 
3069.000000	60.273981 
3068.000000	60.257124 
3067.000000	60.240077 
3066.000000	60.223865 
3065.000000	60.209369 
3064.000000	60.197377 
3063.000000	60.188627 
3062.000000	60.183906 
3061.000000	60.183548 
3060.000000	60.187506 
3059.000000	60.195279 
3058.000000	60.205602 
3057.000000	60.217070 
3056.000000	60.227990 
3055.000000	60.236763 
3054.000000	60.241985 
3053.000000	60.242724 
3052.000000	60.238695 
3051.000000	60.230159 
3050.000000	60.217905 
3049.000000	60.203170 
3048.000000	60.187363 
3047.000000	60.171842 
3046.000000	60.157752 
3045.000000	60.145950 
3044.000000	60.136795 
3043.000000	60.130286 
3042.000000	60.125923 
3041.000000	60.123038 
3040.000000	60.120558 
3039.000000	60.117387 
3038.000000	60.112452 
3037.000000	60.105156 
3036.000000	60.095262 
3035.000000	60.082960 
3034.000000	60.068893 
3033.000000	60.054183 
3032.000000	60.039925 
3031.000000	60.027146 
3030.000000	60.016393 
3029.000000	60.007786 
3028.000000	60.001063 
3027.000000	59.995579 
3026.000000	59.990382 
3025.000000	59.984540 
3024.000000	59.977364 
3023.000000	59.968471 
3022.000000	59.957742 
3021.000000	59.945344 
3020.000000	59.931826 
3019.000000	59.918022 
3018.000000	59.904837 
3017.000000	59.893631 
3016.000000	59.885835 
3015.000000	59.883117 
3014.000000	59.886860 
3013.000000	59.897994 
3012.000000	59.916710 
3011.000000	59.942317 
3010.000000	59.972929 
3009.000000	60.005998 
3008.000000	60.038328 
3007.000000	60.066843 
3006.000000	60.088729 
3005.000000	60.102009 
3004.000000	60.105538 
3003.000000	60.099244 
3002.000000	60.083675 
3001.000000	60.060119 
3000.000000	60.030078 
2999.000000	59.995436 
2998.000000	59.958004 
2997.000000	59.919929 
2996.000000	59.883189 
2995.000000	59.849929 
2994.000000	59.821724 
2993.000000	59.799480 
2992.000000	59.783267 
2991.000000	59.772133 
2990.000000	59.764385 
2989.000000	59.757971 
2988.000000	59.751033 
2987.000000	59.742188 
2986.000000	59.731054 
2985.000000	59.718227 
2984.000000	59.704995 
2983.000000	59.692978 
2982.000000	59.683561 
2981.000000	59.677600 
2980.000000	59.674930 
2979.000000	59.674406 
2978.000000	59.674310 
2977.000000	59.672713 
2976.000000	59.667682 
2975.000000	59.658002 
2974.000000	59.643077 
2973.000000	59.623360 
2972.000000	59.599900 
2971.000000	59.574580 
2970.000000	59.549641 
2969.000000	59.527492 
2968.000000	59.510517 
2967.000000	59.500575 
2966.000000	59.498405 
2965.000000	59.503579 
2964.000000	59.514689 
2963.000000	59.529304 
2962.000000	59.544301 
2961.000000	59.556722 
2960.000000	59.564161 
2959.000000	59.565258 
2958.000000	59.559917 
2957.000000	59.549140 
2956.000000	59.534716 
2955.000000	59.518671 
2954.000000	59.502887 
2953.000000	59.488558 
2952.000000	59.476327 
2951.000000	59.466266 
2950.000000	59.458279 
2949.000000	59.452462 
2948.000000	59.448957 
2947.000000	59.448051 
2946.000000	59.449911 
2945.000000	59.454345 
2944.000000	59.460878 
2943.000000	59.468674 
2942.000000	59.476685 
2941.000000	59.484004 
2940.000000	59.489798 
2939.000000	59.493279 
2938.000000	59.494018 
2937.000000	59.491801 
2936.000000	59.486269 
2935.000000	59.477186 
2934.000000	59.464240 
2933.000000	59.447431 
2932.000000	59.426927 
2931.000000	59.403324 
2930.000000	59.377455 
2929.000000	59.350585 
2928.000000	59.324049 
2927.000000	59.299349 
2926.000000	59.277534 
2925.000000	59.259605 
2924.000000	59.246206 
2923.000000	59.237766 
2922.000000	59.234690 
2921.000000	59.236955 
2920.000000	59.244132 
2919.000000	59.255051 
2918.000000	59.267902 
2917.000000	59.280443 
2916.000000	59.290242 
2915.000000	59.295296 
2914.000000	59.294271 
2913.000000	59.286904 
2912.000000	59.274005 
2911.000000	59.257435 
2910.000000	59.239530 
2909.000000	59.222912 
2908.000000	59.209966 
2907.000000	59.202384 
2906.000000	59.200882 
2905.000000	59.204912 
2904.000000	59.212946 
2903.000000	59.222888 
2902.000000	59.232592 
2901.000000	59.240317 
2900.000000	59.245443 
2899.000000	59.248352 
2898.000000	59.250545 
2897.000000	59.253954 
2896.000000	59.260272 
2895.000000	59.270548 
2894.000000	59.284639 
2893.000000	59.301209 
2892.000000	59.317803 
2891.000000	59.331655 
2890.000000	59.340119 
2889.000000	59.341788 
2888.000000	59.336304 
2887.000000	59.324550 
2886.000000	59.308385 
2885.000000	59.289979 
2884.000000	59.271311 
2883.000000	59.253740 
2882.000000	59.237837 
2881.000000	59.223699 
2880.000000	59.211111 
2879.000000	59.200072 
2878.000000	59.190559 
2877.000000	59.182858 
2876.000000	59.177160 
2875.000000	59.173655 
2874.000000	59.172224 
2873.000000	59.172582 
2872.000000	59.174156 
2871.000000	59.176445 
2870.000000	59.179091 
2869.000000	59.182071 
2868.000000	59.185552 
2867.000000	59.189558 
2866.000000	59.193634 
2865.000000	59.196996 
2864.000000	59.198117 
2863.000000	59.195733 
2862.000000	59.188985 
2861.000000	59.177827 
2860.000000	59.163546 
2859.000000	59.148168 
2858.000000	59.134268 
2857.000000	59.124183 
2856.000000	59.119415 
2855.000000	59.120273 
2854.000000	59.125757 
2853.000000	59.134173 
2852.000000	59.143376 
2851.000000	59.151291 
2850.000000	59.156346 
2849.000000	59.157657 
2848.000000	59.155058 
2847.000000	59.148740 
2846.000000	59.139299 
2845.000000	59.127426 
2844.000000	59.114050 
2843.000000	59.100174 
2842.000000	59.087085 
2841.000000	59.076333 
2840.000000	59.069418 
2839.000000	59.067511 
2838.000000	59.070992 
2837.000000	59.079146 
2836.000000	59.090137 
2835.000000	59.101486 
2834.000000	59.110593 
2833.000000	59.115076 
2832.000000	59.113502 
2831.000000	59.105896 
2830.000000	59.093594 
2829.000000	59.078741 
2828.000000	59.063959 
2827.000000	59.051489 
2826.000000	59.042882 
2825.000000	59.038496 
2824.000000	59.037709 
2823.000000	59.039306 
2822.000000	59.041786 
2821.000000	59.043955 
2820.000000	59.045195 
2819.000000	59.045505 
2818.000000	59.045219 
2817.000000	59.044861 
2816.000000	59.044981 
2815.000000	59.045672 
2814.000000	59.046936 
2813.000000	59.047961 
2812.000000	59.047436 
2811.000000	59.043502 
2810.000000	59.034419 
2809.000000	59.018683 
2808.000000	58.995461 
2807.000000	58.964896 
2806.000000	58.928394 
2805.000000	58.888292 
2804.000000	58.847522 
2803.000000	58.809137 
2802.000000	58.775806 
2801.000000	58.749651 
2800.000000	58.731889 
2799.000000	58.722805 
2798.000000	58.721828 
2797.000000	58.727478 
2796.000000	58.737611 
2795.000000	58.749651 
2794.000000	58.761072 
2793.000000	58.769702 
2792.000000	58.774232 
2791.000000	58.774280 
2790.000000	58.770465 
2789.000000	58.764195 
2788.000000	58.757472 
2787.000000	58.752369 
2786.000000	58.750510 
2785.000000	58.752799 
2784.000000	58.759164 
2783.000000	58.768844 
2782.000000	58.780288 
2781.000000	58.791542 
2780.000000	58.800649 
2779.000000	58.806014 
2778.000000	58.806490 
2777.000000	58.801627 
2776.000000	58.791732 
2775.000000	58.777832 
2774.000000	58.761572 
2773.000000	58.744812 
2772.000000	58.729410 
2771.000000	58.717155 
2770.000000	58.709025 
2769.000000	58.704853 
2768.000000	58.703494 
2767.000000	58.702874 
2766.000000	58.700585 
2765.000000	58.694434 
2764.000000	58.682966 
2763.000000	58.665919 
2762.000000	58.644556 
2761.000000	58.621406 
2760.000000	58.599424 
2759.000000	58.581566 
2758.000000	58.570146 
2757.000000	58.566093 
2756.000000	58.569002 
2755.000000	58.577132 
2754.000000	58.587908 
2753.000000	58.598780 
2752.000000	58.607482 
2751.000000	58.613014 
2750.000000	58.615398 
2749.000000	58.615756 
2748.000000	58.615565 
2747.000000	58.616423 
2746.000000	58.619403 
2745.000000	58.624696 
2744.000000	58.631610 
2743.000000	58.638572 
2742.000000	58.643722 
2741.000000	58.645248 
2740.000000	58.641862 
2739.000000	58.633065 
2738.000000	58.618974 
2737.000000	58.600401 
2736.000000	58.578777 
2735.000000	58.555459 
2734.000000	58.531880 
2733.000000	58.509206 
2732.000000	58.488488 
2731.000000	58.470606 
2730.000000	58.456301 
2729.000000	58.446264 
2728.000000	58.441042 
2727.000000	58.440470 
2726.000000	58.443927 
2725.000000	58.450198 
2724.000000	58.457565 
2723.000000	58.464074 
2722.000000	58.467793 
2721.000000	58.467268 
2720.000000	58.461618 
2719.000000	58.450889 
2718.000000	58.435845 
2717.000000	58.417677 
2716.000000	58.398103 
2715.000000	58.378815 
2714.000000	58.361387 
2713.000000	58.347034 
2712.000000	58.336472 
2711.000000	58.329892 
2710.000000	58.326888 
2709.000000	58.326649 
2708.000000	58.327794 
2707.000000	58.328938 
2706.000000	58.328676 
2705.000000	58.326315 
2704.000000	58.321475 
2703.000000	58.314585 
2702.000000	58.306908 
2701.000000	58.300232 
2700.000000	58.296227 
2699.000000	58.296179 
2698.000000	58.300757 
2697.000000	58.309340 
2696.000000	58.320450 
2695.000000	58.331656 
2694.000000	58.340334 
2693.000000	58.343911 
2692.000000	58.340573 
2691.000000	58.329248 
2690.000000	58.310055 
2689.000000	58.284068 
2688.000000	58.253073 
2687.000000	58.219194 
2686.000000	58.184671 
2685.000000	58.151602 
2684.000000	58.121895 
2683.000000	58.097219 
2682.000000	58.078980 
2681.000000	58.068346 
2680.000000	58.066129 
2679.000000	58.072447 
2678.000000	58.086585 
2677.000000	58.106780 
2676.000000	58.130407 
2675.000000	58.154082 
2674.000000	58.174276 
2673.000000	58.187961 
2672.000000	58.193325 
2671.000000	58.190083 
2670.000000	58.179306 
2669.000000	58.163309 
2668.000000	58.144855 
2667.000000	58.126568 
2666.000000	58.110284 
2665.000000	58.096837 
2664.000000	58.085918 
2663.000000	58.076405 
2662.000000	58.066821 
2661.000000	58.055901 
2660.000000	58.042860 
2659.000000	58.027601 
2658.000000	58.010339 
2657.000000	57.991480 
2656.000000	57.971382 
2655.000000	57.950258 
2654.000000	57.928252 
2653.000000	57.905626 
2652.000000	57.882905 
2651.000000	57.861208 
2650.000000	57.842111 
2649.000000	57.827568 
2648.000000	57.819294 
2647.000000	57.818651 
2646.000000	57.826185 
2645.000000	57.841467 
2644.000000	57.862949 
2643.000000	57.888126 
2642.000000	57.913947 
2641.000000	57.937145 
2640.000000	57.954907 
2639.000000	57.965183 
2638.000000	57.967019 
2637.000000	57.960987 
2636.000000	57.948803 
2635.000000	57.933163 
2634.000000	57.916998 
2633.000000	57.903122 
2632.000000	57.893610 
2631.000000	57.889175 
2630.000000	57.888960 
2629.000000	57.890987 
2628.000000	57.892251 
2627.000000	57.889413 
2626.000000	57.879877 
2625.000000	57.862067 
2624.000000	57.836127 
2623.000000	57.803511 
2622.000000	57.767200 
2621.000000	57.730627 
2620.000000	57.697391 
2619.000000	57.670378 
2618.000000	57.651543 
2617.000000	57.641386 
2616.000000	57.639169 
2615.000000	57.643175 
2614.000000	57.651209 
2613.000000	57.661008 
2612.000000	57.670879 
2611.000000	57.679891 
2610.000000	57.687997 
2609.000000	57.695698 
2608.000000	57.703614 
2607.000000	57.712268 
2606.000000	57.721662 
2605.000000	57.731056 
2604.000000	57.739233 
2603.000000	57.744669 
2602.000000	57.746219 
2601.000000	57.743215 
2600.000000	57.735872 
2599.000000	57.725048 
2598.000000	57.712078 
2597.000000	57.698488 
2596.000000	57.685399 
2595.000000	57.673358 
2594.000000	57.662105 
2593.000000	57.650947 
2592.000000	57.639002 
2591.000000	57.625627 
2590.000000	57.610893 
2589.000000	57.595443 
2588.000000	57.580304 
2587.000000	57.566547 
2586.000000	57.555055 
2585.000000	57.546138 
2584.000000	57.539677 
2583.000000	57.534909 
2582.000000	57.530713 
2581.000000	57.526254 
2580.000000	57.521176 
2579.000000	57.515692 
2578.000000	57.510352 
2577.000000	57.506036 
2576.000000	57.503509 
2575.000000	57.503056 
2574.000000	57.504415 
2573.000000	57.506871 
2572.000000	57.509374 
2571.000000	57.510852 
2570.000000	57.510423 
2569.000000	57.507729 
2568.000000	57.502841 
2567.000000	57.496261 
2566.000000	57.488965 
2565.000000	57.482147 
2564.000000	57.476830 
2563.000000	57.474088 
2562.000000	57.473969 
2561.000000	57.475805 
2560.000000	57.477664 
2559.000000	57.477140 
2558.000000	57.471466 
2557.000000	57.458090 
2556.000000	57.435584 
2555.000000	57.403969 
2554.000000	57.365012 
2553.000000	57.322001 
2552.000000	57.279181 
2551.000000	57.240939 
2550.000000	57.211065 
2549.000000	57.191944 
2548.000000	57.184147 
2547.000000	57.186460 
2546.000000	57.196307 
2545.000000	57.210493 
2544.000000	57.225584 
2543.000000	57.238864 
2542.000000	57.248520 
2541.000000	57.253861 
2540.000000	57.254719 
2539.000000	57.251811 
2538.000000	57.245945 
2537.000000	57.238197 
2536.000000	57.229590 
2535.000000	57.220864 
2534.000000	57.212805 
2533.000000	57.205939 
2532.000000	57.200908 
2531.000000	57.198023 
2530.000000	57.197451 
2529.000000	57.198977 
2528.000000	57.202076 
2527.000000	57.205772 
2526.000000	57.208967 
2525.000000	57.210612 
2524.000000	57.209968 
2523.000000	57.206702 
2522.000000	57.200860 
2521.000000	57.193183 
2520.000000	57.184457 
2519.000000	57.175374 
2518.000000	57.166075 
2517.000000	57.156085 
2516.000000	57.144498 
2515.000000	57.130384 
2514.000000	57.113051 
2513.000000	57.092547 
2512.000000	57.069778 
2511.000000	57.046723 
2510.000000	57.026028 
2509.000000	57.010269 
2508.000000	57.001256 
2507.000000	56.999564 
2506.000000	57.004070 
2505.000000	57.012200 
2504.000000	57.020449 
2503.000000	57.025122 
2502.000000	57.023501 
2501.000000	57.014346 
2500.000000	56.998682 
2499.000000	56.979441 
2498.000000	56.960892 
2497.000000	56.947445 
2496.000000	56.942605 
2495.000000	56.947851 
2494.000000	56.962203 
2493.000000	56.982159 
2492.000000	57.002639 
2491.000000	57.017755 
2490.000000	57.022428 
2489.000000	57.013368 
2488.000000	56.989765 
2487.000000	56.953668 
2486.000000	56.909227 
2485.000000	56.861901 
2484.000000	56.817460 
2483.000000	56.780815 
2482.000000	56.755399 
2481.000000	56.742572 
2480.000000	56.741881 
2479.000000	56.751251 
2478.000000	56.767654 
2477.000000	56.787657 
2476.000000	56.807851 
2475.000000	56.825351 
2474.000000	56.838083 
2473.000000	56.844997 
2472.000000	56.845951 
2471.000000	56.841754 
2470.000000	56.833744 
2469.000000	56.823658 
2468.000000	56.813073 
2467.000000	56.803154 
2466.000000	56.794500 
2465.000000	56.786870 
2464.000000	56.779360 
2463.000000	56.770753 
2462.000000	56.759810 
2461.000000	56.745767 
2460.000000	56.728649 
2459.000000	56.709122 
2458.000000	56.688809 
2457.000000	56.669664 
2456.000000	56.653952 
2455.000000	56.643438 
2454.000000	56.639385 
2453.000000	56.642150 
2452.000000	56.651377 
2451.000000	56.665945 
2450.000000	56.684207 
2449.000000	56.704449 
2448.000000	56.724667 
2447.000000	56.742882 
2446.000000	56.757235 
2445.000000	56.766271 
2444.000000	56.768774 
2443.000000	56.763935 
2442.000000	56.751608 
2441.000000	56.732320 
2440.000000	56.707358 
2439.000000	56.678605 
2438.000000	56.648492 
2437.000000	56.619524 
2436.000000	56.594133 
2435.000000	56.574201 
2434.000000	56.560873 
2433.000000	56.554222 
2432.000000	56.553602 
2431.000000	56.557488 
2430.000000	56.563687 
2429.000000	56.569600 
2428.000000	56.572556 
2427.000000	56.570100 
2426.000000	56.560111 
2425.000000	56.541156 
2424.000000	56.512713 
2423.000000	56.475424 
2422.000000	56.430864 
2421.000000	56.381750 
2420.000000	56.331562 
2419.000000	56.284117 
2418.000000	56.242966 
2417.000000	56.210780 
2416.000000	56.188964 
2415.000000	56.177520 
2414.000000	56.175112 
2413.000000	56.179308 
2412.000000	56.187367 
2411.000000	56.196546 
2410.000000	56.205010 
2409.000000	56.211829 
2408.000000	56.217384 
2407.000000	56.222534 
2406.000000	56.228613 
2405.000000	56.236648 
2404.000000	56.247258 
2403.000000	56.260061 
2402.000000	56.273913 
2401.000000	56.287240 
2400.000000	56.298303 
2399.000000	56.305813 
2398.000000	56.309103 
2397.000000	56.308460 
2396.000000	56.304740 
2395.000000	56.299114 
2394.000000	56.292867 
2393.000000	56.286978 
2392.000000	56.281852 
2391.000000	56.277394 
2390.000000	56.273150 
2389.000000	56.268644 
2388.000000	56.263375 
2387.000000	56.257152 
2386.000000	56.250286 
2385.000000	56.243515 
2384.000000	56.237840 
2383.000000	56.234335 
2382.000000	56.233906 
2381.000000	56.236720 
2380.000000	56.242370 
2379.000000	56.249618 
2378.000000	56.256413 
2377.000000	56.260442 
2376.000000	56.259799 
2375.000000	56.253314 
2374.000000	56.240701 
2373.000000	56.223225 
2372.000000	56.203198 
2371.000000	56.183576 
2370.000000	56.167387 
2369.000000	56.156826 
2368.000000	56.152749 
2367.000000	56.154370 
2366.000000	56.159591 
2365.000000	56.165361 
2364.000000	56.168794 
2363.000000	56.167745 
2362.000000	56.161284 
2361.000000	56.149888 
2360.000000	56.135201 
2359.000000	56.119346 
2358.000000	56.104326 
2357.000000	56.091475 
2356.000000	56.081008 
2355.000000	56.072282 
2354.000000	56.063675 
2353.000000	56.053209 
2352.000000	56.038832 
2351.000000	56.019139 
2350.000000	55.993533 
2349.000000	55.962538 
2348.000000	55.927944 
2347.000000	55.892062 
2346.000000	55.858063 
2345.000000	55.829286 
2344.000000	55.808901 
2343.000000	55.799055 
2342.000000	55.800700 
2341.000000	55.813407 
2340.000000	55.835199 
2339.000000	55.862855 
2338.000000	55.892419 
2337.000000	55.920052 
2336.000000	55.942487 
2335.000000	55.957746 
2334.000000	55.965161 
2333.000000	55.965352 
2332.000000	55.959844 
2331.000000	55.950593 
2330.000000	55.939483 
2329.000000	55.928063 
2328.000000	55.917382 
2327.000000	55.907869 
2326.000000	55.899524 
2325.000000	55.892062 
2324.000000	55.885267 
2323.000000	55.878853 
2322.000000	55.872702 
2321.000000	55.866336 
2320.000000	55.859136 
2319.000000	55.850219 
2318.000000	55.838370 
2317.000000	55.822491 
2316.000000	55.801820 
2315.000000	55.776381 
2314.000000	55.746936 
2313.000000	55.715322 
2312.000000	55.684113 
2311.000000	55.656147 
2310.000000	55.633878 
2309.000000	55.618977 
2308.000000	55.611848 
2307.000000	55.611538 
2306.000000	55.615997 
2305.000000	55.622339 
2304.000000	55.627584 
2303.000000	55.629420 
2302.000000	55.626535 
2301.000000	55.618762 
2300.000000	55.606794 
2299.000000	55.591797 
2298.000000	55.574941 
2297.000000	55.557060 
2296.000000	55.538558 
2295.000000	55.519366 
2294.000000	55.499577 
2293.000000	55.479454 
2292.000000	55.459737 
2291.000000	55.441498 
2290.000000	55.426168 
2289.000000	55.414891 
2288.000000	55.408811 
2287.000000	55.408430 
2286.000000	55.413818 
2285.000000	55.424404 
2284.000000	55.439281 
2283.000000	55.457139 
2282.000000	55.476474 
2281.000000	55.495715 
2280.000000	55.513000 
2279.000000	55.526375 
2278.000000	55.533981 
2277.000000	55.534410 
2276.000000	55.527043 
2275.000000	55.512213 
2274.000000	55.491423 
2273.000000	55.467152 
2272.000000	55.442380 
2271.000000	55.420088 
2270.000000	55.402803 
2269.000000	55.391812 
2268.000000	55.387449 
2267.000000	55.388689 
2266.000000	55.393695 
2265.000000	55.400013 
2264.000000	55.404949 
2263.000000	55.406188 
2262.000000	55.401873 
2261.000000	55.391311 
2260.000000	55.374932 
2259.000000	55.354452 
2258.000000	55.332374 
2257.000000	55.311870 
2256.000000	55.296087 
2255.000000	55.287528 
2254.000000	55.287456 
2253.000000	55.295538 
2252.000000	55.309867 
2251.000000	55.327153 
2250.000000	55.343341 
2249.000000	55.354523 
2248.000000	55.357646 
2247.000000	55.351352 
2246.000000	55.335879 
2245.000000	55.313014 
2244.000000	55.285382 
2243.000000	55.256009 
2242.000000	55.227518 
2241.000000	55.201721 
2240.000000	55.179452 
2239.000000	55.160927 
2238.000000	55.145597 
2237.000000	55.132770 
2236.000000	55.121517 
2235.000000	55.111265 
2234.000000	55.101442 
2233.000000	55.091762 
2232.000000	55.081820 
2231.000000	55.071115 
2230.000000	55.059123 
2229.000000	55.045270 
2228.000000	55.029368 
2227.000000	55.011487 
2226.000000	54.992246 
2225.000000	54.972720 
2224.000000	54.954290 
2223.000000	54.938435 
2222.000000	54.926323 
2221.000000	54.918956 
2220.000000	54.916453 
2219.000000	54.918479 
2218.000000	54.924297 
2217.000000	54.932856 
2216.000000	54.942965 
2215.000000	54.953598 
2214.000000	54.963970 
2213.000000	54.973459 
2212.000000	54.981660 
2211.000000	54.987978 
2210.000000	54.991459 
2209.000000	54.990935 
2208.000000	54.985237 
2207.000000	54.973578 
2206.000000	54.955744 
2205.000000	54.932546 
2204.000000	54.906034 
2203.000000	54.879045 
2202.000000	54.854679 
2201.000000	54.835724 
2200.000000	54.824066 
2199.000000	54.820322 
2198.000000	54.823708 
2197.000000	54.832196 
2196.000000	54.843044 
2195.000000	54.853153 
2194.000000	54.860043 
2193.000000	54.861879 
2192.000000	54.858016 
2191.000000	54.848861 
2190.000000	54.835700 
2189.000000	54.820299 
2188.000000	54.804515 
2187.000000	54.789900 
2186.000000	54.777455 
2185.000000	54.767656 
2184.000000	54.760622 
2183.000000	54.756283 
2182.000000	54.754757 
2181.000000	54.755997 
2180.000000	54.760026 
2179.000000	54.766893 
2178.000000	54.776048 
2177.000000	54.786467 
2176.000000	54.796481 
2175.000000	54.803705 
2174.000000	54.805636 
2173.000000	54.800200 
2172.000000	54.786276 
2171.000000	54.764127 
2170.000000	54.735565 
2169.000000	54.703593 
2168.000000	54.671812 
2167.000000	54.643702 
2166.000000	54.621911 
2165.000000	54.607868 
2164.000000	54.601597 
2163.000000	54.601740 
2162.000000	54.606151 
2161.000000	54.611992 
2160.000000	54.616212 
2159.000000	54.615807 
2158.000000	54.608130 
2157.000000	54.591441 
2156.000000	54.565024 
2155.000000	54.529690 
2154.000000	54.487395 
2153.000000	54.441571 
2152.000000	54.396438 
2151.000000	54.356265 
2150.000000	54.324769 
2149.000000	54.304027 
2148.000000	54.294180 
2147.000000	54.293417 
2146.000000	54.298424 
2145.000000	54.305171 
2144.000000	54.310202 
2143.000000	54.311180 
2142.000000	54.307675 
2141.000000	54.300808 
2140.000000	54.293084 
2139.000000	54.287171 
2138.000000	54.285502 
2137.000000	54.289340 
2136.000000	54.298520 
2135.000000	54.311776 
2134.000000	54.326677 
2133.000000	54.340410 
2132.000000	54.350304 
2131.000000	54.354262 
2130.000000	54.351234 
2129.000000	54.341340 
2128.000000	54.325795 
2127.000000	54.306697 
2126.000000	54.286623 
2125.000000	54.268193 
2124.000000	54.253649 
2123.000000	54.244685 
2122.000000	54.242014 
2121.000000	54.245257 
2120.000000	54.253196 
2119.000000	54.264020 
2118.000000	54.275536 
2117.000000	54.285597 
2116.000000	54.292464 
2115.000000	54.295158 
2114.000000	54.293322 
2113.000000	54.287314 
2112.000000	54.277658 
2111.000000	54.264926 
2110.000000	54.249668 
2109.000000	54.232144 
2108.000000	54.212355 
2107.000000	54.190230 
2106.000000	54.166126 
2105.000000	54.140925 
2104.000000	54.115819 
2103.000000	54.092526 
2102.000000	54.072928 
2101.000000	54.058551 
2100.000000	54.050302 
2099.000000	54.048085 
2098.000000	54.050755 
2097.000000	54.056477 
2096.000000	54.063034 
2095.000000	54.068565 
2094.000000	54.071831 
2093.000000	54.072618 
2092.000000	54.071664 
2091.000000	54.070568 
2090.000000	54.071092 
2089.000000	54.074740 
2088.000000	54.081845 
2087.000000	54.091620 
2086.000000	54.101777 
2085.000000	54.109263 
2084.000000	54.110479 
2083.000000	54.102277 
2082.000000	54.082274 
2081.000000	54.050016 
2080.000000	54.007005 
2079.000000	53.956413 
2078.000000	53.902983 
2077.000000	53.852200 
2076.000000	53.809547 
2075.000000	53.779339 
2074.000000	53.764414 
2073.000000	53.765559 
2072.000000	53.781437 
2071.000000	53.809046 
2070.000000	53.843951 
2069.000000	53.881001 
2068.000000	53.914952 
2067.000000	53.941059 
2066.000000	53.955698 
2065.000000	53.956604 
2064.000000	53.943467 
2063.000000	53.918004 
2062.000000	53.883552 
2061.000000	53.844714 
2060.000000	53.806614 
2059.000000	53.774070 
2058.000000	53.750848 
2057.000000	53.739047 
2056.000000	53.738927 
2055.000000	53.748846 
2054.000000	53.765940 
2053.000000	53.786706 
2052.000000	53.807663 
2051.000000	53.826236 
2050.000000	53.840684 
2049.000000	53.850173 
2048.000000	53.854584 
2047.000000	53.854274 
2046.000000	53.849601 
2045.000000	53.840851 
2044.000000	53.828001 
2043.000000	53.811287 
2042.000000	53.791165 
2041.000000	53.768467 
2040.000000	53.744268 
2039.000000	53.719854 
2038.000000	53.696417 
2037.000000	53.674983 
2036.000000	53.656125 
2035.000000	53.639984 
2034.000000	53.626275 
2033.000000	53.614521 
2032.000000	53.604006 
2031.000000	53.594326 
2030.000000	53.584885 
2029.000000	53.575086 
2028.000000	53.564119 
2027.000000	53.551149 
2026.000000	53.535223 
2025.000000	53.515529 
2024.000000	53.491616 
2023.000000	53.463649 
2022.000000	53.432488 
2021.000000	53.399753 
2020.000000	53.367543 
2019.000000	53.338003 
2018.000000	53.313207 
2017.000000	53.294777 
2016.000000	53.283572 
2015.000000	53.279542 
2014.000000	53.281927 
2013.000000	53.289341 
2012.000000	53.299880 
2011.000000	53.311610 
2010.000000	53.322672 
2009.000000	53.331685 
2008.000000	53.337860 
2007.000000	53.341031 
2006.000000	53.341650 
2005.000000	53.340601 
2004.000000	53.339052 
2003.000000	53.338217 
2002.000000	53.339004 
2001.000000	53.341674 
2000.000000	53.346204 
1999.000000	53.351712 
1998.000000	53.357219 
1997.000000	53.361487 
1996.000000	53.363704 
1995.000000	53.363418 
1994.000000	53.360772 
1993.000000	53.356266 
1992.000000	53.350734 
1991.000000	53.344893 
1990.000000	53.339171 
1989.000000	53.333449 
1988.000000	53.327035 
1987.000000	53.318834 
1986.000000	53.307604 
1985.000000	53.292346 
1984.000000	53.272581 
1983.000000	53.248739 
1982.000000	53.222179 
1981.000000	53.194880 
1980.000000	53.169059 
1979.000000	53.146696 
1978.000000	53.129243 
1977.000000	53.117108 
1976.000000	53.109812 
1975.000000	53.106236 
1974.000000	53.104901 
1973.000000	53.104400 
1972.000000	53.103566 
1971.000000	53.101754 
1970.000000	53.098535 
1969.000000	53.093743 
1968.000000	53.087139 
1967.000000	53.078532 
1966.000000	53.067493 
1965.000000	53.053689 
1964.000000	53.037190 
1963.000000	53.018450 
1962.000000	52.998304 
1961.000000	52.978062 
1960.000000	52.959036 
1959.000000	52.942276 
1958.000000	52.928161 
1957.000000	52.916502 
1956.000000	52.906608 
1955.000000	52.897596 
1954.000000	52.888703 
1953.000000	52.879786 
1952.000000	52.871203 
1951.000000	52.863764 
1950.000000	52.858495 
1949.000000	52.856230 
1948.000000	52.857112 
1947.000000	52.860569 
1946.000000	52.865290 
1945.000000	52.869677 
1944.000000	52.872180 
1943.000000	52.871727 
1942.000000	52.868032 
1941.000000	52.861547 
1940.000000	52.853417 
1939.000000	52.845144 
1938.000000	52.837824 
1937.000000	52.832078 
1936.000000	52.828001 
1935.000000	52.824950 
1934.000000	52.822136 
1933.000000	52.818536 
1932.000000	52.813506 
1931.000000	52.806735 
1930.000000	52.798557 
1929.000000	52.789592 
1928.000000	52.780652 
1927.000000	52.772688 
1926.000000	52.766251 
1925.000000	52.761650 
1924.000000	52.758812 
1923.000000	52.757406 
1922.000000	52.757024 
1921.000000	52.757239 
1920.000000	52.757501 
1919.000000	52.757382 
1918.000000	52.756428 
1917.000000	52.754282 
1916.000000	52.750349 
1915.000000	52.744102 
1914.000000	52.734899 
1913.000000	52.722263 
1912.000000	52.705907 
1911.000000	52.685856 
1910.000000	52.662515 
1909.000000	52.636861 
1908.000000	52.610135 
1907.000000	52.583909 
1906.000000	52.559638 
1905.000000	52.538704 
1904.000000	52.521967 
1903.000000	52.509832 
1902.000000	52.502226 
1901.000000	52.498626 
1900.000000	52.498197 
1899.000000	52.500057 
1898.000000	52.503395 
1897.000000	52.507448 
1896.000000	52.511548 
1895.000000	52.515149 
1894.000000	52.517628 
1893.000000	52.518439 
1892.000000	52.517032 
1891.000000	52.512979 
1890.000000	52.506160 
1889.000000	52.496576 
1888.000000	52.484631 
1887.000000	52.470993 
1886.000000	52.456474 
1885.000000	52.441835 
1884.000000	52.427530 
1883.000000	52.413773 
1882.000000	52.400279 
1881.000000	52.386617 
1880.000000	52.372431 
1879.000000	52.357578 
1878.000000	52.342295 
1877.000000	52.327346 
1876.000000	52.313780 
1875.000000	52.302455 
1874.000000	52.293825 
1873.000000	52.287626 
1872.000000	52.282953 
1871.000000	52.278423 
1870.000000	52.272701 
1869.000000	52.264904 
1868.000000	52.254891 
1867.000000	52.243375 
1866.000000	52.231740 
1865.000000	52.221560 
1864.000000	52.213954 
1863.000000	52.209115 
1862.000000	52.206254 
1861.000000	52.203607 
1860.000000	52.199077 
1859.000000	52.190947 
1858.000000	52.178335 
1857.000000	52.161741 
1856.000000	52.142786 
1855.000000	52.123880 
1854.000000	52.107453 
1853.000000	52.095246 
1852.000000	52.087807 
1851.000000	52.084422 
1850.000000	52.083277 
1849.000000	52.082109 
1848.000000	52.078914 
1847.000000	52.072501 
1846.000000	52.062702 
1845.000000	52.050304 
1844.000000	52.036643 
1843.000000	52.023196 
1842.000000	52.010941 
1841.000000	52.000331 
1840.000000	51.991176 
1839.000000	51.982927 
1838.000000	51.975393 
1837.000000	51.968407 
1836.000000	51.962208 
1835.000000	51.957416 
1834.000000	51.954507 
1833.000000	51.953840 
1832.000000	51.955294 
1831.000000	51.958346 
1830.000000	51.962065 
1829.000000	51.965260 
1828.000000	51.966786 
1827.000000	51.965570 
1826.000000	51.961016 
1825.000000	51.952743 
1824.000000	51.940751 
1823.000000	51.925182 
1822.000000	51.906371 
1821.000000	51.884841 
1820.000000	51.861238 
1819.000000	51.836514 
1818.000000	51.811861 
1817.000000	51.788616 
1816.000000	51.768183 
1815.000000	51.751756 
1814.000000	51.740336 
1813.000000	51.734519 
1812.000000	51.734352 
1811.000000	51.739287 
1810.000000	51.748275 
1809.000000	51.759719 
1808.000000	51.771807 
1807.000000	51.782536 
1806.000000	51.790452 
1805.000000	51.794457 
1804.000000	51.794600 
1803.000000	51.791524 
1802.000000	51.786541 
1801.000000	51.781225 
1800.000000	51.776742 
1799.000000	51.773643 
1798.000000	51.771569 
1797.000000	51.769375 
1796.000000	51.765489 
1795.000000	51.758337 
1794.000000	51.747107 
1793.000000	51.731991 
1792.000000	51.714634 
1791.000000	51.697516 
1790.000000	51.683425 
1789.000000	51.674652 
1788.000000	51.672434 
1787.000000	51.676344 
1786.000000	51.684403 
1785.000000	51.693487 
1784.000000	51.700186 
1783.000000	51.701784 
1782.000000	51.696681 
1781.000000	51.684856 
1780.000000	51.667785 
1779.000000	51.647830 
1778.000000	51.627731 
1777.000000	51.609420 
1776.000000	51.593732 
1775.000000	51.579976 
1774.000000	51.566576 
1773.000000	51.551437 
1772.000000	51.532697 
1771.000000	51.509642 
1770.000000	51.483011 
1769.000000	51.454997 
1768.000000	51.428914 
1767.000000	51.408076 
1766.000000	51.395153 
1765.000000	51.391530 
1764.000000	51.396751 
1763.000000	51.408815 
1762.000000	51.424813 
1761.000000	51.441407 
1760.000000	51.455688 
1759.000000	51.465678 
1758.000000	51.470685 
1757.000000	51.471066 
1756.000000	51.467609 
1755.000000	51.461410 
1754.000000	51.453042 
1753.000000	51.442575 
1752.000000	51.429343 
1751.000000	51.412272 
1750.000000	51.390266 
1749.000000	51.362919 
1748.000000	51.330614 
1747.000000	51.294684 
1746.000000	51.257300 
1745.000000	51.221299 
1744.000000	51.189923 
1743.000000	51.166152 
1742.000000	51.152443 
1741.000000	51.149892 
1740.000000	51.158189 
1739.000000	51.175403 
1738.000000	51.198267 
1737.000000	51.222777 
1736.000000	51.244497 
1735.000000	51.259541 
1734.000000	51.265120 
1733.000000	51.260066 
1732.000000	51.244425 
1731.000000	51.219701 
1730.000000	51.188325 
1729.000000	51.153755 
1728.000000	51.119947 
1727.000000	51.090979 
1726.000000	51.070690 
1725.000000	51.061749 
1724.000000	51.065993 
1723.000000	51.082968 
1722.000000	51.110434 
1721.000000	51.143693 
1720.000000	51.176524 
1719.000000	51.201987 
1718.000000	51.213884 
1717.000000	51.208066 
1716.000000	51.183438 
1715.000000	51.142549 
1714.000000	51.091170 
1713.000000	51.036977 
1712.000000	50.988173 
1711.000000	50.951695 
1710.000000	50.932121 
1709.000000	50.931262 
1708.000000	50.948166 
1707.000000	50.979685 
1706.000000	51.021313 
1705.000000	51.067948 
1704.000000	51.114559 
1703.000000	51.156234 
1702.000000	51.188683 
1701.000000	51.208281 
1700.000000	51.212525 
1699.000000	51.200127 
1698.000000	51.171636 
1697.000000	51.129555 
1696.000000	51.078391 
1695.000000	51.024389 
1694.000000	50.974416 
1693.000000	50.935220 
1692.000000	50.911617 
1691.000000	50.905847 
1690.000000	50.916790 
1689.000000	50.940155 
1688.000000	50.969266 
1687.000000	50.996518 
1686.000000	51.014780 
1685.000000	51.018786 
1684.000000	51.006245 
1683.000000	50.978255 
1682.000000	50.938487 
1681.000000	50.892519 
1680.000000	50.846290 
1679.000000	50.804901 
1678.000000	50.771832 
1677.000000	50.748252 
1676.000000	50.733327 
1675.000000	50.724411 
1674.000000	50.718808 
1673.000000	50.713586 
1672.000000	50.706434 
1671.000000	50.695824 
1670.000000	50.681138 
1669.000000	50.662374 
1668.000000	50.639486 
1667.000000	50.612926 
1666.000000	50.583314 
1665.000000	50.552105 
1664.000000	50.521540 
1663.000000	50.495028 
1662.000000	50.476908 
1661.000000	50.471687 
1660.000000	50.483012 
1659.000000	50.512623 
1658.000000	50.559329 
1657.000000	50.618767 
1656.000000	50.683760 
1655.000000	50.745582 
1654.000000	50.795459 
1653.000000	50.826358 
1652.000000	50.834083 
1651.000000	50.818061 
1650.000000	50.781059 
1649.000000	50.728821 
1648.000000	50.668573 
1647.000000	50.607514 
1646.000000	50.551629 
1645.000000	50.505447 
1644.000000	50.471019 
1643.000000	50.448799 
1642.000000	50.437235 
1641.000000	50.433945 
1640.000000	50.435519 
1639.000000	50.438165 
1638.000000	50.438022 
1637.000000	50.431561 
1636.000000	50.416326 
1635.000000	50.391149 
1634.000000	50.356698 
1633.000000	50.315308 
1632.000000	50.270581 
1631.000000	50.226926 
1630.000000	50.188374 
1629.000000	50.158023 
1628.000000	50.137662 
1627.000000	50.127530 
1626.000000	50.126624 
1625.000000	50.132918 
1624.000000	50.144100 
1623.000000	50.157809 
1622.000000	50.171709 
1621.000000	50.183534 
1620.000000	50.191116 
1619.000000	50.192546 
1618.000000	50.186038 
1617.000000	50.170826 
1616.000000	50.147175 
1615.000000	50.116920 
1614.000000	50.083613 
1613.000000	50.051641 
1612.000000	50.025320 
1611.000000	50.007724 
1610.000000	50.000190 
1609.000000	50.001311 
1608.000000	50.007247 
1607.000000	50.012826 
1606.000000	50.012493 
1605.000000	50.002050 
1604.000000	49.979615 
1603.000000	49.946308 
1602.000000	49.905848 
1601.000000	49.863672 
1600.000000	49.825692 
1599.000000	49.796843 
1598.000000	49.780035 
1597.000000	49.775695 
1596.000000	49.781847 
1595.000000	49.795031 
1594.000000	49.810838 
1593.000000	49.824905 
1592.000000	49.833631 
1591.000000	49.834656 
1590.000000	49.827361 
1589.000000	49.812316 
1588.000000	49.791693 
1587.000000	49.768114 
1586.000000	49.744844 
1585.000000	49.725174 
1584.000000	49.711823 
1583.000000	49.706578 
1582.000000	49.709653 
1581.000000	49.719929 
1580.000000	49.734640 
1579.000000	49.750161 
1578.000000	49.762678 
1577.000000	49.768757 
1576.000000	49.766302 
1575.000000	49.755072 
1574.000000	49.735975 
1573.000000	49.711513 
1572.000000	49.684906 
1571.000000	49.659919 
1570.000000	49.640250 
1569.000000	49.629235 
1568.000000	49.629545 
1567.000000	49.642491 
1566.000000	49.668097 
1565.000000	49.704217 
1564.000000	49.747109 
1563.000000	49.791383 
1562.000000	49.831032 
1561.000000	49.859976 
1560.000000	49.873208 
1559.000000	49.867916 
1558.000000	49.843931 
1557.000000	49.803900 
1556.000000	49.752831 
1555.000000	49.696755 
1554.000000	49.641752 
1553.000000	49.593067 
1552.000000	49.554395 
1551.000000	49.528217 
1550.000000	49.515819 
1549.000000	49.517512 
1548.000000	49.532604 
1547.000000	49.559330 
1546.000000	49.594473 
1545.000000	49.633145 
1544.000000	49.669599 
1543.000000	49.697875 
1542.000000	49.713087 
1541.000000	49.712634 
1540.000000	49.696564 
1539.000000	49.667453 
1538.000000	49.629640 
1537.000000	49.588418 
1536.000000	49.548649 
1535.000000	49.513983 
1534.000000	49.486088 
1533.000000	49.464797 
1532.000000	49.448823 
1531.000000	49.436855 
1530.000000	49.427890 
1529.000000	49.421668 
1528.000000	49.418640 
1527.000000	49.419522 
1526.000000	49.424290 
1525.000000	49.431705 
1524.000000	49.439096 
1523.000000	49.442863 
1522.000000	49.439406 
1521.000000	49.426341 
1520.000000	49.403023 
1519.000000	49.371385 
1518.000000	49.335646 
1517.000000	49.301671 
1516.000000	49.276089 
1515.000000	49.264454 
1514.000000	49.270248 
1513.000000	49.293184 
1512.000000	49.329972 
1511.000000	49.373817 
1510.000000	49.416422 
1509.000000	49.449014 
1508.000000	49.464488 
1507.000000	49.458551 
1506.000000	49.430632 
1505.000000	49.383306 
1504.000000	49.321413 
1503.000000	49.251270 
1502.000000	49.179267 
1501.000000	49.110960 
1500.000000	49.050426 
1499.000000	49.000120 
1498.000000	48.961234 
1497.000000	48.933601 
1496.000000	48.916363 
1495.000000	48.907852 
1494.000000	48.905849 
1493.000000	48.907780 
1492.000000	48.910975 
1491.000000	48.912525 
1490.000000	48.910140 
1489.000000	48.902249 
1488.000000	48.888516 
1487.000000	48.869681 
1486.000000	48.847651 
1485.000000	48.825144 
1484.000000	48.805475 
1483.000000	48.791313 
1482.000000	48.785090 
1481.000000	48.788261 
1480.000000	48.801350 
1479.000000	48.823595 
1478.000000	48.852920 
1477.000000	48.886299 
1476.000000	48.919773 
1475.000000	48.949122 
1474.000000	48.970341 
1473.000000	48.980259 
1472.000000	48.977470 
1471.000000	48.962640 
1470.000000	48.938107 
1469.000000	48.907423 
1468.000000	48.875117 
1467.000000	48.845529 
1466.000000	48.822402 
1465.000000	48.807740 
1464.000000	48.801946 
1463.000000	48.803091 
1462.000000	48.808002 
1461.000000	48.812246 
1460.000000	48.811221 
1459.000000	48.800778 
1458.000000	48.778128 
1457.000000	48.742103 
1456.000000	48.693466 
1455.000000	48.634910 
1454.000000	48.570418 
1453.000000	48.504900 
1452.000000	48.443388 
1451.000000	48.390698 
1450.000000	48.350596 
1449.000000	48.325681 
1448.000000	48.316979 
1447.000000	48.324489 
1446.000000	48.346924 
1445.000000	48.381781 
1444.000000	48.425245 
1443.000000	48.472094 
1442.000000	48.516321 
1441.000000	48.551106 
1440.000000	48.570013 
1439.000000	48.568367 
1438.000000	48.544311 
1437.000000	48.499321 
1436.000000	48.438310 
1435.000000	48.368644 
1434.000000	48.298978 
1433.000000	48.237848 
1432.000000	48.192048 
1431.000000	48.165655 
1430.000000	48.159503 
1429.000000	48.171806 
1428.000000	48.198628 
1427.000000	48.234677 
1426.000000	48.274612 
1425.000000	48.313522 
1424.000000	48.347663 
1423.000000	48.374199 
1422.000000	48.391628 
1421.000000	48.399400 
1420.000000	48.397827 
1419.000000	48.387646 
1418.000000	48.370122 
1417.000000	48.346662 
1416.000000	48.318314 
1415.000000	48.285627 
1414.000000	48.248410 
1413.000000	48.206305 
1412.000000	48.159074 
1411.000000	48.107528 
1410.000000	48.053359 
1409.000000	47.999882 
1408.000000	47.951555 
1407.000000	47.913527 
1406.000000	47.890114 
1405.000000	47.884130 
1404.000000	47.895717 
1403.000000	47.922420 
1402.000000	47.959256 
1401.000000	48.000001 
1400.000000	48.038172 
1399.000000	48.068451 
1398.000000	48.087596 
1397.000000	48.094844 
1396.000000	48.091411 
1395.000000	48.080062 
1394.000000	48.063731 
1393.000000	48.045277 
1392.000000	48.026895 
1391.000000	48.010015 
1390.000000	47.995233 
1389.000000	47.982525 
1388.000000	47.971558 
1387.000000	47.961688 
1386.000000	47.952175 
1385.000000	47.942018 
1384.000000	47.930264 
1383.000000	47.915983 
1382.000000	47.898817 
1381.000000	47.878742 
1380.000000	47.856450 
1379.000000	47.833395 
1378.000000	47.811412 
1377.000000	47.792267 
1376.000000	47.777199 
1375.000000	47.766757 
1374.000000	47.760605 
1373.000000	47.757863 
1372.000000	47.757196 
1371.000000	47.757267 
1370.000000	47.757124 
1369.000000	47.756481 
1368.000000	47.755527 
1367.000000	47.754526 
1366.000000	47.753596 
1365.000000	47.752523 
1364.000000	47.750782 
1363.000000	47.747325 
1362.000000	47.741365 
1361.000000	47.732400 
1360.000000	47.720742 
1359.000000	47.707438 
1358.000000	47.693872 
1357.000000	47.681570 
1356.000000	47.671580 
1355.000000	47.664499 
1354.000000	47.660517 
1353.000000	47.659087 
1352.000000	47.659587 
1351.000000	47.661066 
1350.000000	47.662544 
1349.000000	47.662687 
1348.000000	47.660231 
1347.000000	47.653698 
1346.000000	47.641611 
1345.000000	47.622895 
1344.000000	47.597289 
1343.000000	47.565507 
1342.000000	47.529554 
1341.000000	47.492361 
1340.000000	47.457408 
1339.000000	47.427940 
1338.000000	47.406339 
1337.000000	47.393560 
1336.000000	47.389054 
1335.000000	47.391104 
1334.000000	47.397613 
1333.000000	47.406601 
1332.000000	47.416496 
1331.000000	47.426366 
1330.000000	47.435903 
1329.000000	47.444677 
1328.000000	47.452211 
1327.000000	47.457695 
1326.000000	47.460246 
1325.000000	47.459030 
1324.000000	47.453546 
1323.000000	47.443842 
1322.000000	47.430443 
1321.000000	47.414612 
1320.000000	47.397899 
1319.000000	47.381758 
1318.000000	47.367477 
1317.000000	47.355771 
1316.000000	47.346901 
1315.000000	47.340536 
1314.000000	47.336077 
1313.000000	47.332811 
1312.000000	47.330117 
1311.000000	47.327494 
1310.000000	47.324609 
1309.000000	47.321105 
1308.000000	47.316694 
1307.000000	47.310829 
1306.000000	47.302842 
1305.000000	47.291994 
1304.000000	47.277474 
1303.000000	47.258782 
1302.000000	47.235774 
1301.000000	47.208857 
1300.000000	47.178959 
1299.000000	47.147798 
1298.000000	47.117590 
1297.000000	47.090840 
1296.000000	47.070240 
1295.000000	47.058105 
1294.000000	47.055816 
1293.000000	47.063493 
1292.000000	47.079896 
1291.000000	47.102236 
1290.000000	47.126483 
1289.000000	47.148156 
1288.000000	47.162866 
1287.000000	47.167396 
1286.000000	47.160148 
1285.000000	47.141146 
1284.000000	47.111916 
1283.000000	47.075057 
1282.000000	47.033619 
1281.000000	46.990489 
1280.000000	46.948146 
1279.000000	46.908497 
1278.000000	46.872806 
1277.000000	46.842241 
1276.000000	46.817755 
1275.000000	46.800231 
1274.000000	46.790385 
1273.000000	46.788573 
1272.000000	46.794152 
1271.000000	46.805381 
1270.000000	46.819233 
1269.000000	46.831727 
1268.000000	46.838688 
1267.000000	46.836447 
1266.000000	46.823072 
1265.000000	46.798849 
1264.000000	46.766734 
1263.000000	46.731710 
1262.000000	46.699810 
1261.000000	46.676611 
1260.000000	46.665906 
1259.000000	46.668958 
1258.000000	46.684026 
1257.000000	46.707081 
1256.000000	46.732687 
1255.000000	46.755313 
1254.000000	46.770405 
1253.000000	46.775245 
1252.000000	46.769189 
1251.000000	46.753454 
1250.000000	46.730518 
1249.000000	46.703100 
1248.000000	46.673655 
1247.000000	46.643972 
1246.000000	46.614646 
1245.000000	46.585559 
1244.000000	46.556305 
1243.000000	46.526479 
1242.000000	46.496391 
1241.000000	46.467018 
1240.000000	46.439814 
1239.000000	46.416854 
1238.000000	46.400094 
1237.000000	46.391248 
1236.000000	46.391010 
1235.000000	46.399259 
1234.000000	46.414923 
1233.000000	46.436142 
1232.000000	46.460437 
1231.000000	46.485376 
1230.000000	46.508574 
1229.000000	46.528196 
1228.000000	46.542954 
1227.000000	46.552252 
1226.000000	46.555972 
1225.000000	46.554446 
1224.000000	46.548199 
1223.000000	46.537995 
1222.000000	46.524572 
1221.000000	46.508717 
1220.000000	46.491336 
1219.000000	46.473312 
1218.000000	46.455502 
1217.000000	46.438932 
1216.000000	46.424365 
1215.000000	46.412253 
1214.000000	46.402382 
1213.000000	46.394205 
1212.000000	46.386694 
1211.000000	46.378660 
1210.000000	46.368813 
1209.000000	46.356081 
1208.000000	46.340036 
1207.000000	46.320724 
1206.000000	46.299004 
1205.000000	46.275901 
1204.000000	46.252727 
1203.000000	46.230864 
1202.000000	46.211290 
1201.000000	46.194577 
1200.000000	46.180963 
1199.000000	46.170425 
1198.000000	46.162700 
1197.000000	46.157598 
1196.000000	46.154975 
1195.000000	46.154952 
1194.000000	46.157479 
1193.000000	46.162366 
1192.000000	46.169328 
1191.000000	46.177601 
1190.000000	46.186041 
1189.000000	46.192884 
1188.000000	46.196436 
1187.000000	46.194887 
1186.000000	46.186900 
1185.000000	46.171808 
1184.000000	46.149682 
1183.000000	46.121525 
1182.000000	46.089100 
1181.000000	46.054482 
1180.000000	46.019959 
1179.000000	45.987725 
1178.000000	45.959448 
1177.000000	45.936512 
1176.000000	45.919942 
1175.000000	45.910382 
1174.000000	45.908164 
1173.000000	45.913195 
1172.000000	45.924806 
1171.000000	45.941686 
1170.000000	45.961570 
1169.000000	45.981431 
1168.000000	45.997714 
1167.000000	46.006679 
1166.000000	46.005344 
1165.000000	45.991897 
1164.000000	45.966339 
1163.000000	45.930552 
1162.000000	45.887947 
1161.000000	45.842933 
1160.000000	45.800113 
1159.000000	45.763468 
1158.000000	45.735669 
1157.000000	45.717954 
1156.000000	45.709896 
1155.000000	45.709800 
1154.000000	45.714950 
1153.000000	45.722317 
1152.000000	45.728826 
1151.000000	45.731854 
1150.000000	45.729470 
1149.000000	45.720577 
1148.000000	45.705246 
1147.000000	45.684266 
1146.000000	45.659351 
1145.000000	45.632600 
1144.000000	45.606136 
1143.000000	45.581793 
1142.000000	45.560550 
1141.000000	45.542526 
1140.000000	45.526814 
1139.000000	45.512127 
1138.000000	45.497465 
1137.000000	45.482516 
1136.000000	45.467591 
1135.000000	45.453977 
1134.000000	45.443463 
1133.000000	45.437669 
1132.000000	45.437240 
1131.000000	45.441722 
1130.000000	45.449352 
1129.000000	45.457482 
1128.000000	45.463514 
1127.000000	45.465159 
1126.000000	45.461130 
1125.000000	45.451498 
1124.000000	45.437622 
1123.000000	45.421648 
1122.000000	45.405721 
1121.000000	45.391559 
1120.000000	45.380020 
1119.000000	45.371198 
1118.000000	45.364475 
1117.000000	45.359134 
1116.000000	45.354270 
1115.000000	45.349121 
1114.000000	45.342826 
1113.000000	45.334458 
1112.000000	45.322561 
1111.000000	45.305347 
1110.000000	45.280504 
1109.000000	45.246291 
1108.000000	45.201730 
1107.000000	45.146870 
1106.000000	45.083856 
1105.000000	45.016407 
1104.000000	44.949960 
1103.000000	44.890499 
1102.000000	44.843864 
1101.000000	44.814491 
1100.000000	44.804811 
1099.000000	44.814491 
1098.000000	44.840669 
1097.000000	44.878149 
1096.000000	44.920635 
1095.000000	44.961619 
1094.000000	44.995546 
1093.000000	45.018410 
1092.000000	45.028400 
1091.000000	45.025658 
1090.000000	45.012211 
1089.000000	44.990944 
1088.000000	44.965004 
1087.000000	44.937276 
1086.000000	44.910049 
1085.000000	44.884610 
1084.000000	44.861984 
1083.000000	44.842791 
1082.000000	44.827747 
1081.000000	44.817733 
1080.000000	44.813609 
1079.000000	44.816160 
1078.000000	44.825506 
1077.000000	44.841027 
1076.000000	44.861030 
1075.000000	44.882845 
1074.000000	44.903278 
1073.000000	44.919061 
1072.000000	44.927406 
1071.000000	44.926667 
1070.000000	44.916772 
1069.000000	44.899129 
1068.000000	44.876241 
1067.000000	44.851350 
1066.000000	44.827556 
1065.000000	44.807386 
1064.000000	44.792246 
1063.000000	44.782066 
1062.000000	44.775557 
1061.000000	44.770884 
1060.000000	44.766187 
1059.000000	44.759869 
1058.000000	44.751286 
1057.000000	44.740748 
1056.000000	44.729518 
1055.000000	44.719195 
1054.000000	44.711184 
1053.000000	44.706177 
1052.000000	44.704151 
1051.000000	44.703960 
1050.000000	44.703936 
1049.000000	44.702219 
1048.000000	44.697284 
1047.000000	44.688344 
1046.000000	44.675254 
1045.000000	44.658899 
1044.000000	44.640517 
1043.000000	44.621515 
1042.000000	44.603133 
1041.000000	44.586229 
1040.000000	44.571185 
1039.000000	44.557976 
1038.000000	44.546318 
1037.000000	44.535589 
1036.000000	44.525074 
1035.000000	44.513916 
1034.000000	44.500780 
1033.000000	44.484281 
1032.000000	44.463062 
1031.000000	44.436311 
1030.000000	44.403958 
1029.000000	44.366931 
1028.000000	44.327211 
1027.000000	44.287633 
1026.000000	44.251418 
1025.000000	44.221234 
1024.000000	44.198679 
1023.000000	44.183754 
1022.000000	44.175052 
1021.000000	44.170141 
1020.000000	44.166183 
1019.000000	44.161081 
1018.000000	44.154167 
1017.000000	44.146251 
1016.000000	44.139289 
1015.000000	44.135308 
1014.000000	44.135308 
1013.000000	44.138884 
1012.000000	44.144082 
1011.000000	44.148015 
1010.000000	44.148111 
1009.000000	44.143104 
1008.000000	44.134068 
1007.000000	44.124126 
1006.000000	44.117665 
1005.000000	44.119119 
1004.000000	44.131040 
1003.000000	44.153332 
1002.000000	44.182276 
1001.000000	44.211578 
1000.000000	44.233369 
999.000000	 44.240164 
998.000000	 44.226717 
997.000000	 44.191503 
996.000000	 44.137001 
995.000000	 44.068908 
994.000000	 43.995308 
993.000000	 43.924641 
992.000000	 43.864631 
991.000000	 43.820643 
990.000000	 43.795347 
989.000000	 43.788933 
988.000000	 43.799257 
987.000000	 43.822598 
986.000000	 43.854165 
985.000000	 43.888902 
984.000000	 43.922185 
983.000000	 43.950200 
982.000000	 43.969893 
981.000000	 43.979239 
980.000000	 43.977308 
979.000000	 43.964076 
978.000000	 43.940734 
977.000000	 43.909192 
976.000000	 43.871951 
975.000000	 43.831610 
974.000000	 43.791007 
973.000000	 43.752431 
972.000000	 43.717789 
971.000000	 43.688249 
970.000000	 43.664240 
969.000000	 43.645811 
968.000000	 43.632721 
967.000000	 43.624973 
966.000000	 43.622446 
965.000000	 43.625545 
964.000000	 43.634819 
963.000000	 43.650603 
962.000000	 43.672609 
961.000000	 43.698978 
960.000000	 43.726134 
959.000000	 43.748736 
958.000000	 43.760800 
957.000000	 43.757128 
956.000000	 43.734884 
955.000000	 43.694376 
954.000000	 43.639898 
953.000000	 43.579721 
952.000000	 43.524408 
951.000000	 43.484282 
950.000000	 43.467116 
949.000000	 43.476653 
948.000000	 43.511128 
947.000000	 43.563485 
946.000000	 43.622851 
945.000000	 43.676710 
944.000000	 43.713808 
943.000000	 43.726706 
942.000000	 43.713426 
941.000000	 43.676972 
940.000000	 43.625020 
939.000000	 43.567371 
938.000000	 43.513727 
937.000000	 43.471407 
936.000000	 43.443655 
935.000000	 43.429565 
934.000000	 43.424630 
933.000000	 43.422579 
932.000000	 43.416786 
931.000000	 43.401861 
930.000000	 43.374562 
929.000000	 43.334126 
928.000000	 43.281126 
927.000000	 43.216943 
926.000000	 43.142843 
925.000000	 43.060302 
924.000000	 42.970466 
923.000000	 42.875671 
922.000000	 42.779541 
921.000000	 42.687988 
920.000000	 42.608618 
919.000000	 42.549943 
918.000000	 42.519330 
917.000000	 42.521381 
916.000000	 42.556047 
915.000000	 42.618203 
914.000000	 42.697668 
913.000000	 42.781138 
912.000000	 42.854189 
911.000000	 42.904734 
910.000000	 42.925238 
909.000000	 42.913746 
908.000000	 42.874050 
907.000000	 42.813444 
906.000000	 42.740535 
905.000000	 42.663097 
904.000000	 42.586660 
903.000000	 42.513895 
902.000000	 42.445230 
901.000000	 42.380332 
900.000000	 42.319250 
899.000000	 42.263150 
898.000000	 42.214679 
897.000000	 42.176723 
896.000000	 42.152094 
895.000000	 42.141771 
894.000000	 42.145276 
893.000000	 42.159795 
892.000000	 42.181539 
891.000000	 42.206025 
890.000000	 42.229461 
889.000000	 42.249679 
888.000000	 42.265748 
887.000000	 42.277526 
886.000000	 42.285323 
885.000000	 42.289209 
884.000000	 42.289113 
883.000000	 42.284822 
882.000000	 42.276430 
881.000000	 42.264699 
880.000000	 42.250990 
879.000000	 42.237019 
878.000000	 42.224574 
877.000000	 42.214965 
876.000000	 42.208456 
875.000000	 42.204141 
874.000000	 42.200493 
873.000000	 42.195463 
872.000000	 42.186641 
871.000000	 42.172145 
870.000000	 42.150759 
869.000000	 42.122650 
868.000000	 42.089176 
867.000000	 42.053270 
866.000000	 42.018389 
865.000000	 41.988730 
864.000000	 41.968250 
863.000000	 41.960334 
862.000000	 41.966724 
861.000000	 41.987442 
860.000000	 42.020392 
859.000000	 42.061853 
858.000000	 42.106676 
857.000000	 42.150044 
856.000000	 42.188096 
855.000000	 42.219138 
854.000000	 42.243480 
853.000000	 42.263364 
852.000000	 42.281651 
851.000000	 42.301011 
850.000000	 42.322707 
849.000000	 42.346072 
848.000000	 42.368245 
847.000000	 42.385149 
846.000000	 42.392015 
845.000000	 42.384767 
844.000000	 42.360568 
843.000000	 42.318749 
842.000000	 42.260742 
841.000000	 42.190098 
840.000000	 42.111682 
839.000000	 42.030978 
838.000000	 41.953420 
837.000000	 41.883754 
836.000000	 41.825532 
835.000000	 41.781020 
834.000000	 41.751360 
833.000000	 41.736316 
832.000000	 41.734862 
831.000000	 41.744589 
830.000000	 41.762590 
829.000000	 41.785550 
828.000000	 41.809964 
827.000000	 41.832065 
826.000000	 41.849017 
825.000000	 41.858935 
824.000000	 41.861081 
823.000000	 41.855454 
822.000000	 41.842603 
821.000000	 41.823363 
820.000000	 41.798496 
819.000000	 41.768479 
818.000000	 41.733789 
817.000000	 41.694903 
816.000000	 41.652965 
815.000000	 41.609716 
814.000000	 41.567373 
813.000000	 41.528296 
812.000000	 41.494774 
811.000000	 41.468119 
810.000000	 41.448259 
809.000000	 41.433835 
808.000000	 41.422414 
807.000000	 41.411089 
806.000000	 41.396498 
805.000000	 41.376018 
804.000000	 41.348338 
803.000000	 41.313719 
802.000000	 41.273498 
801.000000	 41.230130 
800.000000	 41.186499 
799.000000	 41.145515 
798.000000	 41.109657 
797.000000	 41.080570 
796.000000	 41.058921 
795.000000	 41.044592 
794.000000	 41.036987 
793.000000	 41.034913 
792.000000	 41.037106 
791.000000	 41.042160 
790.000000	 41.049146 
789.000000	 41.057133 
788.000000	 41.065573 
787.000000	 41.074180 
786.000000	 41.083049 
785.000000	 41.092252 
784.000000	 41.102051 
783.000000	 41.112494 
782.000000	 41.123771 
781.000000	 41.135883 
780.000000	 41.148710 
779.000000	 41.162371 
778.000000	 41.176700 
777.000000	 41.191720 
776.000000	 41.206765 
775.000000	 41.220831 
774.000000	 41.231989 
773.000000	 41.238093 
772.000000	 41.236495 
771.000000	 41.224789 
770.000000	 41.201567 
769.000000	 41.166710 
768.000000	 41.121673 
767.000000	 41.069149 
766.000000	 41.012954 
765.000000	 40.957117 
764.000000	 40.904951 
763.000000	 40.858364 
762.000000	 40.817475 
761.000000	 40.780496 
760.000000	 40.744948 
759.000000	 40.707755 
758.000000	 40.666365 
757.000000	 40.619325 
756.000000	 40.566635 
755.000000	 40.510034 
754.000000	 40.451931 
753.000000	 40.395832 
752.000000	 40.345358 
751.000000	 40.304017 
750.000000	 40.274214 
749.000000	 40.257143 
748.000000	 40.252780 
747.000000	 40.259599 
746.000000	 40.274763 
745.000000	 40.294933 
744.000000	 40.316820 
743.000000	 40.337395 
742.000000	 40.354084 
741.000000	 40.365028 
740.000000	 40.368819 
739.000000	 40.364503 
738.000000	 40.351247 
737.000000	 40.328383 
736.000000	 40.295481 
735.000000	 40.253090 
734.000000	 40.202832 
733.000000	 40.147566 
732.000000	 40.091109 
731.000000	 40.038371 
730.000000	 39.993882 
729.000000	 39.960718 
728.000000	 39.939999 
727.000000	 39.930343 
726.000000	 39.928412 
725.000000	 39.929676 
724.000000	 39.929366 
723.000000	 39.923906 
722.000000	 39.910840 
721.000000	 39.889216 
720.000000	 39.859366 
719.000000	 39.822316 
718.000000	 39.779400 
717.000000	 39.731955 
716.000000	 39.681148 
715.000000	 39.628005 
714.000000	 39.573764 
713.000000	 39.520215 
712.000000	 39.469456 
711.000000	 39.424014 
710.000000	 39.386963 
709.000000	 39.361476 
708.000000	 39.349913 
707.000000	 39.353537 
706.000000	 39.372014 
705.000000	 39.403033 
704.000000	 39.442372 
703.000000	 39.484715 
702.000000	 39.523601 
701.000000	 39.552998 
700.000000	 39.568448 
699.000000	 39.567565 
698.000000	 39.550399 
697.000000	 39.519691 
696.000000	 39.480566 
695.000000	 39.438891 
694.000000	 39.399981 
693.000000	 39.367365 
692.000000	 39.342451 
691.000000	 39.323997 
690.000000	 39.309096 
689.000000	 39.293694 
688.000000	 39.273691 
687.000000	 39.245891 
686.000000	 39.208984 
685.000000	 39.163184 
684.000000	 39.110565 
683.000000	 39.054465 
682.000000	 38.998961 
681.000000	 38.948011 
680.000000	 38.904929 
679.000000	 38.871455 
678.000000	 38.848304 
677.000000	 38.834595 
676.000000	 38.829255 
675.000000	 38.830661 
674.000000	 38.838148 
673.000000	 38.851213 
672.000000	 38.870549 
671.000000	 38.897395 
670.000000	 38.932394 
669.000000	 38.975095 
668.000000	 39.022397 
667.000000	 39.068961 
666.000000	 39.107108 
665.000000	 39.128422 
664.000000	 39.125466 
663.000000	 39.093661 
662.000000	 39.032673 
661.000000	 38.946914 
660.000000	 38.844323 
659.000000	 38.735175 
658.000000	 38.629627 
657.000000	 38.536310 
656.000000	 38.461208 
655.000000	 38.407397 
654.000000	 38.375425 
653.000000	 38.363933 
652.000000	 38.370394 
651.000000	 38.391804 
650.000000	 38.424420 
649.000000	 38.464474 
648.000000	 38.507103 
647.000000	 38.547492 
646.000000	 38.580274 
645.000000	 38.600921 
644.000000	 38.606333 
643.000000	 38.595581 
642.000000	 38.570499 
641.000000	 38.534617 
640.000000	 38.492584 
639.000000	 38.448667 
638.000000	 38.406348 
637.000000	 38.366794 
636.000000	 38.329291 
635.000000	 38.291525 
634.000000	 38.250756 
633.000000	 38.204717 
632.000000	 38.152670 
631.000000	 38.095211 
630.000000	 38.034486 
629.000000	 37.973737 
628.000000	 37.916827 
627.000000	 37.866878 
626.000000	 37.825894 
625.000000	 37.794375 
624.000000	 37.771320 
623.000000	 37.754487 
622.000000	 37.741088 
621.000000	 37.728333 
620.000000	 37.714409 
619.000000	 37.697792 
618.000000	 37.678980 
617.000000	 37.659502 
616.000000	 37.642669 
615.000000	 37.631869 
614.000000	 37.630844 
613.000000	 37.642812 
612.000000	 37.669301 
611.000000	 37.709760 
610.000000	 37.760496 
609.000000	 37.814879 
608.000000	 37.863969 
607.000000	 37.898135 
606.000000	 37.908482 
605.000000	 37.888646 
604.000000	 37.836194 
603.000000	 37.753057 
602.000000	 37.645459 
601.000000	 37.522625 
600.000000	 37.395191 
599.000000	 37.273216 
598.000000	 37.165355 
597.000000	 37.077188 
596.000000	 37.011313 
595.000000	 36.967062 
594.000000	 36.941266 
593.000000	 36.928939 
592.000000	 36.924052 
591.000000	 36.921453 
590.000000	 36.916303 
589.000000	 36.906409 
588.000000	 36.890983 
587.000000	 36.872196 
586.000000	 36.853814 
585.000000	 36.840701 
584.000000	 36.837077 
583.000000	 36.845111 
582.000000	 36.864066 
581.000000	 36.889100 
580.000000	 36.912131 
579.000000	 36.923217 
578.000000	 36.912798 
577.000000	 36.873435 
576.000000	 36.801838 
575.000000	 36.699652 
574.000000	 36.573529 
573.000000	 36.433625 
572.000000	 36.291980 
571.000000	 36.159992 
570.000000	 36.047410 
569.000000	 35.960698 
568.000000	 35.902953 
567.000000	 35.873770 
566.000000	 35.870289 
565.000000	 35.887980 
564.000000	 35.921597 
563.000000	 35.965561 
562.000000	 36.014318 
561.000000	 36.061930 
560.000000	 36.102390 
559.000000	 36.129689 
558.000000	 36.138367 
557.000000	 36.124110 
556.000000	 36.084604 
555.000000	 36.020398 
554.000000	 35.934662 
553.000000	 35.832977 
552.000000	 35.722017 
551.000000	 35.608792 
550.000000	 35.499048 
549.000000	 35.397362 
548.000000	 35.307550 
547.000000	 35.232472 
546.000000	 35.174345 
545.000000	 35.134220 
544.000000	 35.112142 
543.000000	 35.106325 
542.000000	 35.112547 
541.000000	 35.125017 
540.000000	 35.135960 
539.000000	 35.138297 
538.000000	 35.126137 
537.000000	 35.097026 
536.000000	 35.052108 
535.000000	 34.996104 
534.000000	 34.936261 
533.000000	 34.879827 
532.000000	 34.832191 
531.000000	 34.795784 
530.000000	 34.769701 
529.000000	 34.750008 
528.000000	 34.731030 
527.000000	 34.707140 
526.000000	 34.674191 
525.000000	 34.629511 
524.000000	 34.572005 
523.000000	 34.501004 
522.000000	 34.416365 
521.000000	 34.318661 
520.000000	 34.209537 
519.000000	 34.092354 
518.000000	 33.972167 
517.000000	 33.855462 
516.000000	 33.749008 
515.000000	 33.659362 
514.000000	 33.590674 
513.000000	 33.542394 
512.000000	 33.510971 
511.000000	 33.488941 
510.000000	 33.469724 
509.000000	 33.447265 
508.000000	 33.421325 
507.000000	 33.396077 
506.000000	 33.381485 
505.000000	 33.389830 
504.000000	 33.432483 
503.000000	 33.515453 
502.000000	 33.637118 
501.000000	 33.787131 
500.000000	 33.946561 
499.000000	 34.090828 
498.000000	 34.194111 
497.000000	 34.234666 
496.000000	 34.198617 
495.000000	 34.083700 
494.000000	 33.900237 
493.000000	 33.670210 
492.000000	 33.423209 
491.000000	 33.192133 
490.000000	 33.007121 
489.000000	 32.891082 
488.000000	 32.856416 
487.000000	 32.903671 
486.000000	 33.022212 
485.000000	 33.193325 
484.000000	 33.392906 
483.000000	 33.596730 
482.000000	 33.784127 
481.000000	 33.939099 
480.000000	 34.051179 
479.000000	 34.113574 
478.000000	 34.122014 
477.000000	 34.073352 
476.000000	 33.966541 
475.000000	 33.801937 
474.000000	 33.583545 
473.000000	 33.320307 
472.000000	 33.027148 
471.000000	 32.723164 
470.000000	 32.429909 
469.000000	 32.166552 
468.000000	 31.947660 
467.000000	 31.782293 
466.000000	 31.673622 
465.000000	 31.617999 
464.000000	 31.607103 
463.000000	 31.629920 
462.000000	 31.673884 
461.000000	 31.726551 
460.000000	 31.775236 
459.000000	 31.804966 
458.000000	 31.802129 
457.000000	 31.753706 
456.000000	 31.653356 
455.000000	 31.500506 
454.000000	 31.306552 
453.000000	 31.092619 
452.000000	 30.889248 
451.000000	 30.730700 
450.000000	 30.647563 
449.000000	 30.659723 
448.000000	 30.770039 
447.000000	 30.962944 
446.000000	 31.203579 
445.000000	 31.444215 
444.000000	 31.633305 
443.000000	 31.726694 
442.000000	 31.695413 
441.000000	 31.533384 
440.000000	 31.256771 
439.000000	 30.902624 
438.000000	 30.522966 
437.000000	 30.174612 
436.000000	 29.905533 
435.000000	 29.747962 
434.000000	 29.717636 
433.000000	 29.809522 
432.000000	 29.999518 
431.000000	 30.252695 
430.000000	 30.528831 
429.000000	 30.793833 
428.000000	 31.025385 
427.000000	 31.214880 
426.000000	 31.362485 
425.000000	 31.474947 
424.000000	 31.561827 
423.000000	 31.623983 
422.000000	 31.650161 
421.000000	 31.622242 
420.000000	 31.524610 
419.000000	 31.337213 
418.000000	 31.044149 
417.000000	 30.648422 
416.000000	 30.177903 
415.000000	 29.677915 
414.000000	 29.209566 
413.000000	 28.838300 
412.000000	 28.628182 
411.000000	 28.621435 
410.000000	 28.838753 
409.000000	 29.290080 
408.000000	 29.958224 
407.000000	 30.800938 
406.000000	 31.743383 
405.000000	 32.676053 
404.000000	 33.477425 
403.000000	 34.041905 
402.000000	 34.290266 
401.000000	 34.190297 
400.000000	 33.751130 
399.000000	 33.038592 
398.000000	 32.123661 
397.000000	 31.078147 
396.000000	 29.930329 
395.000000	 28.684949 
394.000000	 27.270936 
393.000000	 25.574731 
392.000000	 23.498558 
391.000000	 21.012139 
390.000000	 18.244981 
389.000000	 15.463328 
388.000000	 13.056063 
387.000000	 11.403226 
386.000000	 10.658550 
385.000000	 10.726737 
384.000000	 11.217427 
383.000000	 11.634778 
382.000000	 11.515688 
381.000000	 10.630989 
380.000000	 9.167981  
379.000000	 7.602858  
378.000000	 6.511735  
377.000000	 6.412982  
376.000000	 7.458066  
375.000000	 9.537339  
374.000000	 12.290310 
373.000000	 15.268921 
372.000000	 18.120479 
371.000000	 20.633530 
370.000000	 22.783803 

