PE IR       SPECTRUM    SPECTRUM    ASCII       PEDS        1.60        
  -1
BZAC74~1.ASC
17/04/10
10:44:32.00
17/04/10
10:44:32.00
tln
$BZ12041010-4_t0021$<tbV0>[5.2,-2.0,9.0,0.0,22,1,0]
370.000000
64









2002,4.07    
MIRTGS : RIGHTBACK : INTERNAL 2
MIR : ON : INTERNAL 2
OPTKBR

0.200000
8
8.000000
FILLER
RATIO
SPECTRUM
UNLOCKED 256

DOUBLE
64
COMBINED
1
0
0


1.000000
RATIO


1
0
TRUE
51149
0
LEFT NOT FITTED RIGHT NOT FITTED 0
NONE
NONE
15600
12.000000
4.427000
51148
TRUE
1 0 8 72 0 0 0 0 

15798.010000






#HDR
-1
-1
#GR
CM-1
%T
0.00002384185791015625
0.0
5000.000000
-1.000000
4631
8
69.921255
34.671020
#DATA
5000.000000	53.727865 
4999.000000	53.706383 
4998.000000	53.675222 
4997.000000	53.641843 
4996.000000	53.610467 
4995.000000	53.583240 
4994.000000	53.559088 
4993.000000	53.535962 
4992.000000	53.511404 
4991.000000	53.484916 
4990.000000	53.457379 
4989.000000	53.431010 
4988.000000	53.409075 
4987.000000	53.394460 
4986.000000	53.389692 
4985.000000	53.396034 
4984.000000	53.413987 
4983.000000	53.442883 
4982.000000	53.482556 
4981.000000	53.533172 
4980.000000	53.593659 
4979.000000	53.661108 
4978.000000	53.731393 
4977.000000	53.798222 
4976.000000	53.854203 
4975.000000	53.890490 
4974.000000	53.899931 
4973.000000	53.876304 
4972.000000	53.816866 
4971.000000	53.721404 
4970.000000	53.593373 
4969.000000	53.438615 
4968.000000	53.265738 
4967.000000	53.084611 
4966.000000	52.905845 
4965.000000	52.739739 
4964.000000	52.595281 
4963.000000	52.479815 
4962.000000	52.397894 
4961.000000	52.352356 
4960.000000	52.343368 
4959.000000	52.369952 
4958.000000	52.429485 
4957.000000	52.519607 
4956.000000	52.637672 
4955.000000	52.780985 
4954.000000	52.945685 
4953.000000	53.126335 
4952.000000	53.315258 
4951.000000	53.502154 
4950.000000	53.675293 
4949.000000	53.823614 
4948.000000	53.938031 
4947.000000	54.014396 
4946.000000	54.052162 
4945.000000	54.055786 
4944.000000	54.031515 
4943.000000	53.988456 
4942.000000	53.934168 
4941.000000	53.874635 
4940.000000	53.812789 
4939.000000	53.750348 
4938.000000	53.687739 
4937.000000	53.626728 
4936.000000	53.570175 
4935.000000	53.522205 
4934.000000	53.487992 
4933.000000	53.472685 
4932.000000	53.479909 
4931.000000	53.510069 
4930.000000	53.559851 
4929.000000	53.622269 
4928.000000	53.688049 
4927.000000	53.747153 
4926.000000	53.789949 
4925.000000	53.809571 
4924.000000	53.801774 
4923.000000	53.767418 
4922.000000	53.712129 
4921.000000	53.647065 
4920.000000	53.586339 
4919.000000	53.545308 
4918.000000	53.539538 
4917.000000	53.578853 
4916.000000	53.667187 
4915.000000	53.796434 
4914.000000	53.949737 
4913.000000	54.098868 
4912.000000	54.211568 
4911.000000	54.254674 
4910.000000	54.201292 
4909.000000	54.038381 
4908.000000	53.770709 
4907.000000	53.423023 
4906.000000	53.035449 
4905.000000	52.658987 
4904.000000	52.345418 
4903.000000	52.137446 
4902.000000	52.059888 
4901.000000	52.115297 
4900.000000	52.284240 
4899.000000	52.530002 
4898.000000	52.807855 
4897.000000	53.072619 
4896.000000	53.289008 
4895.000000	53.436779 
4894.000000	53.513431 
4893.000000	53.528523 
4892.000000	53.500247 
4891.000000	53.448128 
4890.000000	53.388166 
4889.000000	53.330421 
4888.000000	53.277730 
4887.000000	53.228330 
4886.000000	53.179407 
4885.000000	53.133440 
4884.000000	53.097081 
4883.000000	53.080892 
4882.000000	53.096580 
4881.000000	53.152394 
4880.000000	53.251719 
4879.000000	53.390812 
4878.000000	53.558444 
4877.000000	53.737211 
4876.000000	53.907108 
4875.000000	54.048776 
4874.000000	54.148054 
4873.000000	54.197406 
4872.000000	54.194903 
4871.000000	54.142475 
4870.000000	54.045844 
4869.000000	53.911423 
4868.000000	53.742837 
4867.000000	53.543615 
4866.000000	53.316879 
4865.000000	53.072428 
4864.000000	52.828550 
4863.000000	52.614259 
4862.000000	52.463960 
4861.000000	52.412772 
4860.000000	52.489733 
4859.000000	52.706170 
4858.000000	53.050947 
4857.000000	53.485608 
4856.000000	53.949618 
4855.000000	54.369974 
4854.000000	54.675436 
4853.000000	54.812479 
4852.000000	54.756689 
4851.000000	54.519462 
4850.000000	54.145169 
4849.000000	53.701281 
4848.000000	53.263878 
4847.000000	52.901816 
4846.000000	52.664160 
4845.000000	52.577018 
4844.000000	52.640938 
4843.000000	52.837848 
4842.000000	53.134799 
4841.000000	53.491735 
4840.000000	53.866291 
4839.000000	54.216384 
4838.000000	54.505872 
4837.000000	54.704356 
4836.000000	54.792833 
4835.000000	54.762935 
4834.000000	54.620766 
4833.000000	54.385304 
4832.000000	54.087901 
4831.000000	53.769874 
4830.000000	53.474569 
4829.000000	53.242778 
4828.000000	53.103280 
4827.000000	53.070569 
4826.000000	53.138828 
4825.000000	53.285360 
4824.000000	53.472709 
4823.000000	53.657245 
4822.000000	53.797793 
4821.000000	53.864550 
4820.000000	53.844642 
4819.000000	53.744268 
4818.000000	53.587126 
4817.000000	53.407835 
4816.000000	53.245759 
4815.000000	53.133296 
4814.000000	53.088665 
4813.000000	53.110027 
4812.000000	53.178358 
4811.000000	53.261733 
4810.000000	53.325653 
4809.000000	53.342080 
4808.000000	53.295540 
4807.000000	53.188967 
4806.000000	53.041338 
4805.000000	52.883887 
4804.000000	52.748870 
4803.000000	52.664208 
4802.000000	52.645111 
4801.000000	52.693295 
4800.000000	52.797722 
4799.000000	52.938747 
4798.000000	53.093767 
4797.000000	53.244090 
4796.000000	53.378915 
4795.000000	53.495907 
4794.000000	53.599143 
4793.000000	53.694915 
4792.000000	53.787255 
4791.000000	53.875160 
4790.000000	53.951478 
4789.000000	54.005098 
4788.000000	54.023814 
4787.000000	53.999972 
4786.000000	53.932547 
4785.000000	53.830718 
4784.000000	53.710865 
4783.000000	53.592467 
4782.000000	53.493833 
4781.000000	53.427720 
4780.000000	53.399229 
4779.000000	53.404831 
4778.000000	53.435158 
4777.000000	53.478074 
4776.000000	53.522968 
4775.000000	53.563642 
4774.000000	53.599095 
4773.000000	53.632187 
4772.000000	53.667283 
4771.000000	53.706789 
4770.000000	53.749656 
4769.000000	53.790211 
4768.000000	53.820896 
4767.000000	53.834462 
4766.000000	53.826713 
4765.000000	53.798484 
4764.000000	53.756093 
4763.000000	53.709840 
4762.000000	53.670692 
4761.000000	53.647804 
4760.000000	53.646802 
4759.000000	53.668522 
4758.000000	53.709411 
4757.000000	53.762865 
4756.000000	53.821563 
4755.000000	53.879117 
4754.000000	53.931522 
4753.000000	53.977012 
4752.000000	54.015588 
4751.000000	54.047799 
4750.000000	54.074144 
4749.000000	54.093289 
4748.000000	54.102230 
4747.000000	54.096603 
4746.000000	54.072618 
4745.000000	54.028058 
4744.000000	53.963947 
4743.000000	53.884816 
4742.000000	53.798484 
4741.000000	53.715610 
4740.000000	53.647732 
4739.000000	53.604745 
4738.000000	53.592443 
4737.000000	53.610515 
4736.000000	53.652262 
4735.000000	53.705406 
4734.000000	53.755402 
4733.000000	53.788256 
4732.000000	53.794765 
4731.000000	53.772282 
4730.000000	53.725767 
4729.000000	53.665781 
4728.000000	53.606033 
4727.000000	53.559613 
4726.000000	53.535890 
4725.000000	53.538322 
4724.000000	53.564333 
4723.000000	53.606462 
4722.000000	53.654742 
4721.000000	53.700232 
4720.000000	53.736281 
4719.000000	53.760123 
4718.000000	53.771972 
4717.000000	53.773546 
4716.000000	53.766965 
4715.000000	53.753280 
4714.000000	53.733158 
4713.000000	53.707265 
4712.000000	53.677415 
4711.000000	53.647160 
4710.000000	53.621459 
4709.000000	53.605794 
4708.000000	53.604555 
4707.000000	53.619861 
4706.000000	53.650450 
4705.000000	53.692078 
4704.000000	53.738355 
4703.000000	53.782439 
4702.000000	53.819346 
4701.000000	53.846478 
4700.000000	53.864288 
4699.000000	53.875207 
4698.000000	53.882169 
4697.000000	53.887510 
4696.000000	53.891658 
4695.000000	53.893780 
4694.000000	53.892493 
4693.000000	53.886699 
4692.000000	53.877210 
4691.000000	53.865766 
4690.000000	53.855037 
4689.000000	53.846597 
4688.000000	53.840374 
4687.000000	53.833794 
4686.000000	53.822231 
4685.000000	53.800249 
4684.000000	53.763365 
4683.000000	53.709363 
4682.000000	53.639435 
4681.000000	53.558397 
4680.000000	53.473997 
4679.000000	53.395104 
4678.000000	53.329944 
4677.000000	53.284025 
4676.000000	53.259348 
4675.000000	53.254485 
4674.000000	53.264784 
4673.000000	53.284144 
4672.000000	53.306078 
4671.000000	53.324556 
4670.000000	53.335499 
4669.000000	53.336071 
4668.000000	53.326272 
4667.000000	53.307557 
4666.000000	53.283381 
4665.000000	53.257870 
4664.000000	53.235554 
4663.000000	53.220367 
4662.000000	53.215241 
4661.000000	53.221702 
4660.000000	53.239774 
4659.000000	53.268122 
4658.000000	53.304600 
4657.000000	53.346371 
4656.000000	53.389692 
4655.000000	53.430223 
4654.000000	53.463816 
4653.000000	53.487014 
4652.000000	53.497004 
4651.000000	53.492856 
4650.000000	53.475689 
4649.000000	53.449153 
4648.000000	53.418803 
4647.000000	53.391504 
4646.000000	53.374361 
4645.000000	53.372812 
4644.000000	53.389883 
4643.000000	53.424835 
4642.000000	53.473186 
4641.000000	53.527569 
4640.000000	53.579211 
4639.000000	53.619694 
4638.000000	53.642439 
4637.000000	53.644418 
4636.000000	53.626394 
4635.000000	53.593158 
4634.000000	53.552079 
4633.000000	53.512287 
4632.000000	53.482604 
4631.000000	53.470730 
4630.000000	53.481817 
4629.000000	53.517913 
4628.000000	53.577613 
4627.000000	53.656625 
4626.000000	53.747987 
4625.000000	53.843164 
4624.000000	53.932571 
4623.000000	54.007029 
4622.000000	54.058408 
4621.000000	54.080891 
4620.000000	54.071140 
4619.000000	54.029607 
4618.000000	53.959608 
4617.000000	53.867650 
4616.000000	53.761816 
4615.000000	53.651833 
4614.000000	53.546476 
4613.000000	53.452920 
4612.000000	53.375768 
4611.000000	53.317117 
4610.000000	53.276872 
4609.000000	53.253746 
4608.000000	53.245735 
4607.000000	53.250646 
4606.000000	53.266620 
4605.000000	53.292226 
4604.000000	53.325915 
4603.000000	53.365778 
4602.000000	53.409862 
4601.000000	53.456163 
4600.000000	53.502798 
4599.000000	53.548049 
4598.000000	53.590679 
4597.000000	53.629827 
4596.000000	53.664731 
4595.000000	53.694605 
4594.000000	53.718709 
4593.000000	53.736376 
4592.000000	53.747272 
4591.000000	53.751945 
4590.000000	53.752326 
4589.000000	53.751087 
4588.000000	53.752017 
4587.000000	53.758168 
4586.000000	53.771018 
4585.000000	53.789877 
4584.000000	53.812050 
4583.000000	53.833460 
4582.000000	53.849363 
4581.000000	53.856182 
4580.000000	53.852820 
4579.000000	53.840017 
4578.000000	53.819966 
4577.000000	53.795576 
4576.000000	53.769373 
4575.000000	53.743028 
4574.000000	53.717064 
4573.000000	53.690981 
4572.000000	53.664112 
4571.000000	53.636598 
4570.000000	53.609943 
4569.000000	53.586530 
4568.000000	53.569555 
4567.000000	53.562521 
4566.000000	53.568053 
4565.000000	53.586435 
4564.000000	53.615951 
4563.000000	53.652811 
4562.000000	53.691887 
4561.000000	53.727579 
4560.000000	53.755331 
4559.000000	53.772425 
4558.000000	53.778839 
4557.000000	53.776860 
4556.000000	53.770470 
4555.000000	53.764152 
4554.000000	53.761911 
4553.000000	53.766441 
4552.000000	53.778123 
4551.000000	53.794717 
4550.000000	53.812241 
4549.000000	53.825712 
4548.000000	53.829717 
4547.000000	53.819489 
4546.000000	53.792190 
4545.000000	53.747510 
4544.000000	53.687858 
4543.000000	53.617691 
4542.000000	53.543281 
4541.000000	53.470849 
4540.000000	53.405880 
4539.000000	53.351497 
4538.000000	53.308486 
4537.000000	53.275108 
4536.000000	53.248119 
4535.000000	53.224301 
4534.000000	53.200912 
4533.000000	53.177738 
4532.000000	53.156495 
4531.000000	53.141260 
4530.000000	53.136467 
4529.000000	53.146767 
4528.000000	53.174948 
4527.000000	53.221940 
4526.000000	53.286027 
4525.000000	53.363776 
4524.000000	53.450584 
4523.000000	53.541779 
4522.000000	53.633046 
4521.000000	53.720617 
4520.000000	53.800868 
4519.000000	53.869819 
4518.000000	53.922986 
4517.000000	53.956055 
4516.000000	53.965377 
4515.000000	53.949594 
4514.000000	53.909683 
4513.000000	53.849697 
4512.000000	53.776121 
4511.000000	53.697562 
4510.000000	53.622841 
4509.000000	53.560543 
4508.000000	53.516840 
4507.000000	53.494882 
4506.000000	53.494048 
4505.000000	53.510022 
4504.000000	53.536891 
4503.000000	53.567814 
4502.000000	53.598618 
4501.000000	53.628301 
4500.000000	53.660249 
4499.000000	53.701210 
4498.000000	53.754949 
4497.000000	53.819704 
4496.000000	53.885674 
4495.000000	53.936576 
4494.000000	53.958320 
4493.000000	53.942179 
4492.000000	53.886532 
4491.000000	53.797769 
4490.000000	53.688192 
4489.000000	53.572773 
4488.000000	53.467273 
4487.000000	53.383541 
4486.000000	53.325080 
4485.000000	53.288245 
4484.000000	53.269815 
4483.000000	53.262162 
4482.000000	53.254914 
4481.000000	53.237128 
4480.000000	53.195333 
4479.000000	53.123855 
4478.000000	53.022265 
4477.000000	52.905917 
4476.000000	52.799534 
4475.000000	52.741956 
4474.000000	52.777791 
4473.000000	52.942609 
4472.000000	53.252148 
4471.000000	53.680729 
4470.000000	54.161572 
4469.000000	54.586815 
4468.000000	54.834127 
4467.000000	54.794573 
4466.000000	54.411363 
4465.000000	53.699994 
4464.000000	52.762651 
4463.000000	51.771569 
4462.000000	50.939655 
4461.000000	50.471043 
4460.000000	50.513815 
4459.000000	51.129364 
4458.000000	52.265715 
4457.000000	53.776669 
4456.000000	55.437970 
4455.000000	56.996273 
4454.000000	58.218765 
4453.000000	58.935546 
4452.000000	59.078860 
4451.000000	58.686828 
4450.000000	57.891559 
4449.000000	56.882405 
4448.000000	55.855655 
4447.000000	54.970908 
4446.000000	54.321002 
4445.000000	53.925657 
4444.000000	53.745651 
4443.000000	53.711104 
4442.000000	53.749847 
4441.000000	53.812122 
4440.000000	53.868865 
4439.000000	53.916382 
4438.000000	53.951501 
4437.000000	53.974056 
4436.000000	53.979945 
4435.000000	53.965353 
4434.000000	53.931832 
4433.000000	53.885102 
4432.000000	53.836560 
4431.000000	53.798317 
4430.000000	53.779840 
4429.000000	53.784799 
4428.000000	53.809547 
4427.000000	53.844666 
4426.000000	53.878331 
4425.000000	53.899240 
4424.000000	53.902339 
4423.000000	53.886151 
4422.000000	53.850102 
4421.000000	53.799343 
4420.000000	53.743457 
4419.000000	53.693199 
4418.000000	53.658080 
4417.000000	53.641676 
4416.000000	53.639936 
4415.000000	53.646588 
4414.000000	53.654813 
4413.000000	53.656768 
4412.000000	53.645944 
4411.000000	53.619241 
4410.000000	53.577494 
4409.000000	53.524518 
4408.000000	53.466486 
4407.000000	53.409385 
4406.000000	53.358769 
4405.000000	53.318953 
4404.000000	53.292584 
4403.000000	53.280878 
4402.000000	53.283047 
4401.000000	53.296732 
4400.000000	53.318190 
4399.000000	53.342294 
4398.000000	53.364253 
4397.000000	53.379201 
4396.000000	53.384852 
4395.000000	53.381109 
4394.000000	53.371143 
4393.000000	53.360342 
4392.000000	53.355813 
4391.000000	53.364443 
4390.000000	53.391528 
4389.000000	53.439092 
4388.000000	53.505516 
4387.000000	53.585290 
4386.000000	53.669786 
4385.000000	53.748559 
4384.000000	53.811740 
4383.000000	53.851556 
4382.000000	53.863620 
4381.000000	53.847646 
4380.000000	53.807377 
4379.000000	53.749585 
4378.000000	53.682541 
4377.000000	53.614568 
4376.000000	53.553175 
4375.000000	53.503870 
4374.000000	53.469896 
4373.000000	53.452658 
4372.000000	53.452038 
4371.000000	53.467535 
4370.000000	53.498268 
4369.000000	53.543472 
4368.000000	53.601717 
4367.000000	53.671121 
4366.000000	53.748774 
4365.000000	53.830504 
4364.000000	53.910493 
4363.000000	53.982472 
4362.000000	54.040718 
4361.000000	54.080891 
4360.000000	54.100966 
4359.000000	54.101872 
4358.000000	54.087090 
4357.000000	54.062223 
4356.000000	54.033565 
4355.000000	54.007482 
4354.000000	53.988647 
4353.000000	53.979682 
4352.000000	53.980517 
4351.000000	53.989171 
4350.000000	54.002094 
4349.000000	54.015636 
4348.000000	54.026842 
4347.000000	54.033875 
4346.000000	54.036378 
4345.000000	54.035353 
4344.000000	54.032087 
4343.000000	54.027056 
4342.000000	54.019618 
4341.000000	54.007935 
4340.000000	53.989696 
4339.000000	53.963065 
4338.000000	53.927445 
4337.000000	53.884196 
4336.000000	53.836894 
4335.000000	53.790903 
4334.000000	53.751730 
4333.000000	53.723692 
4332.000000	53.708767 
4331.000000	53.706145 
4330.000000	53.712129 
4329.000000	53.721356 
4328.000000	53.728675 
4327.000000	53.730678 
4326.000000	53.726506 
4325.000000	53.718113 
4324.000000	53.709197 
4323.000000	53.704452 
4322.000000	53.707647 
4321.000000	53.720808 
4320.000000	53.743386 
4319.000000	53.772592 
4318.000000	53.804826 
4317.000000	53.835725 
4316.000000	53.861641 
4315.000000	53.879737 
4314.000000	53.888678 
4313.000000	53.888058 
4312.000000	53.877711 
4311.000000	53.858160 
4310.000000	53.830289 
4309.000000	53.795981 
4308.000000	53.757977 
4307.000000	53.720092 
4306.000000	53.686761 
4305.000000	53.661584 
4304.000000	53.646421 
4303.000000	53.640484 
4302.000000	53.640723 
4301.000000	53.641939 
4300.000000	53.638958 
4299.000000	53.627610 
4298.000000	53.607320 
4297.000000	53.580975 
4296.000000	53.555345 
4295.000000	53.538751 
4294.000000	53.539752 
4293.000000	53.564262 
4292.000000	53.614306 
4291.000000	53.687047 
4290.000000	53.775739 
4289.000000	53.871107 
4288.000000	53.963494 
4287.000000	54.045009 
4286.000000	54.110264 
4285.000000	54.157257 
4284.000000	54.186439 
4283.000000	54.199814 
4282.000000	54.200363 
4281.000000	54.191160 
4280.000000	54.175186 
4279.000000	54.154968 
4278.000000	54.132914 
4277.000000	54.111170 
4276.000000	54.091691 
4275.000000	54.075837 
4274.000000	54.063916 
4273.000000	54.055190 
4272.000000	54.047918 
4271.000000	54.040169 
4270.000000	54.030513 
4269.000000	54.018831 
4268.000000	54.006624 
4267.000000	53.996419 
4266.000000	53.991413 
4265.000000	53.994202 
4264.000000	54.005503 
4263.000000	54.024195 
4262.000000	54.047393 
4261.000000	54.070949 
4260.000000	54.090404 
4259.000000	54.101896 
4258.000000	54.103112 
4257.000000	54.093122 
4256.000000	54.072546 
4255.000000	54.043340 
4254.000000	54.008197 
4253.000000	53.969860 
4252.000000	53.930783 
4251.000000	53.893041 
4250.000000	53.858065 
4249.000000	53.827047 
4248.000000	53.800725 
4247.000000	53.779363 
4246.000000	53.762936 
4245.000000	53.751087 
4244.000000	53.743338 
4243.000000	53.739118 
4242.000000	53.737664 
4241.000000	53.738307 
4240.000000	53.740072 
4239.000000	53.741431 
4238.000000	53.740501 
4237.000000	53.734803 
4236.000000	53.722572 
4235.000000	53.703212 
4234.000000	53.677868 
4233.000000	53.649401 
4232.000000	53.622031 
4231.000000	53.600549 
4230.000000	53.588914 
4229.000000	53.589177 
4228.000000	53.600811 
4227.000000	53.620791 
4226.000000	53.644132 
4225.000000	53.665208 
4224.000000	53.679037 
4223.000000	53.682756 
4222.000000	53.676509 
4221.000000	53.663682 
4220.000000	53.649544 
4219.000000	53.640270 
4218.000000	53.641581 
4217.000000	53.656864 
4216.000000	53.686594 
4215.000000	53.727340 
4214.000000	53.773570 
4213.000000	53.817391 
4212.000000	53.850722 
4211.000000	53.866243 
4210.000000	53.859329 
4209.000000	53.828668 
4208.000000	53.776407 
4207.000000	53.707861 
4206.000000	53.630566 
4205.000000	53.552699 
4204.000000	53.481316 
4203.000000	53.421497 
4202.000000	53.375840 
4201.000000	53.344416 
4200.000000	53.325557 
4199.000000	53.316736 
4198.000000	53.315687 
4197.000000	53.321051 
4196.000000	53.332781 
4195.000000	53.351354 
4194.000000	53.377485 
4193.000000	53.411316 
4192.000000	53.452229 
4191.000000	53.497767 
4190.000000	53.544569 
4189.000000	53.588747 
4188.000000	53.626990 
4187.000000	53.657412 
4186.000000	53.679680 
4185.000000	53.694820 
4184.000000	53.705215 
4183.000000	53.713679 
4182.000000	53.722906 
4181.000000	53.735041 
4180.000000	53.751015 
4179.000000	53.770780 
4178.000000	53.792786 
4177.000000	53.814911 
4176.000000	53.834438 
4175.000000	53.848910 
4174.000000	53.856444 
4173.000000	53.855895 
4172.000000	53.847241 
4171.000000	53.831434 
4170.000000	53.809714 
4169.000000	53.783321 
4168.000000	53.753447 
4167.000000	53.720998 
4166.000000	53.686904 
4165.000000	53.652596 
4164.000000	53.620147 
4163.000000	53.592753 
4162.000000	53.574466 
4161.000000	53.569579 
4160.000000	53.581500 
4159.000000	53.611540 
4158.000000	53.658509 
4157.000000	53.717947 
4156.000000	53.782463 
4155.000000	53.843235 
4154.000000	53.891801 
4153.000000	53.921413 
4152.000000	53.928732 
4151.000000	53.913497 
4150.000000	53.878545 
4149.000000	53.828430 
4148.000000	53.768658 
4147.000000	53.704285 
4146.000000	53.639388 
4145.000000	53.577113 
4144.000000	53.520178 
4143.000000	53.471112 
4142.000000	53.432607 
4141.000000	53.407669 
4140.000000	53.399181 
4139.000000	53.408813 
4138.000000	53.436589 
4137.000000	53.479719 
4136.000000	53.533029 
4135.000000	53.589224 
4134.000000	53.640484 
4133.000000	53.679442 
4132.000000	53.701305 
4131.000000	53.703951 
4130.000000	53.689336 
4129.000000	53.662180 
4128.000000	53.629779 
4127.000000	53.600335 
4126.000000	53.581428 
4125.000000	53.578352 
4124.000000	53.593349 
4123.000000	53.625440 
4122.000000	53.670930 
4121.000000	53.724288 
4120.000000	53.780078 
4119.000000	53.834033 
4118.000000	53.884124 
4117.000000	53.930330 
4116.000000	53.973841 
4115.000000	54.015731 
4114.000000	54.056191 
4113.000000	54.093790 
4112.000000	54.125785 
4111.000000	54.148292 
4110.000000	54.158210 
4109.000000	54.153442 
4108.000000	54.134297 
4107.000000	54.102873 
4106.000000	54.063296 
4105.000000	54.020261 
4104.000000	53.978300 
4103.000000	53.940701 
4102.000000	53.909111 
4101.000000	53.883290 
4100.000000	53.861784 
4099.000000	53.842592 
4098.000000	53.824043 
4097.000000	53.805589 
4096.000000	53.787994 
4095.000000	53.773260 
4094.000000	53.763675 
4093.000000	53.761696 
4092.000000	53.769063 
4091.000000	53.785943 
4090.000000	53.810691 
4089.000000	53.840088 
4088.000000	53.869509 
4087.000000	53.893733 
4086.000000	53.907775 
4085.000000	53.907990 
4084.000000	53.893065 
4083.000000	53.863906 
4082.000000	53.824162 
4081.000000	53.778934 
4080.000000	53.734850 
4079.000000	53.698348 
4078.000000	53.675436 
4077.000000	53.670525 
4076.000000	53.685641 
4075.000000	53.720784 
4074.000000	53.772544 
4073.000000	53.835010 
4072.000000	53.899860 
4071.000000	53.958034 
4070.000000	54.000687 
4069.000000	54.020786 
4068.000000	54.014635 
4067.000000	53.982663 
4066.000000	53.929805 
4065.000000	53.864336 
4064.000000	53.796744 
4063.000000	53.737425 
4062.000000	53.694796 
4061.000000	53.673744 
4060.000000	53.674888 
4059.000000	53.695130 
4058.000000	53.729176 
4057.000000	53.771328 
4056.000000	53.816270 
4055.000000	53.860759 
4054.000000	53.903436 
4053.000000	53.944849 
4052.000000	53.985357 
4051.000000	54.025411 
4050.000000	54.064726 
4049.000000	54.102039 
4048.000000	54.135632 
4047.000000	54.163360 
4046.000000	54.183793 
4045.000000	54.195976 
4044.000000	54.200410 
4043.000000	54.198479 
4042.000000	54.192376 
4041.000000	54.184651 
4040.000000	54.177641 
4039.000000	54.173374 
4038.000000	54.173135 
4037.000000	54.177403 
4036.000000	54.185461 
4035.000000	54.195451 
4034.000000	54.204487 
4033.000000	54.209232 
4032.000000	54.206395 
4031.000000	54.193329 
4030.000000	54.168438 
4029.000000	54.131984 
4028.000000	54.085373 
4027.000000	54.030942 
4026.000000	53.971219 
4025.000000	53.908181 
4024.000000	53.843665 
4023.000000	53.779411 
4022.000000	53.717541 
4021.000000	53.660345 
4020.000000	53.610897 
4019.000000	53.572654 
4018.000000	53.548789 
4017.000000	53.541088 
4016.000000	53.549790 
4015.000000	53.573036 
4014.000000	53.606986 
4013.000000	53.646135 
4012.000000	53.684663 
4011.000000	53.717374 
4010.000000	53.740787 
4009.000000	53.753638 
4008.000000	53.756833 
4007.000000	53.752899 
4006.000000	53.745269 
4005.000000	53.737330 
4004.000000	53.731966 
4003.000000	53.730750 
4002.000000	53.734302 
4001.000000	53.742218 
4000.000000	53.753256 
3999.000000	53.765678 
3998.000000	53.778052 
3997.000000	53.789114 
3996.000000	53.798055 
3995.000000	53.804564 
3994.000000	53.808689 
3993.000000	53.810572 
3992.000000	53.810071 
3991.000000	53.807067 
3990.000000	53.801417 
3989.000000	53.793311 
3988.000000	53.783297 
3987.000000	53.772711 
3986.000000	53.763651 
3985.000000	53.758311 
3984.000000	53.758502 
3983.000000	53.765010 
3982.000000	53.777146 
3981.000000	53.792548 
3980.000000	53.807783 
3979.000000	53.818893 
3978.000000	53.822565 
3977.000000	53.817152 
3976.000000	53.803277 
3975.000000	53.784036 
3974.000000	53.763675 
3973.000000	53.746676 
3972.000000	53.735971 
3971.000000	53.732466 
3970.000000	53.734159 
3969.000000	53.737044 
3968.000000	53.736138 
3967.000000	53.727030 
3966.000000	53.707408 
3965.000000	53.677964 
3964.000000	53.642559 
3963.000000	53.607010 
3962.000000	53.577852 
3961.000000	53.560471 
3960.000000	53.557705 
3959.000000	53.569126 
3958.000000	53.590917 
3957.000000	53.616976 
3956.000000	53.640437 
3955.000000	53.655457 
3954.000000	53.658509 
3953.000000	53.649139 
3952.000000	53.629708 
3951.000000	53.604793 
3950.000000	53.580021 
3949.000000	53.560543 
3948.000000	53.550171 
3947.000000	53.550386 
3946.000000	53.560304 
3945.000000	53.577041 
3944.000000	53.596782 
3943.000000	53.615331 
3942.000000	53.628945 
3941.000000	53.635191 
3940.000000	53.633117 
3939.000000	53.623390 
3938.000000	53.607773 
3937.000000	53.589057 
3936.000000	53.570270 
3935.000000	53.554439 
3934.000000	53.544116 
3933.000000	53.540992 
3932.000000	53.545880 
3931.000000	53.558301 
3930.000000	53.576683 
3929.000000	53.598356 
3928.000000	53.620195 
3927.000000	53.639030 
3926.000000	53.652167 
3925.000000	53.657841 
3924.000000	53.655576 
3923.000000	53.646087 
3922.000000	53.631401 
3921.000000	53.614306 
3920.000000	53.597879 
3919.000000	53.585028 
3918.000000	53.577876 
3917.000000	53.577852 
3916.000000	53.585100 
3915.000000	53.598785 
3914.000000	53.617048 
3913.000000	53.637552 
3912.000000	53.657984 
3911.000000	53.676462 
3910.000000	53.691768 
3909.000000	53.703546 
3908.000000	53.712034 
3907.000000	53.717899 
3906.000000	53.721761 
3905.000000	53.724026 
3904.000000	53.724527 
3903.000000	53.722596 
3902.000000	53.717470 
3901.000000	53.708791 
3900.000000	53.697013 
3899.000000	53.683733 
3898.000000	53.671574 
3897.000000	53.663706 
3896.000000	53.663063 
3895.000000	53.671669 
3894.000000	53.689670 
3893.000000	53.715467 
3892.000000	53.745841 
3891.000000	53.776693 
3890.000000	53.804063 
3889.000000	53.824758 
3888.000000	53.836917 
3887.000000	53.840160 
3886.000000	53.835487 
3885.000000	53.824853 
3884.000000	53.810787 
3883.000000	53.795623 
3882.000000	53.781223 
3881.000000	53.768801 
3880.000000	53.759217 
3879.000000	53.752851 
3878.000000	53.749918 
3877.000000	53.750467 
3876.000000	53.754663 
3875.000000	53.762507 
3874.000000	53.773736 
3873.000000	53.787946 
3872.000000	53.804349 
3871.000000	53.822064 
3870.000000	53.839969 
3869.000000	53.856945 
3868.000000	53.872203 
3867.000000	53.885269 
3866.000000	53.896188 
3865.000000	53.905415 
3864.000000	53.913712 
3863.000000	53.922080 
3862.000000	53.930902 
3861.000000	53.940200 
3860.000000	53.948783 
3859.000000	53.955101 
3858.000000	53.956818 
3857.000000	53.951835 
3856.000000	53.938603 
3855.000000	53.916788 
3854.000000	53.887319 
3853.000000	53.852581 
3852.000000	53.815746 
3851.000000	53.780651 
3850.000000	53.750586 
3849.000000	53.727889 
3848.000000	53.713536 
3847.000000	53.707218 
3846.000000	53.707742 
3845.000000	53.713393 
3844.000000	53.722429 
3843.000000	53.733539 
3842.000000	53.745579 
3841.000000	53.757953 
3840.000000	53.769922 
3839.000000	53.781008 
3838.000000	53.790569 
3837.000000	53.798151 
3836.000000	53.803491 
3835.000000	53.806543 
3834.000000	53.807473 
3833.000000	53.806519 
3832.000000	53.803944 
3831.000000	53.799962 
3830.000000	53.794574 
3829.000000	53.788089 
3828.000000	53.780865 
3827.000000	53.773760 
3826.000000	53.768181 
3825.000000	53.765869 
3824.000000	53.768539 
3823.000000	53.777146 
3822.000000	53.791522 
3821.000000	53.809976 
3820.000000	53.829550 
3819.000000	53.846597 
3818.000000	53.857517 
3817.000000	53.859877 
3816.000000	53.853178 
3815.000000	53.838706 
3814.000000	53.819370 
3813.000000	53.799009 
3812.000000	53.781676 
3811.000000	53.770756 
3810.000000	53.768205 
3809.000000	53.774380 
3808.000000	53.787970 
3807.000000	53.806686 
3806.000000	53.827667 
3805.000000	53.848123 
3804.000000	53.865909 
3803.000000	53.879976 
3802.000000	53.889966 
3801.000000	53.896188 
3800.000000	53.899168 
3799.000000	53.899216 
3798.000000	53.896522 
3797.000000	53.890848 
3796.000000	53.882122 
3795.000000	53.870701 
3794.000000	53.857660 
3793.000000	53.845119 
3792.000000	53.835988 
3791.000000	53.833508 
3790.000000	53.840446 
3789.000000	53.858184 
3788.000000	53.886175 
3787.000000	53.921365 
3786.000000	53.958630 
3785.000000	53.991913 
3784.000000	54.015326 
3783.000000	54.024481 
3782.000000	54.017567 
3781.000000	53.995609 
3780.000000	53.962087 
3779.000000	53.922152 
3778.000000	53.881311 
3777.000000	53.844285 
3776.000000	53.814268 
3775.000000	53.792500 
3774.000000	53.778505 
3773.000000	53.770637 
3772.000000	53.767061 
3771.000000	53.766226 
3770.000000	53.767251 
3769.000000	53.770232 
3768.000000	53.776001 
3767.000000	53.785514 
3766.000000	53.799557 
3765.000000	53.818464 
3764.000000	53.841829 
3763.000000	53.868675 
3762.000000	53.897547 
3761.000000	53.926658 
3760.000000	53.953814 
3759.000000	53.976917 
3758.000000	53.994011 
3757.000000	54.003739 
3756.000000	54.005050 
3755.000000	53.997874 
3754.000000	53.982615 
3753.000000	53.960680 
3752.000000	53.933811 
3751.000000	53.904151 
3750.000000	53.873801 
3749.000000	53.844547 
3748.000000	53.817725 
3747.000000	53.794312 
3746.000000	53.774571 
3745.000000	53.758144 
3744.000000	53.744363 
3743.000000	53.732419 
3742.000000	53.721880 
3741.000000	53.712797 
3740.000000	53.705668 
3739.000000	53.701353 
3738.000000	53.701186 
3737.000000	53.706359 
3736.000000	53.717470 
3735.000000	53.733992 
3734.000000	53.754258 
3733.000000	53.775477 
3732.000000	53.794074 
3731.000000	53.806424 
3730.000000	53.809738 
3729.000000	53.802847 
3728.000000	53.786444 
3727.000000	53.763437 
3726.000000	53.738236 
3725.000000	53.715968 
3724.000000	53.701567 
3723.000000	53.698396 
3722.000000	53.707480 
3721.000000	53.727221 
3720.000000	53.754019 
3719.000000	53.782773 
3718.000000	53.808045 
3717.000000	53.825235 
3716.000000	53.831577 
3715.000000	53.826236 
3714.000000	53.810095 
3713.000000	53.785419 
3712.000000	53.755068 
3711.000000	53.721904 
3710.000000	53.688406 
3709.000000	53.656411 
3708.000000	53.627443 
3707.000000	53.602719 
3706.000000	53.583574 
3705.000000	53.571248 
3704.000000	53.567099 
3703.000000	53.571915 
3702.000000	53.585910 
3701.000000	53.608179 
3700.000000	53.636980 
3699.000000	53.669953 
3698.000000	53.704452 
3697.000000	53.737735 
3696.000000	53.767490 
3695.000000	53.791904 
3694.000000	53.809809 
3693.000000	53.820705 
3692.000000	53.824687 
3691.000000	53.822422 
3690.000000	53.815126 
3689.000000	53.804564 
3688.000000	53.792643 
3687.000000	53.781294 
3686.000000	53.772091 
3685.000000	53.766083 
3684.000000	53.763580 
3683.000000	53.763985 
3682.000000	53.766250 
3681.000000	53.769207 
3680.000000	53.771829 
3679.000000	53.773498 
3678.000000	53.774333 
3677.000000	53.774952 
3676.000000	53.776073 
3675.000000	53.778147 
3674.000000	53.781008 
3673.000000	53.783750 
3672.000000	53.785133 
3671.000000	53.783655 
3670.000000	53.778147 
3669.000000	53.768014 
3668.000000	53.753852 
3667.000000	53.736996 
3666.000000	53.719258 
3665.000000	53.702783 
3664.000000	53.689575 
3663.000000	53.681159 
3662.000000	53.678250 
3661.000000	53.681063 
3660.000000	53.689312 
3659.000000	53.702569 
3658.000000	53.720378 
3657.000000	53.742027 
3656.000000	53.766655 
3655.000000	53.793215 
3654.000000	53.820323 
3653.000000	53.846526 
3652.000000	53.869915 
3651.000000	53.888940 
3650.000000	53.902244 
3649.000000	53.908920 
3648.000000	53.908371 
3647.000000	53.900790 
3646.000000	53.886580 
3645.000000	53.866624 
3644.000000	53.841829 
3643.000000	53.813505 
3642.000000	53.782916 
3641.000000	53.751301 
3640.000000	53.719902 
3639.000000	53.690004 
3638.000000	53.663015 
3637.000000	53.640079 
3636.000000	53.622317 
3635.000000	53.610682 
3634.000000	53.606009 
3633.000000	53.608846 
3632.000000	53.619360 
3631.000000	53.637146 
3630.000000	53.661370 
3629.000000	53.690719 
3628.000000	53.723335 
3627.000000	53.756999 
3626.000000	53.789305 
3625.000000	53.818202 
3624.000000	53.841996 
3623.000000	53.859734 
3622.000000	53.871417 
3621.000000	53.877949 
3620.000000	53.881001 
3619.000000	53.882622 
3618.000000	53.885221 
3617.000000	53.890872 
3616.000000	53.901076 
3615.000000	53.916311 
3614.000000	53.936219 
3613.000000	53.959226 
3612.000000	53.983163 
3611.000000	54.005193 
3610.000000	54.022383 
3609.000000	54.031968 
3608.000000	54.032039 
3607.000000	54.021549 
3606.000000	54.000592 
3605.000000	53.970527 
3604.000000	53.934001 
3603.000000	53.894448 
3602.000000	53.856205 
3601.000000	53.823494 
3600.000000	53.800153 
3599.000000	53.789019 
3598.000000	53.791260 
3597.000000	53.806328 
3596.000000	53.831577 
3595.000000	53.863048 
3594.000000	53.895831 
3593.000000	53.924679 
3592.000000	53.945326 
3591.000000	53.954863 
3590.000000	53.952622 
3589.000000	53.939795 
3588.000000	53.919458 
3587.000000	53.895711 
3586.000000	53.873014 
3585.000000	53.855299 
3584.000000	53.845191 
3583.000000	53.843951 
3582.000000	53.851103 
3581.000000	53.865146 
3580.000000	53.883528 
3579.000000	53.903460 
3578.000000	53.922367 
3577.000000	53.938341 
3576.000000	53.950381 
3575.000000	53.958320 
3574.000000	53.962826 
3573.000000	53.964996 
3572.000000	53.965997 
3571.000000	53.966641 
3570.000000	53.967595 
3569.000000	53.968667 
3568.000000	53.969216 
3567.000000	53.968024 
3566.000000	53.963851 
3565.000000	53.955554 
3564.000000	53.942418 
3563.000000	53.924393 
3562.000000	53.901934 
3561.000000	53.876256 
3560.000000	53.849124 
3559.000000	53.822588 
3558.000000	53.798627 
3557.000000	53.779339 
3556.000000	53.766489 
3555.000000	53.761506 
3554.000000	53.765058 
3553.000000	53.777265 
3552.000000	53.797435 
3551.000000	53.823804 
3550.000000	53.853964 
3549.000000	53.884959 
3548.000000	53.913664 
3547.000000	53.937387 
3546.000000	53.954148 
3545.000000	53.963136 
3544.000000	53.964877 
3543.000000	53.960967 
3542.000000	53.953886 
3541.000000	53.946328 
3540.000000	53.940606 
3539.000000	53.938341 
3538.000000	53.940224 
3537.000000	53.946089 
3536.000000	53.954958 
3535.000000	53.965663 
3534.000000	53.976821 
3533.000000	53.987288 
3532.000000	53.995800 
3531.000000	54.001379 
3530.000000	54.002833 
3529.000000	53.998827 
3528.000000	53.988003 
3527.000000	53.969550 
3526.000000	53.943467 
3525.000000	53.910970 
3524.000000	53.874611 
3523.000000	53.838276 
3522.000000	53.806352 
3521.000000	53.783178 
3520.000000	53.771948 
3519.000000	53.773975 
3518.000000	53.788614 
3517.000000	53.813219 
3516.000000	53.843569 
3515.000000	53.874802 
3514.000000	53.902244 
3513.000000	53.922390 
3512.000000	53.933119 
3511.000000	53.933954 
3510.000000	53.925943 
3509.000000	53.911232 
3508.000000	53.892421 
3507.000000	53.872132 
3506.000000	53.852844 
3505.000000	53.836393 
3504.000000	53.824114 
3503.000000	53.816390 
3502.000000	53.812980 
3501.000000	53.812837 
3500.000000	53.814482 
3499.000000	53.816032 
3498.000000	53.815817 
3497.000000	53.812503 
3496.000000	53.805327 
3495.000000	53.794312 
3494.000000	53.780055 
3493.000000	53.763794 
3492.000000	53.747081 
3491.000000	53.731465 
3490.000000	53.718233 
3489.000000	53.708362 
3488.000000	53.702187 
3487.000000	53.699350 
3486.000000	53.698706 
3485.000000	53.698658 
3484.000000	53.697204 
3483.000000	53.692412 
3482.000000	53.682780 
3481.000000	53.667306 
3480.000000	53.646063 
3479.000000	53.620147 
3478.000000	53.591775 
3477.000000	53.563928 
3476.000000	53.539848 
3475.000000	53.522348 
3474.000000	53.513503 
3473.000000	53.514218 
3472.000000	53.524208 
3471.000000	53.542041 
3470.000000	53.565597 
3469.000000	53.592205 
3468.000000	53.619122 
3467.000000	53.643965 
3466.000000	53.664636 
3465.000000	53.679895 
3464.000000	53.689193 
3463.000000	53.692817 
3462.000000	53.691864 
3461.000000	53.687834 
3460.000000	53.682327 
3459.000000	53.676772 
3458.000000	53.672289 
3457.000000	53.669619 
3456.000000	53.668975 
3455.000000	53.670382 
3454.000000	53.673863 
3453.000000	53.679347 
3452.000000	53.686785 
3451.000000	53.696131 
3450.000000	53.707265 
3449.000000	53.719711 
3448.000000	53.732466 
3447.000000	53.744220 
3446.000000	53.753638 
3445.000000	53.759503 
3444.000000	53.761053 
3443.000000	53.758358 
3442.000000	53.752207 
3441.000000	53.743910 
3440.000000	53.734922 
3439.000000	53.726410 
3438.000000	53.719019 
3437.000000	53.712940 
3436.000000	53.707838 
3435.000000	53.703141 
3434.000000	53.698325 
3433.000000	53.693199 
3432.000000	53.688025 
3431.000000	53.683257 
3430.000000	53.679680 
3429.000000	53.678178 
3428.000000	53.679585 
3427.000000	53.684401 
3426.000000	53.692984 
3425.000000	53.705358 
3424.000000	53.721618 
3423.000000	53.741550 
3422.000000	53.764724 
3421.000000	53.790521 
3420.000000	53.817844 
3419.000000	53.845095 
3418.000000	53.870224 
3417.000000	53.890991 
3416.000000	53.905129 
3415.000000	53.910803 
3414.000000	53.906989 
3413.000000	53.893637 
3412.000000	53.871965 
3411.000000	53.844285 
3410.000000	53.813576 
3409.000000	53.782916 
3408.000000	53.755378 
3407.000000	53.733420 
3406.000000	53.718328 
3405.000000	53.710532 
3404.000000	53.709387 
3403.000000	53.713607 
3402.000000	53.721499 
3401.000000	53.731417 
3400.000000	53.741836 
3399.000000	53.751754 
3398.000000	53.760671 
3397.000000	53.768444 
3396.000000	53.775167 
3395.000000	53.780841 
3394.000000	53.785467 
3393.000000	53.788709 
3392.000000	53.790020 
3391.000000	53.788924 
3390.000000	53.785157 
3389.000000	53.778767 
3388.000000	53.770518 
3387.000000	53.761649 
3386.000000	53.753924 
3385.000000	53.749275 
3384.000000	53.749418 
3383.000000	53.755331 
3382.000000	53.767085 
3381.000000	53.783845 
3380.000000	53.803944 
3379.000000	53.825163 
3378.000000	53.845143 
3377.000000	53.862023 
3376.000000	53.874182 
3375.000000	53.880763 
3374.000000	53.881406 
3373.000000	53.876423 
3372.000000	53.866434 
3371.000000	53.852629 
3370.000000	53.836369 
3369.000000	53.819298 
3368.000000	53.803086 
3367.000000	53.789329 
3366.000000	53.779244 
3365.000000	53.773593 
3364.000000	53.772401 
3363.000000	53.775286 
3362.000000	53.781223 
3361.000000	53.789138 
3360.000000	53.798198 
3359.000000	53.807806 
3358.000000	53.818058 
3357.000000	53.829264 
3356.000000	53.841924 
3355.000000	53.856253 
3354.000000	53.871965 
3353.000000	53.888273 
3352.000000	53.903794 
3351.000000	53.917050 
3350.000000	53.926801 
3349.000000	53.932404 
3348.000000	53.933739 
3347.000000	53.931450 
3346.000000	53.926730 
3345.000000	53.920769 
3344.000000	53.914785 
3343.000000	53.909373 
3342.000000	53.904557 
3341.000000	53.899741 
3340.000000	53.894114 
3339.000000	53.886699 
3338.000000	53.876757 
3337.000000	53.864002 
3336.000000	53.848934 
3335.000000	53.832745 
3334.000000	53.816914 
3333.000000	53.803229 
3332.000000	53.793430 
3331.000000	53.788661 
3330.000000	53.789377 
3329.000000	53.795337 
3328.000000	53.805875 
3327.000000	53.819632 
3326.000000	53.835296 
3325.000000	53.851795 
3324.000000	53.868460 
3323.000000	53.885197 
3322.000000	53.902196 
3321.000000	53.919792 
3320.000000	53.937983 
3319.000000	53.956413 
3318.000000	53.973579 
3317.000000	53.987240 
3316.000000	53.994679 
3315.000000	53.993320 
3314.000000	53.981423 
3313.000000	53.958773 
3312.000000	53.926992 
3311.000000	53.889417 
3310.000000	53.850555 
3309.000000	53.815126 
3308.000000	53.786945 
3307.000000	53.768324 
3306.000000	53.759574 
3305.000000	53.759145 
3304.000000	53.764176 
3303.000000	53.771352 
3302.000000	53.777647 
3301.000000	53.781247 
3300.000000	53.781533 
3299.000000	53.779315 
3298.000000	53.776288 
3297.000000	53.774714 
3296.000000	53.776431 
3295.000000	53.782391 
3294.000000	53.792524 
3293.000000	53.805637 
3292.000000	53.819823 
3291.000000	53.832864 
3290.000000	53.842782 
3289.000000	53.848242 
3288.000000	53.848719 
3287.000000	53.844594 
3286.000000	53.836774 
3285.000000	53.826546 
3284.000000	53.815245 
3283.000000	53.804063 
3282.000000	53.793811 
3281.000000	53.785061 
3280.000000	53.778100 
3279.000000	53.773164 
3278.000000	53.770399 
3277.000000	53.769826 
3276.000000	53.771305 
3275.000000	53.774333 
3274.000000	53.778219 
3273.000000	53.781795 
3272.000000	53.784036 
3271.000000	53.783988 
3270.000000	53.781580 
3269.000000	53.777074 
3268.000000	53.771877 
3267.000000	53.767848 
3266.000000	53.767085 
3265.000000	53.771424 
3264.000000	53.781867 
3263.000000	53.798294 
3262.000000	53.819417 
3261.000000	53.843021 
3260.000000	53.866362 
3259.000000	53.886771 
3258.000000	53.902101 
3257.000000	53.910994 
3256.000000	53.913092 
3255.000000	53.908681 
3254.000000	53.898549 
3253.000000	53.883624 
3252.000000	53.864789 
3251.000000	53.842806 
3250.000000	53.818559 
3249.000000	53.792953 
3248.000000	53.767251 
3247.000000	53.742885 
3246.000000	53.721356 
3245.000000	53.704118 
3244.000000	53.691983 
3243.000000	53.685450 
3242.000000	53.684091 
3241.000000	53.687238 
3240.000000	53.693938 
3239.000000	53.703498 
3238.000000	53.715395 
3237.000000	53.729581 
3236.000000	53.746032 
3235.000000	53.764629 
3234.000000	53.784823 
3233.000000	53.805398 
3232.000000	53.824639 
3231.000000	53.840446 
3230.000000	53.850722 
3229.000000	53.853821 
3228.000000	53.848934 
3227.000000	53.836154 
3226.000000	53.816437 
3225.000000	53.791666 
3224.000000	53.764128 
3223.000000	53.736162 
3222.000000	53.709864 
3221.000000	53.686809 
3220.000000	53.667974 
3219.000000	53.653907 
3218.000000	53.644800 
3217.000000	53.640484 
3216.000000	53.640675 
3215.000000	53.644895 
3214.000000	53.652667 
3213.000000	53.663301 
3212.000000	53.675866 
3211.000000	53.689265 
3210.000000	53.702259 
3209.000000	53.713369 
3208.000000	53.721213 
3207.000000	53.724479 
3206.000000	53.722357 
3205.000000	53.714632 
3204.000000	53.701543 
3203.000000	53.684020 
3202.000000	53.663015 
3201.000000	53.639674 
3200.000000	53.614974 
3199.000000	53.589940 
3198.000000	53.565621 
3197.000000	53.543114 
3196.000000	53.523778 
3195.000000	53.509044 
3194.000000	53.499770 
3193.000000	53.496408 
3192.000000	53.498482 
3191.000000	53.504824 
3190.000000	53.513598 
3189.000000	53.523087 
3188.000000	53.531718 
3187.000000	53.538990 
3186.000000	53.545141 
3185.000000	53.551292 
3184.000000	53.558850 
3183.000000	53.568983 
3182.000000	53.581905 
3181.000000	53.596806 
3180.000000	53.611898 
3179.000000	53.624987 
3178.000000	53.634190 
3177.000000	53.638601 
3176.000000	53.638505 
3175.000000	53.635263 
3174.000000	53.630948 
3173.000000	53.627443 
3172.000000	53.626084 
3171.000000	53.627276 
3170.000000	53.630375 
3169.000000	53.634238 
3168.000000	53.637528 
3167.000000	53.638982 
3166.000000	53.638052 
3165.000000	53.634643 
3164.000000	53.629326 
3163.000000	53.622841 
3162.000000	53.616333 
3161.000000	53.610610 
3160.000000	53.606534 
3159.000000	53.604960 
3158.000000	53.606796 
3157.000000	53.612923 
3156.000000	53.624033 
3155.000000	53.640246 
3154.000000	53.660964 
3153.000000	53.684711 
3152.000000	53.709340 
3151.000000	53.732514 
3150.000000	53.751921 
3149.000000	53.765821 
3148.000000	53.773379 
3147.000000	53.774571 
3146.000000	53.770256 
3145.000000	53.761744 
3144.000000	53.750753 
3143.000000	53.738927 
3142.000000	53.727865 
3141.000000	53.718590 
3140.000000	53.711676 
3139.000000	53.707027 
3138.000000	53.704023 
3137.000000	53.701877 
3136.000000	53.699684 
3135.000000	53.697085 
3134.000000	53.693962 
3133.000000	53.691267 
3132.000000	53.690624 
3131.000000	53.694057 
3130.000000	53.703689 
3129.000000	53.720831 
3128.000000	53.745532 
3127.000000	53.776240 
3126.000000	53.809928 
3125.000000	53.842496 
3124.000000	53.869628 
3123.000000	53.887939 
3122.000000	53.895521 
3121.000000	53.892445 
3120.000000	53.880524 
3119.000000	53.862977 
3118.000000	53.843283 
3117.000000	53.824591 
3116.000000	53.808808 
3115.000000	53.796505 
3114.000000	53.787064 
3113.000000	53.779125 
3112.000000	53.771185 
3111.000000	53.762340 
3110.000000	53.752779 
3109.000000	53.743648 
3108.000000	53.736877 
3107.000000	53.734350 
3106.000000	53.737449 
3105.000000	53.746485 
3104.000000	53.760623 
3103.000000	53.778004 
3102.000000	53.796315 
3101.000000	53.813529 
3100.000000	53.828287 
3099.000000	53.840374 
3098.000000	53.850603 
3097.000000	53.860378 
3096.000000	53.871202 
3095.000000	53.883814 
3094.000000	53.898191 
3093.000000	53.913378 
3092.000000	53.927755 
3091.000000	53.939533 
3090.000000	53.947377 
3089.000000	53.950834 
3088.000000	53.950452 
3087.000000	53.947544 
3086.000000	53.943538 
3085.000000	53.939509 
3084.000000	53.935980 
3083.000000	53.932952 
3082.000000	53.929924 
3081.000000	53.926324 
3080.000000	53.922057 
3079.000000	53.917527 
3078.000000	53.913807 
3077.000000	53.912162 
3076.000000	53.913569 
3075.000000	53.918480 
3074.000000	53.926515 
3073.000000	53.936553 
3072.000000	53.946948 
3071.000000	53.955864 
3070.000000	53.961992 
3069.000000	53.964424 
3068.000000	53.962945 
3067.000000	53.957939 
3066.000000	53.950071 
3065.000000	53.940081 
3064.000000	53.928780 
3063.000000	53.916954 
3062.000000	53.905558 
3061.000000	53.895854 
3060.000000	53.889060 
3059.000000	53.886413 
3058.000000	53.888630 
3057.000000	53.895449 
3056.000000	53.905677 
3055.000000	53.917145 
3054.000000	53.927016 
3053.000000	53.932380 
3052.000000	53.931021 
3051.000000	53.921723 
3050.000000	53.904724 
3049.000000	53.881740 
3048.000000	53.855443 
3047.000000	53.828907 
3046.000000	53.805065 
3045.000000	53.785991 
3044.000000	53.772997 
3043.000000	53.766417 
3042.000000	53.765988 
3041.000000	53.771162 
3040.000000	53.781390 
3039.000000	53.796219 
3038.000000	53.815221 
3037.000000	53.837680 
3036.000000	53.862428 
3035.000000	53.887748 
3034.000000	53.911375 
3033.000000	53.930735 
3032.000000	53.943371 
3031.000000	53.947281 
3030.000000	53.941488 
3029.000000	53.926277 
3028.000000	53.903293 
3027.000000	53.875303 
3026.000000	53.845691 
3025.000000	53.817868 
3024.000000	53.794813 
3023.000000	53.778386 
3022.000000	53.769278 
3021.000000	53.766727 
3020.000000	53.769063 
3019.000000	53.773975 
3018.000000	53.779101 
3017.000000	53.782558 
3016.000000	53.783273 
3015.000000	53.781151 
3014.000000	53.776931 
3013.000000	53.771901 
3012.000000	53.767561 
3011.000000	53.764986 
3010.000000	53.764724 
3009.000000	53.766727 
3008.000000	53.770303 
3007.000000	53.774476 
3006.000000	53.777956 
3005.000000	53.779792 
3004.000000	53.779292 
3003.000000	53.776144 
3002.000000	53.770303 
3001.000000	53.762197 
3000.000000	53.752422 
2999.000000	53.741574 
2998.000000	53.730177 
2997.000000	53.718447 
2996.000000	53.706502 
2995.000000	53.694462 
2994.000000	53.682303 
2993.000000	53.670191 
2992.000000	53.658509 
2991.000000	53.647875 
2990.000000	53.639006 
2989.000000	53.632235 
2988.000000	53.627681 
2987.000000	53.625106 
2986.000000	53.623867 
2985.000000	53.623008 
2984.000000	53.621625 
2983.000000	53.618931 
2982.000000	53.614401 
2981.000000	53.607726 
2980.000000	53.598999 
2979.000000	53.588485 
2978.000000	53.576374 
2977.000000	53.562855 
2976.000000	53.547859 
2975.000000	53.531455 
2974.000000	53.513932 
2973.000000	53.495788 
2972.000000	53.477668 
2971.000000	53.460431 
2970.000000	53.444623 
2969.000000	53.430867 
2968.000000	53.419280 
2967.000000	53.410053 
2966.000000	53.403282 
2965.000000	53.399562 
2964.000000	53.399848 
2963.000000	53.405284 
2962.000000	53.416872 
2961.000000	53.435134 
2960.000000	53.459787 
2959.000000	53.489708 
2958.000000	53.522753 
2957.000000	53.556370 
2956.000000	53.587961 
2955.000000	53.615450 
2954.000000	53.637456 
2953.000000	53.653478 
2952.000000	53.663539 
2951.000000	53.667950 
2950.000000	53.666782 
2949.000000	53.660035 
2948.000000	53.647422 
2947.000000	53.628826 
2946.000000	53.604769 
2945.000000	53.576946 
2944.000000	53.547883 
2943.000000	53.521060 
2942.000000	53.499889 
2941.000000	53.487253 
2940.000000	53.484773 
2939.000000	53.492140 
2938.000000	53.507494 
2937.000000	53.527736 
2936.000000	53.549122 
2935.000000	53.568172 
2934.000000	53.582382 
2933.000000	53.590607 
2932.000000	53.593039 
2931.000000	53.590703 
2930.000000	53.584933 
2929.000000	53.576803 
2928.000000	53.566861 
2927.000000	53.555083 
2926.000000	53.541111 
2925.000000	53.524708 
2924.000000	53.506302 
2923.000000	53.487181 
2922.000000	53.469276 
2921.000000	53.454971 
2920.000000	53.446435 
2919.000000	53.445053 
2918.000000	53.450846 
2917.000000	53.462719 
2916.000000	53.478264 
2915.000000	53.495001 
2914.000000	53.510499 
2913.000000	53.523612 
2912.000000	53.534317 
2911.000000	53.544116 
2910.000000	53.555297 
2909.000000	53.570222 
2908.000000	53.590440 
2907.000000	53.616070 
2906.000000	53.645491 
2905.000000	53.675866 
2904.000000	53.703570 
2903.000000	53.725314 
2902.000000	53.738903 
2901.000000	53.743863 
2900.000000	53.741574 
2899.000000	53.734850 
2898.000000	53.727269 
2897.000000	53.722190 
2896.000000	53.721833 
2895.000000	53.727006 
2894.000000	53.736782 
2893.000000	53.748941 
2892.000000	53.760480 
2891.000000	53.768682 
2890.000000	53.771591 
2889.000000	53.768587 
2888.000000	53.760552 
2887.000000	53.749322 
2886.000000	53.737473 
2885.000000	53.727579 
2884.000000	53.721690 
2883.000000	53.720736 
2882.000000	53.724670 
2881.000000	53.732681 
2880.000000	53.743243 
2879.000000	53.754472 
2878.000000	53.764724 
2877.000000	53.772807 
2876.000000	53.777861 
2875.000000	53.779649 
2874.000000	53.778386 
2873.000000	53.774666 
2872.000000	53.769493 
2871.000000	53.764128 
2870.000000	53.759837 
2869.000000	53.757953 
2868.000000	53.759527 
2867.000000	53.765177 
2866.000000	53.774857 
2865.000000	53.787565 
2864.000000	53.801798 
2863.000000	53.815650 
2862.000000	53.827023 
2861.000000	53.834176 
2860.000000	53.835964 
2859.000000	53.832125 
2858.000000	53.823161 
2857.000000	53.810262 
2856.000000	53.794932 
2855.000000	53.778409 
2854.000000	53.761553 
2853.000000	53.744721 
2852.000000	53.727960 
2851.000000	53.711295 
2850.000000	53.695082 
2849.000000	53.680109 
2848.000000	53.667807 
2847.000000	53.659939 
2846.000000	53.658294 
2845.000000	53.664016 
2844.000000	53.677296 
2843.000000	53.697347 
2842.000000	53.722596 
2841.000000	53.750705 
2840.000000	53.779196 
2839.000000	53.806018 
2838.000000	53.829813 
2837.000000	53.849864 
2836.000000	53.866314 
2835.000000	53.879570 
2834.000000	53.890204 
2833.000000	53.898644 
2832.000000	53.905034 
2831.000000	53.909659 
2830.000000	53.912806 
2829.000000	53.915119 
2828.000000	53.917384 
2827.000000	53.920555 
2826.000000	53.925395 
2825.000000	53.932428 
2824.000000	53.941607 
2823.000000	53.952455 
2822.000000	53.963828 
2821.000000	53.974461 
2820.000000	53.983044 
2819.000000	53.988361 
2818.000000	53.989696 
2817.000000	53.986716 
2816.000000	53.979516 
2815.000000	53.968524 
2814.000000	53.954601 
2813.000000	53.938937 
2812.000000	53.923201 
2811.000000	53.909039 
2810.000000	53.898191 
2809.000000	53.891777 
2808.000000	53.890419 
2807.000000	53.893804 
2806.000000	53.900575 
2805.000000	53.908562 
2804.000000	53.915500 
2803.000000	53.919434 
2802.000000	53.919029 
2801.000000	53.913879 
2800.000000	53.904604 
2799.000000	53.892374 
2798.000000	53.878593 
2797.000000	53.864622 
2796.000000	53.851437 
2795.000000	53.839588 
2794.000000	53.829216 
2793.000000	53.820490 
2792.000000	53.813886 
2791.000000	53.810048 
2790.000000	53.810000 
2789.000000	53.814697 
2788.000000	53.824663 
2787.000000	53.839659 
2786.000000	53.858351 
2785.000000	53.878498 
2784.000000	53.897285 
2783.000000	53.911852 
2782.000000	53.919982 
2781.000000	53.920197 
2780.000000	53.912281 
2779.000000	53.897380 
2778.000000	53.877663 
2777.000000	53.855729 
2776.000000	53.834152 
2775.000000	53.814959 
2774.000000	53.799486 
2773.000000	53.788089 
2772.000000	53.780364 
2771.000000	53.775405 
2770.000000	53.772187 
2769.000000	53.769874 
2768.000000	53.767991 
2767.000000	53.766608 
2766.000000	53.766012 
2765.000000	53.766679 
2764.000000	53.768897 
2763.000000	53.772711 
2762.000000	53.777742 
2761.000000	53.783249 
2760.000000	53.788518 
2759.000000	53.792881 
2758.000000	53.796100 
2757.000000	53.798413 
2756.000000	53.800559 
2755.000000	53.803420 
2754.000000	53.808116 
2753.000000	53.815150 
2752.000000	53.824472 
2751.000000	53.835201 
2750.000000	53.845787 
2749.000000	53.854370 
2748.000000	53.859210 
2747.000000	53.859138 
2746.000000	53.853702 
2745.000000	53.843450 
2744.000000	53.829932 
2743.000000	53.814935 
2742.000000	53.800272 
2741.000000	53.787255 
2740.000000	53.776502 
2739.000000	53.767824 
2738.000000	53.760695 
2737.000000	53.754329 
2736.000000	53.748130 
2735.000000	53.742074 
2734.000000	53.736758 
2733.000000	53.733062 
2732.000000	53.731846 
2731.000000	53.733587 
2730.000000	53.738093 
2729.000000	53.744411 
2728.000000	53.750967 
2727.000000	53.756165 
2726.000000	53.758597 
2725.000000	53.757715 
2724.000000	53.753733 
2723.000000	53.747558 
2722.000000	53.740668 
2721.000000	53.734493 
2720.000000	53.730273 
2719.000000	53.728580 
2718.000000	53.729367 
2717.000000	53.731989 
2716.000000	53.735351 
2715.000000	53.738260 
2714.000000	53.739666 
2713.000000	53.738808 
2712.000000	53.735375 
2711.000000	53.729581 
2710.000000	53.722071 
2709.000000	53.713774 
2708.000000	53.705668 
2707.000000	53.698563 
2706.000000	53.693127 
2705.000000	53.689622 
2704.000000	53.687787 
2703.000000	53.687310 
2702.000000	53.687524 
2701.000000	53.688073 
2700.000000	53.689026 
2699.000000	53.691029 
2698.000000	53.695034 
2697.000000	53.702068 
2696.000000	53.712868 
2695.000000	53.727364 
2694.000000	53.744554 
2693.000000	53.762555 
2692.000000	53.779077 
2691.000000	53.791832 
2690.000000	53.799176 
2689.000000	53.800392 
2688.000000	53.795909 
2687.000000	53.787350 
2686.000000	53.777027 
2685.000000	53.767561 
2684.000000	53.761339 
2683.000000	53.760027 
2682.000000	53.764462 
2681.000000	53.774499 
2680.000000	53.788995 
2679.000000	53.806257 
2678.000000	53.824162 
2677.000000	53.840565 
2676.000000	53.853487 
2675.000000	53.861355 
2674.000000	53.863382 
2673.000000	53.859496 
2672.000000	53.850436 
2671.000000	53.837656 
2670.000000	53.822779 
2669.000000	53.807306 
2668.000000	53.792285 
2667.000000	53.778100 
2666.000000	53.764629 
2665.000000	53.751492 
2664.000000	53.738427 
2663.000000	53.725409 
2662.000000	53.713035 
2661.000000	53.702425 
2660.000000	53.694868 
2659.000000	53.691506 
2658.000000	53.692984 
2657.000000	53.699135 
2656.000000	53.709197 
2655.000000	53.721714 
2654.000000	53.734803 
2653.000000	53.746652 
2652.000000	53.755855 
2651.000000	53.761744 
2650.000000	53.764104 
2649.000000	53.763437 
2648.000000	53.760385 
2647.000000	53.755688 
2646.000000	53.750324 
2645.000000	53.745079 
2644.000000	53.740596 
2643.000000	53.737354 
2642.000000	53.735756 
2641.000000	53.735995 
2640.000000	53.738021 
2639.000000	53.741431 
2638.000000	53.745365 
2637.000000	53.748703 
2636.000000	53.750371 
2635.000000	53.749561 
2634.000000	53.746008 
2633.000000	53.740453 
2632.000000	53.734421 
2631.000000	53.730201 
2630.000000	53.730344 
2629.000000	53.737235 
2628.000000	53.752398 
2627.000000	53.776216 
2626.000000	53.807377 
2625.000000	53.843212 
2624.000000	53.879714 
2623.000000	53.912138 
2622.000000	53.935980 
2621.000000	53.947424 
2620.000000	53.944420 
2619.000000	53.926753 
2618.000000	53.896689 
2617.000000	53.858256 
2616.000000	53.817057 
2615.000000	53.779077 
2614.000000	53.749823 
2613.000000	53.733325 
2612.000000	53.731369 
2611.000000	53.743457 
2610.000000	53.766751 
2609.000000	53.796887 
2608.000000	53.828930 
2607.000000	53.858542 
2606.000000	53.882551 
2605.000000	53.899478 
2604.000000	53.909492 
2603.000000	53.913903 
2602.000000	53.914642 
2601.000000	53.913569 
2600.000000	53.911995 
2599.000000	53.910803 
2598.000000	53.910350 
2597.000000	53.910779 
2596.000000	53.912472 
2595.000000	53.915882 
2594.000000	53.921627 
2593.000000	53.930139 
2592.000000	53.941369 
2591.000000	53.954458 
2590.000000	53.967642 
2589.000000	53.978490 
2588.000000	53.984570 
2587.000000	53.984117 
2586.000000	53.976511 
2585.000000	53.962421 
2584.000000	53.943848 
2583.000000	53.923678 
2582.000000	53.905177 
2581.000000	53.891062 
2580.000000	53.883004 
2579.000000	53.881502 
2578.000000	53.885698 
2577.000000	53.894019 
2576.000000	53.904604 
2575.000000	53.915524 
2574.000000	53.925418 
2573.000000	53.933691 
2572.000000	53.940558 
2571.000000	53.946447 
2570.000000	53.952002 
2569.000000	53.957653 
2568.000000	53.963327 
2567.000000	53.968548 
2566.000000	53.972244 
2565.000000	53.973245 
2564.000000	53.970384 
2563.000000	53.962802 
2562.000000	53.950214 
2561.000000	53.932952 
2560.000000	53.912067 
2559.000000	53.889131 
2558.000000	53.866195 
2557.000000	53.845357 
2556.000000	53.828644 
2555.000000	53.817558 
2554.000000	53.813052 
2553.000000	53.815293 
2552.000000	53.823733 
2551.000000	53.837180 
2550.000000	53.853917 
2549.000000	53.871941 
2548.000000	53.889298 
2547.000000	53.904080 
2546.000000	53.914713 
2545.000000	53.919887 
2544.000000	53.918790 
2543.000000	53.911113 
2542.000000	53.896999 
2541.000000	53.877282 
2540.000000	53.853297 
2539.000000	53.827023 
2538.000000	53.800606 
2537.000000	53.776431 
2536.000000	53.756713 
2535.000000	53.743338 
2534.000000	53.737711 
2533.000000	53.740382 
2532.000000	53.750967 
2531.000000	53.768348 
2530.000000	53.790664 
2529.000000	53.815627 
2528.000000	53.840708 
2527.000000	53.863573 
2526.000000	53.882169 
2525.000000	53.895187 
2524.000000	53.902101 
2523.000000	53.902935 
2522.000000	53.898429 
2521.000000	53.889727 
2520.000000	53.878211 
2519.000000	53.865504 
2518.000000	53.852939 
2517.000000	53.841853 
2516.000000	53.833150 
2515.000000	53.827667 
2514.000000	53.825879 
2513.000000	53.827905 
2512.000000	53.833341 
2511.000000	53.841233 
2510.000000	53.850197 
2509.000000	53.858470 
2508.000000	53.864192 
2507.000000	53.865528 
2506.000000	53.861188 
2505.000000	53.850769 
2504.000000	53.834819 
2503.000000	53.814721 
2502.000000	53.792595 
2501.000000	53.770899 
2500.000000	53.752017 
2499.000000	53.737735 
2498.000000	53.729033 
2497.000000	53.726077 
2496.000000	53.728246 
2495.000000	53.734350 
2494.000000	53.742957 
2493.000000	53.752470 
2492.000000	53.761601 
2491.000000	53.769302 
2490.000000	53.774619 
2489.000000	53.777027 
2488.000000	53.776121 
2487.000000	53.772139 
2486.000000	53.765392 
2485.000000	53.756737 
2484.000000	53.747415 
2483.000000	53.738689 
2482.000000	53.732013 
2481.000000	53.728389 
2480.000000	53.728389 
2479.000000	53.731894 
2478.000000	53.738164 
2477.000000	53.746151 
2476.000000	53.754758 
2475.000000	53.763270 
2474.000000	53.771543 
2473.000000	53.780102 
2472.000000	53.789854 
2471.000000	53.801965 
2470.000000	53.817224 
2469.000000	53.835630 
2468.000000	53.856229 
2467.000000	53.877162 
2466.000000	53.895878 
2465.000000	53.909635 
2464.000000	53.915905 
2463.000000	53.913259 
2462.000000	53.901410 
2461.000000	53.881525 
2460.000000	53.855752 
2459.000000	53.827166 
2458.000000	53.798985 
2457.000000	53.774023 
2456.000000	53.754377 
2455.000000	53.741312 
2454.000000	53.734803 
2453.000000	53.733968 
2452.000000	53.737258 
2451.000000	53.742957 
2450.000000	53.749322 
2449.000000	53.754782 
2448.000000	53.758406 
2447.000000	53.759646 
2446.000000	53.758645 
2445.000000	53.755950 
2444.000000	53.752517 
2443.000000	53.749394 
2442.000000	53.747773 
2441.000000	53.748679 
2440.000000	53.752851 
2439.000000	53.760528 
2438.000000	53.771567 
2437.000000	53.785181 
2436.000000	53.800034 
2435.000000	53.814625 
2434.000000	53.827428 
2433.000000	53.837037 
2432.000000	53.842568 
2431.000000	53.843760 
2430.000000	53.841137 
2429.000000	53.835940 
2428.000000	53.829979 
2427.000000	53.825139 
2426.000000	53.823089 
2425.000000	53.824830 
2424.000000	53.830766 
2423.000000	53.840088 
2422.000000	53.851222 
2421.000000	53.861999 
2420.000000	53.870010 
2419.000000	53.873395 
2418.000000	53.870964 
2417.000000	53.862714 
2416.000000	53.849601 
2415.000000	53.833389 
2414.000000	53.816294 
2413.000000	53.800439 
2412.000000	53.787612 
2411.000000	53.778743 
2410.000000	53.773999 
2409.000000	53.772926 
2408.000000	53.774571 
2407.000000	53.777647 
2406.000000	53.780984 
2405.000000	53.783488 
2404.000000	53.784513 
2403.000000	53.783798 
2402.000000	53.781318 
2401.000000	53.777170 
2400.000000	53.771758 
2399.000000	53.765487 
2398.000000	53.758573 
2397.000000	53.751254 
2396.000000	53.743672 
2395.000000	53.735971 
2394.000000	53.728270 
2393.000000	53.720855 
2392.000000	53.714156 
2391.000000	53.708863 
2390.000000	53.705716 
2389.000000	53.705334 
2388.000000	53.708148 
2387.000000	53.714203 
2386.000000	53.723144 
2385.000000	53.734278 
2384.000000	53.746581 
2383.000000	53.759169 
2382.000000	53.771400 
2381.000000	53.783273 
2380.000000	53.794860 
2379.000000	53.806805 
2378.000000	53.819704 
2377.000000	53.834199 
2376.000000	53.850436 
2375.000000	53.868031 
2374.000000	53.886342 
2373.000000	53.903961 
2372.000000	53.919482 
2371.000000	53.931331 
2370.000000	53.938364 
2369.000000	53.939938 
2368.000000	53.936147 
2367.000000	53.927779 
2366.000000	53.916168 
2365.000000	53.903126 
2364.000000	53.890466 
2363.000000	53.879857 
2362.000000	53.872513 
2361.000000	53.868961 
2360.000000	53.869128 
2359.000000	53.872323 
2358.000000	53.877568 
2357.000000	53.883862 
2356.000000	53.890323 
2355.000000	53.896355 
2354.000000	53.901600 
2353.000000	53.905820 
2352.000000	53.908872 
2351.000000	53.910493 
2350.000000	53.910160 
2349.000000	53.907465 
2348.000000	53.902149 
2347.000000	53.894138 
2346.000000	53.883695 
2345.000000	53.871583 
2344.000000	53.858566 
2343.000000	53.845477 
2342.000000	53.833103 
2341.000000	53.822064 
2340.000000	53.812646 
2339.000000	53.805065 
2338.000000	53.799438 
2337.000000	53.795862 
2336.000000	53.794455 
2335.000000	53.795337 
2334.000000	53.798437 
2333.000000	53.803372 
2332.000000	53.809499 
2331.000000	53.815960 
2330.000000	53.821849 
2329.000000	53.826475 
2328.000000	53.829574 
2327.000000	53.831338 
2326.000000	53.832483 
2325.000000	53.833961 
2324.000000	53.836536 
2323.000000	53.840661 
2322.000000	53.846335 
2321.000000	53.852963 
2320.000000	53.859496 
2319.000000	53.864693 
2318.000000	53.867435 
2317.000000	53.867173 
2316.000000	53.863954 
2315.000000	53.858637 
2314.000000	53.852677 
2313.000000	53.847742 
2312.000000	53.845548 
2311.000000	53.847098 
2310.000000	53.852462 
2309.000000	53.860878 
2308.000000	53.870749 
2307.000000	53.880071 
2306.000000	53.886771 
2305.000000	53.889250 
2304.000000	53.886795 
2303.000000	53.879690 
2302.000000	53.868818 
2301.000000	53.855776 
2300.000000	53.841996 
2299.000000	53.828501 
2298.000000	53.815865 
2297.000000	53.803777 
2296.000000	53.791642 
2295.000000	53.778839 
2294.000000	53.765201 
2293.000000	53.751087 
2292.000000	53.737568 
2291.000000	53.725934 
2290.000000	53.717684 
2289.000000	53.713846 
2288.000000	53.714823 
2287.000000	53.720378 
2286.000000	53.729748 
2285.000000	53.741884 
2284.000000	53.755640 
2283.000000	53.770184 
2282.000000	53.784966 
2281.000000	53.799724 
2280.000000	53.814339 
2279.000000	53.828501 
2278.000000	53.841710 
2277.000000	53.853130 
2276.000000	53.861808 
2275.000000	53.866624 
2274.000000	53.866887 
2273.000000	53.862094 
2272.000000	53.852295 
2271.000000	53.837895 
2270.000000	53.819870 
2269.000000	53.799438 
2268.000000	53.778100 
2267.000000	53.757476 
2266.000000	53.739166 
2265.000000	53.724694 
2264.000000	53.714990 
2263.000000	53.710627 
2262.000000	53.711462 
2261.000000	53.716850 
2260.000000	53.725886 
2259.000000	53.737521 
2258.000000	53.750634 
2257.000000	53.764462 
2256.000000	53.778529 
2255.000000	53.792500 
2254.000000	53.806138 
2253.000000	53.819060 
2252.000000	53.830766 
2251.000000	53.840494 
2250.000000	53.847289 
2249.000000	53.850388 
2248.000000	53.849029 
2247.000000	53.843045 
2246.000000	53.832602 
2245.000000	53.818559 
2244.000000	53.801941 
2243.000000	53.784346 
2242.000000	53.767180 
2241.000000	53.752112 
2240.000000	53.740501 
2239.000000	53.733372 
2238.000000	53.731226 
2237.000000	53.733825 
2236.000000	53.740096 
2235.000000	53.748393 
2234.000000	53.756523 
2233.000000	53.762149 
2232.000000	53.763222 
2231.000000	53.758335 
2230.000000	53.747034 
2229.000000	53.730034 
2228.000000	53.708934 
2227.000000	53.686118 
2226.000000	53.664255 
2225.000000	53.645992 
2224.000000	53.633475 
2223.000000	53.627824 
2222.000000	53.629302 
2221.000000	53.637313 
2220.000000	53.650426 
2219.000000	53.666806 
2218.000000	53.684306 
2217.000000	53.701329 
2216.000000	53.716349 
2215.000000	53.728675 
2214.000000	53.737878 
2213.000000	53.743982 
2212.000000	53.747415 
2211.000000	53.748631 
2210.000000	53.747940 
2209.000000	53.745436 
2208.000000	53.741049 
2207.000000	53.734517 
2206.000000	53.725743 
2205.000000	53.714632 
2204.000000	53.701448 
2203.000000	53.686690 
2202.000000	53.671026 
2201.000000	53.655266 
2200.000000	53.640031 
2199.000000	53.625798 
2198.000000	53.612756 
2197.000000	53.600716 
2196.000000	53.589391 
2195.000000	53.578186 
2194.000000	53.566718 
2193.000000	53.554797 
2192.000000	53.543066 
2191.000000	53.532791 
2190.000000	53.526067 
2189.000000	53.525137 
2188.000000	53.532266 
2187.000000	53.548836 
2186.000000	53.574681 
2185.000000	53.608036 
2184.000000	53.645420 
2183.000000	53.682255 
2182.000000	53.713870 
2181.000000	53.736186 
2180.000000	53.747153 
2179.000000	53.746938 
2178.000000	53.738164 
2177.000000	53.725218 
2176.000000	53.713154 
2175.000000	53.706359 
2174.000000	53.707408 
2173.000000	53.716802 
2172.000000	53.732752 
2171.000000	53.751969 
2170.000000	53.770709 
2169.000000	53.785800 
2168.000000	53.795409 
2167.000000	53.799510 
2166.000000	53.799557 
2165.000000	53.798127 
2164.000000	53.798103 
2163.000000	53.801727 
2162.000000	53.810286 
2161.000000	53.823256 
2160.000000	53.839063 
2159.000000	53.854823 
2158.000000	53.867578 
2157.000000	53.874683 
2156.000000	53.874611 
2155.000000	53.867149 
2154.000000	53.853511 
2153.000000	53.835988 
2152.000000	53.817582 
2151.000000	53.801178 
2150.000000	53.788900 
2149.000000	53.781867 
2148.000000	53.779935 
2147.000000	53.781843 
2146.000000	53.785490 
2145.000000	53.788566 
2144.000000	53.788995 
2143.000000	53.785467 
2142.000000	53.777742 
2141.000000	53.766512 
2140.000000	53.753304 
2139.000000	53.740072 
2138.000000	53.728818 
2137.000000	53.721117 
2136.000000	53.718042 
2135.000000	53.719711 
2134.000000	53.725528 
2133.000000	53.734207 
2132.000000	53.744101 
2131.000000	53.753471 
2130.000000	53.760814 
2129.000000	53.765010 
2128.000000	53.765606 
2127.000000	53.762602 
2126.000000	53.756570 
2125.000000	53.748297 
2124.000000	53.738617 
2123.000000	53.728342 
2122.000000	53.717970 
2121.000000	53.707742 
2120.000000	53.697752 
2119.000000	53.688049 
2118.000000	53.678894 
2117.000000	53.670692 
2116.000000	53.664135 
2115.000000	53.660178 
2114.000000	53.659844 
2113.000000	53.663849 
2112.000000	53.672504 
2111.000000	53.685402 
2110.000000	53.701710 
2109.000000	53.720021 
2108.000000	53.738594 
2107.000000	53.755831 
2106.000000	53.770399 
2105.000000	53.781509 
2104.000000	53.789019 
2103.000000	53.793501 
2102.000000	53.795909 
2101.000000	53.797626 
2100.000000	53.799986 
2099.000000	53.804016 
2098.000000	53.810381 
2097.000000	53.819179 
2096.000000	53.830099 
2095.000000	53.842306 
2094.000000	53.854656 
2093.000000	53.866052 
2092.000000	53.875660 
2091.000000	53.883075 
2090.000000	53.888297 
2089.000000	53.891873 
2088.000000	53.894519 
2087.000000	53.896903 
2086.000000	53.899288 
2085.000000	53.901267 
2084.000000	53.902053 
2083.000000	53.900623 
2082.000000	53.896069 
2081.000000	53.887939 
2080.000000	53.876233 
2079.000000	53.861856 
2078.000000	53.846096 
2077.000000	53.830265 
2076.000000	53.815579 
2075.000000	53.802752 
2074.000000	53.792071 
2073.000000	53.783273 
2072.000000	53.776049 
2071.000000	53.770089 
2070.000000	53.765463 
2069.000000	53.762650 
2068.000000	53.762435 
2067.000000	53.765583 
2066.000000	53.772521 
2065.000000	53.782987 
2064.000000	53.795886 
2063.000000	53.809380 
2062.000000	53.821134 
2061.000000	53.828716 
2060.000000	53.830218 
2059.000000	53.824567 
2058.000000	53.811740 
2057.000000	53.792858 
2056.000000	53.769850 
2055.000000	53.745102 
2054.000000	53.721117 
2053.000000	53.699946 
2052.000000	53.683114 
2051.000000	53.671431 
2050.000000	53.665184 
2049.000000	53.664159 
2048.000000	53.667593 
2047.000000	53.674697 
2046.000000	53.684473 
2045.000000	53.696084 
2044.000000	53.708744 
2043.000000	53.721714 
2042.000000	53.734421 
2041.000000	53.746247 
2040.000000	53.756618 
2039.000000	53.765010 
2038.000000	53.770852 
2037.000000	53.773832 
2036.000000	53.773713 
2035.000000	53.770542 
2034.000000	53.764581 
2033.000000	53.756165 
2032.000000	53.745841 
2031.000000	53.733944 
2030.000000	53.721022 
2029.000000	53.707718 
2028.000000	53.694987 
2027.000000	53.683853 
2026.000000	53.675603 
2025.000000	53.671407 
2024.000000	53.672313 
2023.000000	53.678846 
2022.000000	53.690910 
2021.000000	53.707361 
2020.000000	53.726434 
2019.000000	53.745770 
2018.000000	53.763008 
2017.000000	53.776192 
2016.000000	53.784108 
2015.000000	53.786540 
2014.000000	53.784132 
2013.000000	53.778386 
2012.000000	53.770947 
2011.000000	53.763508 
2010.000000	53.757333 
2009.000000	53.753066 
2008.000000	53.750753 
2007.000000	53.749680 
2006.000000	53.748631 
2005.000000	53.746056 
2004.000000	53.740453 
2003.000000	53.730797 
2002.000000	53.716683 
2001.000000	53.698778 
2000.000000	53.678607 
1999.000000	53.658676 
1998.000000	53.642058 
1997.000000	53.631663 
1996.000000	53.629755 
1995.000000	53.637027 
1994.000000	53.652811 
1993.000000	53.674602 
1992.000000	53.698706 
1991.000000	53.720927 
1990.000000	53.737473 
1989.000000	53.745770 
1988.000000	53.744840 
1987.000000	53.735494 
1986.000000	53.719949 
1985.000000	53.701233 
1984.000000	53.682422 
1983.000000	53.666043 
1982.000000	53.653717 
1981.000000	53.646254 
1980.000000	53.643560 
1979.000000	53.644871 
1978.000000	53.649163 
1977.000000	53.655242 
1976.000000	53.661942 
1975.000000	53.667998 
1974.000000	53.672170 
1973.000000	53.673100 
1972.000000	53.669595 
1971.000000	53.660750 
1970.000000	53.646326 
1969.000000	53.626751 
1968.000000	53.603363 
1967.000000	53.578162 
1966.000000	53.553557 
1965.000000	53.532028 
1964.000000	53.515481 
1963.000000	53.505039 
1962.000000	53.500676 
1961.000000	53.501486 
1960.000000	53.505945 
1959.000000	53.512406 
1958.000000	53.519415 
1957.000000	53.525996 
1956.000000	53.531908 
1955.000000	53.537440 
1954.000000	53.543233 
1953.000000	53.549814 
1952.000000	53.557324 
1951.000000	53.565263 
1950.000000	53.572750 
1949.000000	53.578329 
1948.000000	53.580451 
1947.000000	53.577780 
1946.000000	53.569602 
1945.000000	53.555965 
1944.000000	53.537917 
1943.000000	53.517484 
1942.000000	53.497195 
1941.000000	53.479981 
1940.000000	53.468465 
1939.000000	53.464674 
1938.000000	53.469657 
1937.000000	53.483295 
1936.000000	53.504204 
1935.000000	53.530263 
1934.000000	53.558683 
1933.000000	53.586530 
1932.000000	53.611063 
1931.000000	53.630208 
1930.000000	53.642773 
1929.000000	53.648686 
1928.000000	53.648686 
1927.000000	53.644347 
1926.000000	53.637552 
1925.000000	53.630328 
1924.000000	53.624272 
1923.000000	53.620600 
1922.000000	53.619480 
1921.000000	53.620386 
1920.000000	53.621840 
1919.000000	53.622341 
1918.000000	53.620338 
1917.000000	53.614974 
1916.000000	53.606152 
1915.000000	53.594779 
1914.000000	53.582358 
1913.000000	53.570604 
1912.000000	53.561091 
1911.000000	53.554654 
1910.000000	53.551554 
1909.000000	53.551149 
1908.000000	53.552436 
1907.000000	53.554320 
1906.000000	53.555822 
1905.000000	53.556299 
1904.000000	53.555512 
1903.000000	53.553342 
1902.000000	53.550004 
1901.000000	53.545808 
1900.000000	53.540968 
1899.000000	53.535723 
1898.000000	53.530478 
1897.000000	53.525757 
1896.000000	53.522396 
1895.000000	53.521180 
1894.000000	53.522777 
1893.000000	53.527402 
1892.000000	53.534674 
1891.000000	53.543758 
1890.000000	53.553128 
1889.000000	53.561282 
1888.000000	53.566789 
1887.000000	53.568935 
1886.000000	53.567767 
1885.000000	53.564333 
1884.000000	53.560352 
1883.000000	53.557825 
1882.000000	53.558516 
1881.000000	53.563570 
1880.000000	53.573131 
1879.000000	53.586268 
1878.000000	53.601264 
1877.000000	53.615808 
1876.000000	53.627753 
1875.000000	53.635406 
1874.000000	53.638076 
1873.000000	53.635954 
1872.000000	53.630280 
1871.000000	53.622865 
1870.000000	53.615617 
1869.000000	53.610229 
1868.000000	53.607702 
1867.000000	53.608250 
1866.000000	53.611159 
1865.000000	53.615307 
1864.000000	53.619337 
1863.000000	53.622221 
1862.000000	53.623366 
1861.000000	53.622841 
1860.000000	53.621268 
1859.000000	53.619599 
1858.000000	53.618836 
1857.000000	53.619551 
1856.000000	53.621792 
1855.000000	53.625130 
1854.000000	53.628778 
1853.000000	53.631758 
1852.000000	53.633403 
1851.000000	53.633499 
1850.000000	53.632378 
1849.000000	53.630924 
1848.000000	53.630042 
1847.000000	53.630685 
1846.000000	53.633308 
1845.000000	53.637957 
1844.000000	53.644204 
1843.000000	53.651309 
1842.000000	53.658533 
1841.000000	53.665304 
1840.000000	53.671455 
1839.000000	53.677034 
1838.000000	53.682470 
1837.000000	53.688097 
1836.000000	53.694248 
1835.000000	53.700923 
1834.000000	53.707909 
1833.000000	53.714823 
1832.000000	53.721261 
1831.000000	53.726911 
1830.000000	53.731679 
1829.000000	53.735399 
1828.000000	53.738164 
1827.000000	53.739857 
1826.000000	53.740286 
1825.000000	53.739094 
1824.000000	53.736019 
1823.000000	53.730893 
1822.000000	53.723812 
1821.000000	53.715085 
1820.000000	53.705358 
1819.000000	53.695392 
1818.000000	53.686094 
1817.000000	53.678250 
1816.000000	53.672719 
1815.000000	53.670024 
1814.000000	53.670644 
1813.000000	53.674960 
1812.000000	53.683257 
1811.000000	53.695535 
1810.000000	53.711390 
1809.000000	53.729915 
1808.000000	53.749680 
1807.000000	53.768754 
1806.000000	53.784966 
1805.000000	53.796267 
1804.000000	53.801083 
1803.000000	53.798651 
1802.000000	53.789019 
1801.000000	53.773164 
1800.000000	53.752875 
1799.000000	53.730177 
1798.000000	53.707242 
1797.000000	53.685903 
1796.000000	53.667712 
1795.000000	53.653573 
1794.000000	53.644084 
1793.000000	53.639411 
1792.000000	53.639340 
1791.000000	53.643488 
1790.000000	53.650975 
1789.000000	53.660821 
1788.000000	53.671741 
1787.000000	53.682541 
1786.000000	53.692007 
1785.000000	53.699421 
1784.000000	53.704643 
1783.000000	53.707790 
1782.000000	53.709578 
1781.000000	53.710412 
1780.000000	53.710746 
1779.000000	53.710389 
1778.000000	53.708863 
1777.000000	53.705215 
1776.000000	53.698420 
1775.000000	53.687834 
1774.000000	53.673601 
1773.000000	53.656649 
1772.000000	53.638553 
1771.000000	53.621196 
1770.000000	53.606534 
1769.000000	53.595781 
1768.000000	53.589320 
1767.000000	53.586530 
1766.000000	53.585934 
1765.000000	53.585815 
1764.000000	53.584527 
1763.000000	53.580975 
1762.000000	53.574800 
1761.000000	53.566503 
1760.000000	53.557276 
1759.000000	53.548526 
1758.000000	53.541612 
1757.000000	53.537511 
1756.000000	53.536224 
1755.000000	53.537344 
1754.000000	53.539466 
1753.000000	53.541159 
1752.000000	53.540515 
1751.000000	53.536057 
1750.000000	53.526473 
1749.000000	53.511190 
1748.000000	53.490304 
1747.000000	53.464508 
1746.000000	53.435301 
1745.000000	53.404498 
1744.000000	53.374075 
1743.000000	53.345966 
1742.000000	53.321599 
1741.000000	53.302049 
1740.000000	53.287672 
1739.000000	53.278303 
1738.000000	53.273320 
1737.000000	53.272008 
1736.000000	53.273558 
1735.000000	53.277444 
1734.000000	53.283238 
1733.000000	53.290843 
1732.000000	53.300237 
1731.000000	53.311514 
1730.000000	53.324651 
1729.000000	53.339314 
1728.000000	53.354835 
1727.000000	53.370165 
1726.000000	53.384184 
1725.000000	53.395700 
1724.000000	53.403687 
1723.000000	53.407597 
1722.000000	53.407382 
1721.000000	53.403735 
1720.000000	53.397774 
1719.000000	53.390979 
1718.000000	53.384923 
1717.000000	53.380799 
1716.000000	53.379154 
1715.000000	53.379869 
1714.000000	53.382086 
1713.000000	53.384542 
1712.000000	53.385758 
1711.000000	53.384590 
1710.000000	53.380584 
1709.000000	53.373932 
1708.000000	53.365492 
1707.000000	53.356719 
1706.000000	53.349280 
1705.000000	53.344607 
1704.000000	53.343796 
1703.000000	53.347039 
1702.000000	53.353762 
1701.000000	53.362774 
1700.000000	53.372454 
1699.000000	53.381085 
1698.000000	53.387427 
1697.000000	53.390741 
1696.000000	53.391242 
1695.000000	53.389835 
1694.000000	53.387951 
1693.000000	53.387022 
1692.000000	53.388071 
1691.000000	53.391456 
1690.000000	53.396558 
1689.000000	53.401899 
1688.000000	53.405547 
1687.000000	53.405523 
1686.000000	53.400468 
1685.000000	53.389978 
1684.000000	53.374838 
1683.000000	53.356885 
1682.000000	53.338694 
1681.000000	53.322839 
1680.000000	53.311324 
1679.000000	53.305196 
1678.000000	53.304481 
1677.000000	53.308224 
1676.000000	53.314805 
1675.000000	53.322529 
1674.000000	53.330087 
1673.000000	53.336954 
1672.000000	53.343176 
1671.000000	53.349566 
1670.000000	53.357243 
1669.000000	53.367376 
1668.000000	53.380465 
1667.000000	53.396511 
1666.000000	53.414940 
1665.000000	53.434562 
1664.000000	53.453946 
1663.000000	53.471589 
1662.000000	53.486251 
1661.000000	53.497147 
1660.000000	53.504037 
1659.000000	53.507018 
1658.000000	53.506588 
1657.000000	53.503561 
1656.000000	53.498721 
1655.000000	53.492879 
1654.000000	53.486537 
1653.000000	53.480172 
1652.000000	53.473877 
1651.000000	53.467559 
1650.000000	53.460884 
1649.000000	53.453660 
1648.000000	53.445696 
1647.000000	53.437209 
1646.000000	53.428483 
1645.000000	53.420066 
1644.000000	53.412365 
1643.000000	53.405642 
1642.000000	53.399848 
1641.000000	53.394484 
1640.000000	53.389191 
1639.000000	53.383564 
1638.000000	53.377914 
1637.000000	53.372907 
1636.000000	53.369879 
1635.000000	53.370451 
1634.000000	53.375983 
1633.000000	53.387117 
1632.000000	53.403568 
1631.000000	53.424024 
1630.000000	53.446245 
1629.000000	53.467655 
1628.000000	53.485941 
1627.000000	53.499412 
1626.000000	53.507614 
1625.000000	53.511071 
1624.000000	53.511023 
1623.000000	53.508996 
1622.000000	53.506278 
1621.000000	53.503608 
1620.000000	53.501033 
1619.000000	53.498220 
1618.000000	53.494858 
1617.000000	53.490829 
1616.000000	53.486537 
1615.000000	53.482890 
1614.000000	53.481078 
1613.000000	53.482437 
1612.000000	53.487753 
1611.000000	53.497195 
1610.000000	53.509974 
1609.000000	53.524541 
1608.000000	53.538894 
1607.000000	53.551125 
1606.000000	53.559684 
1605.000000	53.563785 
1604.000000	53.563475 
1603.000000	53.559660 
1602.000000	53.553748 
1601.000000	53.547549 
1600.000000	53.542685 
1599.000000	53.540396 
1598.000000	53.541159 
1597.000000	53.545093 
1596.000000	53.551483 
1595.000000	53.559446 
1594.000000	53.568029 
1593.000000	53.576374 
1592.000000	53.584003 
1591.000000	53.590893 
1590.000000	53.597116 
1589.000000	53.602671 
1588.000000	53.607201 
1587.000000	53.609967 
1586.000000	53.609895 
1585.000000	53.605818 
1584.000000	53.596901 
1583.000000	53.583049 
1582.000000	53.565096 
1581.000000	53.544950 
1580.000000	53.525352 
1579.000000	53.509449 
1578.000000	53.499960 
1577.000000	53.498601 
1576.000000	53.505539 
1575.000000	53.519320 
1574.000000	53.536987 
1573.000000	53.554964 
1572.000000	53.569579 
1571.000000	53.578305 
1570.000000	53.579854 
1569.000000	53.574872 
1568.000000	53.565430 
1567.000000	53.554654 
1566.000000	53.545641 
1565.000000	53.540992 
1564.000000	53.542089 
1563.000000	53.548550 
1562.000000	53.558754 
1561.000000	53.570008 
1560.000000	53.579616 
1559.000000	53.585457 
1558.000000	53.586530 
1557.000000	53.583192 
1556.000000	53.576993 
1555.000000	53.569984 
1554.000000	53.564023 
1553.000000	53.560209 
1552.000000	53.558659 
1551.000000	53.558683 
1550.000000	53.559064 
1549.000000	53.558683 
1548.000000	53.556919 
1547.000000	53.553938 
1546.000000	53.550720 
1545.000000	53.548622 
1544.000000	53.548979 
1543.000000	53.552675 
1542.000000	53.559899 
1541.000000	53.569912 
1540.000000	53.581452 
1539.000000	53.593039 
1538.000000	53.603243 
1537.000000	53.611302 
1536.000000	53.616857 
1535.000000	53.620314 
1534.000000	53.622436 
1533.000000	53.624105 
1532.000000	53.626012 
1531.000000	53.628659 
1530.000000	53.631997 
1529.000000	53.635621 
1528.000000	53.638625 
1527.000000	53.639864 
1526.000000	53.637933 
1525.000000	53.631496 
1524.000000	53.619432 
1523.000000	53.601145 
1522.000000	53.576683 
1521.000000	53.547096 
1520.000000	53.514075 
1519.000000	53.479933 
1518.000000	53.447246 
1517.000000	53.418660 
1516.000000	53.396224 
1515.000000	53.381395 
1514.000000	53.374457 
1513.000000	53.374958 
1512.000000	53.381276 
1511.000000	53.391551 
1510.000000	53.403639 
1509.000000	53.415536 
1508.000000	53.425693 
1507.000000	53.433203 
1506.000000	53.437590 
1505.000000	53.438973 
1504.000000	53.437519 
1503.000000	53.433585 
1502.000000	53.427457 
1501.000000	53.419446 
1500.000000	53.409934 
1499.000000	53.399634 
1498.000000	53.389620 
1497.000000	53.381299 
1496.000000	53.376412 
1495.000000	53.376579 
1494.000000	53.382873 
1493.000000	53.395414 
1492.000000	53.413152 
1491.000000	53.434014 
1490.000000	53.455090 
1489.000000	53.473448 
1488.000000	53.486633 
1487.000000	53.493380 
1486.000000	53.493714 
1485.000000	53.488826 
1484.000000	53.480815 
1483.000000	53.471946 
1482.000000	53.464365 
1481.000000	53.459501 
1480.000000	53.457713 
1479.000000	53.458690 
1478.000000	53.461122 
1477.000000	53.463459 
1476.000000	53.464078 
1475.000000	53.461647 
1474.000000	53.455567 
1473.000000	53.445935 
1472.000000	53.433656 
1471.000000	53.420066 
1470.000000	53.406620 
1469.000000	53.394746 
1468.000000	53.385329 
1467.000000	53.378748 
1466.000000	53.374743 
1465.000000	53.372526 
1464.000000	53.371191 
1463.000000	53.369760 
1462.000000	53.367567 
1461.000000	53.364276 
1460.000000	53.359961 
1459.000000	53.355264 
1458.000000	53.351116 
1457.000000	53.348398 
1456.000000	53.347945 
1455.000000	53.350210 
1454.000000	53.355264 
1453.000000	53.362584 
1452.000000	53.371238 
1451.000000	53.380036 
1450.000000	53.387641 
1449.000000	53.392863 
1448.000000	53.394818 
1447.000000	53.393077 
1446.000000	53.387784 
1445.000000	53.379464 
1444.000000	53.369021 
1443.000000	53.357625 
1442.000000	53.346729 
1441.000000	53.337669 
1440.000000	53.331685 
1439.000000	53.329825 
1438.000000	53.332829 
1437.000000	53.341054 
1436.000000	53.354477 
1435.000000	53.372454 
1434.000000	53.394126 
1433.000000	53.418064 
1432.000000	53.442406 
1431.000000	53.465247 
1430.000000	53.484535 
1429.000000	53.498530 
1428.000000	53.505992 
1427.000000	53.506660 
1426.000000	53.500914 
1425.000000	53.490209 
1424.000000	53.476405 
1423.000000	53.461790 
1422.000000	53.448176 
1421.000000	53.436994 
1420.000000	53.428721 
1419.000000	53.423094 
1418.000000	53.419232 
1417.000000	53.415703 
1416.000000	53.411126 
1415.000000	53.404521 
1414.000000	53.395414 
1413.000000	53.384017 
1412.000000	53.371191 
1411.000000	53.358316 
1410.000000	53.346920 
1409.000000	53.338384 
1408.000000	53.333711 
1407.000000	53.333306 
1406.000000	53.337049 
1405.000000	53.344130 
1404.000000	53.353333 
1403.000000	53.363156 
1402.000000	53.372097 
1401.000000	53.378868 
1400.000000	53.382658 
1399.000000	53.383111 
1398.000000	53.380298 
1397.000000	53.374767 
1396.000000	53.367352 
1395.000000	53.359031 
1394.000000	53.350949 
1393.000000	53.344058 
1392.000000	53.339171 
1391.000000	53.336930 
1390.000000	53.337740 
1389.000000	53.341460 
1388.000000	53.347563 
1387.000000	53.355097 
1386.000000	53.362941 
1385.000000	53.369998 
1384.000000	53.375506 
1383.000000	53.379154 
1382.000000	53.381419 
1381.000000	53.383326 
1380.000000	53.386306 
1379.000000	53.391838 
1378.000000	53.401207 
1377.000000	53.414869 
1376.000000	53.432393 
1375.000000	53.452563 
1374.000000	53.473472 
1373.000000	53.492784 
1372.000000	53.508472 
1371.000000	53.518939 
1370.000000	53.523468 
1369.000000	53.522443 
1368.000000	53.517103 
1367.000000	53.509378 
1366.000000	53.501296 
1365.000000	53.494787 
1364.000000	53.491139 
1363.000000	53.490972 
1362.000000	53.494071 
1361.000000	53.499770 
1360.000000	53.507041 
1359.000000	53.514862 
1358.000000	53.522443 
1357.000000	53.529405 
1356.000000	53.535723 
1355.000000	53.541755 
1354.000000	53.548049 
1353.000000	53.555059 
1352.000000	53.563070 
1351.000000	53.572154 
1350.000000	53.581929 
1349.000000	53.591728 
1348.000000	53.600764 
1347.000000	53.608155 
1346.000000	53.613090 
1345.000000	53.614997 
1344.000000	53.613638 
1343.000000	53.609037 
1342.000000	53.601503 
1341.000000	53.591418 
1340.000000	53.579401 
1339.000000	53.565907 
1338.000000	53.551483 
1337.000000	53.536581 
1336.000000	53.521680 
1335.000000	53.507256 
1334.000000	53.493857 
1333.000000	53.482007 
1332.000000	53.472304 
1331.000000	53.465247 
1330.000000	53.461384 
1329.000000	53.460788 
1328.000000	53.463459 
1327.000000	53.469395 
1326.000000	53.478598 
1325.000000	53.490853 
1324.000000	53.505969 
1323.000000	53.523802 
1322.000000	53.544116 
1321.000000	53.566455 
1320.000000	53.590178 
1319.000000	53.614592 
1318.000000	53.638744 
1317.000000	53.661537 
1316.000000	53.681683 
1315.000000	53.697943 
1314.000000	53.709220 
1313.000000	53.714823 
1312.000000	53.714513 
1311.000000	53.708887 
1310.000000	53.699088 
1309.000000	53.686809 
1308.000000	53.673648 
1307.000000	53.660988 
1306.000000	53.649544 
1305.000000	53.639245 
1304.000000	53.629112 
1303.000000	53.617668 
1302.000000	53.603434 
1301.000000	53.585529 
1300.000000	53.563952 
1299.000000	53.539919 
1298.000000	53.515434 
1297.000000	53.493070 
1296.000000	53.475117 
1295.000000	53.463292 
1294.000000	53.457808 
1293.000000	53.457760 
1292.000000	53.461503 
1291.000000	53.466892 
1290.000000	53.471875 
1289.000000	53.474950 
1288.000000	53.475356 
1287.000000	53.473067 
1286.000000	53.468227 
1285.000000	53.461241 
1284.000000	53.452539 
1283.000000	53.442573 
1282.000000	53.431844 
1281.000000	53.421187 
1280.000000	53.411769 
1279.000000	53.405189 
1278.000000	53.403162 
1277.000000	53.407192 
1276.000000	53.417944 
1275.000000	53.435039 
1274.000000	53.456902 
1273.000000	53.480744 
1272.000000	53.503084 
1271.000000	53.520441 
1270.000000	53.530001 
1269.000000	53.530025 
1268.000000	53.520274 
1267.000000	53.502035 
1266.000000	53.477573 
1265.000000	53.449821 
1264.000000	53.421688 
1263.000000	53.395652 
1262.000000	53.373312 
1261.000000	53.355383 
1260.000000	53.341746 
1259.000000	53.331851 
1258.000000	53.324913 
1257.000000	53.320360 
1256.000000	53.317832 
1255.000000	53.317141 
1254.000000	53.318262 
1253.000000	53.321099 
1252.000000	53.325247 
1251.000000	53.330230 
1250.000000	53.335332 
1249.000000	53.339838 
1248.000000	53.343367 
1247.000000	53.345561 
1246.000000	53.346395 
1245.000000	53.345870 
1244.000000	53.344011 
1243.000000	53.340625 
1242.000000	53.335762 
1241.000000	53.329324 
1240.000000	53.321456 
1239.000000	53.312611 
1238.000000	53.303575 
1237.000000	53.295445 
1236.000000	53.289532 
1235.000000	53.286910 
1234.000000	53.288173 
1233.000000	53.293323 
1232.000000	53.301668 
1231.000000	53.311800 
1230.000000	53.321766 
1229.000000	53.329682 
1228.000000	53.334069 
1227.000000	53.334069 
1226.000000	53.329443 
1225.000000	53.320813 
1224.000000	53.309249 
1223.000000	53.296017 
1222.000000	53.281998 
1221.000000	53.267717 
1220.000000	53.253006 
1219.000000	53.237390 
1218.000000	53.220248 
1217.000000	53.201150 
1216.000000	53.180265 
1215.000000	53.158736 
1214.000000	53.138470 
1213.000000	53.121685 
1212.000000	53.110766 
1211.000000	53.107571 
1210.000000	53.113293 
1209.000000	53.127717 
1208.000000	53.149962 
1207.000000	53.178429 
1206.000000	53.211498 
1205.000000	53.247737 
1204.000000	53.286314 
1203.000000	53.326916 
1202.000000	53.369569 
1201.000000	53.414058 
1200.000000	53.459572 
1199.000000	53.504347 
1198.000000	53.545761 
1197.000000	53.580546 
1196.000000	53.605413 
1195.000000	53.617501 
1194.000000	53.615665 
1193.000000	53.600311 
1192.000000	53.573465 
1191.000000	53.538489 
1190.000000	53.499698 
1189.000000	53.461241 
1188.000000	53.426623 
1187.000000	53.397893 
1186.000000	53.376030 
1185.000000	53.360652 
1184.000000	53.350400 
1183.000000	53.343605 
1182.000000	53.338646 
1181.000000	53.334522 
1180.000000	53.330779 
1179.000000	53.327536 
1178.000000	53.325080 
1177.000000	53.323936 
1176.000000	53.324389 
1175.000000	53.326320 
1174.000000	53.329110 
1173.000000	53.332066 
1172.000000	53.334641 
1171.000000	53.336358 
1170.000000	53.337216 
1169.000000	53.337812 
1168.000000	53.339338 
1167.000000	53.342986 
1166.000000	53.349852 
1165.000000	53.360772 
1164.000000	53.376030 
1163.000000	53.395318 
1162.000000	53.417849 
1161.000000	53.442573 
1160.000000	53.468084 
1159.000000	53.493285 
1158.000000	53.517031 
1157.000000	53.537988 
1156.000000	53.554844 
1155.000000	53.566384 
1154.000000	53.571581 
1153.000000	53.569626 
1152.000000	53.560471 
1151.000000	53.545165 
1150.000000	53.525710 
1149.000000	53.504943 
1148.000000	53.486180 
1147.000000	53.472471 
1146.000000	53.465652 
1145.000000	53.466033 
1144.000000	53.472065 
1143.000000	53.480839 
1142.000000	53.488945 
1141.000000	53.493452 
1140.000000	53.492641 
1139.000000	53.486657 
1138.000000	53.477096 
1137.000000	53.466892 
1136.000000	53.458952 
1135.000000	53.455877 
1134.000000	53.459334 
1133.000000	53.469657 
1132.000000	53.486013 
1131.000000	53.506183 
1130.000000	53.527593 
1129.000000	53.547406 
1128.000000	53.562974 
1127.000000	53.572964 
1126.000000	53.577256 
1125.000000	53.577089 
1124.000000	53.574681 
1123.000000	53.572416 
1122.000000	53.572225 
1121.000000	53.575015 
1120.000000	53.580307 
1119.000000	53.586483 
1118.000000	53.591299 
1117.000000	53.592753 
1116.000000	53.589344 
1115.000000	53.580713 
1114.000000	53.567409 
1113.000000	53.551006 
1112.000000	53.533339 
1111.000000	53.516316 
1110.000000	53.501081 
1109.000000	53.488039 
1108.000000	53.476524 
1107.000000	53.465294 
1106.000000	53.452777 
1105.000000	53.437423 
1104.000000	53.418493 
1103.000000	53.396105 
1102.000000	53.371453 
1101.000000	53.346395 
1100.000000	53.323292 
1099.000000	53.304338 
1098.000000	53.291225 
1097.000000	53.284573 
1096.000000	53.284168 
1095.000000	53.288793 
1094.000000	53.296875 
1093.000000	53.306531 
1092.000000	53.316140 
1091.000000	53.324532 
1090.000000	53.330993 
1089.000000	53.335595 
1088.000000	53.338837 
1087.000000	53.341317 
1086.000000	53.343868 
1085.000000	53.346467 
1084.000000	53.348731 
1083.000000	53.349328 
1082.000000	53.346705 
1081.000000	53.339171 
1080.000000	53.325414 
1079.000000	53.304958 
1078.000000	53.278827 
1077.000000	53.249049 
1076.000000	53.218340 
1075.000000	53.189802 
1074.000000	53.166151 
1073.000000	53.149461 
1072.000000	53.140568 
1071.000000	53.139376 
1070.000000	53.145003 
1069.000000	53.156137 
1068.000000	53.171157 
1067.000000	53.188800 
1066.000000	53.208041 
1065.000000	53.228116 
1064.000000	53.248286 
1063.000000	53.267693 
1062.000000	53.285217 
1061.000000	53.299617 
1060.000000	53.309535 
1059.000000	53.313851 
1058.000000	53.312134 
1057.000000	53.304624 
1056.000000	53.292751 
1055.000000	53.278660 
1054.000000	53.265285 
1053.000000	53.255677 
1052.000000	53.252720 
1051.000000	53.258490 
1050.000000	53.273677 
1049.000000	53.297472 
1048.000000	53.327751 
1047.000000	53.361463 
1046.000000	53.395318 
1045.000000	53.426575 
1044.000000	53.453612 
1043.000000	53.476142 
1042.000000	53.495097 
1041.000000	53.512072 
1040.000000	53.528833 
1039.000000	53.546571 
1038.000000	53.565597 
1037.000000	53.585267 
1036.000000	53.604125 
1035.000000	53.620409 
1034.000000	53.632712 
1033.000000	53.640103 
1032.000000	53.642582 
1031.000000	53.640842 
1030.000000	53.636169 
1029.000000	53.629946 
1028.000000	53.623461 
1027.000000	53.617644 
1026.000000	53.613233 
1025.000000	53.610706 
1024.000000	53.610682 
1023.000000	53.613424 
1022.000000	53.619122 
1021.000000	53.627371 
1020.000000	53.637337 
1019.000000	53.647446 
1018.000000	53.655815 
1017.000000	53.660416 
1016.000000	53.659558 
1015.000000	53.652501 
1014.000000	53.639745 
1013.000000	53.622984 
1012.000000	53.604960 
1011.000000	53.588891 
1010.000000	53.577852 
1009.000000	53.574061 
1008.000000	53.578519 
1007.000000	53.590846 
1006.000000	53.609395 
1005.000000	53.631711 
1004.000000	53.654742 
1003.000000	53.675436 
1002.000000	53.691267 
1001.000000	53.700327 
1000.000000	53.701686 
999.000000	 53.695440 
998.000000	 53.682756 
997.000000	 53.665661 
996.000000	 53.646564 
995.000000	 53.627824 
994.000000	 53.611302 
993.000000	 53.598332 
992.000000	 53.589344 
991.000000	 53.583979 
990.000000	 53.581500 
989.000000	 53.580999 
988.000000	 53.582024 
987.000000	 53.584671 
986.000000	 53.589558 
985.000000	 53.597474 
984.000000	 53.609180 
983.000000	 53.624892 
982.000000	 53.643965 
981.000000	 53.664684 
980.000000	 53.684639 
979.000000	 53.701257 
978.000000	 53.712272 
977.000000	 53.716158 
976.000000	 53.712582 
975.000000	 53.702402 
974.000000	 53.687500 
973.000000	 53.670597 
972.000000	 53.654456 
971.000000	 53.641939 
970.000000	 53.635144 
969.000000	 53.635644 
968.000000	 53.644061 
967.000000	 53.660035 
966.000000	 53.682494 
965.000000	 53.709077 
964.000000	 53.736829 
963.000000	 53.762125 
962.000000	 53.781270 
961.000000	 53.790974 
960.000000	 53.788948 
959.000000	 53.774476 
958.000000	 53.748297 
957.000000	 53.712725 
956.000000	 53.671002 
955.000000	 53.626894 
954.000000	 53.584027 
953.000000	 53.545713 
952.000000	 53.514623 
951.000000	 53.492593 
950.000000	 53.480792 
949.000000	 53.479814 
948.000000	 53.489923 
947.000000	 53.510427 
946.000000	 53.540110 
945.000000	 53.576922 
944.000000	 53.618192 
943.000000	 53.660416 
942.000000	 53.699803 
941.000000	 53.732585 
940.000000	 53.755688 
939.000000	 53.767228 
938.000000	 53.766798 
937.000000	 53.755521 
936.000000	 53.735971 
935.000000	 53.711819 
934.000000	 53.687191 
933.000000	 53.666019 
932.000000	 53.651547 
931.000000	 53.645682 
930.000000	 53.648495 
929.000000	 53.658223 
928.000000	 53.671669 
927.000000	 53.684878 
926.000000	 53.693604 
925.000000	 53.694486 
924.000000	 53.685545 
923.000000	 53.666877 
922.000000	 53.640198 
921.000000	 53.608798 
920.000000	 53.576660 
919.000000	 53.547811 
918.000000	 53.525757 
917.000000	 53.512597 
916.000000	 53.508830 
915.000000	 53.513383 
914.000000	 53.524065 
913.000000	 53.537964 
912.000000	 53.551840 
911.000000	 53.563165 
910.000000	 53.570437 
909.000000	 53.573656 
908.000000	 53.573894 
907.000000	 53.573322 
906.000000	 53.574442 
905.000000	 53.579616 
904.000000	 53.590512 
903.000000	 53.607678 
902.000000	 53.630423 
901.000000	 53.657150 
900.000000	 53.685450 
899.000000	 53.712773 
898.000000	 53.736472 
897.000000	 53.754568 
896.000000	 53.765678 
895.000000	 53.769278 
894.000000	 53.765273 
893.000000	 53.754234 
892.000000	 53.736591 
891.000000	 53.712987 
890.000000	 53.684329 
889.000000	 53.651738 
888.000000	 53.617000 
887.000000	 53.582501 
886.000000	 53.551316 
885.000000	 53.526902 
884.000000	 53.512477 
883.000000	 53.510332 
882.000000	 53.521180 
881.000000	 53.543758 
880.000000	 53.574848 
879.000000	 53.609824 
878.000000	 53.643417 
877.000000	 53.671002 
876.000000	 53.689551 
875.000000	 53.698348 
874.000000	 53.699064 
873.000000	 53.694963 
872.000000	 53.690028 
871.000000	 53.687572 
870.000000	 53.689384 
869.000000	 53.695058 
868.000000	 53.702616 
867.000000	 53.708648 
866.000000	 53.709912 
865.000000	 53.703951 
864.000000	 53.690052 
863.000000	 53.669190 
862.000000	 53.643870 
861.000000	 53.617548 
860.000000	 53.593802 
859.000000	 53.575491 
858.000000	 53.564357 
857.000000	 53.560423 
856.000000	 53.562140 
855.000000	 53.566932 
854.000000	 53.571939 
853.000000	 53.574538 
852.000000	 53.572702 
851.000000	 53.565526 
850.000000	 53.553438 
849.000000	 53.537893 
848.000000	 53.521132 
847.000000	 53.505682 
846.000000	 53.493833 
845.000000	 53.487133 
844.000000	 53.486156 
843.000000	 53.490543 
842.000000	 53.498911 
841.000000	 53.509473 
840.000000	 53.520059 
839.000000	 53.528785 
838.000000	 53.534030 
837.000000	 53.534603 
836.000000	 53.529858 
835.000000	 53.519678 
834.000000	 53.504991 
833.000000	 53.487610 
832.000000	 53.470540 
831.000000	 53.457260 
830.000000	 53.451538 
829.000000	 53.456807 
828.000000	 53.475236 
827.000000	 53.507328 
826.000000	 53.551244 
825.000000	 53.603053 
824.000000	 53.657436 
823.000000	 53.708744 
822.000000	 53.752446 
821.000000	 53.785824 
820.000000	 53.808689 
819.000000	 53.822803 
818.000000	 53.831124 
817.000000	 53.836441 
816.000000	 53.840684 
815.000000	 53.844046 
814.000000	 53.845953 
813.000000	 53.844428 
812.000000	 53.838157 
811.000000	 53.825640 
810.000000	 53.806519 
809.000000	 53.780698 
808.000000	 53.748631 
807.000000	 53.711104 
806.000000	 53.668999 
805.000000	 53.623771 
804.000000	 53.577327 
803.000000	 53.532290 
802.000000	 53.491687 
801.000000	 53.458786 
800.000000	 53.436398 
799.000000	 53.426337 
798.000000	 53.428912 
797.000000	 53.442788 
796.000000	 53.464937 
795.000000	 53.491568 
794.000000	 53.518700 
793.000000	 53.542876 
792.000000	 53.561735 
791.000000	 53.574061 
790.000000	 53.579831 
789.000000	 53.579449 
788.000000	 53.573584 
787.000000	 53.562855 
786.000000	 53.547787 
785.000000	 53.529024 
784.000000	 53.507614 
783.000000	 53.485107 
782.000000	 53.463363 
781.000000	 53.444790 
780.000000	 53.431439 
779.000000	 53.424739 
778.000000	 53.425073 
777.000000	 53.431487 
776.000000	 53.442168 
775.000000	 53.454494 
774.000000	 53.465890 
773.000000	 53.474640 
772.000000	 53.479743 
771.000000	 53.481316 
770.000000	 53.480148 
769.000000	 53.477597 
768.000000	 53.475093 
767.000000	 53.473806 
766.000000	 53.474497 
765.000000	 53.477358 
764.000000	 53.482341 
763.000000	 53.489136 
762.000000	 53.497338 
761.000000	 53.506493 
760.000000	 53.516173 
759.000000	 53.525876 
758.000000	 53.534984 
757.000000	 53.542852 
756.000000	 53.548741 
755.000000	 53.552246 
754.000000	 53.553414 
753.000000	 53.552985 
752.000000	 53.552079 
751.000000	 53.552174 
750.000000	 53.555107 
749.000000	 53.562021 
748.000000	 53.573489 
747.000000	 53.588676 
746.000000	 53.605866 
745.000000	 53.622078 
744.000000	 53.633832 
743.000000	 53.637409 
742.000000	 53.629994 
741.000000	 53.610062 
740.000000	 53.577995 
739.000000	 53.535985 
738.000000	 53.487801 
737.000000	 53.438186 
736.000000	 53.392219 
735.000000	 53.354072 
734.000000	 53.326845 
733.000000	 53.311991 
732.000000	 53.309369 
731.000000	 53.317499 
730.000000	 53.333997 
729.000000	 53.356266 
728.000000	 53.382062 
727.000000	 53.409266 
726.000000	 53.436660 
725.000000	 53.463459 
724.000000	 53.489446 
723.000000	 53.514361 
722.000000	 53.537940 
721.000000	 53.559803 
720.000000	 53.579449 
719.000000	 53.596448 
718.000000	 53.610301 
717.000000	 53.620624 
716.000000	 53.627181 
715.000000	 53.629875 
714.000000	 53.628206 
713.000000	 53.621387 
712.000000	 53.608632 
711.000000	 53.589463 
710.000000	 53.563761 
709.000000	 53.532361 
708.000000	 53.497195 
707.000000	 53.461384 
706.000000	 53.428554 
705.000000	 53.402233 
704.000000	 53.385138 
703.000000	 53.378534 
702.000000	 53.381705 
701.000000	 53.392553 
700.000000	 53.407382 
699.000000	 53.422665 
698.000000	 53.435564 
697.000000	 53.444957 
696.000000	 53.451061 
695.000000	 53.455877 
694.000000	 53.462290 
693.000000	 53.473210 
692.000000	 53.490567 
691.000000	 53.515529 
690.000000	 53.548049 
689.000000	 53.587508 
688.000000	 53.632712 
687.000000	 53.682303 
686.000000	 53.734636 
685.000000	 53.787899 
684.000000	 53.839707 
683.000000	 53.887104 
682.000000	 53.926277 
681.000000	 53.953504 
680.000000	 53.965210 
679.000000	 53.959035 
678.000000	 53.934073 
677.000000	 53.892111 
676.000000	 53.837013 
675.000000	 53.774452 
674.000000	 53.710865 
673.000000	 53.652787 
672.000000	 53.605318 
671.000000	 53.571796 
670.000000	 53.553032 
669.000000	 53.547549 
668.000000	 53.552126 
667.000000	 53.563070 
666.000000	 53.576660 
665.000000	 53.589820 
664.000000	 53.601193 
663.000000	 53.610849 
662.000000	 53.620076 
661.000000	 53.630638 
660.000000	 53.644299 
659.000000	 53.662014 
658.000000	 53.683686 
657.000000	 53.707885 
656.000000	 53.732275 
655.000000	 53.754258 
654.000000	 53.771448 
653.000000	 53.782081 
652.000000	 53.785681 
651.000000	 53.782820 
650.000000	 53.774833 
649.000000	 53.763294 
648.000000	 53.749823 
647.000000	 53.735089 
646.000000	 53.719329 
645.000000	 53.701686 
644.000000	 53.680825 
643.000000	 53.655076 
642.000000	 53.623890 
641.000000	 53.587436 
640.000000	 53.546500 
639.000000	 53.502917 
638.000000	 53.459239 
637.000000	 53.418087 
636.000000	 53.381800 
635.000000	 53.351974 
634.000000	 53.329610 
633.000000	 53.315281 
632.000000	 53.309273 
631.000000	 53.311657 
630.000000	 53.322434 
629.000000	 53.341269 
628.000000	 53.367471 
627.000000	 53.399515 
626.000000	 53.435063 
625.000000	 53.470301 
624.000000	 53.501105 
623.000000	 53.523564 
622.000000	 53.535294 
621.000000	 53.535437 
620.000000	 53.525853 
619.000000	 53.510904 
618.000000	 53.496479 
617.000000	 53.488898 
616.000000	 53.493356 
615.000000	 53.513169 
614.000000	 53.548669 
613.000000	 53.597307 
612.000000	 53.654313 
611.000000	 53.713941 
610.000000	 53.770160 
609.000000	 53.817939 
608.000000	 53.853821 
607.000000	 53.876376 
606.000000	 53.885602 
605.000000	 53.883004 
604.000000	 53.871107 
603.000000	 53.853511 
602.000000	 53.834986 
601.000000	 53.821253 
600.000000	 53.818631 
599.000000	 53.833198 
598.000000	 53.869509 
597.000000	 53.929257 
596.000000	 54.010725 
595.000000	 54.108357 
594.000000	 54.213857 
593.000000	 54.317235 
592.000000	 54.408621 
591.000000	 54.479980 
590.000000	 54.526662 
589.000000	 54.547905 
588.000000	 54.546427 
587.000000	 54.527831 
586.000000	 54.499435 
585.000000	 54.468369 
584.000000	 54.440689 
583.000000	 54.420018 
582.000000	 54.407763 
581.000000	 54.402732 
580.000000	 54.402256 
579.000000	 54.402709 
578.000000	 54.400992 
577.000000	 54.394674 
576.000000	 54.383087 
575.000000	 54.367065 
574.000000	 54.349207 
573.000000	 54.333138 
572.000000	 54.322671 
571.000000	 54.321002 
570.000000	 54.329681 
569.000000	 54.348468 
568.000000	 54.374432 
567.000000	 54.403209 
566.000000	 54.428887 
565.000000	 54.445624 
564.000000	 54.448390 
563.000000	 54.434180 
562.000000	 54.402256 
561.000000	 54.354000 
560.000000	 54.293251 
559.000000	 54.225730 
558.000000	 54.157972 
557.000000	 54.096293 
556.000000	 54.045939 
555.000000	 54.010224 
554.000000	 53.990960 
553.000000	 53.988552 
552.000000	 54.002523 
551.000000	 54.031848 
550.000000	 54.075312 
549.000000	 54.131126 
548.000000	 54.195928 
547.000000	 54.264998 
546.000000	 54.331779 
545.000000	 54.389524 
544.000000	 54.432892 
543.000000	 54.459214 
542.000000	 54.469871 
541.000000	 54.468703 
540.000000	 54.461622 
539.000000	 54.453825 
538.000000	 54.448652 
537.000000	 54.446411 
536.000000	 54.444909 
535.000000	 54.440307 
534.000000	 54.429244 
533.000000	 54.410028 
532.000000	 54.384016 
531.000000	 54.355621 
530.000000	 54.331374 
529.000000	 54.318690 
528.000000	 54.324054 
527.000000	 54.350948 
526.000000	 54.398703 
525.000000	 54.462242 
524.000000	 54.532933 
523.000000	 54.600238 
522.000000	 54.653930 
521.000000	 54.686093 
520.000000	 54.692745 
519.000000	 54.673886 
518.000000	 54.633402 
517.000000	 54.578328 
516.000000	 54.516625 
515.000000	 54.456281 
514.000000	 54.402923 
513.000000	 54.359078 
512.000000	 54.324555 
511.000000	 54.297780 
510.000000	 54.276490 
509.000000	 54.259419 
508.000000	 54.246115 
507.000000	 54.237794 
506.000000	 54.234766 
505.000000	 54.235863 
504.000000	 54.237151 
503.000000	 54.232025 
502.000000	 54.213786 
501.000000	 54.177689 
500.000000	 54.122662 
499.000000	 54.051923 
498.000000	 53.972935 
497.000000	 53.895449 
496.000000	 53.827905 
495.000000	 53.775429 
494.000000	 53.738117 
493.000000	 53.712248 
492.000000	 53.691387 
491.000000	 53.670334 
490.000000	 53.646516 
489.000000	 53.623509 
488.000000	 53.610014 
487.000000	 53.619265 
486.000000	 53.664231 
485.000000	 53.754210 
484.000000	 53.891229 
483.000000	 54.067587 
482.000000	 54.266452 
481.000000	 54.464244 
480.000000	 54.636168 
479.000000	 54.759573 
478.000000	 54.819726 
477.000000	 54.810476 
476.000000	 54.736328 
475.000000	 54.607748 
474.000000	 54.438614 
473.000000	 54.242396 
472.000000	 54.030776 
471.000000	 53.812956 
470.000000	 53.597426 
469.000000	 53.393816 
468.000000	 53.214573 
467.000000	 53.074407 
466.000000	 52.989459 
465.000000	 52.972674 
464.000000	 53.031778 
463.000000	 53.166222 
462.000000	 53.365659 
461.000000	 53.609538 
460.000000	 53.869986 
459.000000	 54.114890 
458.000000	 54.315090 
457.000000	 54.447579 
456.000000	 54.502129 
455.000000	 54.482269 
454.000000	 54.404830 
453.000000	 54.295945 
452.000000	 54.184412 
451.000000	 54.096341 
450.000000	 54.047966 
449.000000	 54.043960 
448.000000	 54.076457 
447.000000	 54.129385 
446.000000	 54.183459 
445.000000	 54.222464 
444.000000	 54.236531 
443.000000	 54.223704 
442.000000	 54.192447 
441.000000	 54.156899 
440.000000	 54.122900 
439.000000	 54.087662 
438.000000	 54.046249 
437.000000	 53.992033 
436.000000	 53.914141 
435.000000	 53.806495 
434.000000	 53.677868 
433.000000	 53.546023 
432.000000	 53.433251 
431.000000	 53.359794 
430.000000	 53.336906 
429.000000	 53.363966 
428.000000	 53.426814 
427.000000	 53.503131 
426.000000	 53.567695 
425.000000	 53.600931 
424.000000	 53.598809 
423.000000	 53.563928 
422.000000	 53.498601 
421.000000	 53.416895 
420.000000	 53.345108 
419.000000	 53.303456 
418.000000	 53.304743 
417.000000	 53.373169 
416.000000	 53.549408 
415.000000	 53.883218 
414.000000	 54.433012 
413.000000	 55.266427 
412.000000	 56.438064 
411.000000	 57.969450 
410.000000	 59.827423 
409.000000	 61.908078 
408.000000	 64.048790 
407.000000	 66.065692 
406.000000	 67.777371 
405.000000	 69.030356 
404.000000	 69.739556 
403.000000	 69.921255 
402.000000	 69.663643 
401.000000	 69.149732 
400.000000	 68.535161 
399.000000	 67.932534 
398.000000	 67.329192 
397.000000	 66.621613 
396.000000	 65.601325 
395.000000	 64.044380 
394.000000	 61.758184 
393.000000	 58.656239 
392.000000	 54.837846 
391.000000	 50.600481 
390.000000	 46.317887 
389.000000	 42.369437 
388.000000	 39.087176 
387.000000	 36.702346 
386.000000	 35.253524 
385.000000	 34.671020 
384.000000	 34.754920 
383.000000	 35.349345 
382.000000	 36.477494 
381.000000	 38.296222 
380.000000	 41.076016 
379.000000	 44.961786 
378.000000	 49.866056 
377.000000	 55.317735 
376.000000	 60.401201 
375.000000	 64.023065 
374.000000	 65.228605 
373.000000	 63.412642 
372.000000	 58.560991 
371.000000	 51.233792 
370.000000	 42.406821 

