PE IR       SPECTRUM    SPECTRUM    ASCII       PEDS        1.60        
  -1
BZAC7E~1.ASC
17/04/10
11:03:01.00
17/04/10
11:03:01.00
tln
$BZ12041010-4_t0025$<tbV0>[-5.2,-2.0,9.0,0.0,22,1,0]
370.000000
64









2002,4.07    
MIRTGS : RIGHTBACK : INTERNAL 2
MIR : ON : INTERNAL 2
OPTKBR

0.200000
8
8.000000
FILLER
RATIO
SPECTRUM
UNLOCKED 256

DOUBLE
64
COMBINED
1
0
0


1.000000
RATIO


1
0
TRUE
51149
0
LEFT NOT FITTED RIGHT NOT FITTED 0
NONE
NONE
15600
12.000000
4.427000
51148
TRUE
1 0 8 72 0 0 0 0 

15798.010000






#HDR
-1
-1
#GR
CM-1
%T
0.00002384185791015625
0.0
5000.000000
-1.000000
4631
8
85.137867
28.616905
#DATA
5000.000000	60.451316 
4999.000000	60.454773 
4998.000000	60.449361 
4997.000000	60.436582 
4996.000000	60.417532 
4995.000000	60.394048 
4994.000000	60.367584 
4993.000000	60.339426 
4992.000000	60.310912 
4991.000000	60.283780 
4990.000000	60.259842 
4989.000000	60.240530 
4988.000000	60.227131 
4987.000000	60.220623 
4986.000000	60.221099 
4985.000000	60.227632 
4984.000000	60.238361 
4983.000000	60.250735 
4982.000000	60.261893 
4981.000000	60.269093 
4980.000000	60.269713 
4979.000000	60.261607 
4978.000000	60.244178 
4977.000000	60.217881 
4976.000000	60.183787 
4975.000000	60.143017 
4974.000000	60.097527 
4973.000000	60.048222 
4972.000000	59.995698 
4971.000000	59.938359 
4970.000000	59.874606 
4969.000000	59.801363 
4968.000000	59.715294 
4967.000000	59.613966 
4966.000000	59.496927 
4965.000000	59.367537 
4964.000000	59.232616 
4963.000000	59.102964 
4962.000000	58.990740 
4961.000000	58.907890 
4960.000000	58.863115 
4959.000000	58.859753 
4958.000000	58.894538 
4957.000000	58.958911 
4956.000000	59.040927 
4955.000000	59.128189 
4954.000000	59.211254 
4953.000000	59.285616 
4952.000000	59.353017 
4951.000000	59.419679 
4950.000000	59.494447 
4949.000000	59.585118 
4948.000000	59.695959 
4947.000000	59.826135 
4946.000000	59.969329 
4945.000000	60.115432 
4944.000000	60.252070 
4943.000000	60.369944 
4942.000000	60.462212 
4941.000000	60.527157 
4940.000000	60.565781 
4939.000000	60.581851 
4938.000000	60.578870 
4937.000000	60.559678 
4936.000000	60.524964 
4935.000000	60.474801 
4934.000000	60.408830 
4933.000000	60.328388 
4932.000000	60.237860 
4931.000000	60.145711 
4930.000000	60.062265 
4929.000000	59.997701 
4928.000000	59.960269 
4927.000000	59.954380 
4926.000000	59.977698 
4925.000000	60.022759 
4924.000000	60.077476 
4923.000000	60.130000 
4922.000000	60.173010 
4921.000000	60.205721 
4920.000000	60.233044 
4919.000000	60.263299 
4918.000000	60.306596 
4917.000000	60.368084 
4916.000000	60.445690 
4915.000000	60.527944 
4914.000000	60.597133 
4913.000000	60.632205 
4912.000000	60.614371 
4911.000000	60.533261 
4910.000000	60.391187 
4909.000000	60.203981 
4908.000000	59.996795 
4907.000000	59.802293 
4906.000000	59.653186 
4905.000000	59.577250 
4904.000000	59.590983 
4903.000000	59.699702 
4902.000000	59.896135 
4901.000000	60.163140 
4900.000000	60.475158 
4899.000000	60.799360 
4898.000000	61.099123 
4897.000000	61.338400 
4896.000000	61.486601 
4895.000000	61.521339 
4894.000000	61.433815 
4893.000000	61.232876 
4892.000000	60.943198 
4891.000000	60.602474 
4890.000000	60.253238 
4889.000000	59.939479 
4888.000000	59.693622 
4887.000000	59.534025 
4886.000000	59.458637 
4885.000000	59.450197 
4884.000000	59.477901 
4883.000000	59.506440 
4882.000000	59.503388 
4881.000000	59.445309 
4880.000000	59.324169 
4879.000000	59.146761 
4878.000000	58.933639 
4877.000000	58.711910 
4876.000000	58.512973 
4875.000000	58.365488 
4874.000000	58.292293 
4873.000000	58.307361 
4872.000000	58.415126 
4871.000000	58.611202 
4870.000000	58.882617 
4869.000000	59.211516 
4868.000000	59.575915 
4867.000000	59.954714 
4866.000000	60.326552 
4865.000000	60.675096 
4864.000000	60.988545 
4863.000000	61.261248 
4862.000000	61.493706 
4861.000000	61.688876 
4860.000000	61.852836 
4859.000000	61.987972 
4858.000000	62.097549 
4857.000000	62.176918 
4856.000000	62.218308 
4855.000000	62.209725 
4854.000000	62.142586 
4853.000000	62.012124 
4852.000000	61.822581 
4851.000000	61.587071 
4850.000000	61.327552 
4849.000000	61.070680 
4848.000000	60.843777 
4847.000000	60.669469 
4846.000000	60.562682 
4845.000000	60.529398 
4844.000000	60.567283 
4843.000000	60.668063 
4842.000000	60.819911 
4841.000000	61.009669 
4840.000000	61.223959 
4839.000000	61.447334 
4838.000000	61.663794 
4837.000000	61.857295 
4836.000000	62.012171 
4835.000000	62.112712 
4834.000000	62.147212 
4833.000000	62.112379 
4832.000000	62.012600 
4831.000000	61.861586 
4830.000000	61.678767 
4829.000000	61.488342 
4828.000000	61.312365 
4827.000000	61.168265 
4826.000000	61.064410 
4825.000000	61.000108 
4824.000000	60.967111 
4823.000000	60.953521 
4822.000000	60.947465 
4821.000000	60.940766 
4820.000000	60.931372 
4819.000000	60.923171 
4818.000000	60.923647 
4817.000000	60.940361 
4816.000000	60.977721 
4815.000000	61.034011 
4814.000000	61.101126 
4813.000000	61.165046 
4812.000000	61.209630 
4811.000000	61.219716 
4810.000000	61.186337 
4809.000000	61.108207 
4808.000000	60.991501 
4807.000000	60.849857 
4806.000000	60.701227 
4805.000000	60.565090 
4804.000000	60.457539 
4803.000000	60.390567 
4802.000000	60.369944 
4801.000000	60.396075 
4800.000000	60.465168 
4799.000000	60.569596 
4798.000000	60.699176 
4797.000000	60.842657 
4796.000000	60.988807 
4795.000000	61.126422 
4794.000000	61.244750 
4793.000000	61.334204 
4792.000000	61.386895 
4791.000000	61.397480 
4790.000000	61.363458 
4789.000000	61.286139 
4788.000000	61.170268 
4787.000000	61.024689 
4786.000000	60.860586 
4785.000000	60.691380 
4784.000000	60.529971 
4783.000000	60.387468 
4782.000000	60.271859 
4781.000000	60.186958 
4780.000000	60.133743 
4779.000000	60.109782 
4778.000000	60.112524 
4777.000000	60.138249 
4776.000000	60.185527 
4775.000000	60.253500 
4774.000000	60.342502 
4773.000000	60.451793 
4772.000000	60.577702 
4771.000000	60.712075 
4770.000000	60.842299 
4769.000000	60.952758 
4768.000000	61.027383 
4767.000000	61.052870 
4766.000000	61.022162 
4765.000000	60.936331 
4764.000000	60.804414 
4763.000000	60.642004 
4762.000000	60.468292 
4761.000000	60.302829 
4760.000000	60.162878 
4759.000000	60.060834 
4758.000000	60.003566 
4757.000000	59.991693 
4756.000000	60.020494 
4755.000000	60.081410 
4754.000000	60.163688 
4753.000000	60.256505 
4752.000000	60.349059 
4751.000000	60.432648 
4750.000000	60.500216 
4749.000000	60.547661 
4748.000000	60.572624 
4747.000000	60.575699 
4746.000000	60.559630 
4745.000000	60.529899 
4744.000000	60.493946 
4743.000000	60.460662 
4742.000000	60.439157 
4741.000000	60.437917 
4740.000000	60.463261 
4739.000000	60.517525 
4738.000000	60.597991 
4737.000000	60.696983 
4736.000000	60.802865 
4735.000000	60.901618 
4734.000000	60.979986 
4733.000000	61.028289 
4732.000000	61.042380 
4731.000000	61.025261 
4730.000000	60.984992 
4729.000000	60.932207 
4728.000000	60.877084 
4727.000000	60.827350 
4726.000000	60.786414 
4725.000000	60.753369 
4724.000000	60.724425 
4723.000000	60.695624 
4722.000000	60.664892 
4721.000000	60.633850 
4720.000000	60.607099 
4719.000000	60.590672 
4718.000000	60.589742 
4717.000000	60.606241 
4716.000000	60.637283 
4715.000000	60.674762 
4714.000000	60.707664 
4713.000000	60.724878 
4712.000000	60.718393 
4711.000000	60.685801 
4710.000000	60.630631 
4709.000000	60.561776 
4708.000000	60.490560 
4707.000000	60.428071 
4706.000000	60.382509 
4705.000000	60.357832 
4704.000000	60.352873 
4703.000000	60.363197 
4702.000000	60.383105 
4701.000000	60.407733 
4700.000000	60.434031 
4699.000000	60.461711 
4698.000000	60.492467 
4697.000000	60.528635 
4696.000000	60.570931 
4695.000000	60.617971 
4694.000000	60.665678 
4693.000000	60.708212 
4692.000000	60.739398 
4691.000000	60.754609 
4690.000000	60.752391 
4689.000000	60.734939 
4688.000000	60.707879 
4687.000000	60.678696 
4686.000000	60.654926 
4685.000000	60.642313 
4684.000000	60.643577 
4683.000000	60.658073 
4682.000000	60.682225 
4681.000000	60.711240 
4680.000000	60.740137 
4679.000000	60.765433 
4678.000000	60.785126 
4677.000000	60.799431 
4676.000000	60.809087 
4675.000000	60.814547 
4674.000000	60.814261 
4673.000000	60.805392 
4672.000000	60.783195 
4671.000000	60.742759 
4670.000000	60.679888 
4669.000000	60.593152 
4668.000000	60.484814 
4667.000000	60.361456 
4666.000000	60.232996 
4665.000000	60.110616 
4664.000000	60.005521 
4663.000000	59.926819 
4662.000000	59.879302 
4661.000000	59.862756 
4660.000000	59.872531 
4659.000000	59.900879 
4658.000000	59.938359 
4657.000000	59.976148 
4656.000000	60.008001 
4655.000000	60.031485 
4654.000000	60.047698 
4653.000000	60.060787 
4652.000000	60.075736 
4651.000000	60.097026 
4650.000000	60.127115 
4649.000000	60.165596 
4648.000000	60.209488 
4647.000000	60.253500 
4646.000000	60.292530 
4645.000000	60.321426 
4644.000000	60.337018 
4643.000000	60.337281 
4642.000000	60.322642 
4641.000000	60.294246 
4640.000000	60.253763 
4639.000000	60.202383 
4638.000000	60.141277 
4637.000000	60.071182 
4636.000000	59.993195 
4635.000000	59.909367 
4634.000000	59.823441 
4633.000000	59.740233 
4632.000000	59.665369 
4631.000000	59.604740 
4630.000000	59.563517 
4629.000000	59.545159 
4628.000000	59.551000 
4627.000000	59.579706 
4626.000000	59.627985 
4625.000000	59.690427 
4624.000000	59.761285 
4623.000000	59.834361 
4622.000000	59.904909 
4621.000000	59.969854 
4620.000000	60.027980 
4619.000000	60.079860 
4618.000000	60.126280 
4617.000000	60.168123 
4616.000000	60.204577 
4615.000000	60.233831 
4614.000000	60.252475 
4613.000000	60.256958 
4612.000000	60.244226 
4611.000000	60.213446 
4610.000000	60.166549 
4609.000000	60.108637 
4608.000000	60.047149 
4607.000000	59.990549 
4606.000000	59.946465 
4605.000000	59.920191 
4604.000000	59.913873 
4603.000000	59.926366 
4602.000000	59.954309 
4601.000000	59.993314 
4600.000000	60.039067 
4599.000000	60.088539 
4598.000000	60.139560 
4597.000000	60.191130 
4596.000000	60.241985 
4595.000000	60.290813 
4594.000000	60.335779 
4593.000000	60.375022 
4592.000000	60.407090 
4591.000000	60.431098 
4590.000000	60.448074 
4589.000000	60.459303 
4588.000000	60.466980 
4587.000000	60.472059 
4586.000000	60.474491 
4585.000000	60.472059 
4584.000000	60.461449 
4583.000000	60.438942 
4582.000000	60.402035 
4581.000000	60.350537 
4580.000000	60.287380 
4579.000000	60.217809 
4578.000000	60.148572 
4577.000000	60.085916 
4576.000000	60.034275 
4575.000000	59.995317 
4574.000000	59.968066 
4573.000000	59.949040 
4572.000000	59.934139 
4571.000000	59.920597 
4570.000000	59.907865 
4569.000000	59.897089 
4568.000000	59.891057 
4567.000000	59.892845 
4566.000000	59.904718 
4565.000000	59.925889 
4564.000000	59.953498 
4563.000000	59.983038 
4562.000000	60.009574 
4561.000000	60.029172 
4560.000000	60.039567 
4559.000000	60.040783 
4558.000000	60.034847 
4557.000000	60.025167 
4556.000000	60.015153 
4555.000000	60.007095 
4554.000000	60.001730 
4553.000000	59.998488 
4552.000000	59.994769 
4551.000000	59.986639 
4550.000000	59.969472 
4549.000000	59.939169 
4548.000000	59.891986 
4547.000000	59.825420 
4546.000000	59.739303 
4545.000000	59.636235 
4544.000000	59.521031 
4543.000000	59.400296 
4542.000000	59.282636 
4541.000000	59.176301 
4540.000000	59.087252 
4539.000000	59.018921 
4538.000000	58.970403 
4537.000000	58.939218 
4536.000000	58.920693 
4535.000000	58.911895 
4534.000000	58.911085 
4533.000000	58.920264 
4532.000000	58.943152 
4531.000000	58.984851 
4530.000000	59.048581 
4529.000000	59.134554 
4528.000000	59.238553 
4527.000000	59.351921 
4526.000000	59.463000 
4525.000000	59.559488 
4524.000000	59.631037 
4523.000000	59.672117 
4522.000000	59.683609 
4521.000000	59.673380 
4520.000000	59.654569 
4519.000000	59.643006 
4518.000000	59.653067 
4517.000000	59.694433 
4516.000000	59.769296 
4515.000000	59.872627 
4514.000000	59.992551 
4513.000000	60.114717 
4512.000000	60.224199 
4511.000000	60.309553 
4510.000000	60.364270 
4509.000000	60.387444 
4508.000000	60.383367 
4507.000000	60.359048 
4506.000000	60.323119 
4505.000000	60.283803 
4504.000000	60.248160 
4503.000000	60.221815 
4502.000000	60.207915 
4501.000000	60.208344 
4500.000000	60.221457 
4499.000000	60.242724 
4498.000000	60.266733 
4497.000000	60.289430 
4496.000000	60.302066 
4495.000000	60.293245 
4494.000000	60.259556 
4493.000000	60.204601 
4492.000000	60.136008 
4491.000000	60.063028 
4490.000000	59.992551 
4489.000000	59.926199 
4488.000000	59.866595 
4487.000000	59.812426 
4486.000000	59.746956 
4485.000000	59.651803 
4484.000000	59.530711 
4483.000000	59.393286 
4482.000000	59.240293 
4481.000000	59.077596 
4480.000000	58.909416 
4479.000000	58.749461 
4478.000000	58.624911 
4477.000000	58.563756 
4476.000000	58.593416 
4475.000000	58.715105 
4474.000000	58.902287 
4473.000000	59.086275 
4472.000000	59.167408 
4471.000000	59.037613 
4470.000000	58.608317 
4469.000000	57.821631 
4468.000000	56.673622 
4467.000000	55.204582 
4466.000000	53.520154 
4465.000000	51.750946 
4464.000000	50.086784 
4463.000000	48.748064 
4462.000000	48.003387 
4461.000000	48.114514 
4460.000000	49.315118 
4459.000000	51.768064 
4458.000000	55.490899 
4457.000000	60.335373 
4456.000000	65.942692 
4455.000000	71.774125 
4454.000000	77.182960 
4453.000000	81.514477 
4452.000000	84.253382 
4451.000000	85.137867 
4450.000000	84.207081 
4449.000000	81.819248 
4448.000000	78.509211 
4447.000000	74.877023 
4446.000000	71.433258 
4445.000000	68.512773 
4444.000000	66.243195 
4443.000000	64.575886 
4442.000000	63.365125 
4441.000000	62.451481 
4440.000000	61.697173 
4439.000000	61.035275 
4438.000000	60.432124 
4437.000000	59.904336 
4436.000000	59.472298 
4435.000000	59.166216 
4434.000000	58.994984 
4433.000000	58.954763 
4432.000000	59.020256 
4431.000000	59.157466 
4430.000000	59.324622 
4429.000000	59.486579 
4428.000000	59.622931 
4427.000000	59.726738 
4426.000000	59.790396 
4425.000000	59.816837 
4424.000000	59.818816 
4423.000000	59.808301 
4422.000000	59.785056 
4421.000000	59.751701 
4420.000000	59.719753 
4419.000000	59.696817 
4418.000000	59.687209 
4417.000000	59.687995 
4416.000000	59.688687 
4415.000000	59.685802 
4414.000000	59.684991 
4413.000000	59.687423 
4412.000000	59.691691 
4411.000000	59.703302 
4410.000000	59.730052 
4409.000000	59.774279 
4408.000000	59.833240 
4407.000000	59.900379 
4406.000000	59.966659 
4405.000000	60.021209 
4404.000000	60.056304 
4403.000000	60.071492 
4402.000000	60.072112 
4401.000000	60.067939 
4400.000000	60.069751 
4399.000000	60.085725 
4398.000000	60.119104 
4397.000000	60.167813 
4396.000000	60.224270 
4395.000000	60.278105 
4394.000000	60.318231 
4393.000000	60.336327 
4392.000000	60.328412 
4391.000000	60.296010 
4390.000000	60.245561 
4389.000000	60.186910 
4388.000000	60.131049 
4387.000000	60.087656 
4386.000000	60.063481 
4385.000000	60.060882 
4384.000000	60.078454 
4383.000000	60.111331 
4382.000000	60.153293 
4381.000000	60.197544 
4380.000000	60.238265 
4379.000000	60.270977 
4378.000000	60.292768 
4377.000000	60.302233 
4376.000000	60.298609 
4375.000000	60.282564 
4374.000000	60.255718 
4373.000000	60.221219 
4372.000000	60.183167 
4371.000000	60.146450 
4370.000000	60.116529 
4369.000000	60.098123 
4368.000000	60.094666 
4367.000000	60.107541 
4366.000000	60.135889 
4365.000000	60.176301 
4364.000000	60.223436 
4363.000000	60.270714 
4362.000000	60.311293 
4361.000000	60.339140 
4360.000000	60.350298 
4359.000000	60.343670 
4358.000000	60.321259 
4357.000000	60.287928 
4356.000000	60.250043 
4355.000000	60.214257 
4354.000000	60.185647 
4353.000000	60.167074 
4352.000000	60.158395 
4351.000000	60.157275 
4350.000000	60.159897 
4349.000000	60.162138 
4348.000000	60.161161 
4347.000000	60.156512 
4346.000000	60.149931 
4345.000000	60.144639 
4344.000000	60.143876 
4343.000000	60.149455 
4342.000000	60.161113 
4341.000000	60.176277 
4340.000000	60.191106 
4339.000000	60.201358 
4338.000000	60.204386 
4337.000000	60.199856 
4336.000000	60.190057 
4335.000000	60.178947 
4334.000000	60.170698 
4333.000000	60.168337 
4332.000000	60.172748 
4331.000000	60.182261 
4330.000000	60.193371 
4329.000000	60.201501 
4328.000000	60.202646 
4327.000000	60.194373 
4326.000000	60.176658 
4325.000000	60.151505 
4324.000000	60.121631 
4323.000000	60.089921 
4322.000000	60.058403 
4321.000000	60.028553 
4320.000000	60.001063 
4319.000000	59.977269 
4318.000000	59.959149 
4317.000000	59.949851 
4316.000000	59.953451 
4315.000000	59.973382 
4314.000000	60.011243 
4313.000000	60.065627 
4312.000000	60.131525 
4311.000000	60.200810 
4310.000000	60.263800 
4309.000000	60.311269 
4308.000000	60.336709 
4307.000000	60.337853 
4306.000000	60.317611 
4305.000000	60.283374 
4304.000000	60.245323 
4303.000000	60.214304 
4302.000000	60.199260 
4301.000000	60.205554 
4300.000000	60.233902 
4299.000000	60.280871 
4298.000000	60.339689 
4297.000000	60.402297 
4296.000000	60.460734 
4295.000000	60.508632 
4294.000000	60.541892 
4293.000000	60.558462 
4292.000000	60.558533 
4291.000000	60.543584 
4290.000000	60.516333 
4289.000000	60.479950 
4288.000000	60.438179 
4287.000000	60.395193 
4286.000000	60.355091 
4285.000000	60.321831 
4284.000000	60.298514 
4283.000000	60.287094 
4282.000000	60.288143 
4281.000000	60.300803 
4280.000000	60.322833 
4279.000000	60.351014 
4278.000000	60.381937 
4277.000000	60.412621 
4276.000000	60.440158 
4275.000000	60.462474 
4274.000000	60.477638 
4273.000000	60.484695 
4272.000000	60.483169 
4271.000000	60.473799 
4270.000000	60.458660 
4269.000000	60.441088 
4268.000000	60.425758 
4267.000000	60.417127 
4266.000000	60.419011 
4265.000000	60.432863 
4264.000000	60.457348 
4263.000000	60.488605 
4262.000000	60.521292 
4261.000000	60.549974 
4260.000000	60.570240 
4259.000000	60.579943 
4258.000000	60.579514 
4257.000000	60.571622 
4256.000000	60.560131 
4255.000000	60.548424 
4254.000000	60.538268 
4253.000000	60.529422 
4252.000000	60.519981 
4251.000000	60.507225 
4250.000000	60.488843 
4249.000000	60.464406 
4248.000000	60.435652 
4247.000000	60.406398 
4246.000000	60.381650 
4245.000000	60.365796 
4244.000000	60.361886 
4243.000000	60.370683 
4242.000000	60.390377 
4241.000000	60.417318 
4240.000000	60.446357 
4239.000000	60.472559 
4238.000000	60.491704 
4237.000000	60.501170 
4236.000000	60.500097 
4235.000000	60.489273 
4234.000000	60.470962 
4233.000000	60.448050 
4232.000000	60.423874 
4231.000000	60.401606 
4230.000000	60.383892 
4229.000000	60.372662 
4228.000000	60.368800 
4227.000000	60.372161 
4226.000000	60.381364 
4225.000000	60.394167 
4224.000000	60.407781 
4223.000000	60.419321 
4222.000000	60.426545 
4221.000000	60.428047 
4220.000000	60.423398 
4219.000000	60.412788 
4218.000000	60.397267 
4217.000000	60.378146 
4216.000000	60.356497 
4215.000000	60.333323 
4214.000000	60.309386 
4213.000000	60.285544 
4212.000000	60.262656 
4211.000000	60.241961 
4210.000000	60.224843 
4209.000000	60.212826 
4208.000000	60.207343 
4207.000000	60.209012 
4206.000000	60.217499 
4205.000000	60.231351 
4204.000000	60.248279 
4203.000000	60.265469 
4202.000000	60.280060 
4201.000000	60.289907 
4200.000000	60.293817 
4199.000000	60.291934 
4198.000000	60.285711 
4197.000000	60.277891 
4196.000000	60.271954 
4195.000000	60.271501 
4194.000000	60.279536 
4193.000000	60.298156 
4192.000000	60.327935 
4191.000000	60.367965 
4190.000000	60.415768 
4189.000000	60.467791 
4188.000000	60.519623 
4187.000000	60.566806 
4186.000000	60.605216 
4185.000000	60.631585 
4184.000000	60.643863 
4183.000000	60.641717 
4182.000000	60.626411 
4181.000000	60.600638 
4180.000000	60.568213 
4179.000000	60.533738 
4178.000000	60.501646 
4177.000000	60.475707 
4176.000000	60.457944 
4175.000000	60.448646 
4174.000000	60.445642 
4173.000000	60.445094 
4172.000000	60.441803 
4171.000000	60.430788 
4170.000000	60.408687 
4169.000000	60.374927 
4168.000000	60.331869 
4167.000000	60.284662 
4166.000000	60.239911 
4165.000000	60.204339 
4164.000000	60.183048 
4163.000000	60.178446 
4162.000000	60.189604 
4161.000000	60.212707 
4160.000000	60.242104 
4159.000000	60.272073 
4158.000000	60.297679 
4157.000000	60.316276 
4156.000000	60.327720 
4155.000000	60.334038 
4154.000000	60.338354 
4153.000000	60.344052 
4152.000000	60.353469 
4151.000000	60.367178 
4150.000000	60.383939 
4149.000000	60.400652 
4148.000000	60.413622 
4147.000000	60.418486 
4146.000000	60.411405 
4145.000000	60.389733 
4144.000000	60.352921 
4143.000000	60.302591 
4142.000000	60.242581 
4141.000000	60.178780 
4140.000000	60.118436 
4139.000000	60.068655 
4138.000000	60.035681 
4137.000000	60.023522 
4136.000000	60.033869 
4135.000000	60.065555 
4134.000000	60.115456 
4133.000000	60.178756 
4132.000000	60.250401 
4131.000000	60.325312 
4130.000000	60.399508 
4129.000000	60.469627 
4128.000000	60.533499 
4127.000000	60.589599 
4126.000000	60.636878 
4125.000000	60.674357 
4124.000000	60.701489 
4123.000000	60.718131 
4122.000000	60.725045 
4121.000000	60.724139 
4120.000000	60.718226 
4119.000000	60.710716 
4118.000000	60.705041 
4117.000000	60.704159 
4116.000000	60.709810 
4115.000000	60.721945 
4114.000000	60.738945 
4113.000000	60.757946 
4112.000000	60.775637 
4111.000000	60.789012 
4110.000000	60.795879 
4109.000000	60.795402 
4108.000000	60.788106 
4107.000000	60.775637 
4106.000000	60.760235 
4105.000000	60.744071 
4104.000000	60.728883 
4103.000000	60.715508 
4102.000000	60.704135 
4101.000000	60.694527 
4100.000000	60.686635 
4099.000000	60.680770 
4098.000000	60.677313 
4097.000000	60.677146 
4096.000000	60.681438 
4095.000000	60.691142 
4094.000000	60.706496 
4093.000000	60.726976 
4092.000000	60.751223 
4091.000000	60.777091 
4090.000000	60.801649 
4089.000000	60.821485 
4088.000000	60.832834 
4087.000000	60.832142 
4086.000000	60.816597 
4085.000000	60.784339 
4084.000000	60.735702 
4083.000000	60.673022 
4082.000000	60.601305 
4081.000000	60.528016 
4080.000000	60.462212 
4079.000000	60.413002 
4078.000000	60.387802 
4077.000000	60.391068 
4076.000000	60.423016 
4075.000000	60.479021 
4074.000000	60.550808 
4073.000000	60.627698 
4072.000000	60.699129 
4071.000000	60.756373 
4070.000000	60.794639 
4069.000000	60.813379 
4068.000000	60.816144 
4067.000000	60.809087 
4066.000000	60.799336 
4065.000000	60.792851 
4064.000000	60.793304 
4063.000000	60.801339 
4062.000000	60.814929 
4061.000000	60.830068 
4060.000000	60.842680 
4059.000000	60.849285 
4058.000000	60.847783 
4057.000000	60.837769 
4056.000000	60.820102 
4055.000000	60.796689 
4054.000000	60.769724 
4053.000000	60.741543 
4052.000000	60.714221 
4051.000000	60.689258 
4050.000000	60.667896 
4049.000000	60.650801 
4048.000000	60.638475 
4047.000000	60.630893 
4046.000000	60.627889 
4045.000000	60.628795 
4044.000000	60.632348 
4043.000000	60.637092 
4042.000000	60.641598 
4041.000000	60.644578 
4040.000000	60.644936 
4039.000000	60.642790 
4038.000000	60.639524 
4037.000000	60.637521 
4036.000000	60.639190 
4035.000000	60.646963 
4034.000000	60.662126 
4033.000000	60.684418 
4032.000000	60.711669 
4031.000000	60.739827 
4030.000000	60.763692 
4029.000000	60.778093 
4028.000000	60.778975 
4027.000000	60.764312 
4026.000000	60.734462 
4025.000000	60.692548 
4024.000000	60.643267 
4023.000000	60.591888 
4022.000000	60.542821 
4021.000000	60.499405 
4020.000000	60.462903 
4019.000000	60.432648 
4018.000000	60.406541 
4017.000000	60.382175 
4016.000000	60.357117 
4015.000000	60.329627 
4014.000000	60.298657 
4013.000000	60.263991 
4012.000000	60.225987 
4011.000000	60.185480 
4010.000000	60.143733 
4009.000000	60.102367 
4008.000000	60.063505 
4007.000000	60.029768 
4006.000000	60.004043 
4005.000000	59.989380 
4004.000000	59.987878 
4003.000000	60.000610 
4002.000000	60.026741 
4001.000000	60.064005 
4000.000000	60.108947 
3999.000000	60.157847 
3998.000000	60.207033 
3997.000000	60.253858 
3996.000000	60.296940 
3995.000000	60.335946 
3994.000000	60.371494 
3993.000000	60.404014 
3992.000000	60.433268 
3991.000000	60.457873 
3990.000000	60.476112 
3989.000000	60.485839 
3988.000000	60.485267 
3987.000000	60.473847 
3986.000000	60.453128 
3985.000000	60.426545 
3984.000000	60.398912 
3983.000000	60.375714 
3982.000000	60.361981 
3981.000000	60.361075 
3980.000000	60.373759 
3979.000000	60.398387 
3978.000000	60.430788 
3977.000000	60.465025 
3976.000000	60.494446 
3975.000000	60.513043 
3974.000000	60.516715 
3973.000000	60.503864 
3972.000000	60.476040 
3971.000000	60.437130 
3970.000000	60.392951 
3969.000000	60.350346 
3968.000000	60.315489 
3967.000000	60.293078 
3966.000000	60.285329 
3965.000000	60.292053 
3964.000000	60.310554 
3963.000000	60.336256 
3962.000000	60.363793 
3961.000000	60.388326 
3960.000000	60.406160 
3959.000000	60.415291 
3958.000000	60.415649 
3957.000000	60.408759 
3956.000000	60.397315 
3955.000000	60.384416 
3954.000000	60.373210 
3953.000000	60.366058 
3952.000000	60.364675 
3951.000000	60.369753 
3950.000000	60.380911 
3949.000000	60.396957 
3948.000000	60.416150 
3947.000000	60.436439 
3946.000000	60.455989 
3945.000000	60.473442 
3944.000000	60.487818 
3943.000000	60.498738 
3942.000000	60.506415 
3941.000000	60.511231 
3940.000000	60.513710 
3939.000000	60.514163 
3938.000000	60.512542 
3937.000000	60.508704 
3936.000000	60.502505 
3935.000000	60.494256 
3934.000000	60.484862 
3933.000000	60.475802 
3932.000000	60.469102 
3931.000000	60.466790 
3930.000000	60.470533 
3929.000000	60.480928 
3928.000000	60.497212 
3927.000000	60.517501 
3926.000000	60.539007 
3925.000000	60.558819 
3924.000000	60.574340 
3923.000000	60.583639 
3922.000000	60.586023 
3921.000000	60.581731 
3920.000000	60.572028 
3919.000000	60.558509 
3918.000000	60.542774 
3917.000000	60.526299 
3916.000000	60.509920 
3915.000000	60.494208 
3914.000000	60.479354 
3913.000000	60.465645 
3912.000000	60.453605 
3911.000000	60.444068 
3910.000000	60.437965 
3909.000000	60.436081 
3908.000000	60.438752 
3907.000000	60.445356 
3906.000000	60.454249 
3905.000000	60.463070 
3904.000000	60.469245 
3903.000000	60.470461 
3902.000000	60.465502 
3901.000000	60.454535 
3900.000000	60.439324 
3899.000000	60.422825 
3898.000000	60.408616 
3897.000000	60.399937 
3896.000000	60.398888 
3895.000000	60.405921 
3894.000000	60.419845 
3893.000000	60.438132 
3892.000000	60.457682 
3891.000000	60.475730 
3890.000000	60.490345 
3889.000000	60.500860 
3888.000000	60.507678 
3887.000000	60.511898 
3886.000000	60.515046 
3885.000000	60.518360 
3884.000000	60.522437 
3883.000000	60.527205 
3882.000000	60.532116 
3881.000000	60.536193 
3880.000000	60.538506 
3879.000000	60.538148 
3878.000000	60.534596 
3877.000000	60.527443 
3876.000000	60.516738 
3875.000000	60.502815 
3874.000000	60.486245 
3873.000000	60.468053 
3872.000000	60.449695 
3871.000000	60.433030 
3870.000000	60.420083 
3869.000000	60.412359 
3868.000000	60.410976 
3867.000000	60.415983 
3866.000000	60.426831 
3865.000000	60.442042 
3864.000000	60.459971 
3863.000000	60.478925 
3862.000000	60.497713 
3861.000000	60.515761 
3860.000000	60.532832 
3859.000000	60.549163 
3858.000000	60.564589 
3857.000000	60.578751 
3856.000000	60.590696 
3855.000000	60.599040 
3854.000000	60.602188 
3853.000000	60.598945 
3852.000000	60.588836 
3851.000000	60.572409 
3850.000000	60.551285 
3849.000000	60.528159 
3848.000000	60.506057 
3847.000000	60.488057 
3846.000000	60.476756 
3845.000000	60.473823 
3844.000000	60.479831 
3843.000000	60.494041 
3842.000000	60.514283 
3841.000000	60.537528 
3840.000000	60.560035 
3839.000000	60.578346 
3838.000000	60.589790 
3837.000000	60.593080 
3836.000000	60.588550 
3835.000000	60.577893 
3834.000000	60.563802 
3833.000000	60.549378 
3832.000000	60.537457 
3831.000000	60.529708 
3830.000000	60.526657 
3829.000000	60.527276 
3828.000000	60.529828 
3827.000000	60.531735 
3826.000000	60.530424 
3825.000000	60.523772 
3824.000000	60.510706 
3823.000000	60.491204 
3822.000000	60.466241 
3821.000000	60.437726 
3820.000000	60.408234 
3819.000000	60.380744 
3818.000000	60.358023 
3817.000000	60.342550 
3816.000000	60.335850 
3815.000000	60.338068 
3814.000000	60.348033 
3813.000000	60.363078 
3812.000000	60.379791 
3811.000000	60.394597 
3810.000000	60.404920 
3809.000000	60.408997 
3808.000000	60.407519 
3807.000000	60.402655 
3806.000000	60.398340 
3805.000000	60.398793 
3804.000000	60.408091 
3803.000000	60.428929 
3802.000000	60.462164 
3801.000000	60.506582 
3800.000000	60.558986 
3799.000000	60.614943 
3798.000000	60.669589 
3797.000000	60.718512 
3796.000000	60.758471 
3795.000000	60.787749 
3794.000000	60.806179 
3793.000000	60.814952 
3792.000000	60.816168 
3791.000000	60.812067 
3790.000000	60.804891 
3789.000000	60.796117 
3788.000000	60.786771 
3787.000000	60.776925 
3786.000000	60.766291 
3785.000000	60.753965 
3784.000000	60.739398 
3783.000000	60.722136 
3782.000000	60.702252 
3781.000000	60.680603 
3780.000000	60.658669 
3779.000000	60.638546 
3778.000000	60.622406 
3777.000000	60.612249 
3776.000000	60.609197 
3775.000000	60.613536 
3774.000000	60.624194 
3773.000000	60.639476 
3772.000000	60.657167 
3771.000000	60.675191 
3770.000000	60.691833 
3769.000000	60.706233 
3768.000000	60.718202 
3767.000000	60.727906 
3766.000000	60.735273 
3765.000000	60.740017 
3764.000000	60.741066 
3763.000000	60.736775 
3762.000000	60.725164 
3761.000000	60.704517 
3760.000000	60.674285 
3759.000000	60.635042 
3758.000000	60.589408 
3757.000000	60.541343 
3756.000000	60.496211 
3755.000000	60.459208 
3754.000000	60.435032 
3753.000000	60.426688 
3752.000000	60.435223 
3751.000000	60.459375 
3750.000000	60.495853 
3749.000000	60.539627 
3748.000000	60.585093 
3747.000000	60.626983 
3746.000000	60.661077 
3745.000000	60.684680 
3744.000000	60.696816 
3743.000000	60.698223 
3742.000000	60.690784 
3741.000000	60.677027 
3740.000000	60.659861 
3739.000000	60.641717 
3738.000000	60.624861 
3737.000000	60.610628 
3736.000000	60.599970 
3735.000000	60.592842 
3734.000000	60.588407 
3733.000000	60.584783 
3732.000000	60.579514 
3731.000000	60.569667 
3730.000000	60.552191 
3729.000000	60.525202 
3728.000000	60.488152 
3727.000000	60.442996 
3726.000000	60.393691 
3725.000000	60.346436 
3724.000000	60.308337 
3723.000000	60.286021 
3722.000000	60.283851 
3721.000000	60.302925 
3720.000000	60.340499 
3719.000000	60.390591 
3718.000000	60.445117 
3717.000000	60.495734 
3716.000000	60.535144 
3715.000000	60.558819 
3714.000000	60.565543 
3713.000000	60.557031 
3712.000000	60.537219 
3711.000000	60.511207 
3710.000000	60.483932 
3709.000000	60.459399 
3708.000000	60.440039 
3707.000000	60.426902 
3706.000000	60.419917 
3705.000000	60.418415 
3704.000000	60.421538 
3703.000000	60.428524 
3702.000000	60.438942 
3701.000000	60.452270 
3700.000000	60.468244 
3699.000000	60.486340 
3698.000000	60.506176 
3697.000000	60.527205 
3696.000000	60.548567 
3695.000000	60.569000 
3694.000000	60.586905 
3693.000000	60.600709 
3692.000000	60.608959 
3691.000000	60.610723 
3690.000000	60.606050 
3689.000000	60.596036 
3688.000000	60.582590 
3687.000000	60.568213 
3686.000000	60.555291 
3685.000000	60.545563 
3684.000000	60.539746 
3683.000000	60.537385 
3682.000000	60.536885 
3681.000000	60.535883 
3680.000000	60.531926 
3679.000000	60.523056 
3678.000000	60.508465 
3677.000000	60.488915 
3676.000000	60.466384 
3675.000000	60.444021 
3674.000000	60.425400 
3673.000000	60.413718 
3672.000000	60.411286 
3671.000000	60.419011 
3670.000000	60.436129 
3669.000000	60.460233 
3668.000000	60.487961 
3667.000000	60.515284 
3666.000000	60.538434 
3665.000000	60.554575 
3664.000000	60.562515 
3663.000000	60.562777 
3662.000000	60.557389 
3661.000000	60.549497 
3660.000000	60.542654 
3659.000000	60.540080 
3658.000000	60.543990 
3657.000000	60.555028 
3656.000000	60.572314 
3655.000000	60.593843 
3654.000000	60.616636 
3653.000000	60.637736 
3652.000000	60.654425 
3651.000000	60.664844 
3650.000000	60.668158 
3649.000000	60.664629 
3648.000000	60.655426 
3647.000000	60.642194 
3646.000000	60.626888 
3645.000000	60.611486 
3644.000000	60.597658 
3643.000000	60.586905 
3642.000000	60.579943 
3641.000000	60.576844 
3640.000000	60.576844 
3639.000000	60.578632 
3638.000000	60.580396 
3637.000000	60.580229 
3636.000000	60.576629 
3635.000000	60.568714 
3634.000000	60.556936 
3633.000000	60.542941 
3632.000000	60.529351 
3631.000000	60.519146 
3630.000000	60.514807 
3629.000000	60.517716 
3628.000000	60.527658 
3627.000000	60.542774 
3626.000000	60.559940 
3625.000000	60.575437 
3624.000000	60.585927 
3623.000000	60.589265 
3622.000000	60.584807 
3621.000000	60.573768 
3620.000000	60.558390 
3619.000000	60.541915 
3618.000000	60.527420 
3617.000000	60.517621 
3616.000000	60.514283 
3615.000000	60.517954 
3614.000000	60.528349 
3613.000000	60.544252 
3612.000000	60.564064 
3611.000000	60.585808 
3610.000000	60.607314 
3609.000000	60.626459 
3608.000000	60.641360 
3607.000000	60.650753 
3606.000000	60.654091 
3605.000000	60.651993 
3604.000000	60.646033 
3603.000000	60.638618 
3602.000000	60.632514 
3601.000000	60.630345 
3600.000000	60.633945 
3599.000000	60.644054 
3598.000000	60.659956 
3597.000000	60.679984 
3596.000000	60.701608 
3595.000000	60.722327 
3594.000000	60.739994 
3593.000000	60.753202 
3592.000000	60.761404 
3591.000000	60.764718 
3590.000000	60.763859 
3589.000000	60.759496 
3588.000000	60.752248 
3587.000000	60.742616 
3586.000000	60.730981 
3585.000000	60.717868 
3584.000000	60.703802 
3583.000000	60.689330 
3582.000000	60.674977 
3581.000000	60.661339 
3580.000000	60.649085 
3579.000000	60.638999 
3578.000000	60.631799 
3577.000000	60.628247 
3576.000000	60.629224 
3575.000000	60.635542 
3574.000000	60.647392 
3573.000000	60.664272 
3572.000000	60.685110 
3571.000000	60.708022 
3570.000000	60.730504 
3569.000000	60.749650 
3568.000000	60.762929 
3567.000000	60.768413 
3566.000000	60.765075 
3565.000000	60.753202 
3564.000000	60.734224 
3563.000000	60.710573 
3562.000000	60.685253 
3561.000000	60.661649 
3560.000000	60.643053 
3559.000000	60.632228 
3558.000000	60.631132 
3557.000000	60.640358 
3556.000000	60.658955 
3555.000000	60.684418 
3554.000000	60.713148 
3553.000000	60.740590 
3552.000000	60.762095 
3551.000000	60.773706 
3550.000000	60.772800 
3549.000000	60.758471 
3548.000000	60.731649 
3547.000000	60.694909 
3546.000000	60.651874 
3545.000000	60.606431 
3544.000000	60.562133 
3543.000000	60.521531 
3542.000000	60.486125 
3541.000000	60.456609 
3540.000000	60.432910 
3539.000000	60.414576 
3538.000000	60.401248 
3537.000000	60.392594 
3536.000000	60.388636 
3535.000000	60.389113 
3534.000000	60.393810 
3533.000000	60.402345 
3532.000000	60.414195 
3531.000000	60.428452 
3530.000000	60.444045 
3529.000000	60.459423 
3528.000000	60.472893 
3527.000000	60.482978 
3526.000000	60.488677 
3525.000000	60.489821 
3524.000000	60.487222 
3523.000000	60.482430 
3522.000000	60.477590 
3521.000000	60.474753 
3520.000000	60.475325 
3519.000000	60.479640 
3518.000000	60.486960 
3517.000000	60.495424 
3516.000000	60.502910 
3515.000000	60.507225 
3514.000000	60.506892 
3513.000000	60.501480 
3512.000000	60.491943 
3511.000000	60.480237 
3510.000000	60.468888 
3509.000000	60.460305 
3508.000000	60.456395 
3507.000000	60.457849 
3506.000000	60.464191 
3505.000000	60.473799 
3504.000000	60.484671 
3503.000000	60.494637 
3502.000000	60.501956 
3501.000000	60.505557 
3500.000000	60.505080 
3499.000000	60.500907 
3498.000000	60.493850 
3497.000000	60.484671 
3496.000000	60.473847 
3495.000000	60.461521 
3494.000000	60.447502 
3493.000000	60.431575 
3492.000000	60.413765 
3491.000000	60.394382 
3490.000000	60.374474 
3489.000000	60.355496 
3488.000000	60.339069 
3487.000000	60.326433 
3486.000000	60.318589 
3485.000000	60.315465 
3484.000000	60.316443 
3483.000000	60.320448 
3482.000000	60.326504 
3481.000000	60.333919 
3480.000000	60.342669 
3479.000000	60.353040 
3478.000000	60.365557 
3477.000000	60.380840 
3476.000000	60.398864 
3475.000000	60.418701 
3474.000000	60.438513 
3473.000000	60.456037 
3472.000000	60.468721 
3471.000000	60.474443 
3470.000000	60.472130 
3469.000000	60.461974 
3468.000000	60.445404 
3467.000000	60.425066 
3466.000000	60.404014 
3465.000000	60.385298 
3464.000000	60.371112 
3463.000000	60.362482 
3462.000000	60.359454 
3461.000000	60.360836 
3460.000000	60.364818 
3459.000000	60.369443 
3458.000000	60.373115 
3457.000000	60.375165 
3456.000000	60.375595 
3455.000000	60.375523 
3454.000000	60.376310 
3453.000000	60.379624 
3452.000000	60.386729 
3451.000000	60.398244 
3450.000000	60.413980 
3449.000000	60.432982 
3448.000000	60.453820 
3447.000000	60.474920 
3446.000000	60.494709 
3445.000000	60.511922 
3444.000000	60.525703 
3443.000000	60.535407 
3442.000000	60.540676 
3441.000000	60.541272 
3440.000000	60.537099 
3439.000000	60.528397 
3438.000000	60.515594 
3437.000000	60.499715 
3436.000000	60.482025 
3435.000000	60.464549 
3434.000000	60.449266 
3433.000000	60.437941 
3432.000000	60.431790 
3431.000000	60.431241 
3430.000000	60.435891 
3429.000000	60.444474 
3428.000000	60.455489 
3427.000000	60.467171 
3426.000000	60.478067 
3425.000000	60.487246 
3424.000000	60.494542 
3423.000000	60.500144 
3422.000000	60.504674 
3421.000000	60.508561 
3420.000000	60.511994 
3419.000000	60.514879 
3418.000000	60.516428 
3417.000000	60.515689 
3416.000000	60.511660 
3415.000000	60.503768 
3414.000000	60.492038 
3413.000000	60.477352 
3412.000000	60.461235 
3411.000000	60.445785 
3410.000000	60.433316 
3409.000000	60.425853 
3408.000000	60.424804 
3407.000000	60.430598 
3406.000000	60.442757 
3405.000000	60.459613 
3404.000000	60.478997 
3403.000000	60.498261 
3402.000000	60.514879 
3401.000000	60.526990 
3400.000000	60.533452 
3399.000000	60.534191 
3398.000000	60.529994 
3397.000000	60.522484 
3396.000000	60.513567 
3395.000000	60.505604 
3394.000000	60.500836 
3393.000000	60.500979 
3392.000000	60.507178 
3391.000000	60.519552 
3390.000000	60.537385 
3389.000000	60.559010 
3388.000000	60.582232 
3387.000000	60.604476 
3386.000000	60.623431 
3385.000000	60.637331 
3384.000000	60.645270 
3383.000000	60.647201 
3382.000000	60.643792 
3381.000000	60.636401 
3380.000000	60.626721 
3379.000000	60.616302 
3378.000000	60.606527 
3377.000000	60.598564 
3376.000000	60.592889 
3375.000000	60.589861 
3374.000000	60.589194 
3373.000000	60.590529 
3372.000000	60.592937 
3371.000000	60.595321 
3370.000000	60.596346 
3369.000000	60.594630 
3368.000000	60.589241 
3367.000000	60.579800 
3366.000000	60.566782 
3365.000000	60.551285 
3364.000000	60.535144 
3363.000000	60.520315 
3362.000000	60.508656 
3361.000000	60.501503 
3360.000000	60.499453 
3359.000000	60.502576 
3358.000000	60.510420 
3357.000000	60.522174 
3356.000000	60.536837 
3355.000000	60.553574 
3354.000000	60.571360 
3353.000000	60.589194 
3352.000000	60.606145 
3351.000000	60.621118 
3350.000000	60.633158 
3349.000000	60.641360 
3348.000000	60.645031 
3347.000000	60.643935 
3346.000000	60.638546 
3345.000000	60.630011 
3344.000000	60.619926 
3343.000000	60.610008 
3342.000000	60.601878 
3341.000000	60.596656 
3340.000000	60.594964 
3339.000000	60.596656 
3338.000000	60.600948 
3337.000000	60.606670 
3336.000000	60.612559 
3335.000000	60.617780 
3334.000000	60.622048 
3333.000000	60.625672 
3332.000000	60.629343 
3331.000000	60.634016 
3330.000000	60.640406 
3329.000000	60.648751 
3328.000000	60.658502 
3327.000000	60.668516 
3326.000000	60.677480 
3325.000000	60.684466 
3324.000000	60.689377 
3323.000000	60.693001 
3322.000000	60.696601 
3321.000000	60.701727 
3320.000000	60.709285 
3319.000000	60.719084 
3318.000000	60.729503 
3317.000000	60.737752 
3316.000000	60.740494 
3315.000000	60.734844 
3314.000000	60.719323 
3313.000000	60.694408 
3312.000000	60.662794 
3311.000000	60.629248 
3310.000000	60.599398 
3309.000000	60.578632 
3308.000000	60.570883 
3307.000000	60.577654 
3306.000000	60.597729 
3305.000000	60.627245 
3304.000000	60.660576 
3303.000000	60.691452 
3302.000000	60.714197 
3301.000000	60.724639 
3300.000000	60.720777 
3299.000000	60.703134 
3298.000000	60.674381 
3297.000000	60.638785 
3296.000000	60.601282 
3295.000000	60.566425 
3294.000000	60.537981 
3293.000000	60.518264 
3292.000000	60.508227 
3291.000000	60.507345 
3290.000000	60.514092 
3289.000000	60.526585 
3288.000000	60.542750 
3287.000000	60.560941 
3286.000000	60.579967 
3285.000000	60.599088 
3284.000000	60.617780 
3283.000000	60.635757 
3282.000000	60.652565 
3281.000000	60.667777 
3280.000000	60.680866 
3279.000000	60.691380 
3278.000000	60.699105 
3277.000000	60.704207 
3276.000000	60.706901 
3275.000000	60.707426 
3274.000000	60.705590 
3273.000000	60.700941 
3272.000000	60.692644 
3271.000000	60.679697 
3270.000000	60.661649 
3269.000000	60.638809 
3268.000000	60.612726 
3267.000000	60.586214 
3266.000000	60.562849 
3265.000000	60.546445 
3264.000000	60.539913 
3263.000000	60.544204 
3262.000000	60.557985 
3261.000000	60.577750 
3260.000000	60.598516 
3259.000000	60.614943 
3258.000000	60.622549 
3257.000000	60.618829 
3256.000000	60.603785 
3255.000000	60.579633 
3254.000000	60.550165 
3253.000000	60.519504 
3252.000000	60.491251 
3251.000000	60.467910 
3250.000000	60.450482 
3249.000000	60.438752 
3248.000000	60.432004 
3247.000000	60.429763 
3246.000000	60.432028 
3245.000000	60.439348 
3244.000000	60.452222 
3243.000000	60.470867 
3242.000000	60.494327 
3241.000000	60.520696 
3240.000000	60.547065 
3239.000000	60.570335 
3238.000000	60.587882 
3237.000000	60.598301 
3236.000000	60.601592 
3235.000000	60.599040 
3234.000000	60.593056 
3233.000000	60.586023 
3232.000000	60.579967 
3231.000000	60.575699 
3230.000000	60.572934 
3229.000000	60.570478 
3228.000000	60.566782 
3227.000000	60.560393 
3226.000000	60.550713 
3225.000000	60.537958 
3224.000000	60.523414 
3223.000000	60.508704 
3222.000000	60.495781 
3221.000000	60.486125 
3220.000000	60.480618 
3219.000000	60.479569 
3218.000000	60.482597 
3217.000000	60.488891 
3216.000000	60.497450 
3215.000000	60.507154 
3214.000000	60.516905 
3213.000000	60.525727 
3212.000000	60.532855 
3211.000000	60.537600 
3210.000000	60.539484 
3209.000000	60.538196 
3208.000000	60.533642 
3207.000000	60.526061 
3206.000000	60.515856 
3205.000000	60.503816 
3204.000000	60.490751 
3203.000000	60.477590 
3202.000000	60.465002 
3201.000000	60.453534 
3200.000000	60.443615 
3199.000000	60.435509 
3198.000000	60.429334 
3197.000000	60.425090 
3196.000000	60.422706 
3195.000000	60.421967 
3194.000000	60.422444 
3193.000000	60.423612 
3192.000000	60.424733 
3191.000000	60.425281 
3190.000000	60.424971 
3189.000000	60.423946 
3188.000000	60.422897 
3187.000000	60.422825 
3186.000000	60.424971 
3185.000000	60.430383 
3184.000000	60.439586 
3183.000000	60.452318 
3182.000000	60.467457 
3181.000000	60.483145 
3180.000000	60.497307 
3179.000000	60.507822 
3178.000000	60.512971 
3177.000000	60.511922 
3176.000000	60.504817 
3175.000000	60.492849 
3174.000000	60.477972 
3173.000000	60.462594 
3172.000000	60.449004 
3171.000000	60.439062 
3170.000000	60.433793 
3169.000000	60.433340 
3168.000000	60.436916 
3167.000000	60.443234 
3166.000000	60.450625 
3165.000000	60.457468 
3164.000000	60.462617 
3163.000000	60.465478 
3162.000000	60.466265 
3161.000000	60.465574 
3160.000000	60.464739 
3159.000000	60.465192 
3158.000000	60.468530 
3157.000000	60.475993 
3156.000000	60.488533 
3155.000000	60.506510 
3154.000000	60.529613 
3153.000000	60.556912 
3152.000000	60.586667 
3151.000000	60.616683 
3150.000000	60.644316 
3149.000000	60.666894 
3148.000000	60.682106 
3147.000000	60.688328 
3146.000000	60.684871 
3145.000000	60.672235 
3144.000000	60.651850 
3143.000000	60.625910 
3142.000000	60.597181 
3141.000000	60.568404 
3140.000000	60.542035 
3139.000000	60.519695 
3138.000000	60.502386 
3137.000000	60.490345 
3136.000000	60.483241 
3135.000000	60.480475 
3134.000000	60.481238 
3133.000000	60.485005 
3132.000000	60.491466 
3131.000000	60.500645 
3130.000000	60.512685 
3129.000000	60.527777 
3128.000000	60.545873 
3127.000000	60.566520 
3126.000000	60.588693 
3125.000000	60.610675 
3124.000000	60.630416 
3123.000000	60.645484 
3122.000000	60.653877 
3121.000000	60.654211 
3120.000000	60.646319 
3119.000000	60.631299 
3118.000000	60.611534 
3117.000000	60.590052 
3116.000000	60.570144 
3115.000000	60.554671 
3114.000000	60.545468 
3113.000000	60.543060 
3112.000000	60.546469 
3111.000000	60.553908 
3110.000000	60.563063 
3109.000000	60.571527 
3108.000000	60.577344 
3107.000000	60.579442 
3106.000000	60.577630 
3105.000000	60.572195 
3104.000000	60.563969 
3103.000000	60.553860 
3102.000000	60.542893 
3101.000000	60.532307 
3100.000000	60.523319 
3099.000000	60.517024 
3098.000000	60.514235 
3097.000000	60.515499 
3096.000000	60.520768 
3095.000000	60.529255 
3094.000000	60.539817 
3093.000000	60.551214 
3092.000000	60.562443 
3091.000000	60.573077 
3090.000000	60.583448 
3089.000000	60.594534 
3088.000000	60.607624 
3087.000000	60.623860 
3086.000000	60.643744 
3085.000000	60.666751 
3084.000000	60.691666 
3083.000000	60.716319 
3082.000000	60.738563 
3081.000000	60.756158 
3080.000000	60.767960 
3079.000000	60.773205 
3078.000000	60.772013 
3077.000000	60.764646 
3076.000000	60.751605 
3075.000000	60.733294 
3074.000000	60.710000 
3073.000000	60.682177 
3072.000000	60.650825 
3071.000000	60.617733 
3070.000000	60.585498 
3069.000000	60.557246 
3068.000000	60.536074 
3067.000000	60.524535 
3066.000000	60.524010 
3065.000000	60.534048 
3064.000000	60.552501 
3063.000000	60.575795 
3062.000000	60.599756 
3061.000000	60.620450 
3060.000000	60.634875 
3059.000000	60.641431 
3058.000000	60.640478 
3057.000000	60.633468 
3056.000000	60.622930 
3055.000000	60.611629 
3054.000000	60.601925 
3053.000000	60.595464 
3052.000000	60.592937 
3051.000000	60.594439 
3050.000000	60.599517 
3049.000000	60.607576 
3048.000000	60.617804 
3047.000000	60.629487 
3046.000000	60.641527 
3045.000000	60.652709 
3044.000000	60.661411 
3043.000000	60.665702 
3042.000000	60.663771 
3041.000000	60.654401 
3040.000000	60.637450 
3039.000000	60.614061 
3038.000000	60.586738 
3037.000000	60.559058 
3036.000000	60.535073 
3035.000000	60.518360 
3034.000000	60.511422 
3033.000000	60.514998 
3032.000000	60.527944 
3031.000000	60.547327 
3030.000000	60.569024 
3029.000000	60.588622 
3028.000000	60.602355 
3027.000000	60.607957 
3026.000000	60.604739 
3025.000000	60.593938 
3024.000000	60.578203 
3023.000000	60.561108 
3022.000000	60.546398 
3021.000000	60.536980 
3020.000000	60.534739 
3019.000000	60.539937 
3018.000000	60.551524 
3017.000000	60.567283 
3016.000000	60.584568 
3015.000000	60.600662 
3014.000000	60.613274 
3013.000000	60.620856 
3012.000000	60.622978 
3011.000000	60.619926 
3010.000000	60.612607 
3009.000000	60.602498 
3008.000000	60.591197 
3007.000000	60.580301 
3006.000000	60.571122 
3005.000000	60.564494 
3004.000000	60.560631 
3003.000000	60.559272 
3002.000000	60.559773 
3001.000000	60.561084 
3000.000000	60.561990 
2999.000000	60.561370 
2998.000000	60.558414 
2997.000000	60.552859 
2996.000000	60.545086 
2995.000000	60.535788 
2994.000000	60.526084 
2993.000000	60.517072 
2992.000000	60.509538 
2991.000000	60.503864 
2990.000000	60.499715 
2989.000000	60.496187 
2988.000000	60.491919 
2987.000000	60.485696 
2986.000000	60.476541 
2985.000000	60.463976 
2984.000000	60.448455 
2983.000000	60.431194 
2982.000000	60.413956 
2981.000000	60.398721 
2980.000000	60.387325 
2979.000000	60.381102 
2978.000000	60.380482 
2977.000000	60.384964 
2976.000000	60.393166 
2975.000000	60.403060 
2974.000000	60.412263 
2973.000000	60.418725 
2972.000000	60.420823 
2971.000000	60.417795 
2970.000000	60.409665 
2969.000000	60.397481 
2968.000000	60.382795 
2967.000000	60.367584 
2966.000000	60.353565 
2965.000000	60.342240 
2964.000000	60.334539 
2963.000000	60.330963 
2962.000000	60.331439 
2961.000000	60.335850 
2960.000000	60.343956 
2959.000000	60.355758 
2958.000000	60.371112 
2957.000000	60.389900 
2956.000000	60.411548 
2955.000000	60.435032 
2954.000000	60.458469 
2953.000000	60.479521 
2952.000000	60.495519 
2951.000000	60.503768 
2950.000000	60.502004 
2949.000000	60.489130 
2948.000000	60.465455 
2947.000000	60.432696 
2946.000000	60.393810 
2945.000000	60.352611 
2944.000000	60.313463 
2943.000000	60.280013 
2942.000000	60.255289 
2941.000000	60.241055 
2940.000000	60.237932 
2939.000000	60.245299 
2938.000000	60.261631 
2937.000000	60.284805 
2936.000000	60.312318 
2935.000000	60.341191 
2934.000000	60.368466 
2933.000000	60.391330 
2932.000000	60.407590 
2931.000000	60.415887 
2930.000000	60.416197 
2929.000000	60.409736 
2928.000000	60.398912 
2927.000000	60.386919 
2926.000000	60.377120 
2925.000000	60.372257 
2924.000000	60.373973 
2923.000000	60.382437 
2922.000000	60.396361 
2921.000000	60.413527 
2920.000000	60.431265 
2919.000000	60.447239 
2918.000000	60.459947 
2917.000000	60.469198 
2916.000000	60.475611 
2915.000000	60.480737 
2914.000000	60.486197 
2913.000000	60.493493 
2912.000000	60.503458 
2911.000000	60.516309 
2910.000000	60.531640 
2909.000000	60.548400 
2908.000000	60.565280 
2907.000000	60.580778 
2906.000000	60.593533 
2905.000000	60.602331 
2904.000000	60.606336 
2903.000000	60.605096 
2902.000000	60.598635 
2901.000000	60.587739 
2900.000000	60.573840 
2899.000000	60.559034 
2898.000000	60.545659 
2897.000000	60.536313 
2896.000000	60.533046 
2895.000000	60.537338 
2894.000000	60.549449 
2893.000000	60.568594 
2892.000000	60.592913 
2891.000000	60.619831 
2890.000000	60.646319 
2889.000000	60.669469 
2888.000000	60.686779 
2887.000000	60.696482 
2886.000000	60.697865 
2885.000000	60.691237 
2884.000000	60.678005 
2883.000000	60.660362 
2882.000000	60.640907 
2881.000000	60.622644 
2880.000000	60.608053 
2879.000000	60.599160 
2878.000000	60.596895 
2877.000000	60.601377 
2876.000000	60.611534 
2875.000000	60.625386 
2874.000000	60.640382 
2873.000000	60.654020 
2872.000000	60.664105 
2871.000000	60.669398 
2870.000000	60.669684 
2869.000000	60.665988 
2868.000000	60.660314 
2867.000000	60.655236 
2866.000000	60.653305 
2865.000000	60.656213 
2864.000000	60.664820 
2863.000000	60.678601 
2862.000000	60.695886 
2861.000000	60.714101 
2860.000000	60.730409 
2859.000000	60.742235 
2858.000000	60.747814 
2857.000000	60.746288 
2856.000000	60.737752 
2855.000000	60.722851 
2854.000000	60.702610 
2853.000000	60.677886 
2852.000000	60.649585 
2851.000000	60.618686 
2850.000000	60.586404 
2849.000000	60.554575 
2848.000000	60.525727 
2847.000000	60.502886 
2846.000000	60.489273 
2845.000000	60.487198 
2844.000000	60.497856 
2843.000000	60.520815 
2842.000000	60.553860 
2841.000000	60.593104 
2840.000000	60.633826 
2839.000000	60.671210 
2838.000000	60.701394 
2837.000000	60.721898 
2836.000000	60.731983 
2835.000000	60.732507 
2834.000000	60.725522 
2833.000000	60.713934 
2832.000000	60.700750 
2831.000000	60.688710 
2830.000000	60.680007 
2829.000000	60.676121 
2828.000000	60.677695 
2827.000000	60.684728 
2826.000000	60.696482 
2825.000000	60.711812 
2824.000000	60.729002 
2823.000000	60.746073 
2822.000000	60.761165 
2821.000000	60.772538 
2820.000000	60.778880 
2819.000000	60.779261 
2818.000000	60.773539 
2817.000000	60.762119 
2816.000000	60.745835 
2815.000000	60.725855 
2814.000000	60.703611 
2813.000000	60.680699 
2812.000000	60.658788 
2811.000000	60.639595 
2810.000000	60.624647 
2809.000000	60.614991 
2808.000000	60.611224 
2807.000000	60.613036 
2806.000000	60.619163 
2805.000000	60.627412 
2804.000000	60.635256 
2803.000000	60.640239 
2802.000000	60.640406 
2801.000000	60.634970 
2800.000000	60.624337 
2799.000000	60.610270 
2798.000000	60.595345 
2797.000000	60.582637 
2796.000000	60.574865 
2795.000000	60.573983 
2794.000000	60.580563 
2793.000000	60.594201 
2792.000000	60.613203 
2791.000000	60.635328 
2790.000000	60.658025 
2789.000000	60.678887 
2788.000000	60.696029 
2787.000000	60.707974 
2786.000000	60.713815 
2785.000000	60.713028 
2784.000000	60.705566 
2783.000000	60.692024 
2782.000000	60.673499 
2781.000000	60.651683 
2780.000000	60.628771 
2779.000000	60.607385 
2778.000000	60.589933 
2777.000000	60.578417 
2776.000000	60.573816 
2775.000000	60.575795 
2774.000000	60.582852 
2773.000000	60.592603 
2772.000000	60.602402 
2771.000000	60.609865 
2770.000000	60.613417 
2769.000000	60.612821 
2768.000000	60.608959 
2767.000000	60.603547 
2766.000000	60.598325 
2765.000000	60.594630 
2764.000000	60.592889 
2763.000000	60.592651 
2762.000000	60.592770 
2761.000000	60.592174 
2760.000000	60.590147 
2759.000000	60.586929 
2758.000000	60.583806 
2757.000000	60.582756 
2756.000000	60.585832 
2755.000000	60.594367 
2754.000000	60.608506 
2753.000000	60.626673 
2752.000000	60.646224 
2751.000000	60.663485 
2750.000000	60.675096 
2749.000000	60.678482 
2748.000000	60.672879 
2747.000000	60.659289 
2746.000000	60.640335 
2745.000000	60.619640 
2744.000000	60.600972 
2743.000000	60.587620 
2742.000000	60.581684 
2741.000000	60.583829 
2740.000000	60.593223 
2739.000000	60.607910 
2738.000000	60.625076 
2737.000000	60.641670 
2736.000000	60.655021 
2735.000000	60.662889 
2734.000000	60.664200 
2733.000000	60.658860 
2732.000000	60.648059 
2731.000000	60.633826 
2730.000000	60.618686 
2729.000000	60.605311 
2728.000000	60.595703 
2727.000000	60.590982 
2726.000000	60.590720 
2725.000000	60.593533 
2724.000000	60.597062 
2723.000000	60.598564 
2722.000000	60.595703 
2721.000000	60.587096 
2720.000000	60.572624 
2719.000000	60.553359 
2718.000000	60.531187 
2717.000000	60.508441 
2716.000000	60.487055 
2715.000000	60.468506 
2714.000000	60.453510 
2713.000000	60.442137 
2712.000000	60.434079 
2711.000000	60.428929 
2710.000000	60.426592 
2709.000000	60.427284 
2708.000000	60.431194 
2707.000000	60.438323 
2706.000000	60.448050 
2705.000000	60.459303 
2704.000000	60.470342 
2703.000000	60.479688 
2702.000000	60.485839 
2701.000000	60.488271 
2700.000000	60.487341 
2699.000000	60.484480 
2698.000000	60.481667 
2697.000000	60.480928 
2696.000000	60.483717 
2695.000000	60.490655 
2694.000000	60.501217 
2693.000000	60.513901 
2692.000000	60.526657 
2691.000000	60.537624 
2690.000000	60.545539 
2689.000000	60.550212 
2688.000000	60.552477 
2687.000000	60.554075 
2686.000000	60.557293 
2685.000000	60.564184 
2684.000000	60.575914 
2683.000000	60.592937 
2682.000000	60.614371 
2681.000000	60.638213 
2680.000000	60.661435 
2679.000000	60.680842 
2678.000000	60.693478 
2677.000000	60.697031 
2676.000000	60.690212 
2675.000000	60.673189 
2674.000000	60.647177 
2673.000000	60.614562 
2672.000000	60.578227 
2671.000000	60.541367 
2670.000000	60.506892 
2669.000000	60.476994 
2668.000000	60.453081 
2667.000000	60.435676 
2666.000000	60.424590 
2665.000000	60.418963 
2664.000000	60.417723 
2663.000000	60.419774 
2662.000000	60.424137 
2661.000000	60.430216 
2660.000000	60.437726 
2659.000000	60.446715 
2658.000000	60.457420 
2657.000000	60.470294 
2656.000000	60.485768 
2655.000000	60.504078 
2654.000000	60.524988 
2653.000000	60.547590 
2652.000000	60.570454 
2651.000000	60.591840 
2650.000000	60.609817 
2649.000000	60.622692 
2648.000000	60.629463 
2647.000000	60.629844 
2646.000000	60.624647 
2645.000000	60.615468 
2644.000000	60.604476 
2643.000000	60.593867 
2642.000000	60.585641 
2641.000000	60.581040 
2640.000000	60.580730 
2639.000000	60.584378 
2638.000000	60.591030 
2637.000000	60.599231 
2636.000000	60.607552 
2635.000000	60.614919 
2634.000000	60.620689 
2633.000000	60.624766 
2632.000000	60.627627 
2631.000000	60.630130 
2630.000000	60.633301 
2629.000000	60.637998 
2628.000000	60.644650 
2627.000000	60.653233 
2626.000000	60.663056 
2625.000000	60.672903 
2624.000000	60.681247 
2623.000000	60.686564 
2622.000000	60.687637 
2621.000000	60.683822 
2620.000000	60.675215 
2619.000000	60.662817 
2618.000000	60.648226 
2617.000000	60.633540 
2616.000000	60.620880 
2615.000000	60.612010 
2614.000000	60.608196 
2613.000000	60.609817 
2612.000000	60.616445 
2611.000000	60.626864 
2610.000000	60.639214 
2609.000000	60.651612 
2608.000000	60.662245 
2607.000000	60.669684 
2606.000000	60.673189 
2605.000000	60.672712 
2604.000000	60.668921 
2603.000000	60.663104 
2602.000000	60.656690 
2601.000000	60.651063 
2600.000000	60.647439 
2599.000000	60.646486 
2598.000000	60.648465 
2597.000000	60.652899 
2596.000000	60.659003 
2595.000000	60.665678 
2594.000000	60.672092 
2593.000000	60.677599 
2592.000000	60.682177 
2591.000000	60.686111 
2590.000000	60.690069 
2589.000000	60.694694 
2588.000000	60.700106 
2587.000000	60.705995 
2586.000000	60.711479 
2585.000000	60.715413 
2584.000000	60.716819 
2583.000000	60.715341 
2582.000000	60.711336 
2581.000000	60.705733 
2580.000000	60.699772 
2579.000000	60.694527 
2578.000000	60.690593 
2577.000000	60.687875 
2576.000000	60.685563 
2575.000000	60.682344 
2574.000000	60.677075 
2573.000000	60.669016 
2572.000000	60.658144 
2571.000000	60.645318 
2570.000000	60.632061 
2569.000000	60.619974 
2568.000000	60.610651 
2567.000000	60.604953 
2566.000000	60.602974 
2565.000000	60.604119 
2564.000000	60.607314 
2563.000000	60.611391 
2562.000000	60.615277 
2561.000000	60.618209 
2560.000000	60.619902 
2559.000000	60.620379 
2558.000000	60.620212 
2557.000000	60.620212 
2556.000000	60.621523 
2555.000000	60.625028 
2554.000000	60.631585 
2553.000000	60.641694 
2552.000000	60.655212 
2551.000000	60.671567 
2550.000000	60.689711 
2549.000000	60.708308 
2548.000000	60.726165 
2547.000000	60.741949 
2546.000000	60.754585 
2545.000000	60.763144 
2544.000000	60.767078 
2543.000000	60.766148 
2542.000000	60.760474 
2541.000000	60.750794 
2540.000000	60.738205 
2539.000000	60.724282 
2538.000000	60.710835 
2537.000000	60.699772 
2536.000000	60.692763 
2535.000000	60.690665 
2534.000000	60.693454 
2533.000000	60.699844 
2532.000000	60.707759 
2531.000000	60.714626 
2530.000000	60.718011 
2529.000000	60.716056 
2528.000000	60.707950 
2527.000000	60.694122 
2526.000000	60.676193 
2525.000000	60.656476 
2524.000000	60.637521 
2523.000000	60.621762 
2522.000000	60.611176 
2521.000000	60.606837 
2520.000000	60.608768 
2519.000000	60.616254 
2518.000000	60.627865 
2517.000000	60.641646 
2516.000000	60.655450 
2515.000000	60.667204 
2514.000000	60.675430 
2513.000000	60.678958 
2512.000000	60.677480 
2511.000000	60.671401 
2510.000000	60.661840 
2509.000000	60.650491 
2508.000000	60.639238 
2507.000000	60.630226 
2506.000000	60.625123 
2505.000000	60.625243 
2504.000000	60.630846 
2503.000000	60.641360 
2502.000000	60.654926 
2501.000000	60.669255 
2500.000000	60.681557 
2499.000000	60.689187 
2498.000000	60.690188 
2497.000000	60.683655 
2496.000000	60.669922 
2495.000000	60.650563 
2494.000000	60.627937 
2493.000000	60.605168 
2492.000000	60.585117 
2491.000000	60.570216 
2490.000000	60.561919 
2489.000000	60.560464 
2488.000000	60.565090 
2487.000000	60.574126 
2486.000000	60.585331 
2485.000000	60.596394 
2484.000000	60.605216 
2483.000000	60.610532 
2482.000000	60.611534 
2481.000000	60.608530 
2480.000000	60.602378 
2479.000000	60.594415 
2478.000000	60.586261 
2477.000000	60.579442 
2476.000000	60.574960 
2475.000000	60.573315 
2474.000000	60.574579 
2473.000000	60.578513 
2472.000000	60.584759 
2471.000000	60.593056 
2470.000000	60.603189 
2469.000000	60.614943 
2468.000000	60.627985 
2467.000000	60.641789 
2466.000000	60.655283 
2465.000000	60.667037 
2464.000000	60.675525 
2463.000000	60.679292 
2462.000000	60.677456 
2461.000000	60.669946 
2460.000000	60.657739 
2459.000000	60.642862 
2458.000000	60.627913 
2457.000000	60.615897 
2456.000000	60.609340 
2455.000000	60.610055 
2454.000000	60.618734 
2453.000000	60.634660 
2452.000000	60.655999 
2451.000000	60.680127 
2450.000000	60.703754 
2449.000000	60.723614 
2448.000000	60.736823 
2447.000000	60.741519 
2446.000000	60.737013 
2445.000000	60.723900 
2444.000000	60.704064 
2443.000000	60.680270 
2442.000000	60.655903 
2441.000000	60.634303 
2440.000000	60.618162 
2439.000000	60.609221 
2438.000000	60.607957 
2437.000000	60.613393 
2436.000000	60.623526 
2435.000000	60.635590 
2434.000000	60.646748 
2433.000000	60.654568 
2432.000000	60.657310 
2431.000000	60.654497 
2430.000000	60.646843 
2429.000000	60.636329 
2428.000000	60.625457 
2427.000000	60.617280 
2426.000000	60.614585 
2425.000000	60.619664 
2424.000000	60.633873 
2423.000000	60.657215 
2422.000000	60.688257 
2421.000000	60.724329 
2420.000000	60.761690 
2419.000000	60.796284 
2418.000000	60.824203 
2417.000000	60.842418 
2416.000000	60.849213 
2415.000000	60.844445 
2414.000000	60.829496 
2413.000000	60.807061 
2412.000000	60.780525 
2411.000000	60.753297 
2410.000000	60.728025 
2409.000000	60.706567 
2408.000000	60.689616 
2407.000000	60.676646 
2406.000000	60.666489 
2405.000000	60.657691 
2404.000000	60.649180 
2403.000000	60.640621 
2402.000000	60.632705 
2401.000000	60.626459 
2400.000000	60.623455 
2399.000000	60.625052 
2398.000000	60.631942 
2397.000000	60.643696 
2396.000000	60.658836 
2395.000000	60.675120 
2394.000000	60.689830 
2393.000000	60.700583 
2392.000000	60.705971 
2391.000000	60.705924 
2390.000000	60.701704 
2389.000000	60.695576 
2388.000000	60.690331 
2387.000000	60.688614 
2386.000000	60.692191 
2385.000000	60.701608 
2384.000000	60.716128 
2383.000000	60.733938 
2382.000000	60.752797 
2381.000000	60.770273 
2380.000000	60.784435 
2379.000000	60.794186 
2378.000000	60.799026 
2377.000000	60.799193 
2376.000000	60.795235 
2375.000000	60.787749 
2374.000000	60.777497 
2373.000000	60.764980 
2372.000000	60.751032 
2371.000000	60.736370 
2370.000000	60.722160 
2369.000000	60.709452 
2368.000000	60.699224 
2367.000000	60.692048 
2366.000000	60.687923 
2365.000000	60.686373 
2364.000000	60.686659 
2363.000000	60.688018 
2362.000000	60.689973 
2361.000000	60.692501 
2360.000000	60.696053 
2359.000000	60.701298 
2358.000000	60.708785 
2357.000000	60.718441 
2356.000000	60.729527 
2355.000000	60.740327 
2354.000000	60.748672 
2353.000000	60.752415 
2352.000000	60.750293 
2351.000000	60.741901 
2350.000000	60.728549 
2349.000000	60.712814 
2348.000000	60.697937 
2347.000000	60.687279 
2346.000000	60.683226 
2345.000000	60.686898 
2344.000000	60.697698 
2343.000000	60.713696 
2342.000000	60.731887 
2341.000000	60.749101 
2340.000000	60.762691 
2339.000000	60.771155 
2338.000000	60.774183 
2337.000000	60.772538 
2336.000000	60.767793 
2335.000000	60.761666 
2334.000000	60.755658 
2333.000000	60.750508 
2332.000000	60.746550 
2331.000000	60.743522 
2330.000000	60.740900 
2329.000000	60.738134 
2328.000000	60.734939 
2327.000000	60.731363 
2326.000000	60.727763 
2325.000000	60.724616 
2324.000000	60.722303 
2323.000000	60.721158 
2322.000000	60.721230 
2321.000000	60.722517 
2320.000000	60.724782 
2319.000000	60.727524 
2318.000000	60.730242 
2317.000000	60.732340 
2316.000000	60.733222 
2315.000000	60.732555 
2314.000000	60.730171 
2313.000000	60.726475 
2312.000000	60.722208 
2311.000000	60.718607 
2310.000000	60.717201 
2309.000000	60.719347 
2308.000000	60.726046 
2307.000000	60.737729 
2306.000000	60.754060 
2305.000000	60.773897 
2304.000000	60.795593 
2303.000000	60.817122 
2302.000000	60.836410 
2301.000000	60.851907 
2300.000000	60.862421 
2299.000000	60.867381 
2298.000000	60.866618 
2297.000000	60.860419 
2296.000000	60.849213 
2295.000000	60.833740 
2294.000000	60.814881 
2293.000000	60.793828 
2292.000000	60.771942 
2291.000000	60.750865 
2290.000000	60.732173 
2289.000000	60.717320 
2288.000000	60.707306 
2287.000000	60.702419 
2286.000000	60.702323 
2285.000000	60.705828 
2284.000000	60.711407 
2283.000000	60.717415 
2282.000000	60.722327 
2281.000000	60.725283 
2280.000000	60.726118 
2279.000000	60.725283 
2278.000000	60.723757 
2277.000000	60.722446 
2276.000000	60.722041 
2275.000000	60.722708 
2274.000000	60.723948 
2273.000000	60.724782 
2272.000000	60.724282 
2271.000000	60.721659 
2270.000000	60.716724 
2269.000000	60.709881 
2268.000000	60.701966 
2267.000000	60.694241 
2266.000000	60.687804 
2265.000000	60.683465 
2264.000000	60.681366 
2263.000000	60.681271 
2262.000000	60.682535 
2261.000000	60.684370 
2260.000000	60.686087 
2259.000000	60.687279 
2258.000000	60.687971 
2257.000000	60.688471 
2256.000000	60.689210 
2255.000000	60.690546 
2254.000000	60.692739 
2253.000000	60.695767 
2252.000000	60.699367 
2251.000000	60.703206 
2250.000000	60.706853 
2249.000000	60.709834 
2248.000000	60.711741 
2247.000000	60.712122 
2246.000000	60.710763 
2245.000000	60.707592 
2244.000000	60.702657 
2243.000000	60.696363 
2242.000000	60.689234 
2241.000000	60.681867 
2240.000000	60.674881 
2239.000000	60.668683 
2238.000000	60.663485 
2237.000000	60.659289 
2236.000000	60.655927 
2235.000000	60.653233 
2234.000000	60.650897 
2233.000000	60.648798 
2232.000000	60.646843 
2231.000000	60.645031 
2230.000000	60.643482 
2229.000000	60.642337 
2228.000000	60.641741 
2227.000000	60.641837 
2226.000000	60.642886 
2225.000000	60.645318 
2224.000000	60.649299 
2223.000000	60.655117 
2222.000000	60.662794 
2221.000000	60.671901 
2220.000000	60.681700 
2219.000000	60.690903 
2218.000000	60.698032 
2217.000000	60.701727 
2216.000000	60.701036 
2215.000000	60.695600 
2214.000000	60.685729 
2213.000000	60.672402 
2212.000000	60.657143 
2211.000000	60.641717 
2210.000000	60.627508 
2209.000000	60.615682 
2208.000000	60.606551 
2207.000000	60.600113 
2206.000000	60.596108 
2205.000000	60.594129 
2204.000000	60.594010 
2203.000000	60.595607 
2202.000000	60.598874 
2201.000000	60.603642 
2200.000000	60.609579 
2199.000000	60.615897 
2198.000000	60.621571 
2197.000000	60.625362 
2196.000000	60.626220 
2195.000000	60.623335 
2194.000000	60.616540 
2193.000000	60.606312 
2192.000000	60.593891 
2191.000000	60.581088 
2190.000000	60.569977 
2189.000000	60.562777 
2188.000000	60.560965 
2187.000000	60.565614 
2186.000000	60.576510 
2185.000000	60.592579 
2184.000000	60.611510 
2183.000000	60.630393 
2182.000000	60.646080 
2181.000000	60.655832 
2180.000000	60.658216 
2179.000000	60.653185 
2178.000000	60.642480 
2177.000000	60.629200 
2176.000000	60.617113 
2175.000000	60.609769 
2174.000000	60.609698 
2173.000000	60.617780 
2172.000000	60.633349 
2171.000000	60.654282 
2170.000000	60.677886 
2169.000000	60.701346 
2168.000000	60.722422 
2167.000000	60.739684 
2166.000000	60.752606 
2165.000000	60.761404 
2164.000000	60.766649 
2163.000000	60.768747 
2162.000000	60.768103 
2161.000000	60.764765 
2160.000000	60.758829 
2159.000000	60.750341 
2158.000000	60.739874 
2157.000000	60.728168 
2156.000000	60.716319 
2155.000000	60.705351 
2154.000000	60.696077 
2153.000000	60.688996 
2152.000000	60.683965 
2151.000000	60.680556 
2150.000000	60.678029 
2149.000000	60.675716 
2148.000000	60.673332 
2147.000000	60.670757 
2146.000000	60.668158 
2145.000000	60.666012 
2144.000000	60.665011 
2143.000000	60.665631 
2142.000000	60.668206 
2141.000000	60.672903 
2140.000000	60.679793 
2139.000000	60.688781 
2138.000000	60.699653 
2137.000000	60.712242 
2136.000000	60.726356 
2135.000000	60.741424 
2134.000000	60.756826 
2133.000000	60.771751 
2132.000000	60.785341 
2131.000000	60.796833 
2130.000000	60.805940 
2129.000000	60.812783 
2128.000000	60.818052 
2127.000000	60.822796 
2126.000000	60.827875 
2125.000000	60.833692 
2124.000000	60.839796 
2123.000000	60.845112 
2122.000000	60.847806 
2121.000000	60.845947 
2120.000000	60.837960 
2119.000000	60.823225 
2118.000000	60.802245 
2117.000000	60.776615 
2116.000000	60.748720 
2115.000000	60.721302 
2114.000000	60.696983 
2113.000000	60.677480 
2112.000000	60.663819 
2111.000000	60.655999 
2110.000000	60.653352 
2109.000000	60.654902 
2108.000000	60.659384 
2107.000000	60.665822 
2106.000000	60.673117 
2105.000000	60.680413 
2104.000000	60.686898 
2103.000000	60.691833 
2102.000000	60.694742 
2101.000000	60.695505 
2100.000000	60.694360 
2099.000000	60.692048 
2098.000000	60.689496 
2097.000000	60.687732 
2096.000000	60.687494 
2095.000000	60.689306 
2094.000000	60.693240 
2093.000000	60.698890 
2092.000000	60.705637 
2091.000000	60.712814 
2090.000000	60.720062 
2089.000000	60.727214 
2088.000000	60.734176 
2087.000000	60.741043 
2086.000000	60.747766 
2085.000000	60.754227 
2084.000000	60.760116 
2083.000000	60.765171 
2082.000000	60.769391 
2081.000000	60.773158 
2080.000000	60.777187 
2079.000000	60.782456 
2078.000000	60.789632 
2077.000000	60.799098 
2076.000000	60.810494 
2075.000000	60.822916 
2074.000000	60.834813 
2073.000000	60.844612 
2072.000000	60.850739 
2071.000000	60.852193 
2070.000000	60.848569 
2069.000000	60.840106 
2068.000000	60.827469 
2067.000000	60.811519 
2066.000000	60.793066 
2065.000000	60.772824 
2064.000000	60.751509 
2063.000000	60.729742 
2062.000000	60.708498 
2061.000000	60.688900 
2060.000000	60.672330 
2059.000000	60.660028 
2058.000000	60.652732 
2057.000000	60.650682 
2056.000000	60.653209 
2055.000000	60.659074 
2054.000000	60.666513 
2053.000000	60.673761 
2052.000000	60.679411 
2051.000000	60.682797 
2050.000000	60.683870 
2049.000000	60.683393 
2048.000000	60.682439 
2047.000000	60.682201 
2046.000000	60.683512 
2045.000000	60.686850 
2044.000000	60.692191 
2043.000000	60.699224 
2042.000000	60.707473 
2041.000000	60.716462 
2040.000000	60.725784 
2039.000000	60.735154 
2038.000000	60.744261 
2037.000000	60.752701 
2036.000000	60.759758 
2035.000000	60.764694 
2034.000000	60.766673 
2033.000000	60.764884 
2032.000000	60.758900 
2031.000000	60.748839 
2030.000000	60.735392 
2029.000000	60.719895 
2028.000000	60.703992 
2027.000000	60.689663 
2026.000000	60.678410 
2025.000000	60.671329 
2024.000000	60.668659 
2023.000000	60.669851 
2022.000000	60.673642 
2021.000000	60.678482 
2020.000000	60.682773 
2019.000000	60.685181 
2018.000000	60.684800 
2017.000000	60.681390 
2016.000000	60.675287 
2015.000000	60.667133 
2014.000000	60.657811 
2013.000000	60.648202 
2012.000000	60.639119 
2011.000000	60.631179 
2010.000000	60.624909 
2009.000000	60.620641 
2008.000000	60.618543 
2007.000000	60.618591 
2006.000000	60.620355 
2005.000000	60.622978 
2004.000000	60.625457 
2003.000000	60.626506 
2002.000000	60.624885 
2001.000000	60.619950 
2000.000000	60.611534 
1999.000000	60.600185 
1998.000000	60.587143 
1997.000000	60.574126 
1996.000000	60.562872 
1995.000000	60.554981 
1994.000000	60.551309 
1993.000000	60.552024 
1992.000000	60.556674 
1991.000000	60.564279 
1990.000000	60.573649 
1989.000000	60.583829 
1988.000000	60.593962 
1987.000000	60.603713 
1986.000000	60.613107 
1985.000000	60.622501 
1984.000000	60.632085 
1983.000000	60.642075 
1982.000000	60.652446 
1981.000000	60.663080 
1980.000000	60.673689 
1979.000000	60.684061 
1978.000000	60.693693 
1977.000000	60.702204 
1976.000000	60.709071 
1975.000000	60.713815 
1974.000000	60.715937 
1973.000000	60.715174 
1972.000000	60.711550 
1971.000000	60.705423 
1970.000000	60.697698 
1969.000000	60.689687 
1968.000000	60.682606 
1967.000000	60.677599 
1966.000000	60.675048 
1965.000000	60.674810 
1964.000000	60.675764 
1963.000000	60.676360 
1962.000000	60.674929 
1961.000000	60.670113 
1960.000000	60.661411 
1959.000000	60.649418 
1958.000000	60.635709 
1957.000000	60.622429 
1956.000000	60.611748 
1955.000000	60.605216 
1954.000000	60.603213 
1953.000000	60.604906 
1952.000000	60.608553 
1951.000000	60.612034 
1950.000000	60.613465 
1949.000000	60.611605 
1948.000000	60.606217 
1947.000000	60.598039 
1946.000000	60.588288 
1945.000000	60.578417 
1944.000000	60.569596 
1943.000000	60.562729 
1942.000000	60.557961 
1941.000000	60.554885 
1940.000000	60.552883 
1939.000000	60.551404 
1938.000000	60.550069 
1937.000000	60.549092 
1936.000000	60.548949 
1935.000000	60.550427 
1934.000000	60.554313 
1933.000000	60.561251 
1932.000000	60.571241 
1931.000000	60.583949 
1930.000000	60.598492 
1929.000000	60.613608 
1928.000000	60.627746 
1927.000000	60.639381 
1926.000000	60.647368 
1925.000000	60.650897 
1924.000000	60.649824 
1923.000000	60.644531 
1922.000000	60.635733 
1921.000000	60.624217 
1920.000000	60.610580 
1919.000000	60.595345 
1918.000000	60.578966 
1917.000000	60.562062 
1916.000000	60.545659 
1915.000000	60.531163 
1914.000000	60.520148 
1913.000000	60.514068 
1912.000000	60.513973 
1911.000000	60.520052 
1910.000000	60.531735 
1909.000000	60.547566 
1908.000000	60.565805 
1907.000000	60.584568 
1906.000000	60.602426 
1905.000000	60.618495 
1904.000000	60.632586 
1903.000000	60.644793 
1902.000000	60.655426 
1901.000000	60.664534 
1900.000000	60.671925 
1899.000000	60.676932 
1898.000000	60.679006 
1897.000000	60.677552 
1896.000000	60.672736 
1895.000000	60.665106 
1894.000000	60.655832 
1893.000000	60.646200 
1892.000000	60.637545 
1891.000000	60.630893 
1890.000000	60.626721 
1889.000000	60.625123 
1888.000000	60.625886 
1887.000000	60.628938 
1886.000000	60.634231 
1885.000000	60.641813 
1884.000000	60.651731 
1883.000000	60.663890 
1882.000000	60.677647 
1881.000000	60.691738 
1880.000000	60.704374 
1879.000000	60.713720 
1878.000000	60.718202 
1877.000000	60.716962 
1876.000000	60.710024 
1875.000000	60.698604 
1874.000000	60.684752 
1873.000000	60.670781 
1872.000000	60.658669 
1871.000000	60.649847 
1870.000000	60.644793 
1869.000000	60.643076 
1868.000000	60.643672 
1867.000000	60.645294 
1866.000000	60.647010 
1865.000000	60.648465 
1864.000000	60.649871 
1863.000000	60.651969 
1862.000000	60.655879 
1861.000000	60.662364 
1860.000000	60.671949 
1859.000000	60.684370 
1858.000000	60.698771 
1857.000000	60.713887 
1856.000000	60.728049 
1855.000000	60.739636 
1854.000000	60.747194 
1853.000000	60.749745 
1852.000000	60.746741 
1851.000000	60.738277 
1850.000000	60.724830 
1849.000000	60.707426 
1848.000000	60.687446 
1847.000000	60.666537 
1846.000000	60.646414 
1845.000000	60.628461 
1844.000000	60.613775 
1843.000000	60.602784 
1842.000000	60.595393 
1841.000000	60.591149 
1840.000000	60.589146 
1839.000000	60.588717 
1838.000000	60.589385 
1837.000000	60.591197 
1836.000000	60.594320 
1835.000000	60.599446 
1834.000000	60.606956 
1833.000000	60.617113 
1832.000000	60.629773 
1831.000000	60.644459 
1830.000000	60.660219 
1829.000000	60.675930 
1828.000000	60.690498 
1827.000000	60.702919 
1826.000000	60.712432 
1825.000000	60.718512 
1824.000000	60.720944 
1823.000000	60.719656 
1822.000000	60.714745 
1821.000000	60.706567 
1820.000000	60.695719 
1819.000000	60.683178 
1818.000000	60.670137 
1817.000000	60.658144 
1816.000000	60.648512 
1815.000000	60.642457 
1814.000000	60.640621 
1813.000000	60.642981 
1812.000000	60.648751 
1811.000000	60.656380 
1810.000000	60.664248 
1809.000000	60.670590 
1808.000000	60.674118 
1807.000000	60.674142 
1806.000000	60.670757 
1805.000000	60.664772 
1804.000000	60.657525 
1803.000000	60.650396 
1802.000000	60.644912 
1801.000000	60.642147 
1800.000000	60.642790 
1799.000000	60.646891 
1798.000000	60.654020 
1797.000000	60.663247 
1796.000000	60.673189 
1795.000000	60.682415 
1794.000000	60.689353 
1793.000000	60.692858 
1792.000000	60.692119 
1791.000000	60.686993 
1790.000000	60.678052 
1789.000000	60.666537 
1788.000000	60.654187 
1787.000000	60.642743 
1786.000000	60.633707 
1785.000000	60.627865 
1784.000000	60.625433 
1783.000000	60.625982 
1782.000000	60.628509 
1781.000000	60.631966 
1780.000000	60.635519 
1779.000000	60.638523 
1778.000000	60.640645 
1777.000000	60.641598 
1776.000000	60.641121 
1775.000000	60.638928 
1774.000000	60.634803 
1773.000000	60.628557 
1772.000000	60.620284 
1771.000000	60.610342 
1770.000000	60.599493 
1769.000000	60.588574 
1768.000000	60.578513 
1767.000000	60.569739 
1766.000000	60.562205 
1765.000000	60.555243 
1764.000000	60.547852 
1763.000000	60.539031 
1762.000000	60.528016 
1761.000000	60.514831 
1760.000000	60.500216 
1759.000000	60.485267 
1758.000000	60.471558 
1757.000000	60.460376 
1756.000000	60.452389 
1755.000000	60.447549 
1754.000000	60.445070 
1753.000000	60.443687 
1752.000000	60.442018 
1751.000000	60.438656 
1750.000000	60.432744 
1749.000000	60.423922 
1748.000000	60.412573 
1747.000000	60.399532 
1746.000000	60.385942 
1745.000000	60.373163 
1744.000000	60.362529 
1743.000000	60.355234 
1742.000000	60.352087 
1741.000000	60.353612 
1740.000000	60.359764 
1739.000000	60.369920 
1738.000000	60.383009 
1737.000000	60.397458 
1736.000000	60.411739 
1735.000000	60.424065 
1734.000000	60.433220 
1733.000000	60.438299 
1732.000000	60.438966 
1731.000000	60.435414 
1730.000000	60.428094 
1729.000000	60.418033 
1728.000000	60.406303 
1727.000000	60.394215 
1726.000000	60.383296 
1725.000000	60.374903 
1724.000000	60.370302 
1723.000000	60.370182 
1722.000000	60.375022 
1721.000000	60.384559 
1720.000000	60.397791 
1719.000000	60.413312 
1718.000000	60.429406 
1717.000000	60.444164 
1716.000000	60.455942 
1715.000000	60.463547 
1714.000000	60.466623 
1713.000000	60.465431 
1712.000000	60.460662 
1711.000000	60.453510 
1710.000000	60.445141 
1709.000000	60.436654 
1708.000000	60.428690 
1707.000000	60.421466 
1706.000000	60.414838 
1705.000000	60.408306 
1704.000000	60.401606 
1703.000000	60.394263 
1702.000000	60.386228 
1701.000000	60.377717 
1700.000000	60.369634 
1699.000000	60.362958 
1698.000000	60.358929 
1697.000000	60.358476 
1696.000000	60.362577 
1695.000000	60.371637 
1694.000000	60.385584 
1693.000000	60.403728 
1692.000000	60.424923 
1691.000000	60.447764 
1690.000000	60.470652 
1689.000000	60.492110 
1688.000000	60.510873 
1687.000000	60.526037 
1686.000000	60.537147 
1685.000000	60.544133 
1684.000000	60.547280 
1683.000000	60.547137 
1682.000000	60.544300 
1681.000000	60.539340 
1680.000000	60.532879 
1679.000000	60.525226 
1678.000000	60.516715 
1677.000000	60.507512 
1676.000000	60.497879 
1675.000000	60.488343 
1674.000000	60.479712 
1673.000000	60.473132 
1672.000000	60.469794 
1671.000000	60.470986 
1670.000000	60.477542 
1669.000000	60.489749 
1668.000000	60.507106 
1667.000000	60.528516 
1666.000000	60.552024 
1665.000000	60.575509 
1664.000000	60.596919 
1663.000000	60.614585 
1662.000000	60.627412 
1661.000000	60.635113 
1660.000000	60.638046 
1659.000000	60.637092 
1658.000000	60.633254 
1657.000000	60.627579 
1656.000000	60.620856 
1655.000000	60.613751 
1654.000000	60.606646 
1653.000000	60.599827 
1652.000000	60.593295 
1651.000000	60.587072 
1650.000000	60.580945 
1649.000000	60.574650 
1648.000000	60.567975 
1647.000000	60.560870 
1646.000000	60.553526 
1645.000000	60.546493 
1644.000000	60.540628 
1643.000000	60.536789 
1642.000000	60.536003 
1641.000000	60.538983 
1640.000000	60.546159 
1639.000000	60.557413 
1638.000000	60.572242 
1637.000000	60.589718 
1636.000000	60.608744 
1635.000000	60.628318 
1634.000000	60.647487 
1633.000000	60.665416 
1632.000000	60.681438 
1631.000000	60.695028 
1630.000000	60.705494 
1629.000000	60.712337 
1628.000000	60.715126 
1627.000000	60.713481 
1626.000000	60.707545 
1625.000000	60.697650 
1624.000000	60.684227 
1623.000000	60.668110 
1622.000000	60.650181 
1621.000000	60.631752 
1620.000000	60.614204 
1619.000000	60.599207 
1618.000000	60.588550 
1617.000000	60.583806 
1616.000000	60.586190 
1615.000000	60.596036 
1614.000000	60.612750 
1613.000000	60.634589 
1612.000000	60.658907 
1611.000000	60.682487 
1610.000000	60.702109 
1609.000000	60.715246 
1608.000000	60.720348 
1607.000000	60.717129 
1606.000000	60.706543 
1605.000000	60.690450 
1604.000000	60.671305 
1603.000000	60.651397 
1602.000000	60.632729 
1601.000000	60.616946 
1600.000000	60.605144 
1599.000000	60.598182 
1598.000000	60.596489 
1597.000000	60.600280 
1596.000000	60.609436 
1595.000000	60.623073 
1594.000000	60.640144 
1593.000000	60.659003 
1592.000000	60.677957 
1591.000000	60.695362 
1590.000000	60.709977 
1589.000000	60.721230 
1588.000000	60.729384 
1587.000000	60.735249 
1586.000000	60.740089 
1585.000000	60.745215 
1584.000000	60.751605 
1583.000000	60.759735 
1582.000000	60.769319 
1581.000000	60.779643 
1580.000000	60.789442 
1579.000000	60.797405 
1578.000000	60.802340 
1577.000000	60.803484 
1576.000000	60.800457 
1575.000000	60.793328 
1574.000000	60.782456 
1573.000000	60.768532 
1572.000000	60.752487 
1571.000000	60.735583 
1570.000000	60.719037 
1569.000000	60.704135 
1568.000000	60.692262 
1567.000000	60.684370 
1566.000000	60.681056 
1565.000000	60.682129 
1564.000000	60.686779 
1563.000000	60.693502 
1562.000000	60.700416 
1561.000000	60.705733 
1560.000000	60.707783 
1559.000000	60.705590 
1558.000000	60.698962 
1557.000000	60.688376 
1556.000000	60.674881 
1555.000000	60.659599 
1554.000000	60.643577 
1553.000000	60.627579 
1552.000000	60.612058 
1551.000000	60.597181 
1550.000000	60.583305 
1549.000000	60.570955 
1548.000000	60.560822 
1547.000000	60.553860 
1546.000000	60.550856 
1545.000000	60.552215 
1544.000000	60.557889 
1543.000000	60.567140 
1542.000000	60.578703 
1541.000000	60.591053 
1540.000000	60.602664 
1539.000000	60.612297 
1538.000000	60.619139 
1537.000000	60.622906 
1536.000000	60.623836 
1535.000000	60.622358 
1534.000000	60.619187 
1533.000000	60.614943 
1532.000000	60.610318 
1531.000000	60.606026 
1530.000000	60.602879 
1529.000000	60.601758 
1528.000000	60.603260 
1527.000000	60.607624 
1526.000000	60.614585 
1525.000000	60.623455 
1524.000000	60.632920 
1523.000000	60.641551 
1522.000000	60.647845 
1521.000000	60.650753 
1520.000000	60.649919 
1519.000000	60.645437 
1518.000000	60.638141 
1517.000000	60.629177 
1516.000000	60.619616 
1515.000000	60.610485 
1514.000000	60.602426 
1513.000000	60.595440 
1512.000000	60.589551 
1511.000000	60.584592 
1510.000000	60.580325 
1509.000000	60.576748 
1508.000000	60.573935 
1507.000000	60.572385 
1506.000000	60.572624 
1505.000000	60.575628 
1504.000000	60.582566 
1503.000000	60.594868 
1502.000000	60.613727 
1501.000000	60.639619 
1500.000000	60.672020 
1499.000000	60.708975 
1498.000000	60.747313 
1497.000000	60.782623 
1496.000000	60.810303 
1495.000000	60.826277 
1494.000000	60.828042 
1493.000000	60.815072 
1492.000000	60.789227 
1491.000000	60.754418 
1490.000000	60.715675 
1489.000000	60.678243 
1488.000000	60.646247 
1487.000000	60.622262 
1486.000000	60.606789 
1485.000000	60.598921 
1484.000000	60.596585 
1483.000000	60.597729 
1482.000000	60.600471 
1481.000000	60.603737 
1480.000000	60.607075 
1479.000000	60.610461 
1478.000000	60.614109 
1477.000000	60.618162 
1476.000000	60.622525 
1475.000000	60.626864 
1474.000000	60.630655 
1473.000000	60.633420 
1472.000000	60.634756 
1471.000000	60.634708 
1470.000000	60.633730 
1469.000000	60.632634 
1468.000000	60.632300 
1467.000000	60.633563 
1466.000000	60.636830 
1465.000000	60.642027 
1464.000000	60.648345 
1463.000000	60.654640 
1462.000000	60.659432 
1461.000000	60.661339 
1460.000000	60.659503 
1459.000000	60.653638 
1458.000000	60.644149 
1457.000000	60.632014 
1456.000000	60.618734 
1455.000000	60.605835 
1454.000000	60.594582 
1453.000000	60.585761 
1452.000000	60.579681 
1451.000000	60.576176 
1450.000000	60.574674 
1449.000000	60.574650 
1448.000000	60.575652 
1447.000000	60.577368 
1446.000000	60.579729 
1445.000000	60.582756 
1444.000000	60.586452 
1443.000000	60.590720 
1442.000000	60.595583 
1441.000000	60.600900 
1440.000000	60.606527 
1439.000000	60.612463 
1438.000000	60.618710 
1437.000000	60.625362 
1436.000000	60.632324 
1435.000000	60.639452 
1434.000000	60.646224 
1433.000000	60.651755 
1432.000000	60.654973 
1431.000000	60.654878 
1430.000000	60.650777 
1429.000000	60.642457 
1428.000000	60.630655 
1427.000000	60.616683 
1426.000000	60.602545 
1425.000000	60.590624 
1424.000000	60.583019 
1423.000000	60.581302 
1422.000000	60.585999 
1421.000000	60.596394 
1420.000000	60.610604 
1419.000000	60.625815 
1418.000000	60.638737 
1417.000000	60.646414 
1416.000000	60.646843 
1415.000000	60.639429 
1414.000000	60.625243 
1413.000000	60.606765 
1412.000000	60.587430 
1411.000000	60.570740 
1410.000000	60.559558 
1409.000000	60.555148 
1408.000000	60.557150 
1407.000000	60.563492 
1406.000000	60.571074 
1405.000000	60.576605 
1404.000000	60.577774 
1403.000000	60.573554 
1402.000000	60.564780 
1401.000000	60.553407 
1400.000000	60.541868 
1399.000000	60.532331 
1398.000000	60.525894 
1397.000000	60.522484 
1396.000000	60.521030 
1395.000000	60.520005 
1394.000000	60.518336 
1393.000000	60.515522 
1392.000000	60.512089 
1391.000000	60.509347 
1390.000000	60.508894 
1389.000000	60.512113 
1388.000000	60.519361 
1387.000000	60.529899 
1386.000000	60.542082 
1385.000000	60.553717 
1384.000000	60.562562 
1383.000000	60.567164 
1382.000000	60.567116 
1381.000000	60.563111 
1380.000000	60.556697 
1379.000000	60.549807 
1378.000000	60.544586 
1377.000000	60.542511 
1376.000000	60.544443 
1375.000000	60.550427 
1374.000000	60.559725 
1373.000000	60.571241 
1372.000000	60.583615 
1371.000000	60.595417 
1370.000000	60.605883 
1369.000000	60.614728 
1368.000000	60.622525 
1367.000000	60.630273 
1366.000000	60.639429 
1365.000000	60.651421 
1364.000000	60.667514 
1363.000000	60.688138 
1362.000000	60.713052 
1361.000000	60.741186 
1360.000000	60.770940 
1359.000000	60.800147 
1358.000000	60.826635 
1357.000000	60.848355 
1356.000000	60.863804 
1355.000000	60.872006 
1354.000000	60.872602 
1353.000000	60.865736 
1352.000000	60.852074 
1351.000000	60.832500 
1350.000000	60.808253 
1349.000000	60.780668 
1348.000000	60.751438 
1347.000000	60.722231 
1346.000000	60.694670 
1345.000000	60.670065 
1344.000000	60.649371 
1343.000000	60.632991 
1342.000000	60.620617 
1341.000000	60.611367 
1340.000000	60.603857 
1339.000000	60.596632 
1338.000000	60.588526 
1337.000000	60.578894 
1336.000000	60.567617 
1335.000000	60.555362 
1334.000000	60.543298 
1333.000000	60.532712 
1332.000000	60.524654 
1331.000000	60.519599 
1330.000000	60.517311 
1329.000000	60.516715 
1328.000000	60.516381 
1327.000000	60.514903 
1326.000000	60.511326 
1325.000000	60.505294 
1324.000000	60.497403 
1323.000000	60.488963 
1322.000000	60.481810 
1321.000000	60.477828 
1320.000000	60.478472 
1319.000000	60.484504 
1318.000000	60.495686 
1317.000000	60.511040 
1316.000000	60.528588 
1315.000000	60.545897 
1314.000000	60.560417 
1313.000000	60.570096 
1312.000000	60.573577 
1311.000000	60.570502 
1310.000000	60.561704 
1309.000000	60.548996 
1308.000000	60.534954 
1307.000000	60.522079 
1306.000000	60.512852 
1305.000000	60.508775 
1304.000000	60.510134 
1303.000000	60.515856 
1302.000000	60.523986 
1301.000000	60.532307 
1300.000000	60.538458 
1299.000000	60.541009 
1298.000000	60.539388 
1297.000000	60.534071 
1296.000000	60.526275 
1295.000000	60.517525 
1294.000000	60.509085 
1293.000000	60.501766 
1292.000000	60.495829 
1291.000000	60.491204 
1290.000000	60.487461 
1289.000000	60.484361 
1288.000000	60.482025 
1287.000000	60.480690 
1286.000000	60.480737 
1285.000000	60.482454 
1284.000000	60.486125 
1283.000000	60.491561 
1282.000000	60.498356 
1281.000000	60.506224 
1280.000000	60.515165 
1279.000000	60.525536 
1278.000000	60.537981 
1277.000000	60.553288 
1276.000000	60.571765 
1275.000000	60.593175 
1274.000000	60.616207 
1273.000000	60.638523 
1272.000000	60.657119 
1271.000000	60.668897 
1270.000000	60.671353 
1269.000000	60.663270 
1268.000000	60.644793 
1267.000000	60.617804 
1266.000000	60.584974 
1265.000000	60.549497 
1264.000000	60.514211 
1263.000000	60.481214 
1262.000000	60.451412 
1261.000000	60.424828 
1260.000000	60.401058 
1259.000000	60.379457 
1258.000000	60.359811 
1257.000000	60.342240 
1256.000000	60.327315 
1255.000000	60.315799 
1254.000000	60.308384 
1253.000000	60.305356 
1252.000000	60.306477 
1251.000000	60.310888 
1250.000000	60.317444 
1249.000000	60.324931 
1248.000000	60.332298 
1247.000000	60.338902 
1246.000000	60.344600 
1245.000000	60.349941 
1244.000000	60.355639 
1243.000000	60.362434 
1242.000000	60.371088 
1241.000000	60.381841 
1240.000000	60.394549 
1239.000000	60.408329 
1238.000000	60.421872 
1237.000000	60.433650 
1236.000000	60.442209 
1235.000000	60.446548 
1234.000000	60.446310 
1233.000000	60.442161 
1232.000000	60.435748 
1231.000000	60.429143 
1230.000000	60.424423 
1229.000000	60.423445 
1228.000000	60.427308 
1227.000000	60.436058 
1226.000000	60.448575 
1225.000000	60.462975 
1224.000000	60.476946 
1223.000000	60.488224 
1222.000000	60.494852 
1221.000000	60.495615 
1220.000000	60.490059 
1219.000000	60.478425 
1218.000000	60.461544 
1217.000000	60.440659 
1216.000000	60.417079 
1215.000000	60.392522 
1214.000000	60.368728 
1213.000000	60.347557 
1212.000000	60.330772 
1211.000000	60.320067 
1210.000000	60.316729 
1209.000000	60.321283 
1208.000000	60.333824 
1207.000000	60.353660 
1206.000000	60.379648 
1205.000000	60.410022 
1204.000000	60.443043 
1203.000000	60.476922 
1202.000000	60.509991 
1201.000000	60.540819 
1200.000000	60.568046 
1199.000000	60.590481 
1198.000000	60.607075 
1197.000000	60.617017 
1196.000000	60.619974 
1195.000000	60.616016 
1194.000000	60.606122 
1193.000000	60.591769 
1192.000000	60.575127 
1191.000000	60.558319 
1190.000000	60.543537 
1189.000000	60.532212 
1188.000000	60.524868 
1187.000000	60.521101 
1186.000000	60.519719 
1185.000000	60.518980 
1184.000000	60.516762 
1183.000000	60.511350 
1182.000000	60.501742 
1181.000000	60.487937 
1180.000000	60.470843 
1179.000000	60.452198 
1178.000000	60.434103 
1177.000000	60.418581 
1176.000000	60.407304 
1175.000000	60.401058 
1174.000000	60.399603 
1173.000000	60.402011 
1172.000000	60.406780 
1171.000000	60.412073 
1170.000000	60.416197 
1169.000000	60.417914 
1168.000000	60.416603 
1167.000000	60.412240 
1166.000000	60.405540 
1165.000000	60.397648 
1164.000000	60.390305 
1163.000000	60.385251 
1162.000000	60.384202 
1161.000000	60.388398 
1160.000000	60.398364 
1159.000000	60.414028 
1158.000000	60.434460 
1157.000000	60.457968 
1156.000000	60.482335 
1155.000000	60.505294 
1154.000000	60.524797 
1153.000000	60.539340 
1152.000000	60.548281 
1151.000000	60.551857 
1150.000000	60.551118 
1149.000000	60.547518 
1148.000000	60.542774 
1147.000000	60.538291 
1146.000000	60.535001 
1145.000000	60.532951 
1144.000000	60.531592 
1143.000000	60.530090 
1142.000000	60.527563 
1141.000000	60.523700 
1140.000000	60.518741 
1139.000000	60.513734 
1138.000000	60.509896 
1137.000000	60.508847 
1136.000000	60.511708 
1135.000000	60.519385 
1134.000000	60.532164 
1133.000000	60.549640 
1132.000000	60.571312 
1131.000000	60.595893 
1130.000000	60.621714 
1129.000000	60.646796 
1128.000000	60.668849 
1127.000000	60.686039 
1126.000000	60.697269 
1125.000000	60.702490 
1124.000000	60.702538 
1123.000000	60.698890 
1122.000000	60.693168 
1121.000000	60.686564 
1120.000000	60.679650 
1119.000000	60.672545 
1118.000000	60.665035 
1117.000000	60.656857 
1116.000000	60.647964 
1115.000000	60.638689 
1114.000000	60.629606 
1113.000000	60.621309 
1112.000000	60.614800 
1111.000000	60.611081 
1110.000000	60.611414 
1109.000000	60.616827 
1108.000000	60.628104 
1107.000000	60.645270 
1106.000000	60.667562 
1105.000000	60.693240 
1104.000000	60.719943 
1103.000000	60.745000 
1102.000000	60.765933 
1101.000000	60.780906 
1100.000000	60.788941 
1099.000000	60.790061 
1098.000000	60.784935 
1097.000000	60.774683 
1096.000000	60.760545 
1095.000000	60.743784 
1094.000000	60.725331 
1093.000000	60.705947 
1092.000000	60.686230 
1091.000000	60.666751 
1090.000000	60.648155 
1089.000000	60.631060 
1088.000000	60.615921 
1087.000000	60.602855 
1086.000000	60.591554 
1085.000000	60.581326 
1084.000000	60.571360 
1083.000000	60.561132 
1082.000000	60.550308 
1081.000000	60.539317 
1080.000000	60.529088 
1079.000000	60.521054 
1078.000000	60.516571 
1077.000000	60.516571 
1076.000000	60.521292 
1075.000000	60.529923 
1074.000000	60.540723 
1073.000000	60.551285 
1072.000000	60.559320 
1071.000000	60.562896 
1070.000000	60.561013 
1069.000000	60.553717 
1068.000000	60.542178 
1067.000000	60.528516 
1066.000000	60.515332 
1065.000000	60.505366 
1064.000000	60.500836 
1063.000000	60.503339 
1062.000000	60.513329 
1061.000000	60.529971 
1060.000000	60.550999 
1059.000000	60.573434 
1058.000000	60.593748 
1057.000000	60.608410 
1056.000000	60.614633 
1055.000000	60.610675 
1054.000000	60.596346 
1053.000000	60.572981 
1052.000000	60.542893 
1051.000000	60.509371 
1050.000000	60.475468 
1049.000000	60.443568 
1048.000000	60.415244 
1047.000000	60.391211 
1046.000000	60.371899 
1045.000000	60.357809 
1044.000000	60.349965 
1043.000000	60.349774 
1042.000000	60.358524 
1041.000000	60.376930 
1040.000000	60.404539 
1039.000000	60.439372 
1038.000000	60.478234 
1037.000000	60.517311 
1036.000000	60.553169 
1035.000000	60.583305 
1034.000000	60.606527 
1033.000000	60.622906 
1032.000000	60.633707 
1031.000000	60.640335 
1030.000000	60.643959 
1029.000000	60.644793 
1028.000000	60.642480 
1027.000000	60.636448 
1026.000000	60.626697 
1025.000000	60.613799 
1024.000000	60.599660 
1023.000000	60.586690 
1022.000000	60.577416 
1021.000000	60.573554 
1020.000000	60.575437 
1019.000000	60.582113 
1018.000000	60.591506 
1017.000000	60.601353 
1016.000000	60.609912 
1015.000000	60.616540 
1014.000000	60.621809 
1013.000000	60.627388 
1012.000000	60.635423 
1011.000000	60.647535 
1010.000000	60.664463 
1009.000000	60.685873 
1008.000000	60.710310 
1007.000000	60.736131 
1006.000000	60.761713 
1005.000000	60.786151 
1004.000000	60.809278 
1003.000000	60.831665 
1002.000000	60.853743 
1001.000000	60.875487 
1000.000000	60.895919 
999.000000	 60.913276 
998.000000	 60.925054 
997.000000	 60.929131 
996.000000	 60.923719 
995.000000	 60.908174 
994.000000	 60.883069 
993.000000	 60.850358 
992.000000	 60.812807 
991.000000	 60.773611 
990.000000	 60.736107 
989.000000	 60.703206 
988.000000	 60.677266 
987.000000	 60.659980 
986.000000	 60.652208 
985.000000	 60.654139 
984.000000	 60.665011 
983.000000	 60.683369 
982.000000	 60.706710 
981.000000	 60.731983 
980.000000	 60.755729 
979.000000	 60.774803 
978.000000	 60.786557 
977.000000	 60.789537 
976.000000	 60.783624 
975.000000	 60.770297 
974.000000	 60.752010 
973.000000	 60.732078 
972.000000	 60.713887 
971.000000	 60.700535 
970.000000	 60.694122 
969.000000	 60.695481 
968.000000	 60.704421 
967.000000	 60.719680 
966.000000	 60.739040 
965.000000	 60.759997 
964.000000	 60.779953 
963.000000	 60.796785 
962.000000	 60.808968 
961.000000	 60.816097 
960.000000	 60.818552 
959.000000	 60.817837 
958.000000	 60.815882 
957.000000	 60.814571 
956.000000	 60.815000 
955.000000	 60.817384 
954.000000	 60.820960 
953.000000	 60.824203 
952.000000	 60.825514 
951.000000	 60.823702 
950.000000	 60.818409 
949.000000	 60.810327 
948.000000	 60.801005 
947.000000	 60.792303 
946.000000	 60.785937 
945.000000	 60.782694 
944.000000	 60.782122 
943.000000	 60.782790 
942.000000	 60.782217 
941.000000	 60.777878 
940.000000	 60.767722 
939.000000	 60.750913 
938.000000	 60.728311 
937.000000	 60.702252 
936.000000	 60.676336 
935.000000	 60.654377 
934.000000	 60.640001 
933.000000	 60.635900 
932.000000	 60.643076 
931.000000	 60.660791 
930.000000	 60.686755 
929.000000	 60.717582 
928.000000	 60.749435 
927.000000	 60.778713 
926.000000	 60.802674 
925.000000	 60.819840 
924.000000	 60.830116 
923.000000	 60.834574 
922.000000	 60.834980 
921.000000	 60.833048 
920.000000	 60.830378 
919.000000	 60.827589 
918.000000	 60.824632 
917.000000	 60.820341 
916.000000	 60.813474 
915.000000	 60.802412 
914.000000	 60.786128 
913.000000	 60.764241 
912.000000	 60.737252 
911.000000	 60.706615 
910.000000	 60.674333 
909.000000	 60.642695 
908.000000	 60.613989 
907.000000	 60.589838 
906.000000	 60.571026 
905.000000	 60.557460 
904.000000	 60.548567 
903.000000	 60.543560 
902.000000	 60.541725 
901.000000	 60.542726 
900.000000	 60.546660 
899.000000	 60.553812 
898.000000	 60.564327 
897.000000	 60.577893 
896.000000	 60.593438 
895.000000	 60.609459 
894.000000	 60.623955 
893.000000	 60.634851 
892.000000	 60.640382 
891.000000	 60.639262 
890.000000	 60.631179 
889.000000	 60.616517 
888.000000	 60.596919 
887.000000	 60.574650 
886.000000	 60.552835 
885.000000	 60.534882 
884.000000	 60.524225 
883.000000	 60.524010 
882.000000	 60.536313 
881.000000	 60.561919 
880.000000	 60.599541 
879.000000	 60.645890 
878.000000	 60.696077 
877.000000	 60.744357 
876.000000	 60.785484 
875.000000	 60.815572 
874.000000	 60.833048 
873.000000	 60.838699 
872.000000	 60.835361 
871.000000	 60.826849 
870.000000	 60.817050 
869.000000	 60.808634 
868.000000	 60.803103 
867.000000	 60.800004 
866.000000	 60.797929 
865.000000	 60.794401 
864.000000	 60.787153 
863.000000	 60.774183 
862.000000	 60.754394 
861.000000	 60.727858 
860.000000	 60.695672 
859.000000	 60.660028 
858.000000	 60.623621 
857.000000	 60.589432 
856.000000	 60.560131 
855.000000	 60.538077 
854.000000	 60.524892 
853.000000	 60.520792 
852.000000	 60.524582 
851.000000	 60.534024 
850.000000	 60.546207 
849.000000	 60.558176 
848.000000	 60.567617 
847.000000	 60.573172 
846.000000	 60.574746 
845.000000	 60.573339 
844.000000	 60.570740 
843.000000	 60.568571 
842.000000	 60.567951 
841.000000	 60.569190 
840.000000	 60.571599 
839.000000	 60.574150 
838.000000	 60.575532 
837.000000	 60.574793 
836.000000	 60.571670 
835.000000	 60.566449 
834.000000	 60.560274 
833.000000	 60.554552 
832.000000	 60.551214 
831.000000	 60.551571 
830.000000	 60.557603 
829.000000	 60.571336 
828.000000	 60.594940 
827.000000	 60.630130 
826.000000	 60.677433 
825.000000	 60.735607 
824.000000	 60.801076 
823.000000	 60.868406 
822.000000	 60.930871 
821.000000	 60.981941 
820.000000	 61.016678 
819.000000	 61.032843 
818.000000	 61.031413 
817.000000	 61.016321 
816.000000	 60.993623 
815.000000	 60.969829 
814.000000	 60.950946 
813.000000	 60.940194 
812.000000	 60.938787 
811.000000	 60.944581 
810.000000	 60.953497 
809.000000	 60.960030 
808.000000	 60.959196 
807.000000	 60.947203 
806.000000	 60.922503 
805.000000	 60.885858 
804.000000	 60.839915 
803.000000	 60.788846 
802.000000	 60.737276 
801.000000	 60.689496 
800.000000	 60.648775 
799.000000	 60.617423 
798.000000	 60.596752 
797.000000	 60.587191 
796.000000	 60.588264 
795.000000	 60.598921 
794.000000	 60.617756 
793.000000	 60.642600 
792.000000	 60.670828 
791.000000	 60.699415 
790.000000	 60.725641 
789.000000	 60.746860 
788.000000	 60.761451 
787.000000	 60.768938 
786.000000	 60.770297 
785.000000	 60.767650 
784.000000	 60.763955 
783.000000	 60.762405 
782.000000	 60.765886 
781.000000	 60.776400 
780.000000	 60.793972 
779.000000	 60.817027 
778.000000	 60.841846 
777.000000	 60.864043 
776.000000	 60.878443 
775.000000	 60.880684 
774.000000	 60.867834 
773.000000	 60.839557 
772.000000	 60.797858 
771.000000	 60.746860 
770.000000	 60.692644 
769.000000	 60.642147 
768.000000	 60.602235 
767.000000	 60.578346 
766.000000	 60.573935 
765.000000	 60.589480 
764.000000	 60.622572 
763.000000	 60.667967 
762.000000	 60.718393 
761.000000	 60.765671 
760.000000	 60.802412 
759.000000	 60.823178 
758.000000	 60.825228 
757.000000	 60.809087 
756.000000	 60.777997 
755.000000	 60.737419 
754.000000	 60.693526 
753.000000	 60.652375 
752.000000	 60.618782 
751.000000	 60.595726 
750.000000	 60.584521 
749.000000	 60.584926 
748.000000	 60.595941 
747.000000	 60.616302 
746.000000	 60.644507 
745.000000	 60.679030 
744.000000	 60.718154 
743.000000	 60.759592 
742.000000	 60.800290 
741.000000	 60.836839 
740.000000	 60.865831 
739.000000	 60.884380 
738.000000	 60.890960 
737.000000	 60.885691 
736.000000	 60.870599 
735.000000	 60.849165 
734.000000	 60.825705 
733.000000	 60.804963 
732.000000	 60.790944 
731.000000	 60.786390 
730.000000	 60.792016 
729.000000	 60.806751 
728.000000	 60.827708 
727.000000	 60.851120 
726.000000	 60.872912 
725.000000	 60.889744 
724.000000	 60.899567 
723.000000	 60.901927 
722.000000	 60.897922 
721.000000	 60.889554 
720.000000	 60.879445 
719.000000	 60.870265 
718.000000	 60.863995 
717.000000	 60.861682 
716.000000	 60.863184 
715.000000	 60.867452 
714.000000	 60.872220 
713.000000	 60.874533 
712.000000	 60.870862 
711.000000	 60.857915 
710.000000	 60.833144 
709.000000	 60.795807 
708.000000	 60.746788 
707.000000	 60.689520 
706.000000	 60.629796 
705.000000	 60.575342 
704.000000	 60.534238 
703.000000	 60.513210 
702.000000	 60.516190 
701.000000	 60.543203 
700.000000	 60.590052 
699.000000	 60.649347 
698.000000	 60.711622 
697.000000	 60.767865 
696.000000	 60.810875 
695.000000	 60.837149 
694.000000	 60.846900 
693.000000	 60.843968 
692.000000	 60.834336 
691.000000	 60.824799 
690.000000	 60.821175 
689.000000	 60.827422 
688.000000	 60.844659 
687.000000	 60.870862 
686.000000	 60.901188 
685.000000	 60.929226 
684.000000	 60.948300 
683.000000	 60.952091 
682.000000	 60.936355 
681.000000	 60.899448 
680.000000	 60.843229 
679.000000	 60.772705 
678.000000	 60.695672 
677.000000	 60.621690 
676.000000	 60.560083 
675.000000	 60.518121 
674.000000	 60.499739 
673.000000	 60.504913 
672.000000	 60.529994 
671.000000	 60.568690 
670.000000	 60.613656 
669.000000	 60.657715 
668.000000	 60.695886 
667.000000	 60.725688 
666.000000	 60.747480 
665.000000	 60.762882 
664.000000	 60.774993 
663.000000	 60.787105 
662.000000	 60.801911 
661.000000	 60.820770 
660.000000	 60.843896 
659.000000	 60.870409 
658.000000	 60.898900 
657.000000	 60.927820 
656.000000	 60.955715 
655.000000	 60.981583 
654.000000	 61.005020 
653.000000	 61.026191 
652.000000	 61.045908 
651.000000	 61.065030 
650.000000	 61.084794 
649.000000	 61.105322 
648.000000	 61.125755 
647.000000	 61.143183 
646.000000	 61.153912 
645.000000	 61.153221 
644.000000	 61.137032 
643.000000	 61.102509 
642.000000	 61.049699 
641.000000	 60.981225 
640.000000	 60.902070 
639.000000	 60.819053 
638.000000	 60.739517 
637.000000	 60.670232 
636.000000	 60.616350 
635.000000	 60.580706 
634.000000	 60.563468 
633.000000	 60.562491 
632.000000	 60.574197 
631.000000	 60.593962 
630.000000	 60.617566 
629.000000	 60.641765 
628.000000	 60.665225 
627.000000	 60.687732 
626.000000	 60.710048 
625.000000	 60.733580 
624.000000	 60.758948 
623.000000	 60.785746 
622.000000	 60.811686 
621.000000	 60.833263 
620.000000	 60.846424 
619.000000	 60.847449 
618.000000	 60.834813 
617.000000	 60.809969 
616.000000	 60.777854 
615.000000	 60.745954 
614.000000	 60.722875 
613.000000	 60.716009 
612.000000	 60.730242 
611.000000	 60.766625 
610.000000	 60.821938 
609.000000	 60.889196 
608.000000	 60.959649 
607.000000	 61.024856 
606.000000	 61.077618 
605.000000	 61.113166 
604.000000	 61.129736 
603.000000	 61.128115 
602.000000	 61.110520 
601.000000	 61.080002 
600.000000	 61.039781 
599.000000	 60.992908 
598.000000	 60.943078 
597.000000	 60.893702 
596.000000	 60.848855 
595.000000	 60.811471 
594.000000	 60.783457 
593.000000	 60.764789 
592.000000	 60.752749 
591.000000	 60.744118 
590.000000	 60.735702 
589.000000	 60.726475 
588.000000	 60.717415 
587.000000	 60.712790 
586.000000	 60.718989 
585.000000	 60.743045 
584.000000	 60.789680 
583.000000	 60.860466 
582.000000	 60.952138 
581.000000	 61.057376 
580.000000	 61.165904 
579.000000	 61.266517 
578.000000	 61.349391 
577.000000	 61.408090 
576.000000	 61.440253 
575.000000	 61.447453 
574.000000	 61.434149 
573.000000	 61.406111 
572.000000	 61.368870 
571.000000	 61.327457 
570.000000	 61.284804 
569.000000	 61.243700 
568.000000	 61.204671 
567.000000	 61.167621 
566.000000	 61.130523 
565.000000	 61.091470 
564.000000	 61.047577 
563.000000	 60.995602 
562.000000	 60.933279 
561.000000	 60.859680 
560.000000	 60.776782 
559.000000	 60.688829 
558.000000	 60.603022 
557.000000	 60.527682 
556.000000	 60.471415 
555.000000	 60.441040 
554.000000	 60.440397 
553.000000	 60.469055 
552.000000	 60.522794 
551.000000	 60.594034 
550.000000	 60.673379 
549.000000	 60.750913 
548.000000	 60.817694 
547.000000	 60.867166 
546.000000	 60.894823 
545.000000	 60.899448 
544.000000	 60.883140 
543.000000	 60.851478 
542.000000	 60.812115 
541.000000	 60.773873 
540.000000	 60.745811 
539.000000	 60.735225 
538.000000	 60.746645 
537.000000	 60.780954 
536.000000	 60.835766 
535.000000	 60.905241 
534.000000	 60.981512 
533.000000	 61.055707 
532.000000	 61.119699 
531.000000	 61.167383 
530.000000	 61.195135 
529.000000	 61.204338 
528.000000	 61.200571 
527.000000	 61.192822 
526.000000	 61.191010 
525.000000	 61.202716 
524.000000	 61.230731 
523.000000	 61.273002 
522.000000	 61.322617 
521.000000	 61.369848 
520.000000	 61.403918 
519.000000	 61.416888 
518.000000	 61.403679 
517.000000	 61.362910 
516.000000	 61.295795 
515.000000	 61.205172 
514.000000	 61.094999 
513.000000	 60.970091 
512.000000	 60.835599 
511.000000	 60.698914 
510.000000	 60.566520 
509.000000	 60.444951 
508.000000	 60.337257 
507.000000	 60.244417 
506.000000	 60.161924 
505.000000	 60.080862 
504.000000	 59.990191 
503.000000	 59.878611 
502.000000	 59.742140 
501.000000	 59.586334 
500.000000	 59.427356 
499.000000	 59.288907 
498.000000	 59.197211 
497.000000	 59.174561 
496.000000	 59.232330 
495.000000	 59.367966 
494.000000	 59.565591 
493.000000	 59.799003 
492.000000	 60.037207 
491.000000	 60.251164 
490.000000	 60.417413 
489.000000	 60.524415 
488.000000	 60.571742 
487.000000	 60.571599 
486.000000	 60.542798 
485.000000	 60.508894 
484.000000	 60.493636 
483.000000	 60.515022 
482.000000	 60.586428 
481.000000	 60.707306 
480.000000	 60.866189 
479.000000	 61.038041 
478.000000	 61.191582 
477.000000	 61.293649 
476.000000	 61.316919 
475.000000	 61.249017 
474.000000	 61.096096 
473.000000	 60.884118 
472.000000	 60.652899 
471.000000	 60.445404 
470.000000	 60.296821 
469.000000	 60.224437 
468.000000	 60.225033 
467.000000	 60.273480 
466.000000	 60.335493 
465.000000	 60.380363 
464.000000	 60.393667 
463.000000	 60.385298 
462.000000	 60.383915 
461.000000	 60.431361 
460.000000	 60.559129 
459.000000	 60.778212 
458.000000	 61.061763 
457.000000	 61.346387 
456.000000	 61.544513 
455.000000	 61.568236 
454.000000	 61.353635 
453.000000	 60.882854 
452.000000	 60.192537 
451.000000	 59.370756 
450.000000	 58.534336 
449.000000	 57.801485 
448.000000	 57.263922 
447.000000	 56.967186 
446.000000	 56.901979 
445.000000	 57.012581 
444.000000	 57.224678 
443.000000	 57.471036 
442.000000	 57.709717 
441.000000	 57.935452 
440.000000	 58.174514 
439.000000	 58.469820 
438.000000	 58.855652 
437.000000	 59.340071 
436.000000	 59.890818 
435.000000	 60.438203 
434.000000	 60.902094 
433.000000	 61.200618 
432.000000	 61.269307 
431.000000	 61.079144 
430.000000	 60.659408 
429.000000	 60.076713 
428.000000	 59.414243 
427.000000	 58.758950 
426.000000	 58.190846 
425.000000	 57.756114 
424.000000	 57.465195 
423.000000	 57.289314 
422.000000	 57.174801 
421.000000	 57.057905 
420.000000	 56.886982 
419.000000	 56.621956 
418.000000	 56.242442 
417.000000	 55.749940 
416.000000	 55.169224 
415.000000	 54.525542 
414.000000	 53.851723 
413.000000	 53.199982 
412.000000	 52.646398 
411.000000	 52.255392 
410.000000	 52.102613 
409.000000	 52.257895 
408.000000	 52.802109 
407.000000	 53.774309 
406.000000	 55.210947 
405.000000	 57.127594 
404.000000	 59.520697 
403.000000	 62.348794 
402.000000	 65.518498 
401.000000	 68.894934 
400.000000	 72.270536 
399.000000	 75.394988 
398.000000	 77.980756 
397.000000	 79.765248 
396.000000	 80.535316 
395.000000	 80.184483 
394.000000	 78.734660 
393.000000	 76.349639 
392.000000	 73.297691 
391.000000	 69.907379 
390.000000	 66.453552 
389.000000	 63.105821 
388.000000	 59.919643 
387.000000	 56.846547 
386.000000	 53.773522 
385.000000	 50.590109 
384.000000	 47.251391 
383.000000	 43.818306 
382.000000	 40.450859 
381.000000	 37.383604 
380.000000	 34.828162 
379.000000	 32.947969 
378.000000	 31.774926 
377.000000	 31.233477 
376.000000	 31.145811 
375.000000	 31.278443 
374.000000	 31.411099 
373.000000	 31.341671 
372.000000	 30.921316 
371.000000	 30.041098 
370.000000	 28.616905 

