PE IR       SPECTRUM    SPECTRUM    ASCII       PEDS        1.60        
  -1
BZACF1~1.ASC
17/04/10
10:49:10.00
17/04/10
10:49:10.00
tln
$BZ12041010-4_t0022$<tbV0>[2.6,-2.0,9.0,0.0,22,1,0]
370.000000
64









2002,4.07    
MIRTGS : RIGHTBACK : INTERNAL 2
MIR : ON : INTERNAL 2
OPTKBR

0.200000
8
8.000000
FILLER
RATIO
SPECTRUM
UNLOCKED 256

DOUBLE
64
COMBINED
1
0
0


1.000000
RATIO


1
0
TRUE
51149
0
LEFT NOT FITTED RIGHT NOT FITTED 0
NONE
NONE
15600
12.000000
4.427000
51148
TRUE
1 0 8 72 0 0 0 0 

15798.010000






#HDR
-1
-1
#GR
CM-1
%T
0.00002384185791015625
0.0
5000.000000
-1.000000
4631
8
71.925973
22.583723
#DATA
5000.000000	54.949688 
4999.000000	54.877495 
4998.000000	54.797053 
4997.000000	54.716014 
4996.000000	54.641413 
4995.000000	54.578781 
4994.000000	54.531621 
4993.000000	54.500985 
4992.000000	54.486060 
4991.000000	54.484367 
4990.000000	54.493260 
4989.000000	54.510021 
4988.000000	54.533696 
4987.000000	54.564476 
4986.000000	54.603838 
4985.000000	54.653215 
4984.000000	54.712986 
4983.000000	54.781436 
4982.000000	54.854583 
4981.000000	54.926633 
4980.000000	54.990649 
4979.000000	55.039906 
4978.000000	55.070090 
4977.000000	55.079865 
4976.000000	55.070900 
4975.000000	55.047774 
4974.000000	55.016875 
4973.000000	54.985237 
4972.000000	54.960179 
4971.000000	54.947090 
4970.000000	54.949545 
4969.000000	54.967498 
4968.000000	54.997897 
4967.000000	55.034351 
4966.000000	55.069208 
4965.000000	55.094742 
4964.000000	55.104207 
4963.000000	55.094814 
4962.000000	55.068421 
4961.000000	55.031394 
4960.000000	54.992651 
4959.000000	54.962754 
4958.000000	54.951333 
4957.000000	54.964613 
4956.000000	55.003929 
4955.000000	55.065846 
4954.000000	55.142807 
4953.000000	55.225276 
4952.000000	55.303382 
4951.000000	55.369091 
4950.000000	55.416727 
4949.000000	55.443930 
4948.000000	55.450248 
4947.000000	55.435824 
4946.000000	55.400943 
4945.000000	55.346632 
4944.000000	55.274701 
4943.000000	55.188107 
4942.000000	55.092644 
4941.000000	54.996585 
4940.000000	54.911208 
4939.000000	54.848694 
4938.000000	54.821205 
4937.000000	54.837965 
4936.000000	54.903697 
4935.000000	55.015969 
4934.000000	55.167102 
4933.000000	55.344986 
4932.000000	55.534863 
4931.000000	55.721235 
4930.000000	55.890989 
4929.000000	56.034564 
4928.000000	56.147146 
4927.000000	56.227779 
4926.000000	56.278705 
4925.000000	56.302428 
4924.000000	56.301832 
4923.000000	56.277108 
4922.000000	56.226611 
4921.000000	56.146669 
4920.000000	56.033587 
4919.000000	55.886459 
4918.000000	55.711102 
4917.000000	55.520033 
4916.000000	55.331683 
4915.000000	55.166721 
4914.000000	55.045175 
4913.000000	54.979777 
4912.000000	54.973697 
4911.000000	55.017280 
4910.000000	55.089759 
4909.000000	55.163812 
4908.000000	55.211329 
4907.000000	55.211234 
4906.000000	55.153393 
4905.000000	55.043125 
4904.000000	54.899382 
4903.000000	54.749989 
4902.000000	54.624009 
4901.000000	54.546213 
4900.000000	54.530405 
4899.000000	54.577755 
4898.000000	54.675292 
4897.000000	54.800581 
4896.000000	54.924392 
4895.000000	55.016136 
4894.000000	55.049133 
4893.000000	55.004167 
4892.000000	54.874515 
4891.000000	54.665446 
4890.000000	54.395842 
4889.000000	54.094052 
4888.000000	53.794240 
4887.000000	53.529810 
4886.000000	53.328394 
4885.000000	53.207969 
4884.000000	53.174281 
4883.000000	53.219437 
4882.000000	53.328275 
4881.000000	53.479909 
4880.000000	53.658556 
4879.000000	53.855180 
4878.000000	54.070234 
4877.000000	54.309558 
4876.000000	54.579973 
4875.000000	54.882836 
4874.000000	55.210018 
4873.000000	55.542445 
4872.000000	55.854296 
4871.000000	56.116914 
4870.000000	56.309533 
4869.000000	56.420779 
4868.000000	56.450915 
4867.000000	56.409430 
4866.000000	56.313061 
4865.000000	56.181454 
4864.000000	56.034111 
4863.000000	55.888128 
4862.000000	55.758500 
4861.000000	55.656480 
4860.000000	55.592846 
4859.000000	55.573010 
4858.000000	55.600118 
4857.000000	55.668115 
4856.000000	55.762100 
4855.000000	55.859136 
4854.000000	55.931043 
4853.000000	55.953216 
4852.000000	55.909991 
4851.000000	55.801272 
4850.000000	55.642914 
4849.000000	55.464792 
4848.000000	55.304217 
4847.000000	55.195760 
4846.000000	55.163478 
4845.000000	55.218458 
4844.000000	55.356454 
4843.000000	55.560421 
4842.000000	55.803751 
4841.000000	56.057715 
4840.000000	56.295013 
4839.000000	56.492209 
4838.000000	56.632900 
4837.000000	56.708264 
4836.000000	56.717467 
4835.000000	56.665968 
4834.000000	56.564402 
4833.000000	56.427550 
4832.000000	56.271338 
4831.000000	56.114363 
4830.000000	55.971217 
4829.000000	55.852818 
4828.000000	55.762982 
4827.000000	55.700087 
4826.000000	55.657243 
4825.000000	55.624890 
4824.000000	55.594515 
4823.000000	55.560636 
4822.000000	55.522990 
4821.000000	55.486178 
4820.000000	55.457043 
4819.000000	55.441737 
4818.000000	55.443358 
4817.000000	55.460143 
4816.000000	55.484914 
4815.000000	55.507040 
4814.000000	55.515694 
4813.000000	55.502724 
4812.000000	55.465173 
4811.000000	55.406260 
4810.000000	55.335330 
4809.000000	55.264639 
4808.000000	55.205321 
4807.000000	55.165433 
4806.000000	55.147981 
4805.000000	55.151605 
4804.000000	55.170989 
4803.000000	55.200004 
4802.000000	55.233192 
4801.000000	55.268311 
4800.000000	55.306744 
4799.000000	55.351257 
4798.000000	55.403685 
4797.000000	55.463147 
4796.000000	55.524921 
4795.000000	55.580234 
4794.000000	55.617952 
4793.000000	55.627107 
4792.000000	55.599689 
4791.000000	55.532789 
4790.000000	55.429530 
4789.000000	55.298566 
4788.000000	55.152678 
4787.000000	55.006623 
4786.000000	54.874444 
4785.000000	54.767322 
4784.000000	54.692101 
4783.000000	54.650831 
4782.000000	54.641699 
4781.000000	54.659342 
4780.000000	54.697918 
4779.000000	54.750990 
4778.000000	54.814171 
4777.000000	54.884409 
4776.000000	54.960656 
4775.000000	55.041885 
4774.000000	55.126476 
4773.000000	55.211353 
4772.000000	55.290555 
4771.000000	55.355572 
4770.000000	55.396533 
4769.000000	55.404400 
4768.000000	55.373191 
4767.000000	55.301976 
4766.000000	55.196022 
4765.000000	55.066251 
4764.000000	54.926371 
4763.000000	54.790425 
4762.000000	54.669570 
4761.000000	54.570698 
4760.000000	54.495859 
4759.000000	54.443621 
4758.000000	54.410147 
4757.000000	54.391932 
4756.000000	54.386043 
4755.000000	54.392480 
4754.000000	54.412150 
4753.000000	54.447960 
4752.000000	54.501533 
4751.000000	54.573464 
4750.000000	54.660987 
4749.000000	54.758882 
4748.000000	54.859304 
4747.000000	54.953598 
4746.000000	55.033421 
4745.000000	55.093288 
4744.000000	55.131697 
4743.000000	55.151557 
4742.000000	55.159306 
4741.000000	55.163979 
4740.000000	55.174899 
4739.000000	55.199456 
4738.000000	55.240488 
4737.000000	55.294966 
4736.000000	55.354309 
4735.000000	55.406165 
4734.000000	55.437684 
4733.000000	55.438876 
4732.000000	55.405354 
4731.000000	55.340504 
4730.000000	55.254530 
4729.000000	55.161309 
4728.000000	55.075478 
4727.000000	55.008888 
4726.000000	54.968404 
4725.000000	54.955244 
4724.000000	54.965257 
4723.000000	54.991531 
4722.000000	55.025815 
4721.000000	55.060935 
4720.000000	55.091571 
4719.000000	55.114316 
4718.000000	55.127573 
4717.000000	55.130934 
4716.000000	55.124521 
4715.000000	55.108189 
4714.000000	55.082893 
4713.000000	55.050730 
4712.000000	55.015420 
4711.000000	54.981541 
4710.000000	54.953861 
4709.000000	54.935741 
4708.000000	54.928016 
4707.000000	54.928660 
4706.000000	54.932975 
4705.000000	54.935312 
4704.000000	54.930138 
4703.000000	54.914593 
4702.000000	54.888844 
4701.000000	54.857015 
4700.000000	54.825377 
4699.000000	54.801464 
4698.000000	54.791975 
4697.000000	54.800772 
4696.000000	54.828119 
4695.000000	54.869985 
4694.000000	54.918575 
4693.000000	54.964399 
4692.000000	54.998564 
4691.000000	55.014896 
4690.000000	55.011248 
4689.000000	54.990100 
4688.000000	54.957604 
4687.000000	54.921960 
4686.000000	54.891252 
4685.000000	54.871654 
4684.000000	54.865956 
4683.000000	54.873061 
4682.000000	54.888796 
4681.000000	54.907608 
4680.000000	54.923963 
4679.000000	54.933857 
4678.000000	54.935336 
4677.000000	54.929304 
4676.000000	54.918360 
4675.000000	54.904747 
4674.000000	54.890394 
4673.000000	54.875755 
4672.000000	54.860377 
4671.000000	54.843235 
4670.000000	54.823946 
4669.000000	54.803752 
4668.000000	54.785513 
4667.000000	54.772973 
4666.000000	54.770135 
4665.000000	54.779601 
4664.000000	54.801988 
4663.000000	54.835510 
4662.000000	54.875779 
4661.000000	54.917001 
4660.000000	54.953122 
4659.000000	54.979348 
4658.000000	54.993152 
4657.000000	54.994916 
4656.000000	54.987883 
4655.000000	54.977965 
4654.000000	54.972100 
4653.000000	54.977440 
4652.000000	54.999709 
4651.000000	55.042648 
4650.000000	55.106997 
4649.000000	55.190777 
4648.000000	55.289697 
4647.000000	55.397391 
4646.000000	55.506753 
4645.000000	55.610466 
4644.000000	55.702209 
4643.000000	55.776882 
4642.000000	55.831432 
4641.000000	55.864429 
4640.000000	55.876493 
4639.000000	55.869555 
4638.000000	55.846905 
4637.000000	55.812335 
4636.000000	55.770587 
4635.000000	55.726075 
4634.000000	55.683159 
4633.000000	55.645012 
4632.000000	55.613732 
4631.000000	55.589866 
4630.000000	55.572605 
4629.000000	55.560302 
4628.000000	55.550932 
4627.000000	55.542540 
4626.000000	55.533909 
4625.000000	55.524563 
4624.000000	55.514907 
4623.000000	55.505967 
4622.000000	55.498838 
4621.000000	55.494189 
4620.000000	55.491733 
4619.000000	55.490493 
4618.000000	55.488276 
4617.000000	55.482816 
4616.000000	55.471372 
4615.000000	55.451703 
4614.000000	55.422258 
4613.000000	55.382895 
4612.000000	55.334615 
4611.000000	55.279326 
4610.000000	55.219888 
4609.000000	55.159902 
4608.000000	55.103158 
4607.000000	55.053234 
4606.000000	55.013155 
4605.000000	54.985308 
4604.000000	54.971170 
4603.000000	54.971742 
4602.000000	54.987287 
4601.000000	55.017876 
4600.000000	55.063176 
4599.000000	55.122542 
4598.000000	55.194711 
4597.000000	55.277681 
4596.000000	55.368351 
4595.000000	55.462694 
4594.000000	55.555653 
4593.000000	55.641770 
4592.000000	55.716013 
4591.000000	55.774164 
4590.000000	55.813717 
4589.000000	55.833625 
4588.000000	55.835723 
4587.000000	55.822587 
4586.000000	55.797624 
4585.000000	55.763936 
4584.000000	55.724763 
4583.000000	55.682301 
4582.000000	55.638265 
4581.000000	55.593872 
4580.000000	55.550527 
4579.000000	55.509448 
4578.000000	55.472159 
4577.000000	55.439972 
4576.000000	55.414271 
4575.000000	55.396080 
4574.000000	55.386352 
4573.000000	55.385684 
4572.000000	55.394196 
4571.000000	55.411291 
4570.000000	55.435657 
4569.000000	55.464601 
4568.000000	55.494856 
4567.000000	55.522751 
4566.000000	55.545544 
4565.000000	55.560612 
4564.000000	55.567550 
4563.000000	55.568385 
4562.000000	55.567359 
4561.000000	55.569386 
4560.000000	55.579376 
4559.000000	55.601406 
4558.000000	55.636405 
4557.000000	55.682110 
4556.000000	55.732393 
4555.000000	55.778861 
4554.000000	55.812430 
4553.000000	55.825948 
4552.000000	55.815553 
4551.000000	55.781865 
4550.000000	55.730652 
4549.000000	55.671525 
4548.000000	55.615496 
4547.000000	55.572319 
4546.000000	55.548667 
4545.000000	55.546283 
4544.000000	55.561923 
4543.000000	55.587959 
4542.000000	55.614876 
4541.000000	55.632758 
4540.000000	55.634355 
4539.000000	55.615496 
4538.000000	55.575680 
4537.000000	55.517530 
4536.000000	55.445289 
4535.000000	55.364108 
4534.000000	55.278205 
4533.000000	55.191540 
4532.000000	55.107688 
4531.000000	55.030798 
4530.000000	54.965972 
4529.000000	54.918837 
4528.000000	54.894709 
4527.000000	54.897737 
4526.000000	54.929614 
4525.000000	54.988956 
4524.000000	55.070877 
4523.000000	55.167627 
4522.000000	55.269670 
4521.000000	55.366563 
4520.000000	55.448746 
4519.000000	55.508899 
4518.000000	55.542826 
4517.000000	55.550241 
4516.000000	55.534029 
4515.000000	55.500745 
4514.000000	55.457735 
4513.000000	55.411601 
4512.000000	55.366492 
4511.000000	55.324268 
4510.000000	55.284643 
4509.000000	55.246996 
4508.000000	55.211114 
4507.000000	55.178475 
4506.000000	55.152487 
4505.000000	55.137109 
4504.000000	55.137205 
4503.000000	55.156135 
4502.000000	55.196261 
4501.000000	55.258154 
4500.000000	55.339097 
4499.000000	55.431675 
4498.000000	55.529284 
4497.000000	55.628061 
4496.000000	55.719518 
4495.000000	55.791878 
4494.000000	55.841207 
4493.000000	55.871438 
4492.000000	55.883288 
4491.000000	55.877661 
4490.000000	55.865383 
4489.000000	55.859947 
4488.000000	55.873012 
4487.000000	55.910611 
4486.000000	55.966877 
4485.000000	56.028127 
4484.000000	56.086039 
4483.000000	56.131696 
4482.000000	56.147670 
4481.000000	56.124258 
4480.000000	56.068420 
4479.000000	55.995917 
4478.000000	55.930447 
4477.000000	55.889916 
4476.000000	55.886721 
4475.000000	55.904722 
4474.000000	55.902123 
4473.000000	55.811023 
4472.000000	55.555605 
4471.000000	55.053424 
4470.000000	54.234504 
4469.000000	53.048419 
4468.000000	51.476645 
4467.000000	49.527239 
4466.000000	47.245430 
4465.000000	44.700622 
4464.000000	42.009663 
4463.000000	39.306664 
4462.000000	36.786389 
4461.000000	34.652662 
4460.000000	33.156490 
4459.000000	32.561373 
4458.000000	33.099985 
4457.000000	34.918236 
4456.000000	38.000941 
4455.000000	42.115378 
4454.000000	46.844196 
4453.000000	51.596236 
4452.000000	55.784082 
4451.000000	58.931899 
4450.000000	60.793805 
4449.000000	61.411428 
4448.000000	61.045503 
4447.000000	60.088539 
4446.000000	58.940649 
4445.000000	57.902264 
4444.000000	57.140970 
4443.000000	56.680464 
4442.000000	56.465959 
4441.000000	56.413888 
4440.000000	56.438016 
4439.000000	56.483387 
4438.000000	56.516528 
4437.000000	56.534028 
4436.000000	56.535100 
4435.000000	56.525015 
4434.000000	56.508350 
4433.000000	56.486630 
4432.000000	56.450819 
4431.000000	56.388878 
4430.000000	56.296443 
4429.000000	56.173586 
4428.000000	56.028795 
4427.000000	55.874371 
4426.000000	55.720162 
4425.000000	55.576014 
4424.000000	55.452156 
4423.000000	55.355620 
4422.000000	55.283498 
4421.000000	55.238103 
4420.000000	55.233645 
4419.000000	55.276727 
4418.000000	55.360984 
4417.000000	55.474901 
4416.000000	55.602502 
4415.000000	55.726623 
4414.000000	55.832743 
4413.000000	55.909013 
4412.000000	55.948591 
4411.000000	55.954504 
4410.000000	55.936312 
4409.000000	55.906057 
4408.000000	55.873990 
4407.000000	55.845451 
4406.000000	55.819535 
4405.000000	55.791234 
4404.000000	55.753207 
4403.000000	55.701422 
4402.000000	55.635213 
4401.000000	55.558562 
4400.000000	55.479645 
4399.000000	55.407619 
4398.000000	55.352258 
4397.000000	55.320143 
4396.000000	55.315637 
4395.000000	55.339336 
4394.000000	55.389213 
4393.000000	55.460643 
4392.000000	55.547761 
4391.000000	55.644106 
4390.000000	55.743145 
4389.000000	55.838418 
4388.000000	55.923390 
4387.000000	55.991888 
4386.000000	56.038570 
4385.000000	56.059622 
4384.000000	56.053543 
4383.000000	56.021857 
4382.000000	55.969786 
4381.000000	55.905246 
4380.000000	55.838155 
4379.000000	55.778074 
4378.000000	55.732989 
4377.000000	55.707502 
4376.000000	55.702519 
4375.000000	55.715036 
4374.000000	55.739307 
4373.000000	55.768108 
4372.000000	55.794668 
4371.000000	55.813741 
4370.000000	55.821800 
4369.000000	55.817723 
4368.000000	55.802130 
4367.000000	55.776834 
4366.000000	55.743956 
4365.000000	55.705881 
4364.000000	55.664825 
4363.000000	55.623078 
4362.000000	55.583143 
4361.000000	55.547666 
4360.000000	55.519437 
4359.000000	55.501437 
4358.000000	55.496072 
4357.000000	55.504250 
4356.000000	55.524826 
4355.000000	55.554580 
4354.000000	55.588293 
4353.000000	55.619144 
4352.000000	55.640530 
4351.000000	55.647015 
4350.000000	55.636358 
4349.000000	55.609631 
4348.000000	55.572032 
4347.000000	55.531311 
4346.000000	55.496764 
4345.000000	55.477023 
4344.000000	55.477952 
4343.000000	55.501151 
4342.000000	55.543470 
4341.000000	55.597901 
4340.000000	55.655264 
4339.000000	55.706548 
4338.000000	55.744862 
4337.000000	55.766916 
4336.000000	55.773425 
4335.000000	55.768275 
4334.000000	55.757069 
4333.000000	55.745172 
4332.000000	55.736064 
4331.000000	55.730152 
4330.000000	55.725669 
4329.000000	55.718779 
4328.000000	55.705738 
4327.000000	55.683612 
4326.000000	55.651974 
4325.000000	55.612635 
4324.000000	55.569124 
4323.000000	55.525898 
4322.000000	55.486536 
4321.000000	55.453991 
4320.000000	55.429697 
4319.000000	55.414295 
4318.000000	55.407786 
4317.000000	55.409789 
4316.000000	55.419683 
4315.000000	55.436658 
4314.000000	55.459308 
4313.000000	55.485463 
4312.000000	55.511832 
4311.000000	55.534434 
4310.000000	55.549216 
4309.000000	55.553007 
4308.000000	55.544328 
4307.000000	55.523753 
4306.000000	55.494046 
4305.000000	55.459856 
4304.000000	55.426764 
4303.000000	55.400156 
4302.000000	55.384111 
4301.000000	55.380463 
4300.000000	55.388522 
4299.000000	55.405473 
4298.000000	55.427050 
4297.000000	55.448293 
4296.000000	55.465221 
4295.000000	55.474972 
4294.000000	55.477285 
4293.000000	55.474352 
4292.000000	55.470633 
4291.000000	55.471611 
4290.000000	55.482578 
4289.000000	55.507111 
4288.000000	55.545902 
4287.000000	55.596542 
4286.000000	55.653333 
4285.000000	55.709028 
4284.000000	55.755543 
4283.000000	55.785965 
4282.000000	55.796098 
4281.000000	55.785346 
4280.000000	55.756592 
4279.000000	55.715751 
4278.000000	55.670809 
4277.000000	55.630111 
4276.000000	55.600976 
4275.000000	55.587744 
4274.000000	55.591583 
4273.000000	55.609679 
4272.000000	55.636501 
4271.000000	55.664682 
4270.000000	55.686616 
4269.000000	55.696320 
4268.000000	55.689954 
4267.000000	55.667114 
4266.000000	55.630421 
4265.000000	55.584907 
4264.000000	55.536675 
4263.000000	55.491733 
4262.000000	55.454802 
4261.000000	55.428051 
4260.000000	55.411386 
4259.000000	55.402088 
4258.000000	55.395841 
4257.000000	55.387520 
4256.000000	55.372571 
4255.000000	55.347681 
4254.000000	55.311655 
4253.000000	55.265378 
4252.000000	55.211710 
4251.000000	55.155420 
4250.000000	55.102086 
4249.000000	55.057168 
4248.000000	55.024671 
4247.000000	55.006361 
4246.000000	55.001282 
4245.000000	55.006051 
4244.000000	55.015826 
4243.000000	55.025053 
4242.000000	55.029344 
4241.000000	55.025768 
4240.000000	55.014348 
4239.000000	54.996919 
4238.000000	54.977226 
4237.000000	54.959034 
4236.000000	54.945755 
4235.000000	54.939150 
4234.000000	54.939699 
4233.000000	54.946637 
4232.000000	54.958605 
4231.000000	54.974079 
4230.000000	54.992151 
4229.000000	55.012607 
4228.000000	55.035305 
4227.000000	55.059838 
4226.000000	55.084991 
4225.000000	55.108714 
4224.000000	55.128431 
4223.000000	55.141711 
4222.000000	55.147433 
4221.000000	55.145955 
4220.000000	55.139279 
4219.000000	55.130267 
4218.000000	55.122423 
4217.000000	55.118107 
4216.000000	55.117988 
4215.000000	55.120325 
4214.000000	55.121779 
4213.000000	55.118393 
4212.000000	55.106925 
4211.000000	55.086231 
4210.000000	55.057787 
4209.000000	55.025649 
4208.000000	54.995322 
4207.000000	54.972410 
4206.000000	54.960942 
4205.000000	54.962182 
4204.000000	54.974150 
4203.000000	54.992151 
4202.000000	55.010318 
4201.000000	55.022931 
4200.000000	55.026197 
4199.000000	55.018758 
4198.000000	55.002331 
4197.000000	54.981088 
4196.000000	54.960513 
4195.000000	54.945611 
4194.000000	54.939794 
4193.000000	54.944372 
4192.000000	54.958176 
4191.000000	54.978251 
4190.000000	55.000376 
4189.000000	55.020332 
4188.000000	55.034875 
4187.000000	55.041885 
4186.000000	55.041170 
4185.000000	55.033516 
4184.000000	55.021190 
4183.000000	55.006861 
4182.000000	54.993748 
4181.000000	54.984736 
4180.000000	54.982447 
4179.000000	54.988932 
4178.000000	55.005240 
4177.000000	55.031180 
4176.000000	55.065107 
4175.000000	55.103969 
4174.000000	55.143237 
4173.000000	55.177378 
4172.000000	55.200600 
4171.000000	55.207800 
4170.000000	55.195665 
4169.000000	55.163645 
4168.000000	55.113863 
4167.000000	55.050969 
4166.000000	54.981470 
4165.000000	54.912686 
4164.000000	54.851508 
4163.000000	54.803562 
4162.000000	54.772543 
4161.000000	54.759955 
4160.000000	54.765176 
4159.000000	54.786205 
4158.000000	54.819846 
4157.000000	54.862523 
4156.000000	54.910254 
4155.000000	54.959487 
4154.000000	55.006766 
4153.000000	55.049276 
4152.000000	55.084919 
4151.000000	55.112099 
4150.000000	55.129837 
4149.000000	55.137562 
4148.000000	55.135416 
4147.000000	55.123209 
4146.000000	55.100846 
4145.000000	55.068159 
4144.000000	55.025482 
4143.000000	54.974412 
4142.000000	54.917979 
4141.000000	54.860687 
4140.000000	54.808044 
4139.000000	54.765248 
4138.000000	54.736685 
4137.000000	54.724240 
4136.000000	54.727768 
4135.000000	54.744458 
4134.000000	54.770398 
4133.000000	54.801154 
4132.000000	54.833364 
4131.000000	54.864716 
4130.000000	54.894781 
4129.000000	54.923987 
4128.000000	54.953813 
4127.000000	54.985404 
4126.000000	55.019259 
4125.000000	55.054664 
4124.000000	55.089950 
4123.000000	55.123043 
4122.000000	55.151772 
4121.000000	55.174446 
4120.000000	55.189728 
4119.000000	55.196738 
4118.000000	55.195045 
4117.000000	55.184578 
4116.000000	55.165553 
4115.000000	55.138707 
4114.000000	55.105948 
4113.000000	55.070233 
4112.000000	55.035090 
4111.000000	55.004239 
4110.000000	54.981470 
4109.000000	54.969286 
4108.000000	54.968595 
4107.000000	54.978346 
4106.000000	54.995846 
4105.000000	55.017328 
4104.000000	55.038309 
4103.000000	55.054783 
4102.000000	55.063962 
4101.000000	55.064940 
4100.000000	55.058526 
4099.000000	55.047130 
4098.000000	55.033898 
4097.000000	55.022048 
4096.000000	55.014038 
4095.000000	55.011200 
4094.000000	55.013370 
4093.000000	55.019569 
4092.000000	55.028462 
4091.000000	55.038595 
4090.000000	55.049037 
4089.000000	55.059599 
4088.000000	55.070805 
4087.000000	55.083513 
4086.000000	55.098581 
4085.000000	55.116200 
4084.000000	55.136156 
4083.000000	55.157518 
4082.000000	55.179333 
4081.000000	55.200695 
4080.000000	55.221390 
4079.000000	55.241727 
4078.000000	55.262613 
4077.000000	55.285406 
4076.000000	55.311298 
4075.000000	55.340933 
4074.000000	55.374240 
4073.000000	55.410432 
4072.000000	55.448007 
4071.000000	55.484986 
4070.000000	55.518698 
4069.000000	55.546355 
4068.000000	55.565166 
4067.000000	55.572867 
4066.000000	55.567812 
4065.000000	55.549502 
4064.000000	55.519223 
4063.000000	55.480170 
4062.000000	55.437231 
4061.000000	55.396199 
4060.000000	55.363154 
4059.000000	55.343031 
4058.000000	55.338501 
4057.000000	55.349135 
4056.000000	55.371022 
4055.000000	55.397677 
4054.000000	55.421614 
4053.000000	55.435752 
4052.000000	55.434679 
4051.000000	55.416035 
4050.000000	55.380797 
4049.000000	55.333232 
4048.000000	55.279183 
4047.000000	55.225491 
4046.000000	55.178546 
4045.000000	55.143475 
4044.000000	55.123233 
4043.000000	55.118942 
4042.000000	55.130100 
4041.000000	55.155062 
4040.000000	55.191373 
4039.000000	55.236673 
4038.000000	55.288720 
4037.000000	55.345320 
4036.000000	55.404114 
4035.000000	55.462741 
4034.000000	55.518341 
4033.000000	55.567836 
4032.000000	55.607533 
4031.000000	55.633473 
4030.000000	55.641698 
4029.000000	55.629348 
4028.000000	55.595088 
4027.000000	55.539751 
4026.000000	55.466747 
4025.000000	55.382180 
4024.000000	55.293941 
4023.000000	55.210900 
4022.000000	55.140972 
4021.000000	55.090308 
4020.000000	55.061960 
4019.000000	55.055618 
4018.000000	55.067896 
4017.000000	55.093097 
4016.000000	55.124545 
4015.000000	55.155825 
4014.000000	55.181980 
4013.000000	55.199980 
4012.000000	55.208754 
4011.000000	55.208873 
4010.000000	55.201768 
4009.000000	55.189228 
4008.000000	55.173039 
4007.000000	55.154848 
4006.000000	55.136060 
4005.000000	55.118060 
4004.000000	55.102586 
4003.000000	55.091166 
4002.000000	55.085206 
4001.000000	55.085468 
4000.000000	55.091834 
3999.000000	55.103325 
3998.000000	55.117845 
3997.000000	55.132985 
3996.000000	55.146169 
3995.000000	55.155420 
3994.000000	55.159592 
3993.000000	55.158591 
3992.000000	55.152797 
3991.000000	55.143189 
3990.000000	55.130863 
3989.000000	55.116987 
3988.000000	55.102109 
3987.000000	55.086946 
3986.000000	55.072188 
3985.000000	55.058908 
3984.000000	55.048441 
3983.000000	55.042171 
3982.000000	55.041170 
3981.000000	55.045843 
3980.000000	55.055594 
3979.000000	55.068731 
3978.000000	55.082798 
3977.000000	55.095124 
3976.000000	55.103182 
3975.000000	55.105495 
3974.000000	55.101680 
3973.000000	55.092406 
3972.000000	55.078887 
3971.000000	55.062580 
3970.000000	55.044674 
3969.000000	55.025815 
3968.000000	55.006194 
3967.000000	54.985833 
3966.000000	54.964900 
3965.000000	54.944205 
3964.000000	54.925084 
3963.000000	54.909443 
3962.000000	54.899048 
3961.000000	54.895019 
3960.000000	54.897522 
3959.000000	54.905652 
3958.000000	54.917550 
3957.000000	54.930973 
3956.000000	54.944276 
3955.000000	54.956603 
3954.000000	54.968380 
3953.000000	54.980874 
3952.000000	54.995942 
3951.000000	55.014967 
3950.000000	55.038547 
3949.000000	55.065703 
3948.000000	55.094027 
3947.000000	55.119895 
3946.000000	55.139470 
3945.000000	55.149459 
3944.000000	55.148005 
3943.000000	55.135130 
3942.000000	55.112719 
3941.000000	55.084538 
3940.000000	55.055212 
3939.000000	55.029630 
3938.000000	55.011844 
3937.000000	55.004715 
3936.000000	55.009555 
3935.000000	55.025959 
3934.000000	55.052256 
3933.000000	55.085921 
3932.000000	55.123949 
3931.000000	55.163598 
3930.000000	55.202555 
3929.000000	55.239009 
3928.000000	55.271339 
3927.000000	55.298185 
3926.000000	55.318140 
3925.000000	55.329775 
3924.000000	55.331611 
3923.000000	55.322575 
3922.000000	55.302238 
3921.000000	55.271244 
3920.000000	55.231499 
3919.000000	55.186128 
3918.000000	55.139303 
3917.000000	55.095624 
3916.000000	55.059385 
3915.000000	55.033969 
3914.000000	55.021405 
3913.000000	55.021953 
3912.000000	55.034065 
3911.000000	55.054998 
3910.000000	55.080938 
3909.000000	55.107831 
3908.000000	55.131721 
3907.000000	55.149149 
3906.000000	55.157494 
3905.000000	55.155444 
3904.000000	55.142974 
3903.000000	55.121421 
3902.000000	55.093383 
3901.000000	55.062270 
3900.000000	55.032014 
3899.000000	55.006337 
3898.000000	54.988193 
3897.000000	54.979324 
3896.000000	54.979968 
3895.000000	54.989075 
3894.000000	55.004310 
3893.000000	55.023097 
3892.000000	55.042839 
3891.000000	55.061793 
3890.000000	55.078887 
3889.000000	55.094242 
3888.000000	55.108284 
3887.000000	55.121850 
3886.000000	55.135536 
3885.000000	55.149698 
3884.000000	55.164361 
3883.000000	55.179262 
3882.000000	55.194282 
3881.000000	55.209207 
3880.000000	55.224061 
3879.000000	55.238580 
3878.000000	55.252480 
3877.000000	55.265140 
3876.000000	55.275869 
3875.000000	55.283999 
3874.000000	55.289077 
3873.000000	55.291461 
3872.000000	55.292105 
3871.000000	55.292773 
3870.000000	55.295348 
3869.000000	55.301332 
3868.000000	55.311012 
3867.000000	55.323696 
3866.000000	55.337333 
3865.000000	55.348896 
3864.000000	55.355238 
3863.000000	55.353856 
3862.000000	55.343651 
3861.000000	55.325150 
3860.000000	55.300378 
3859.000000	55.272459 
3858.000000	55.245018 
3857.000000	55.221390 
3856.000000	55.204200 
3855.000000	55.194711 
3854.000000	55.193066 
3853.000000	55.198431 
3852.000000	55.209374 
3851.000000	55.224061 
3850.000000	55.240583 
3849.000000	55.257010 
3848.000000	55.271530 
3847.000000	55.282616 
3846.000000	55.289220 
3845.000000	55.290961 
3844.000000	55.288243 
3843.000000	55.282330 
3842.000000	55.275082 
3841.000000	55.268621 
3840.000000	55.264973 
3839.000000	55.265498 
3838.000000	55.270838 
3837.000000	55.280613 
3836.000000	55.293583 
3835.000000	55.307865 
3834.000000	55.321431 
3833.000000	55.332422 
3832.000000	55.339360 
3831.000000	55.341172 
3830.000000	55.337333 
3829.000000	55.327868 
3828.000000	55.313181 
3827.000000	55.294394 
3826.000000	55.273175 
3825.000000	55.251908 
3824.000000	55.233502 
3823.000000	55.220842 
3822.000000	55.216383 
3821.000000	55.221652 
3820.000000	55.236983 
3819.000000	55.261588 
3818.000000	55.293631 
3817.000000	55.330586 
3816.000000	55.369496 
3815.000000	55.407190 
3814.000000	55.440568 
3813.000000	55.466985 
3812.000000	55.484199 
3811.000000	55.490684 
3810.000000	55.485820 
3809.000000	55.470061 
3808.000000	55.444741 
3807.000000	55.412316 
3806.000000	55.375576 
3805.000000	55.337762 
3804.000000	55.301690 
3803.000000	55.269670 
3802.000000	55.243301 
3801.000000	55.223083 
3800.000000	55.209183 
3799.000000	55.201601 
3798.000000	55.200338 
3797.000000	55.205464 
3796.000000	55.217003 
3795.000000	55.234599 
3794.000000	55.257368 
3793.000000	55.283594 
3792.000000	55.311107 
3791.000000	55.337643 
3790.000000	55.361199 
3789.000000	55.380558 
3788.000000	55.395460 
3787.000000	55.406570 
3786.000000	55.415081 
3785.000000	55.422091 
3784.000000	55.428695 
3783.000000	55.434918 
3782.000000	55.440139 
3781.000000	55.442905 
3780.000000	55.441832 
3779.000000	55.435705 
3778.000000	55.424070 
3777.000000	55.407285 
3776.000000	55.386471 
3775.000000	55.363416 
3774.000000	55.340099 
3773.000000	55.318498 
3772.000000	55.300283 
3771.000000	55.286979 
3770.000000	55.279684 
3769.000000	55.279088 
3768.000000	55.285310 
3767.000000	55.297970 
3766.000000	55.315971 
3765.000000	55.337572 
3764.000000	55.360317 
3763.000000	55.381298 
3762.000000	55.397510 
3761.000000	55.406260 
3760.000000	55.405449 
3759.000000	55.393981 
3758.000000	55.371809 
3757.000000	55.340147 
3756.000000	55.301237 
3755.000000	55.257987 
3754.000000	55.213546 
3753.000000	55.171203 
3752.000000	55.133962 
3751.000000	55.104136 
3750.000000	55.083250 
3749.000000	55.071711 
3748.000000	55.068898 
3747.000000	55.073237 
3746.000000	55.082559 
3745.000000	55.094337 
3744.000000	55.106472 
3743.000000	55.117154 
3742.000000	55.125761 
3741.000000	55.132579 
3740.000000	55.138897 
3739.000000	55.146455 
3738.000000	55.157136 
3737.000000	55.172181 
3736.000000	55.191946 
3735.000000	55.215382 
3734.000000	55.240416 
3733.000000	55.263733 
3732.000000	55.281805 
3731.000000	55.291152 
3730.000000	55.289363 
3729.000000	55.275225 
3728.000000	55.249333 
3727.000000	55.214262 
3726.000000	55.174112 
3725.000000	55.134010 
3724.000000	55.099463 
3723.000000	55.074977 
3722.000000	55.063605 
3721.000000	55.065989 
3720.000000	55.080819 
3719.000000	55.104589 
3718.000000	55.132579 
3717.000000	55.159831 
3716.000000	55.182147 
3715.000000	55.197000 
3714.000000	55.203890 
3713.000000	55.204153 
3712.000000	55.200338 
3711.000000	55.195522 
3710.000000	55.192399 
3709.000000	55.192780 
3708.000000	55.197024 
3707.000000	55.204558 
3706.000000	55.213689 
3705.000000	55.222845 
3704.000000	55.230259 
3703.000000	55.234670 
3702.000000	55.235195 
3701.000000	55.231213 
3700.000000	55.222249 
3699.000000	55.208039 
3698.000000	55.188798 
3697.000000	55.165195 
3696.000000	55.138635 
3695.000000	55.111336 
3694.000000	55.086088 
3693.000000	55.066013 
3692.000000	55.053663 
3691.000000	55.050468 
3690.000000	55.056190 
3689.000000	55.068993 
3688.000000	55.085921 
3687.000000	55.103635 
3686.000000	55.119252 
3685.000000	55.130910 
3684.000000	55.138373 
3683.000000	55.142664 
3682.000000	55.145740 
3681.000000	55.149602 
3680.000000	55.155563 
3679.000000	55.163598 
3678.000000	55.172443 
3677.000000	55.179953 
3676.000000	55.183649 
3675.000000	55.181694 
3674.000000	55.173373 
3673.000000	55.159616 
3672.000000	55.142807 
3671.000000	55.126309 
3670.000000	55.113601 
3669.000000	55.107617 
3668.000000	55.110192 
3667.000000	55.121517 
3666.000000	55.140399 
3665.000000	55.164289 
3664.000000	55.189704 
3663.000000	55.213189 
3662.000000	55.231952 
3661.000000	55.244445 
3660.000000	55.250430 
3659.000000	55.251288 
3658.000000	55.249524 
3657.000000	55.248022 
3656.000000	55.249190 
3655.000000	55.254626 
3654.000000	55.264210 
3653.000000	55.276727 
3652.000000	55.289506 
3651.000000	55.299448 
3650.000000	55.303525 
3649.000000	55.299758 
3648.000000	55.287384 
3647.000000	55.267024 
3646.000000	55.240559 
3645.000000	55.210518 
3644.000000	55.179738 
3643.000000	55.150508 
3642.000000	55.124616 
3641.000000	55.103182 
3640.000000	55.086922 
3639.000000	55.076265 
3638.000000	55.071568 
3637.000000	55.073261 
3636.000000	55.081892 
3635.000000	55.097579 
3634.000000	55.120134 
3633.000000	55.148673 
3632.000000	55.181598 
3631.000000	55.216550 
3630.000000	55.250763 
3629.000000	55.281186 
3628.000000	55.305147 
3627.000000	55.320596 
3626.000000	55.326533 
3625.000000	55.322718 
3624.000000	55.310225 
3623.000000	55.290484 
3622.000000	55.265522 
3621.000000	55.237245 
3620.000000	55.207562 
3619.000000	55.178046 
3618.000000	55.150151 
3617.000000	55.125069 
3616.000000	55.103898 
3615.000000	55.087375 
3614.000000	55.075883 
3613.000000	55.069231 
3612.000000	55.066823 
3611.000000	55.067658 
3610.000000	55.070447 
3609.000000	55.074238 
3608.000000	55.078363 
3607.000000	55.083131 
3606.000000	55.089592 
3605.000000	55.099391 
3604.000000	55.114078 
3603.000000	55.134868 
3602.000000	55.161929 
3601.000000	55.193996 
3600.000000	55.228590 
3599.000000	55.262231 
3598.000000	55.291247 
3597.000000	55.312561 
3596.000000	55.324268 
3595.000000	55.326032 
3594.000000	55.319118 
3593.000000	55.306148 
3592.000000	55.290508 
3591.000000	55.275464 
3590.000000	55.263638 
3589.000000	55.256819 
3588.000000	55.255627 
3587.000000	55.259799 
3586.000000	55.268287 
3585.000000	55.279898 
3584.000000	55.293083 
3583.000000	55.306267 
3582.000000	55.317926 
3581.000000	55.326652 
3580.000000	55.331230 
3579.000000	55.330824 
3578.000000	55.325198 
3577.000000	55.314826 
3576.000000	55.301141 
3575.000000	55.286550 
3574.000000	55.273747 
3573.000000	55.265522 
3572.000000	55.264210 
3571.000000	55.271410 
3570.000000	55.287337 
3569.000000	55.311012 
3568.000000	55.340480 
3567.000000	55.372953 
3566.000000	55.405378 
3565.000000	55.434489 
3564.000000	55.457520 
3563.000000	55.472207 
3562.000000	55.477118 
3561.000000	55.471920 
3560.000000	55.457544 
3559.000000	55.436182 
3558.000000	55.411005 
3557.000000	55.385899 
3556.000000	55.364751 
3555.000000	55.350470 
3554.000000	55.344700 
3553.000000	55.347228 
3552.000000	55.356097 
3551.000000	55.367851 
3550.000000	55.378174 
3549.000000	55.383086 
3548.000000	55.379724 
3547.000000	55.366706 
3546.000000	55.344915 
3545.000000	55.317139 
3544.000000	55.287408 
3543.000000	55.260157 
3542.000000	55.239319 
3541.000000	55.227589 
3540.000000	55.225849 
3539.000000	55.233240 
3538.000000	55.247163 
3537.000000	55.264258 
3536.000000	55.280613 
3535.000000	55.292844 
3534.000000	55.298542 
3533.000000	55.296516 
3532.000000	55.287146 
3531.000000	55.271792 
3530.000000	55.252504 
3529.000000	55.231451 
3528.000000	55.210566 
3527.000000	55.191230 
3526.000000	55.174350 
3525.000000	55.160379 
3524.000000	55.149364 
3523.000000	55.141258 
3522.000000	55.135655 
3521.000000	55.131864 
3520.000000	55.128955 
3519.000000	55.125808 
3518.000000	55.121350 
3517.000000	55.114960 
3516.000000	55.106449 
3515.000000	55.096316 
3514.000000	55.085587 
3513.000000	55.075788 
3512.000000	55.068421 
3511.000000	55.064964 
3510.000000	55.066204 
3509.000000	55.072474 
3508.000000	55.083465 
3507.000000	55.098533 
3506.000000	55.116772 
3505.000000	55.137205 
3504.000000	55.158853 
3503.000000	55.180668 
3502.000000	55.201363 
3501.000000	55.219459 
3500.000000	55.233573 
3499.000000	55.242753 
3498.000000	55.246663 
3497.000000	55.245971 
3496.000000	55.242061 
3495.000000	55.236530 
3494.000000	55.230665 
3493.000000	55.225324 
3492.000000	55.220341 
3491.000000	55.214619 
3490.000000	55.206346 
3489.000000	55.193972 
3488.000000	55.176520 
3487.000000	55.154013 
3486.000000	55.127549 
3485.000000	55.099177 
3484.000000	55.071592 
3483.000000	55.047297 
3482.000000	55.028438 
3481.000000	55.016255 
3480.000000	55.011153 
3479.000000	55.013060 
3478.000000	55.021214 
3477.000000	55.034565 
3476.000000	55.051445 
3475.000000	55.069875 
3474.000000	55.087399 
3473.000000	55.101275 
3472.000000	55.109405 
3471.000000	55.110812 
3470.000000	55.106282 
3469.000000	55.098247 
3468.000000	55.090618 
3467.000000	55.088019 
3466.000000	55.094647 
3465.000000	55.113220 
3464.000000	55.144143 
3463.000000	55.185294 
3462.000000	55.232501 
3461.000000	55.280399 
3460.000000	55.323743 
3459.000000	55.357956 
3458.000000	55.380582 
3457.000000	55.390834 
3456.000000	55.389904 
3455.000000	55.379772 
3454.000000	55.362820 
3453.000000	55.341053 
3452.000000	55.315995 
3451.000000	55.288577 
3450.000000	55.259680 
3449.000000	55.229854 
3448.000000	55.199956 
3447.000000	55.171084 
3446.000000	55.144548 
3445.000000	55.121755 
3444.000000	55.104088 
3443.000000	55.092668 
3442.000000	55.088353 
3441.000000	55.091714 
3440.000000	55.103015 
3439.000000	55.122137 
3438.000000	55.148649 
3437.000000	55.181407 
3436.000000	55.218696 
3435.000000	55.258059 
3434.000000	55.296373 
3433.000000	55.330133 
3432.000000	55.355739 
3431.000000	55.369997 
3430.000000	55.370545 
3429.000000	55.356740 
3428.000000	55.329251 
3427.000000	55.290412 
3426.000000	55.243897 
3425.000000	55.194473 
3424.000000	55.147457 
3423.000000	55.107951 
3422.000000	55.080223 
3421.000000	55.067443 
3420.000000	55.070924 
3419.000000	55.090355 
3418.000000	55.123567 
3417.000000	55.166983 
3416.000000	55.216002 
3415.000000	55.265903 
3414.000000	55.312275 
3413.000000	55.351567 
3412.000000	55.381727 
3411.000000	55.402255 
3410.000000	55.414080 
3409.000000	55.418944 
3408.000000	55.419135 
3407.000000	55.416536 
3406.000000	55.412459 
3405.000000	55.407142 
3404.000000	55.400013 
3403.000000	55.389928 
3402.000000	55.376029 
3401.000000	55.357742 
3400.000000	55.335426 
3399.000000	55.310153 
3398.000000	55.283617 
3397.000000	55.257749 
3396.000000	55.234003 
3395.000000	55.213308 
3394.000000	55.195951 
3393.000000	55.181670 
3392.000000	55.170178 
3391.000000	55.161333 
3390.000000	55.155372 
3389.000000	55.152988 
3388.000000	55.155277 
3387.000000	55.163097 
3386.000000	55.176854 
3385.000000	55.195951 
3384.000000	55.218791 
3383.000000	55.243015 
3382.000000	55.266213 
3381.000000	55.286097 
3380.000000	55.301165 
3379.000000	55.311131 
3378.000000	55.316591 
3377.000000	55.319142 
3376.000000	55.320262 
3375.000000	55.321002 
3374.000000	55.321455 
3373.000000	55.320811 
3372.000000	55.317282 
3371.000000	55.308938 
3370.000000	55.294275 
3369.000000	55.272865 
3368.000000	55.245995 
3367.000000	55.216455 
3366.000000	55.188393 
3365.000000	55.166339 
3364.000000	55.154395 
3363.000000	55.155324 
3362.000000	55.169892 
3361.000000	55.196714 
3360.000000	55.232453 
3359.000000	55.272722 
3358.000000	55.312585 
3357.000000	55.347633 
3356.000000	55.374574 
3355.000000	55.391788 
3354.000000	55.399084 
3353.000000	55.397796 
3352.000000	55.390048 
3351.000000	55.378317 
3350.000000	55.365204 
3349.000000	55.352544 
3348.000000	55.341696 
3347.000000	55.333018 
3346.000000	55.326414 
3345.000000	55.321145 
3344.000000	55.316305 
3343.000000	55.310750 
3342.000000	55.303692 
3341.000000	55.294489 
3340.000000	55.283045 
3339.000000	55.269527 
3338.000000	55.254530 
3337.000000	55.238723 
3336.000000	55.222845 
3335.000000	55.207586 
3334.000000	55.193519 
3333.000000	55.180883 
3332.000000	55.169844 
3331.000000	55.160474 
3330.000000	55.153155 
3329.000000	55.148315 
3328.000000	55.147075 
3327.000000	55.150294 
3326.000000	55.158996 
3325.000000	55.173826 
3324.000000	55.194902 
3323.000000	55.221509 
3322.000000	55.251860 
3321.000000	55.283641 
3320.000000	55.313777 
3319.000000	55.339407 
3318.000000	55.357980 
3317.000000	55.367708 
3316.000000	55.367755 
3315.000000	55.358791 
3314.000000	55.342531 
3313.000000	55.321669 
3312.000000	55.299568 
3311.000000	55.279684 
3310.000000	55.264949 
3309.000000	55.257487 
3308.000000	55.258059 
3307.000000	55.266094 
3306.000000	55.279660 
3305.000000	55.295777 
3304.000000	55.311131 
3303.000000	55.322360 
3302.000000	55.326914 
3301.000000	55.323266 
3300.000000	55.311155 
3299.000000	55.291652 
3298.000000	55.267024 
3297.000000	55.240297 
3296.000000	55.214643 
3295.000000	55.192995 
3294.000000	55.177688 
3293.000000	55.170178 
3292.000000	55.170917 
3291.000000	55.179381 
3290.000000	55.194640 
3289.000000	55.215191 
3288.000000	55.239176 
3287.000000	55.264568 
3286.000000	55.289196 
3285.000000	55.310869 
3284.000000	55.327534 
3283.000000	55.337667 
3282.000000	55.340528 
3281.000000	55.336356 
3280.000000	55.326437 
3279.000000	55.312728 
3278.000000	55.297279 
3277.000000	55.281901 
3276.000000	55.267739 
3275.000000	55.254983 
3274.000000	55.242872 
3273.000000	55.230188 
3272.000000	55.215406 
3271.000000	55.197477 
3270.000000	55.176162 
3269.000000	55.152034 
3268.000000	55.126643 
3267.000000	55.101871 
3266.000000	55.079913 
3265.000000	55.062413 
3264.000000	55.050563 
3263.000000	55.044555 
3262.000000	55.044031 
3261.000000	55.047941 
3260.000000	55.055260 
3259.000000	55.064749 
3258.000000	55.075454 
3257.000000	55.086565 
3256.000000	55.097532 
3255.000000	55.107998 
3254.000000	55.117630 
3253.000000	55.125999 
3252.000000	55.132675 
3251.000000	55.137157 
3250.000000	55.139279 
3249.000000	55.138969 
3248.000000	55.136609 
3247.000000	55.132722 
3246.000000	55.128145 
3245.000000	55.123496 
3244.000000	55.119132 
3243.000000	55.114912 
3242.000000	55.110144 
3241.000000	55.104184 
3240.000000	55.096173 
3239.000000	55.085778 
3238.000000	55.073404 
3237.000000	55.060172 
3236.000000	55.047726 
3235.000000	55.037999 
3234.000000	55.032753 
3233.000000	55.033063 
3232.000000	55.039024 
3231.000000	55.049705 
3230.000000	55.063390 
3229.000000	55.078220 
3228.000000	55.092573 
3227.000000	55.105471 
3226.000000	55.116724 
3225.000000	55.126833 
3224.000000	55.136728 
3223.000000	55.147123 
3222.000000	55.158066 
3221.000000	55.168986 
3220.000000	55.178356 
3219.000000	55.184268 
3218.000000	55.184721 
3217.000000	55.178427 
3216.000000	55.165100 
3215.000000	55.145621 
3214.000000	55.122280 
3213.000000	55.098056 
3212.000000	55.076408 
3211.000000	55.060434 
3210.000000	55.052304 
3209.000000	55.052828 
3208.000000	55.061316 
3207.000000	55.075740 
3206.000000	55.093431 
3205.000000	55.111408 
3204.000000	55.127263 
3203.000000	55.139398 
3202.000000	55.147409 
3201.000000	55.151915 
3200.000000	55.154180 
3199.000000	55.155754 
3198.000000	55.157971 
3197.000000	55.161595 
3196.000000	55.166673 
3195.000000	55.172300 
3194.000000	55.177211 
3193.000000	55.179786 
3192.000000	55.178666 
3191.000000	55.173158 
3190.000000	55.163311 
3189.000000	55.150198 
3188.000000	55.135703 
3187.000000	55.122089 
3186.000000	55.111742 
3185.000000	55.106568 
3184.000000	55.107808 
3183.000000	55.115556 
3182.000000	55.128741 
3181.000000	55.145478 
3180.000000	55.163407 
3179.000000	55.180096 
3178.000000	55.193209 
3177.000000	55.201077 
3176.000000	55.202960 
3175.000000	55.198979 
3174.000000	55.189967 
3173.000000	55.177283 
3172.000000	55.162405 
3171.000000	55.146813 
3170.000000	55.131459 
3169.000000	55.117058 
3168.000000	55.103802 
3167.000000	55.091595 
3166.000000	55.080175 
3165.000000	55.069255 
3164.000000	55.058908 
3163.000000	55.049014 
3162.000000	55.040121 
3161.000000	55.032467 
3160.000000	55.027079 
3159.000000	55.024743 
3158.000000	55.026555 
3157.000000	55.033564 
3156.000000	55.046534 
3155.000000	55.065894 
3154.000000	55.091309 
3153.000000	55.121588 
3152.000000	55.154752 
3151.000000	55.188202 
3150.000000	55.219125 
3149.000000	55.244779 
3148.000000	55.263042 
3147.000000	55.272912 
3146.000000	55.274581 
3145.000000	55.269479 
3144.000000	55.260205 
3143.000000	55.249857 
3142.000000	55.241727 
3141.000000	55.238795 
3140.000000	55.243039 
3139.000000	55.255317 
3138.000000	55.275344 
3137.000000	55.301833 
3136.000000	55.332708 
3135.000000	55.365347 
3134.000000	55.397295 
3133.000000	55.426049 
3132.000000	55.449676 
3131.000000	55.466365 
3130.000000	55.475091 
3129.000000	55.474925 
3128.000000	55.465698 
3127.000000	55.447602 
3126.000000	55.421590 
3125.000000	55.389237 
3124.000000	55.352687 
3123.000000	55.314493 
3122.000000	55.277538 
3121.000000	55.244588 
3120.000000	55.218005 
3119.000000	55.199313 
3118.000000	55.189180 
3117.000000	55.187368 
3116.000000	55.192995 
3115.000000	55.204606 
3114.000000	55.220532 
3113.000000	55.239105 
3112.000000	55.258727 
3111.000000	55.278015 
3110.000000	55.295467 
3109.000000	55.309677 
3108.000000	55.319046 
3107.000000	55.322051 
3106.000000	55.317354 
3105.000000	55.304312 
3104.000000	55.283188 
3103.000000	55.255365 
3102.000000	55.223679 
3101.000000	55.191898 
3100.000000	55.164408 
3099.000000	55.145502 
3098.000000	55.138516 
3097.000000	55.145120 
3096.000000	55.165147 
3095.000000	55.196380 
3094.000000	55.235099 
3093.000000	55.276513 
3092.000000	55.316019 
3091.000000	55.349779 
3090.000000	55.375313 
3089.000000	55.391764 
3088.000000	55.399751 
3087.000000	55.401015 
3086.000000	55.397748 
3085.000000	55.391764 
3084.000000	55.384659 
3083.000000	55.377101 
3082.000000	55.369281 
3081.000000	55.360937 
3080.000000	55.351877 
3079.000000	55.342411 
3078.000000	55.333256 
3077.000000	55.325531 
3076.000000	55.320453 
3075.000000	55.319237 
3074.000000	55.322384 
3073.000000	55.329799 
3072.000000	55.340576 
3071.000000	55.353093 
3070.000000	55.365371 
3069.000000	55.375432 
3068.000000	55.381608 
3067.000000	55.382609 
3066.000000	55.377888 
3065.000000	55.367493 
3064.000000	55.351924 
3063.000000	55.332303 
3062.000000	55.310106 
3061.000000	55.287051 
3060.000000	55.265116 
3059.000000	55.246639 
3058.000000	55.233907 
3057.000000	55.228924 
3056.000000	55.232977 
3055.000000	55.246567 
3054.000000	55.268859 
3053.000000	55.297827 
3052.000000	55.330419 
3051.000000	55.362939 
3050.000000	55.391621 
3049.000000	55.413508 
3048.000000	55.426669 
3047.000000	55.430579 
3046.000000	55.426120 
3045.000000	55.415439 
3044.000000	55.401086 
3043.000000	55.385756 
3042.000000	55.371642 
3041.000000	55.360078 
3040.000000	55.351376 
3039.000000	55.345058 
3038.000000	55.339980 
3037.000000	55.334877 
3036.000000	55.328631 
3035.000000	55.320668 
3034.000000	55.310916 
3033.000000	55.299735 
3032.000000	55.287790 
3031.000000	55.275821 
3030.000000	55.264401 
3029.000000	55.253863 
3028.000000	55.244326 
3027.000000	55.235648 
3026.000000	55.227637 
3025.000000	55.220317 
3024.000000	55.213999 
3023.000000	55.209207 
3022.000000	55.206394 
3021.000000	55.206036 
3020.000000	55.208182 
3019.000000	55.212640 
3018.000000	55.218625 
3017.000000	55.225300 
3016.000000	55.231904 
3015.000000	55.237746 
3014.000000	55.242514 
3013.000000	55.245900 
3012.000000	55.247592 
3011.000000	55.246973 
3010.000000	55.243158 
3009.000000	55.235099 
3008.000000	55.221652 
3007.000000	55.202341 
3006.000000	55.177474 
3005.000000	55.148410 
3004.000000	55.117487 
3003.000000	55.087590 
3002.000000	55.061864 
3001.000000	55.042600 
3000.000000	55.031299 
2999.000000	55.027794 
2998.000000	55.031180 
2997.000000	55.039787 
2996.000000	55.051946 
2995.000000	55.066227 
2994.000000	55.081939 
2993.000000	55.098915 
2992.000000	55.117297 
2991.000000	55.136895 
2990.000000	55.157017 
2989.000000	55.176210 
2988.000000	55.192422 
2987.000000	55.203437 
2986.000000	55.207371 
2985.000000	55.203199 
2984.000000	55.191135 
2983.000000	55.172801 
2982.000000	55.150699 
2981.000000	55.128002 
2980.000000	55.107903 
2979.000000	55.093050 
2978.000000	55.085229 
2977.000000	55.084848 
2976.000000	55.091333 
2975.000000	55.103135 
2974.000000	55.117964 
2973.000000	55.132961 
2972.000000	55.145406 
2971.000000	55.152869 
2970.000000	55.153369 
2969.000000	55.145835 
2968.000000	55.130290 
2967.000000	55.108118 
2966.000000	55.081725 
2965.000000	55.054330 
2964.000000	55.029296 
2963.000000	55.009698 
2962.000000	54.997706 
2961.000000	54.994130 
2960.000000	54.998326 
2959.000000	55.008625 
2958.000000	55.022859 
2957.000000	55.038762 
2956.000000	55.054569 
2955.000000	55.069470 
2954.000000	55.083489 
2953.000000	55.097055 
2952.000000	55.110621 
2951.000000	55.124092 
2950.000000	55.136919 
2949.000000	55.147838 
2948.000000	55.155444 
2947.000000	55.158853 
2946.000000	55.157780 
2945.000000	55.153298 
2944.000000	55.147194 
2943.000000	55.141639 
2942.000000	55.138373 
2941.000000	55.138492 
2940.000000	55.141901 
2939.000000	55.147290 
2938.000000	55.152750 
2937.000000	55.156373 
2936.000000	55.156683 
2935.000000	55.152964 
2934.000000	55.145430 
2933.000000	55.135035 
2932.000000	55.122995 
2931.000000	55.110335 
2930.000000	55.097532 
2929.000000	55.084514 
2928.000000	55.070734 
2927.000000	55.055594 
2926.000000	55.038666 
2925.000000	55.019831 
2924.000000	54.999279 
2923.000000	54.977750 
2922.000000	54.955863 
2921.000000	54.934763 
2920.000000	54.915690 
2919.000000	54.900693 
2918.000000	54.891848 
2917.000000	54.891538 
2916.000000	54.901695 
2915.000000	54.923486 
2914.000000	54.956507 
2913.000000	54.998946 
2912.000000	55.047369 
2911.000000	55.097198 
2910.000000	55.143594 
2909.000000	55.182075 
2908.000000	55.209279 
2907.000000	55.223274 
2906.000000	55.224013 
2905.000000	55.213022 
2904.000000	55.193114 
2903.000000	55.167651 
2902.000000	55.140161 
2901.000000	55.113792 
2900.000000	55.090928 
2899.000000	55.073332 
2898.000000	55.061864 
2897.000000	55.056548 
2896.000000	55.056715 
2895.000000	55.061054 
2894.000000	55.068135 
2893.000000	55.076313 
2892.000000	55.084395 
2891.000000	55.091524 
2890.000000	55.097770 
2889.000000	55.103516 
2888.000000	55.109691 
2887.000000	55.117416 
2886.000000	55.127644 
2885.000000	55.140948 
2884.000000	55.157160 
2883.000000	55.175447 
2882.000000	55.194449 
2881.000000	55.212736 
2880.000000	55.228638 
2879.000000	55.240750 
2878.000000	55.247926 
2877.000000	55.249834 
2876.000000	55.246448 
2875.000000	55.238270 
2874.000000	55.226230 
2873.000000	55.211687 
2872.000000	55.196404 
2871.000000	55.182433 
2870.000000	55.171680 
2869.000000	55.165910 
2868.000000	55.166220 
2867.000000	55.173397 
2866.000000	55.187273 
2865.000000	55.207109 
2864.000000	55.231618 
2863.000000	55.258965 
2862.000000	55.287289 
2861.000000	55.314493 
2860.000000	55.338835 
2859.000000	55.358600 
2858.000000	55.372571 
2857.000000	55.379915 
2856.000000	55.380272 
2855.000000	55.373716 
2854.000000	55.360698 
2853.000000	55.342245 
2852.000000	55.319786 
2851.000000	55.295014 
2850.000000	55.269932 
2849.000000	55.246472 
2848.000000	55.226564 
2847.000000	55.211615 
2846.000000	55.202531 
2845.000000	55.199360 
2844.000000	55.201554 
2843.000000	55.207753 
2842.000000	55.216479 
2841.000000	55.225920 
2840.000000	55.234789 
2839.000000	55.242490 
2838.000000	55.249190 
2837.000000	55.255746 
2836.000000	55.263400 
2835.000000	55.273222 
2834.000000	55.285906 
2833.000000	55.301165 
2832.000000	55.317926 
2831.000000	55.334568 
2830.000000	55.349373 
2829.000000	55.360722 
2828.000000	55.367779 
2827.000000	55.370640 
2826.000000	55.370140 
2825.000000	55.367803 
2824.000000	55.365204 
2823.000000	55.363726 
2822.000000	55.364298 
2821.000000	55.367136 
2820.000000	55.371809 
2819.000000	55.377268 
2818.000000	55.382394 
2817.000000	55.386114 
2816.000000	55.387496 
2815.000000	55.385851 
2814.000000	55.380845 
2813.000000	55.372595 
2812.000000	55.361652 
2811.000000	55.348968 
2810.000000	55.335569 
2809.000000	55.322694 
2808.000000	55.311512 
2807.000000	55.302810 
2806.000000	55.296850 
2805.000000	55.293250 
2804.000000	55.291271 
2803.000000	55.289983 
2802.000000	55.288362 
2801.000000	55.285644 
2800.000000	55.281639 
2799.000000	55.276799 
2798.000000	55.271697 
2797.000000	55.267333 
2796.000000	55.264759 
2795.000000	55.264639 
2794.000000	55.267429 
2793.000000	55.273175 
2792.000000	55.281615 
2791.000000	55.292439 
2790.000000	55.305218 
2789.000000	55.319571 
2788.000000	55.334901 
2787.000000	55.350399 
2786.000000	55.364918 
2785.000000	55.376791 
2784.000000	55.384349 
2783.000000	55.385923 
2782.000000	55.380296 
2781.000000	55.367064 
2780.000000	55.346775 
2779.000000	55.321264 
2778.000000	55.292940 
2777.000000	55.264687 
2776.000000	55.239081 
2775.000000	55.218076 
2774.000000	55.202555 
2773.000000	55.192232 
2772.000000	55.186009 
2771.000000	55.182385 
2770.000000	55.179929 
2769.000000	55.177855 
2768.000000	55.176186 
2767.000000	55.175542 
2766.000000	55.176901 
2765.000000	55.181074 
2764.000000	55.188250 
2763.000000	55.197787 
2762.000000	55.208539 
2761.000000	55.219006 
2760.000000	55.227684 
2759.000000	55.233716 
2758.000000	55.237197 
2757.000000	55.238938 
2756.000000	55.240345 
2755.000000	55.242848 
2754.000000	55.247473 
2753.000000	55.254483 
2752.000000	55.263209 
2751.000000	55.272388 
2750.000000	55.280494 
2749.000000	55.286097 
2748.000000	55.288505 
2747.000000	55.287742 
2746.000000	55.284452 
2745.000000	55.279874 
2744.000000	55.275321 
2743.000000	55.272221 
2742.000000	55.271434 
2741.000000	55.273389 
2740.000000	55.278015 
2739.000000	55.284643 
2738.000000	55.291843 
2737.000000	55.297827 
2736.000000	55.300569 
2735.000000	55.298233 
2734.000000	55.289483 
2733.000000	55.273771 
2732.000000	55.251741 
2731.000000	55.225014 
2730.000000	55.196142 
2729.000000	55.168008 
2728.000000	55.143356 
2727.000000	55.124402 
2726.000000	55.112195 
2725.000000	55.106687 
2724.000000	55.106878 
2723.000000	55.111265 
2722.000000	55.118179 
2721.000000	55.126190 
2720.000000	55.134296 
2719.000000	55.141901 
2718.000000	55.148553 
2717.000000	55.153822 
2716.000000	55.157184 
2715.000000	55.158090 
2714.000000	55.156159 
2713.000000	55.151319 
2712.000000	55.143880 
2711.000000	55.134844 
2710.000000	55.125474 
2709.000000	55.117177 
2708.000000	55.111074 
2707.000000	55.107522 
2706.000000	55.106115 
2705.000000	55.105638 
2704.000000	55.104494 
2703.000000	55.101156 
2702.000000	55.094528 
2701.000000	55.084419 
2700.000000	55.071568 
2699.000000	55.057311 
2698.000000	55.043554 
2697.000000	55.032014 
2696.000000	55.023813 
2695.000000	55.019354 
2694.000000	55.018115 
2693.000000	55.019259 
2692.000000	55.021643 
2691.000000	55.024337 
2690.000000	55.026769 
2689.000000	55.028867 
2688.000000	55.031061 
2687.000000	55.033993 
2686.000000	55.038309 
2685.000000	55.044555 
2684.000000	55.053019 
2683.000000	55.063819 
2682.000000	55.076718 
2681.000000	55.091142 
2680.000000	55.105996 
2679.000000	55.120086 
2678.000000	55.132031 
2677.000000	55.140519 
2676.000000	55.144500 
2675.000000	55.143690 
2674.000000	55.138444 
2673.000000	55.129861 
2672.000000	55.119466 
2671.000000	55.109143 
2670.000000	55.100154 
2669.000000	55.093121 
2668.000000	55.087733 
2667.000000	55.082845 
2666.000000	55.077004 
2665.000000	55.068945 
2664.000000	55.058193 
2663.000000	55.045390 
2662.000000	55.032110 
2661.000000	55.020666 
2660.000000	55.013489 
2659.000000	55.012559 
2658.000000	55.019092 
2657.000000	55.033278 
2656.000000	55.054378 
2655.000000	55.080866 
2654.000000	55.110621 
2653.000000	55.141353 
2652.000000	55.170655 
2651.000000	55.196475 
2650.000000	55.217027 
2649.000000	55.230951 
2648.000000	55.237531 
2647.000000	55.236673 
2646.000000	55.228924 
2645.000000	55.215620 
2644.000000	55.198574 
2643.000000	55.179929 
2642.000000	55.161976 
2641.000000	55.146646 
2640.000000	55.135440 
2639.000000	55.129098 
2638.000000	55.127668 
2637.000000	55.130457 
2636.000000	55.136489 
2635.000000	55.144548 
2634.000000	55.153560 
2633.000000	55.162692 
2632.000000	55.171394 
2631.000000	55.179500 
2630.000000	55.187296 
2629.000000	55.195093 
2628.000000	55.203366 
2627.000000	55.212521 
2626.000000	55.222749 
2625.000000	55.234003 
2624.000000	55.246043 
2623.000000	55.258345 
2622.000000	55.270147 
2621.000000	55.280709 
2620.000000	55.289196 
2619.000000	55.294752 
2618.000000	55.296826 
2617.000000	55.295205 
2616.000000	55.290269 
2615.000000	55.282807 
2614.000000	55.274295 
2613.000000	55.266475 
2612.000000	55.260920 
2611.000000	55.258870 
2610.000000	55.260753 
2609.000000	55.266141 
2608.000000	55.274009 
2607.000000	55.282664 
2606.000000	55.290341 
2605.000000	55.295634 
2604.000000	55.297660 
2603.000000	55.296421 
2602.000000	55.292510 
2601.000000	55.287146 
2600.000000	55.281782 
2599.000000	55.277800 
2598.000000	55.276107 
2597.000000	55.277323 
2596.000000	55.281543 
2595.000000	55.288720 
2594.000000	55.298519 
2593.000000	55.310320 
2592.000000	55.323457 
2591.000000	55.336999 
2590.000000	55.349707 
2589.000000	55.360245 
2588.000000	55.367255 
2587.000000	55.369758 
2586.000000	55.367207 
2585.000000	55.359959 
2584.000000	55.349159 
2583.000000	55.336785 
2582.000000	55.325269 
2581.000000	55.316948 
2580.000000	55.313825 
2579.000000	55.316901 
2578.000000	55.326151 
2577.000000	55.340361 
2576.000000	55.357432 
2575.000000	55.374836 
2574.000000	55.389976 
2573.000000	55.400776 
2572.000000	55.405926 
2571.000000	55.405068 
2570.000000	55.398583 
2569.000000	55.387639 
2568.000000	55.373716 
2567.000000	55.358505 
2566.000000	55.343365 
2565.000000	55.329513 
2564.000000	55.317735 
2563.000000	55.308485 
2562.000000	55.301833 
2561.000000	55.297660 
2560.000000	55.295634 
2559.000000	55.295133 
2558.000000	55.295515 
2557.000000	55.296182 
2556.000000	55.296587 
2555.000000	55.296254 
2554.000000	55.294895 
2553.000000	55.292630 
2552.000000	55.289840 
2551.000000	55.287122 
2550.000000	55.285334 
2549.000000	55.285429 
2548.000000	55.288195 
2547.000000	55.293965 
2546.000000	55.302524 
2545.000000	55.312943 
2544.000000	55.323791 
2543.000000	55.333375 
2542.000000	55.340099 
2541.000000	55.343031 
2540.000000	55.342054 
2539.000000	55.337977 
2538.000000	55.332064 
2537.000000	55.325984 
2536.000000	55.321240 
2535.000000	55.318737 
2534.000000	55.318474 
2533.000000	55.319690 
2532.000000	55.320978 
2531.000000	55.320596 
2530.000000	55.317044 
2529.000000	55.309200 
2528.000000	55.296826 
2527.000000	55.280518 
2526.000000	55.261588 
2525.000000	55.241942 
2524.000000	55.223560 
2523.000000	55.208396 
2522.000000	55.198049 
2521.000000	55.193591 
2520.000000	55.195283 
2519.000000	55.202651 
2518.000000	55.214595 
2517.000000	55.229306 
2516.000000	55.244898 
2515.000000	55.259513 
2514.000000	55.271840 
2513.000000	55.281186 
2512.000000	55.287528 
2511.000000	55.291390 
2510.000000	55.293703 
2509.000000	55.295395 
2508.000000	55.297040 
2507.000000	55.298900 
2506.000000	55.300736 
2505.000000	55.302047 
2504.000000	55.302071 
2503.000000	55.300188 
2502.000000	55.295777 
2501.000000	55.288672 
2500.000000	55.278992 
2499.000000	55.267262 
2498.000000	55.254101 
2497.000000	55.240082 
2496.000000	55.225825 
2495.000000	55.211877 
2494.000000	55.198645 
2493.000000	55.186581 
2492.000000	55.176067 
2491.000000	55.167579 
2490.000000	55.161428 
2489.000000	55.157899 
2488.000000	55.157041 
2487.000000	55.158686 
2486.000000	55.162310 
2485.000000	55.167174 
2484.000000	55.172371 
2483.000000	55.177068 
2482.000000	55.180597 
2481.000000	55.182576 
2480.000000	55.183076 
2479.000000	55.182361 
2478.000000	55.180931 
2477.000000	55.178999 
2476.000000	55.176591 
2475.000000	55.173182 
2474.000000	55.168080 
2473.000000	55.160641 
2472.000000	55.150604 
2471.000000	55.138373 
2470.000000	55.125141 
2469.000000	55.112624 
2468.000000	55.102801 
2467.000000	55.097293 
2466.000000	55.097126 
2465.000000	55.102252 
2464.000000	55.111718 
2463.000000	55.123710 
2462.000000	55.136203 
2461.000000	55.147433 
2460.000000	55.156302 
2459.000000	55.162620 
2458.000000	55.167293 
2457.000000	55.171656 
2456.000000	55.177307 
2455.000000	55.185532 
2454.000000	55.196976 
2453.000000	55.211353 
2452.000000	55.227708 
2451.000000	55.244588 
2450.000000	55.260181 
2449.000000	55.273127 
2448.000000	55.282330 
2447.000000	55.287384 
2446.000000	55.288338 
2445.000000	55.285573 
2444.000000	55.279660 
2443.000000	55.271100 
2442.000000	55.260109 
2441.000000	55.246686 
2440.000000	55.230712 
2439.000000	55.212354 
2438.000000	55.191969 
2437.000000	55.170559 
2436.000000	55.149388 
2435.000000	55.130314 
2434.000000	55.115151 
2433.000000	55.105662 
2432.000000	55.102682 
2431.000000	55.106472 
2430.000000	55.116581 
2429.000000	55.131769 
2428.000000	55.150103 
2427.000000	55.169391 
2426.000000	55.187344 
2425.000000	55.201911 
2424.000000	55.211377 
2423.000000	55.214858 
2422.000000	55.212187 
2421.000000	55.204176 
2420.000000	55.192327 
2419.000000	55.178785 
2418.000000	55.166077 
2417.000000	55.156660 
2416.000000	55.152654 
2415.000000	55.155181 
2414.000000	55.164456 
2413.000000	55.179667 
2412.000000	55.199098 
2411.000000	55.220317 
2410.000000	55.240416 
2409.000000	55.256867 
2408.000000	55.267500 
2407.000000	55.270814 
2406.000000	55.266141 
2405.000000	55.253696 
2404.000000	55.234599 
2403.000000	55.210471 
2402.000000	55.183482 
2401.000000	55.156016 
2400.000000	55.130243 
2399.000000	55.108022 
2398.000000	55.090570 
2397.000000	55.078291 
2396.000000	55.071067 
2395.000000	55.068135 
2394.000000	55.068540 
2393.000000	55.071187 
2392.000000	55.075240 
2391.000000	55.080294 
2390.000000	55.086231 
2389.000000	55.093336 
2388.000000	55.102062 
2387.000000	55.112791 
2386.000000	55.125784 
2385.000000	55.141139 
2384.000000	55.158448 
2383.000000	55.176997 
2382.000000	55.195927 
2381.000000	55.214238 
2380.000000	55.230903 
2379.000000	55.244874 
2378.000000	55.255413 
2377.000000	55.261850 
2376.000000	55.263996 
2375.000000	55.261945 
2374.000000	55.256319 
2373.000000	55.248188 
2372.000000	55.239057 
2371.000000	55.230545 
2370.000000	55.224275 
2369.000000	55.221295 
2368.000000	55.221867 
2367.000000	55.225491 
2366.000000	55.231022 
2365.000000	55.237030 
2364.000000	55.242156 
2363.000000	55.245780 
2362.000000	55.248045 
2361.000000	55.249881 
2360.000000	55.252766 
2359.000000	55.257940 
2358.000000	55.266070 
2357.000000	55.276989 
2356.000000	55.289602 
2355.000000	55.302047 
2354.000000	55.312442 
2353.000000	55.319499 
2352.000000	55.322933 
2351.000000	55.323719 
2350.000000	55.323505 
2349.000000	55.324363 
2348.000000	55.327749 
2347.000000	55.333948 
2346.000000	55.342054 
2345.000000	55.350017 
2344.000000	55.355095 
2343.000000	55.354928 
2342.000000	55.348110 
2341.000000	55.334925 
2340.000000	55.317306 
2339.000000	55.298399 
2338.000000	55.281901 
2337.000000	55.271053 
2336.000000	55.267858 
2335.000000	55.272579 
2334.000000	55.283617 
2333.000000	55.298066 
2332.000000	55.312299 
2331.000000	55.323004 
2330.000000	55.327749 
2329.000000	55.325675 
2328.000000	55.317473 
2327.000000	55.305194 
2326.000000	55.291724 
2325.000000	55.279779 
2324.000000	55.271863 
2323.000000	55.268955 
2322.000000	55.271053 
2321.000000	55.276775 
2320.000000	55.283904 
2319.000000	55.289793 
2318.000000	55.292057 
2317.000000	55.289149 
2316.000000	55.280518 
2315.000000	55.266880 
2314.000000	55.249953 
2313.000000	55.232238 
2312.000000	55.216336 
2311.000000	55.204534 
2310.000000	55.198287 
2309.000000	55.198049 
2308.000000	55.203247 
2307.000000	55.212497 
2306.000000	55.223965 
2305.000000	55.235862 
2304.000000	55.246901 
2303.000000	55.256342 
2302.000000	55.264115 
2301.000000	55.270457 
2300.000000	55.275678 
2299.000000	55.279779 
2298.000000	55.282402 
2297.000000	55.282711 
2296.000000	55.279803 
2295.000000	55.273175 
2294.000000	55.262994 
2293.000000	55.250477 
2292.000000	55.237674 
2291.000000	55.227088 
2290.000000	55.221176 
2289.000000	55.221366 
2288.000000	55.228090 
2287.000000	55.240225 
2286.000000	55.255556 
2285.000000	55.271315 
2284.000000	55.284810 
2283.000000	55.294156 
2282.000000	55.298757 
2281.000000	55.299282 
2280.000000	55.297136 
2279.000000	55.293846 
2278.000000	55.290508 
2277.000000	55.287384 
2276.000000	55.283808 
2275.000000	55.278444 
2274.000000	55.269908 
2273.000000	55.257225 
2272.000000	55.240392 
2271.000000	55.220389 
2270.000000	55.199217 
2269.000000	55.179381 
2268.000000	55.162906 
2267.000000	55.151414 
2266.000000	55.145406 
2265.000000	55.144309 
2264.000000	55.146718 
2263.000000	55.150818 
2262.000000	55.154895 
2261.000000	55.157518 
2260.000000	55.157899 
2259.000000	55.155873 
2258.000000	55.151629 
2257.000000	55.145955 
2256.000000	55.139875 
2255.000000	55.134677 
2254.000000	55.131411 
2253.000000	55.131053 
2252.000000	55.134177 
2251.000000	55.140686 
2250.000000	55.150127 
2249.000000	55.161428 
2248.000000	55.173325 
2247.000000	55.184698 
2246.000000	55.194687 
2245.000000	55.203127 
2244.000000	55.210471 
2243.000000	55.217885 
2242.000000	55.226755 
2241.000000	55.238270 
2240.000000	55.253005 
2239.000000	55.270910 
2238.000000	55.290889 
2237.000000	55.311369 
2236.000000	55.330085 
2235.000000	55.345082 
2234.000000	55.354523 
2233.000000	55.357122 
2232.000000	55.352282 
2231.000000	55.340003 
2230.000000	55.321025 
2229.000000	55.296778 
2228.000000	55.269265 
2227.000000	55.240726 
2226.000000	55.213546 
2225.000000	55.189871 
2224.000000	55.171322 
2223.000000	55.158901 
2222.000000	55.152654 
2221.000000	55.152034 
2220.000000	55.155777 
2219.000000	55.162525 
2218.000000	55.171012 
2217.000000	55.180358 
2216.000000	55.190181 
2215.000000	55.200409 
2214.000000	55.211138 
2213.000000	55.222296 
2212.000000	55.233502 
2211.000000	55.243921 
2210.000000	55.252218 
2209.000000	55.257034 
2208.000000	55.257368 
2207.000000	55.252599 
2206.000000	55.242824 
2205.000000	55.228662 
2204.000000	55.211400 
2203.000000	55.192279 
2202.000000	55.172538 
2201.000000	55.153083 
2200.000000	55.134415 
2199.000000	55.116868 
2198.000000	55.100703 
2197.000000	55.086398 
2196.000000	55.074572 
2195.000000	55.065751 
2194.000000	55.060505 
2193.000000	55.058860 
2192.000000	55.060696 
2191.000000	55.065536 
2190.000000	55.072951 
2189.000000	55.082511 
2188.000000	55.094051 
2187.000000	55.107617 
2186.000000	55.123209 
2185.000000	55.140590 
2184.000000	55.159473 
2183.000000	55.179238 
2182.000000	55.199122 
2181.000000	55.218362 
2180.000000	55.236124 
2179.000000	55.251884 
2178.000000	55.265235 
2177.000000	55.275940 
2176.000000	55.283784 
2175.000000	55.288386 
2174.000000	55.289292 
2173.000000	55.286026 
2172.000000	55.277991 
2171.000000	55.264830 
2170.000000	55.246591 
2169.000000	55.224108 
2168.000000	55.198788 
2167.000000	55.172491 
2166.000000	55.147480 
2165.000000	55.125904 
2164.000000	55.109477 
2163.000000	55.099368 
2162.000000	55.095720 
2161.000000	55.097985 
2160.000000	55.105090 
2159.000000	55.115580 
2158.000000	55.127763 
2157.000000	55.140137 
2156.000000	55.151295 
2155.000000	55.160236 
2154.000000	55.166244 
2153.000000	55.169224 
2152.000000	55.169558 
2151.000000	55.168390 
2150.000000	55.167102 
2149.000000	55.167126 
2148.000000	55.169939 
2147.000000	55.176401 
2146.000000	55.186653 
2145.000000	55.200171 
2144.000000	55.216002 
2143.000000	55.232954 
2142.000000	55.249881 
2141.000000	55.265951 
2140.000000	55.280613 
2139.000000	55.293846 
2138.000000	55.305600 
2137.000000	55.315852 
2136.000000	55.324149 
2135.000000	55.329799 
2134.000000	55.331873 
2133.000000	55.329465 
2132.000000	55.322003 
2131.000000	55.309677 
2130.000000	55.293655 
2129.000000	55.276083 
2128.000000	55.259656 
2127.000000	55.247163 
2126.000000	55.241036 
2125.000000	55.242609 
2124.000000	55.251955 
2123.000000	55.267715 
2122.000000	55.287456 
2121.000000	55.308175 
2120.000000	55.326867 
2119.000000	55.341124 
2118.000000	55.349469 
2117.000000	55.351448 
2116.000000	55.347657 
2115.000000	55.339312 
2114.000000	55.328059 
2113.000000	55.315518 
2112.000000	55.303192 
2111.000000	55.292177 
2110.000000	55.283427 
2109.000000	55.277395 
2108.000000	55.274343 
2107.000000	55.273866 
2106.000000	55.275368 
2105.000000	55.277800 
2104.000000	55.279755 
2103.000000	55.280089 
2102.000000	55.278015 
2101.000000	55.273437 
2100.000000	55.267024 
2099.000000	55.260157 
2098.000000	55.254459 
2097.000000	55.251526 
2096.000000	55.252385 
2095.000000	55.257177 
2094.000000	55.265092 
2093.000000	55.274748 
2092.000000	55.284547 
2091.000000	55.293250 
2090.000000	55.300259 
2089.000000	55.305767 
2088.000000	55.310392 
2087.000000	55.315184 
2086.000000	55.320620 
2085.000000	55.326509 
2084.000000	55.331873 
2083.000000	55.335140 
2082.000000	55.334568 
2081.000000	55.329084 
2080.000000	55.318450 
2079.000000	55.303573 
2078.000000	55.286312 
2077.000000	55.269265 
2076.000000	55.254983 
2075.000000	55.245471 
2074.000000	55.241751 
2073.000000	55.243754 
2072.000000	55.250453 
2071.000000	55.260038 
2070.000000	55.270624 
2069.000000	55.280613 
2068.000000	55.288696 
2067.000000	55.294179 
2066.000000	55.296778 
2065.000000	55.296611 
2064.000000	55.293774 
2063.000000	55.288505 
2062.000000	55.281019 
2061.000000	55.271649 
2060.000000	55.261111 
2059.000000	55.250215 
2058.000000	55.239963 
2057.000000	55.231356 
2056.000000	55.225443 
2055.000000	55.222821 
2054.000000	55.223703 
2053.000000	55.227756 
2052.000000	55.234074 
2051.000000	55.241775 
2050.000000	55.249714 
2049.000000	55.257129 
2048.000000	55.263590 
2047.000000	55.269145 
2046.000000	55.274105 
2045.000000	55.279111 
2044.000000	55.284500 
2043.000000	55.290579 
2042.000000	55.297183 
2041.000000	55.303931 
2040.000000	55.310153 
2039.000000	55.315160 
2038.000000	55.318379 
2037.000000	55.319404 
2036.000000	55.318117 
2035.000000	55.314469 
2034.000000	55.308556 
2033.000000	55.300259 
2032.000000	55.289435 
2031.000000	55.275797 
2030.000000	55.259227 
2029.000000	55.239987 
2028.000000	55.218791 
2027.000000	55.196857 
2026.000000	55.175971 
2025.000000	55.158066 
2024.000000	55.144929 
2023.000000	55.137920 
2022.000000	55.137658 
2021.000000	55.143785 
2020.000000	55.155181 
2019.000000	55.169916 
2018.000000	55.185937 
2017.000000	55.201172 
2016.000000	55.213832 
2015.000000	55.222725 
2014.000000	55.227327 
2013.000000	55.227851 
2012.000000	55.224990 
2011.000000	55.219697 
2010.000000	55.213141 
2009.000000	55.206418 
2008.000000	55.200362 
2007.000000	55.195426 
2006.000000	55.191588 
2005.000000	55.188512 
2004.000000	55.185508 
2003.000000	55.181980 
2002.000000	55.177617 
2001.000000	55.172681 
2000.000000	55.168032 
1999.000000	55.165219 
1998.000000	55.166196 
1997.000000	55.172729 
1996.000000	55.185914 
1995.000000	55.205702 
1994.000000	55.230689 
1993.000000	55.257940 
1992.000000	55.283761 
1991.000000	55.304241 
1990.000000	55.316162 
1989.000000	55.317711 
1988.000000	55.308938 
1987.000000	55.291724 
1986.000000	55.269360 
1985.000000	55.245637 
1984.000000	55.224180 
1983.000000	55.207586 
1982.000000	55.197095 
1981.000000	55.192494 
1980.000000	55.192613 
1979.000000	55.195713 
1978.000000	55.200266 
1977.000000	55.205202 
1976.000000	55.210041 
1975.000000	55.214834 
1974.000000	55.219626 
1973.000000	55.224227 
1972.000000	55.228018 
1971.000000	55.230045 
1970.000000	55.229091 
1969.000000	55.224204 
1968.000000	55.214929 
1967.000000	55.201673 
1966.000000	55.185484 
1965.000000	55.168128 
1964.000000	55.151534 
1963.000000	55.137610 
1962.000000	55.127739 
1961.000000	55.122685 
1960.000000	55.122780 
1959.000000	55.127930 
1958.000000	55.137729 
1957.000000	55.151486 
1956.000000	55.168199 
1955.000000	55.186533 
1954.000000	55.204653 
1953.000000	55.220651 
1952.000000	55.232667 
1951.000000	55.239319 
1950.000000	55.240011 
1949.000000	55.235171 
1948.000000	55.226111 
1947.000000	55.214571 
1946.000000	55.202507 
1945.000000	55.191659 
1944.000000	55.183267 
1943.000000	55.177950 
1942.000000	55.175709 
1941.000000	55.175971 
1940.000000	55.177879 
1939.000000	55.180454 
1938.000000	55.182743 
1937.000000	55.183935 
1936.000000	55.183410 
1935.000000	55.180907 
1934.000000	55.176353 
1933.000000	55.170249 
1932.000000	55.163431 
1931.000000	55.157256 
1930.000000	55.153131 
1929.000000	55.152368 
1928.000000	55.155777 
1927.000000	55.163311 
1926.000000	55.174088 
1925.000000	55.186581 
1924.000000	55.198907 
1923.000000	55.209207 
1922.000000	55.215978 
1921.000000	55.218386 
1920.000000	55.216288 
1919.000000	55.210185 
1918.000000	55.201148 
1917.000000	55.190563 
1916.000000	55.180072 
1915.000000	55.171346 
1914.000000	55.165719 
1913.000000	55.164051 
1912.000000	55.166482 
1911.000000	55.172538 
1910.000000	55.181169 
1909.000000	55.190730 
1908.000000	55.199384 
1907.000000	55.205392 
1906.000000	55.207538 
1905.000000	55.205202 
1904.000000	55.198740 
1903.000000	55.189180 
1902.000000	55.178213 
1901.000000	55.167818 
1900.000000	55.159759 
1899.000000	55.155444 
1898.000000	55.155563 
1897.000000	55.160117 
1896.000000	55.168461 
1895.000000	55.179405 
1894.000000	55.191445 
1893.000000	55.203294 
1892.000000	55.213689 
1891.000000	55.221891 
1890.000000	55.227708 
1889.000000	55.231547 
1888.000000	55.234313 
1887.000000	55.237150 
1886.000000	55.241370 
1885.000000	55.248022 
1884.000000	55.257797 
1883.000000	55.270886 
1882.000000	55.286741 
1881.000000	55.304217 
1880.000000	55.321931 
1879.000000	55.338239 
1878.000000	55.351662 
1877.000000	55.361199 
1876.000000	55.366253 
1875.000000	55.366778 
1874.000000	55.363154 
1873.000000	55.356097 
1872.000000	55.346322 
1871.000000	55.334830 
1870.000000	55.322337 
1869.000000	55.309534 
1868.000000	55.296969 
1867.000000	55.285000 
1866.000000	55.273962 
1865.000000	55.264115 
1864.000000	55.255699 
1863.000000	55.248951 
1862.000000	55.244326 
1861.000000	55.242037 
1860.000000	55.242347 
1859.000000	55.245327 
1858.000000	55.250787 
1857.000000	55.258107 
1856.000000	55.266499 
1855.000000	55.274868 
1854.000000	55.282235 
1853.000000	55.287814 
1852.000000	55.291199 
1851.000000	55.292725 
1850.000000	55.293250 
1849.000000	55.293893 
1848.000000	55.295896 
1847.000000	55.300140 
1846.000000	55.306839 
1845.000000	55.315494 
1844.000000	55.324983 
1843.000000	55.333900 
1842.000000	55.340933 
1841.000000	55.345273 
1840.000000	55.346727 
1839.000000	55.345845 
1838.000000	55.343794 
1837.000000	55.341911 
1836.000000	55.341482 
1835.000000	55.343103 
1834.000000	55.346870 
1833.000000	55.352044 
1832.000000	55.357313 
1831.000000	55.361151 
1830.000000	55.362200 
1829.000000	55.359554 
1828.000000	55.353021 
1827.000000	55.343198 
1826.000000	55.331134 
1825.000000	55.318450 
1824.000000	55.306839 
1823.000000	55.297803 
1822.000000	55.292344 
1821.000000	55.290842 
1820.000000	55.293011 
1819.000000	55.298185 
1818.000000	55.305242 
1817.000000	55.313158 
1816.000000	55.321192 
1815.000000	55.328798 
1814.000000	55.336046 
1813.000000	55.343174 
1812.000000	55.350613 
1811.000000	55.358552 
1810.000000	55.366826 
1809.000000	55.374860 
1808.000000	55.381631 
1807.000000	55.385947 
1806.000000	55.386734 
1805.000000	55.383396 
1804.000000	55.375790 
1803.000000	55.364513 
1802.000000	55.350661 
1801.000000	55.335450 
1800.000000	55.320024 
1799.000000	55.305194 
1798.000000	55.291247 
1797.000000	55.278205 
1796.000000	55.265927 
1795.000000	55.254364 
1794.000000	55.243754 
1793.000000	55.234527 
1792.000000	55.227184 
1791.000000	55.222105 
1790.000000	55.219101 
1789.000000	55.217456 
1788.000000	55.215740 
1787.000000	55.212330 
1786.000000	55.205893 
1785.000000	55.195569 
1784.000000	55.181670 
1783.000000	55.165290 
1782.000000	55.148482 
1781.000000	55.133533 
1780.000000	55.122208 
1779.000000	55.115461 
1778.000000	55.113220 
1777.000000	55.114221 
1776.000000	55.116438 
1775.000000	55.117750 
1774.000000	55.116462 
1773.000000	55.111765 
1772.000000	55.103969 
1771.000000	55.094265 
1770.000000	55.084490 
1769.000000	55.076503 
1768.000000	55.071806 
1767.000000	55.071187 
1766.000000	55.074596 
1765.000000	55.081510 
1764.000000	55.090975 
1763.000000	55.102014 
1762.000000	55.113601 
1761.000000	55.124974 
1760.000000	55.135416 
1759.000000	55.144143 
1758.000000	55.150198 
1757.000000	55.152487 
1756.000000	55.149912 
1755.000000	55.141448 
1754.000000	55.126595 
1753.000000	55.105638 
1752.000000	55.079555 
1751.000000	55.050206 
1750.000000	55.019807 
1749.000000	54.990911 
1748.000000	54.965615 
1747.000000	54.945516 
1746.000000	54.931354 
1745.000000	54.922914 
1744.000000	54.919195 
1743.000000	54.918622 
1742.000000	54.919505 
1741.000000	54.920172 
1740.000000	54.919409 
1739.000000	54.916667 
1738.000000	54.911971 
1737.000000	54.905891 
1736.000000	54.899382 
1735.000000	54.893612 
1734.000000	54.889464 
1733.000000	54.887557 
1732.000000	54.888105 
1731.000000	54.890775 
1730.000000	54.894828 
1729.000000	54.899358 
1728.000000	54.903531 
1727.000000	54.906892 
1726.000000	54.909276 
1725.000000	54.910969 
1724.000000	54.912424 
1723.000000	54.914116 
1722.000000	54.916548 
1721.000000	54.919791 
1720.000000	54.923319 
1719.000000	54.926371 
1718.000000	54.928183 
1717.000000	54.927945 
1716.000000	54.924988 
1715.000000	54.919219 
1714.000000	54.910969 
1713.000000	54.900956 
1712.000000	54.890203 
1711.000000	54.879760 
1710.000000	54.870653 
1709.000000	54.863595 
1708.000000	54.859018 
1707.000000	54.857015 
1706.000000	54.857444 
1705.000000	54.859876 
1704.000000	54.863762 
1703.000000	54.868245 
1702.000000	54.872727 
1701.000000	54.876518 
1700.000000	54.879260 
1699.000000	54.880857 
1698.000000	54.881906 
1697.000000	54.883217 
1696.000000	54.886102 
1695.000000	54.891896 
1694.000000	54.901623 
1693.000000	54.915642 
1692.000000	54.933309 
1691.000000	54.953122 
1690.000000	54.972600 
1689.000000	54.988980 
1688.000000	54.999685 
1687.000000	55.002880 
1686.000000	54.998207 
1685.000000	54.986476 
1684.000000	54.969906 
1683.000000	54.951643 
1682.000000	54.935145 
1681.000000	54.923343 
1680.000000	54.918384 
1679.000000	54.921007 
1678.000000	54.930901 
1677.000000	54.946589 
1676.000000	54.966163 
1675.000000	54.987573 
1674.000000	55.008935 
1673.000000	55.029129 
1672.000000	55.047559 
1671.000000	55.064249 
1670.000000	55.079507 
1669.000000	55.093836 
1668.000000	55.107593 
1667.000000	55.120873 
1666.000000	55.133342 
1665.000000	55.144381 
1664.000000	55.153417 
1663.000000	55.159759 
1662.000000	55.163240 
1661.000000	55.164074 
1660.000000	55.163002 
1659.000000	55.161094 
1658.000000	55.159401 
1657.000000	55.158805 
1656.000000	55.159759 
1655.000000	55.162239 
1654.000000	55.165696 
1653.000000	55.169415 
1652.000000	55.172419 
1651.000000	55.174112 
1650.000000	55.174374 
1649.000000	55.173373 
1648.000000	55.171918 
1647.000000	55.170798 
1646.000000	55.171108 
1645.000000	55.173468 
1644.000000	55.178022 
1643.000000	55.184841 
1642.000000	55.193424 
1641.000000	55.203127 
1640.000000	55.213212 
1639.000000	55.223059 
1638.000000	55.232262 
1637.000000	55.240488 
1636.000000	55.247640 
1635.000000	55.253767 
1634.000000	55.259108 
1633.000000	55.263829 
1632.000000	55.268025 
1631.000000	55.271649 
1630.000000	55.274510 
1629.000000	55.276203 
1628.000000	55.276203 
1627.000000	55.273938 
1626.000000	55.268979 
1625.000000	55.260944 
1624.000000	55.249810 
1623.000000	55.235791 
1622.000000	55.219435 
1621.000000	55.201888 
1620.000000	55.184388 
1619.000000	55.168604 
1618.000000	55.155992 
1617.000000	55.147910 
1616.000000	55.145120 
1615.000000	55.147814 
1614.000000	55.155420 
1613.000000	55.166697 
1612.000000	55.179905 
1611.000000	55.193257 
1610.000000	55.205082 
1609.000000	55.214452 
1608.000000	55.221152 
1607.000000	55.225634 
1606.000000	55.228900 
1605.000000	55.231833 
1604.000000	55.234932 
1603.000000	55.237936 
1602.000000	55.240154 
1601.000000	55.240345 
1600.000000	55.237388 
1599.000000	55.230665 
1598.000000	55.220365 
1597.000000	55.207777 
1596.000000	55.194783 
1595.000000	55.183601 
1594.000000	55.176258 
1593.000000	55.173778 
1592.000000	55.176162 
1591.000000	55.182409 
1590.000000	55.190730 
1589.000000	55.199193 
1588.000000	55.206060 
1587.000000	55.210566 
1586.000000	55.212783 
1585.000000	55.213356 
1584.000000	55.213427 
1583.000000	55.214071 
1582.000000	55.216264 
1581.000000	55.220651 
1580.000000	55.227422 
1579.000000	55.236434 
1578.000000	55.247139 
1577.000000	55.258607 
1576.000000	55.269670 
1575.000000	55.278873 
1574.000000	55.284786 
1573.000000	55.286431 
1572.000000	55.283379 
1571.000000	55.276012 
1570.000000	55.265474 
1569.000000	55.253696 
1568.000000	55.243086 
1567.000000	55.235981 
1566.000000	55.234408 
1565.000000	55.239605 
1564.000000	55.251789 
1563.000000	55.269861 
1562.000000	55.291700 
1561.000000	55.314350 
1560.000000	55.334758 
1559.000000	55.350208 
1558.000000	55.358886 
1557.000000	55.360198 
1556.000000	55.354690 
1555.000000	55.343890 
1554.000000	55.329799 
1553.000000	55.314350 
1552.000000	55.299091 
1551.000000	55.285000 
1550.000000	55.272412 
1549.000000	55.261301 
1548.000000	55.251336 
1547.000000	55.242204 
1546.000000	55.233645 
1545.000000	55.225586 
1544.000000	55.217814 
1543.000000	55.210256 
1542.000000	55.202722 
1541.000000	55.194807 
1540.000000	55.186200 
1539.000000	55.176615 
1538.000000	55.166244 
1537.000000	55.155444 
1536.000000	55.145144 
1535.000000	55.136489 
1534.000000	55.130600 
1533.000000	55.128431 
1532.000000	55.130290 
1531.000000	55.135703 
1530.000000	55.143547 
1529.000000	55.152177 
1528.000000	55.159711 
1527.000000	55.164527 
1526.000000	55.165672 
1525.000000	55.162858 
1524.000000	55.156445 
1523.000000	55.147314 
1522.000000	55.136537 
1521.000000	55.125117 
1520.000000	55.113720 
1519.000000	55.102896 
1518.000000	55.092835 
1517.000000	55.083727 
1516.000000	55.075740 
1515.000000	55.069017 
1514.000000	55.063581 
1513.000000	55.059576 
1512.000000	55.056929 
1511.000000	55.055594 
1510.000000	55.055236 
1509.000000	55.055928 
1508.000000	55.057525 
1507.000000	55.060505 
1506.000000	55.065345 
1505.000000	55.072999 
1504.000000	55.084300 
1503.000000	55.100035 
1502.000000	55.120348 
1501.000000	55.144333 
1500.000000	55.170130 
1499.000000	55.194830 
1498.000000	55.215144 
1497.000000	55.227923 
1496.000000	55.230903 
1495.000000	55.223226 
1494.000000	55.205631 
1493.000000	55.180311 
1492.000000	55.150294 
1491.000000	55.118918 
1490.000000	55.088949 
1489.000000	55.062294 
1488.000000	55.039620 
1487.000000	55.020689 
1486.000000	55.004620 
1485.000000	54.990148 
1484.000000	54.976439 
1483.000000	54.963135 
1482.000000	54.950523 
1481.000000	54.939270 
1480.000000	54.930281 
1479.000000	54.924201 
1478.000000	54.921436 
1477.000000	54.921698 
1476.000000	54.924368 
1475.000000	54.928421 
1474.000000	54.932856 
1473.000000	54.936933 
1472.000000	54.940295 
1471.000000	54.942750 
1470.000000	54.944372 
1469.000000	54.945349 
1468.000000	54.945611 
1467.000000	54.944753 
1466.000000	54.942011 
1465.000000	54.936623 
1464.000000	54.927730 
1463.000000	54.915094 
1462.000000	54.899191 
1461.000000	54.881429 
1460.000000	54.864001 
1459.000000	54.849648 
1458.000000	54.840946 
1457.000000	54.840016 
1456.000000	54.847884 
1455.000000	54.864144 
1454.000000	54.886960 
1453.000000	54.913282 
1452.000000	54.939556 
1451.000000	54.962205 
1450.000000	54.978394 
1449.000000	54.986429 
1448.000000	54.986023 
1447.000000	54.978108 
1446.000000	54.964518 
1445.000000	54.947710 
1444.000000	54.930067 
1443.000000	54.913854 
1442.000000	54.900646 
1441.000000	54.891490 
1440.000000	54.886651 
1439.000000	54.885697 
1438.000000	54.887628 
1437.000000	54.890942 
1436.000000	54.893994 
1435.000000	54.895305 
1434.000000	54.893970 
1433.000000	54.889678 
1432.000000	54.882979 
1431.000000	54.874873 
1430.000000	54.866671 
1429.000000	54.859685 
1428.000000	54.854989 
1427.000000	54.852962 
1426.000000	54.853606 
1425.000000	54.856348 
1424.000000	54.860639 
1423.000000	54.866027 
1422.000000	54.872465 
1421.000000	54.880142 
1420.000000	54.889678 
1419.000000	54.901790 
1418.000000	54.916810 
1417.000000	54.934573 
1416.000000	54.954147 
1415.000000	54.974150 
1414.000000	54.992914 
1413.000000	55.008816 
1412.000000	55.020785 
1411.000000	55.028462 
1410.000000	55.032324 
1409.000000	55.033397 
1408.000000	55.033254 
1407.000000	55.033278 
1406.000000	55.034494 
1405.000000	55.037331 
1404.000000	55.041551 
1403.000000	55.046343 
1402.000000	55.050730 
1401.000000	55.053687 
1400.000000	55.054616 
1399.000000	55.053138 
1398.000000	55.049347 
1397.000000	55.043601 
1396.000000	55.036234 
1395.000000	55.027627 
1394.000000	55.017924 
1393.000000	55.007195 
1392.000000	54.995465 
1391.000000	54.982876 
1390.000000	54.969716 
1389.000000	54.956412 
1388.000000	54.943394 
1387.000000	54.931187 
1386.000000	54.920125 
1385.000000	54.910492 
1384.000000	54.902362 
1383.000000	54.895901 
1382.000000	54.891133 
1381.000000	54.888129 
1380.000000	54.887056 
1379.000000	54.887747 
1378.000000	54.890322 
1377.000000	54.894447 
1376.000000	54.899835 
1375.000000	54.906010 
1374.000000	54.912376 
1373.000000	54.918384 
1372.000000	54.923439 
1371.000000	54.927158 
1370.000000	54.929304 
1369.000000	54.929852 
1368.000000	54.929065 
1367.000000	54.927372 
1366.000000	54.925346 
1365.000000	54.923725 
1364.000000	54.923343 
1363.000000	54.924988 
1362.000000	54.929399 
1361.000000	54.937148 
1360.000000	54.948544 
1359.000000	54.963541 
1358.000000	54.981684 
1357.000000	55.002260 
1356.000000	55.024266 
1355.000000	55.046510 
1354.000000	55.067777 
1353.000000	55.086874 
1352.000000	55.103063 
1351.000000	55.115675 
1350.000000	55.124807 
1349.000000	55.130791 
1348.000000	55.134344 
1347.000000	55.136227 
1346.000000	55.137109 
1345.000000	55.137467 
1344.000000	55.137515 
1343.000000	55.137157 
1342.000000	55.136156 
1341.000000	55.134367 
1340.000000	55.131721 
1339.000000	55.128169 
1338.000000	55.123782 
1337.000000	55.118536 
1336.000000	55.112338 
1335.000000	55.104827 
1334.000000	55.095458 
1333.000000	55.083632 
1332.000000	55.068922 
1331.000000	55.051326 
1330.000000	55.031371 
1329.000000	55.010056 
1328.000000	54.988789 
1327.000000	54.969048 
1326.000000	54.952383 
1325.000000	54.939746 
1324.000000	54.931735 
1323.000000	54.928398 
1322.000000	54.929685 
1321.000000	54.935264 
1320.000000	54.944705 
1319.000000	54.957509 
1318.000000	54.973101 
1317.000000	54.990649 
1316.000000	55.009055 
1315.000000	55.026936 
1314.000000	55.042815 
1313.000000	55.055308 
1312.000000	55.063366 
1311.000000	55.066514 
1310.000000	55.064964 
1309.000000	55.059623 
1308.000000	55.051755 
1307.000000	55.042695 
1306.000000	55.033540 
1305.000000	55.025148 
1304.000000	55.017638 
1303.000000	55.010914 
1302.000000	55.004763 
1301.000000	54.999065 
1300.000000	54.993844 
1299.000000	54.989528 
1298.000000	54.986763 
1297.000000	54.986190 
1296.000000	54.988455 
1295.000000	54.993820 
1294.000000	55.002140 
1293.000000	55.012774 
1292.000000	55.024647 
1291.000000	55.036473 
1290.000000	55.046892 
1289.000000	55.054688 
1288.000000	55.059146 
1287.000000	55.060100 
1286.000000	55.057787 
1285.000000	55.053067 
1284.000000	55.047273 
1283.000000	55.041980 
1282.000000	55.038881 
1281.000000	55.039334 
1280.000000	55.044412 
1279.000000	55.054640 
1278.000000	55.069923 
1277.000000	55.089592 
1276.000000	55.112552 
1275.000000	55.137300 
1274.000000	55.162143 
1273.000000	55.185222 
1272.000000	55.204653 
1271.000000	55.218911 
1270.000000	55.226969 
1269.000000	55.228590 
1268.000000	55.224275 
1267.000000	55.215549 
1266.000000	55.204105 
1265.000000	55.191802 
1264.000000	55.179667 
1263.000000	55.168128 
1262.000000	55.156636 
1261.000000	55.144000 
1260.000000	55.128836 
1259.000000	55.110263 
1258.000000	55.088162 
1257.000000	55.063629 
1256.000000	55.038738 
1255.000000	55.016112 
1254.000000	54.998326 
1253.000000	54.987335 
1252.000000	54.983758 
1251.000000	54.987049 
1250.000000	54.995346 
1249.000000	55.006337 
1248.000000	55.017447 
1247.000000	55.026745 
1246.000000	55.033135 
1245.000000	55.036664 
1244.000000	55.038022 
1243.000000	55.038452 
1242.000000	55.039310 
1241.000000	55.041766 
1240.000000	55.046296 
1239.000000	55.052804 
1238.000000	55.060672 
1237.000000	55.068969 
1236.000000	55.076861 
1235.000000	55.083680 
1234.000000	55.089187 
1233.000000	55.093598 
1232.000000	55.097627 
1231.000000	55.101943 
1230.000000	55.106782 
1229.000000	55.112099 
1228.000000	55.117368 
1227.000000	55.121636 
1226.000000	55.123567 
1225.000000	55.122208 
1224.000000	55.116987 
1223.000000	55.108094 
1222.000000	55.096197 
1221.000000	55.082535 
1220.000000	55.068492 
1219.000000	55.055379 
1218.000000	55.044221 
1217.000000	55.035233 
1216.000000	55.028223 
1215.000000	55.022501 
1214.000000	55.017590 
1213.000000	55.012965 
1212.000000	55.008792 
1211.000000	55.005574 
1210.000000	55.004382 
1209.000000	55.006170 
1208.000000	55.011606 
1207.000000	55.020761 
1206.000000	55.033087 
1205.000000	55.047321 
1204.000000	55.062270 
1203.000000	55.077099 
1202.000000	55.091452 
1201.000000	55.105686 
1200.000000	55.120563 
1199.000000	55.136680 
1198.000000	55.154061 
1197.000000	55.171632 
1196.000000	55.187296 
1195.000000	55.198144 
1194.000000	55.201148 
1193.000000	55.193805 
1192.000000	55.174970 
1191.000000	55.145406 
1190.000000	55.107569 
1189.000000	55.065512 
1188.000000	55.023789 
1187.000000	54.986834 
1186.000000	54.958081 
1185.000000	54.939436 
1184.000000	54.931116 
1183.000000	54.931664 
1182.000000	54.938912 
1181.000000	54.950213 
1180.000000	54.962968 
1179.000000	54.975175 
1178.000000	54.985499 
1177.000000	54.993414 
1176.000000	54.998803 
1175.000000	55.002069 
1174.000000	55.003643 
1173.000000	55.003833 
1172.000000	55.002665 
1171.000000	54.999899 
1170.000000	54.995059 
1169.000000	54.987359 
1168.000000	54.975938 
1167.000000	54.959988 
1166.000000	54.939174 
1165.000000	54.913687 
1164.000000	54.884672 
1163.000000	54.853916 
1162.000000	54.823994 
1161.000000	54.797625 
1160.000000	54.777789 
1159.000000	54.766559 
1158.000000	54.765486 
1157.000000	54.774498 
1156.000000	54.792594 
1155.000000	54.817819 
1154.000000	54.847788 
1153.000000	54.879522 
1152.000000	54.910516 
1151.000000	54.938721 
1150.000000	54.963207 
1149.000000	54.983997 
1148.000000	55.001926 
1147.000000	55.018115 
1146.000000	55.033802 
1145.000000	55.049705 
1144.000000	55.065822 
1143.000000	55.081248 
1142.000000	55.094718 
1141.000000	55.104613 
1140.000000	55.109691 
1139.000000	55.109071 
1138.000000	55.102396 
1137.000000	55.090117 
1136.000000	55.073237 
1135.000000	55.053877 
1134.000000	55.034756 
1133.000000	55.019402 
1132.000000	55.011463 
1131.000000	55.014133 
1130.000000	55.029487 
1129.000000	55.057454 
1128.000000	55.096077 
1127.000000	55.141305 
1126.000000	55.187892 
1125.000000	55.229902 
1124.000000	55.262088 
1123.000000	55.280399 
1122.000000	55.282926 
1121.000000	55.269527 
1120.000000	55.241870 
1119.000000	55.203270 
1118.000000	55.157971 
1117.000000	55.110621 
1116.000000	55.065655 
1115.000000	55.026817 
1114.000000	54.996967 
1113.000000	54.977869 
1112.000000	54.970073 
1111.000000	54.973292 
1110.000000	54.986405 
1109.000000	55.007243 
1108.000000	55.033040 
1107.000000	55.060434 
1106.000000	55.086159 
1105.000000	55.106949 
1104.000000	55.120658 
1103.000000	55.126523 
1102.000000	55.125164 
1101.000000	55.118656 
1100.000000	55.109262 
1099.000000	55.099225 
1098.000000	55.089497 
1097.000000	55.079889 
1096.000000	55.069184 
1095.000000	55.055904 
1094.000000	55.039119 
1093.000000	55.018997 
1092.000000	54.997038 
1091.000000	54.975962 
1090.000000	54.958844 
1089.000000	54.948282 
1088.000000	54.945421 
1087.000000	54.949331 
1086.000000	54.957580 
1085.000000	54.966545 
1084.000000	54.972147 
1083.000000	54.971241 
1082.000000	54.962277 
1081.000000	54.945850 
1080.000000	54.924321 
1079.000000	54.901289 
1078.000000	54.880213 
1077.000000	54.863929 
1076.000000	54.853940 
1075.000000	54.849958 
1074.000000	54.850387 
1073.000000	54.852700 
1072.000000	54.854464 
1071.000000	54.853892 
1070.000000	54.850363 
1069.000000	54.844546 
1068.000000	54.838252 
1067.000000	54.834032 
1066.000000	54.834508 
1065.000000	54.841923 
1064.000000	54.857444 
1063.000000	54.881238 
1062.000000	54.912281 
1061.000000	54.948759 
1060.000000	54.988121 
1059.000000	55.027532 
1058.000000	55.064058 
1057.000000	55.094981 
1056.000000	55.117917 
1055.000000	55.131030 
1054.000000	55.133366 
1053.000000	55.125260 
1052.000000	55.108022 
1051.000000	55.084252 
1050.000000	55.057120 
1049.000000	55.030083 
1048.000000	55.006122 
1047.000000	54.987645 
1046.000000	54.976010 
1045.000000	54.971647 
1044.000000	54.974222 
1043.000000	54.982972 
1042.000000	54.996943 
1041.000000	55.015087 
1040.000000	55.036282 
1039.000000	55.059409 
1038.000000	55.083179 
1037.000000	55.105948 
1036.000000	55.125927 
1035.000000	55.141067 
1034.000000	55.149340 
1033.000000	55.148911 
1032.000000	55.138564 
1031.000000	55.117845 
1030.000000	55.087518 
1029.000000	55.049586 
1028.000000	55.007004 
1027.000000	54.963493 
1026.000000	54.923224 
1025.000000	54.890394 
1024.000000	54.868173 
1023.000000	54.858446 
1022.000000	54.861569 
1021.000000	54.876184 
1020.000000	54.899311 
1019.000000	54.927229 
1018.000000	54.956078 
1017.000000	54.982757 
1016.000000	55.005192 
1015.000000	55.022931 
1014.000000	55.036854 
1013.000000	55.048894 
1012.000000	55.061054 
1011.000000	55.075192 
1010.000000	55.092310 
1009.000000	55.112242 
1008.000000	55.133557 
1007.000000	55.153965 
1006.000000	55.170845 
1005.000000	55.181860 
1004.000000	55.185484 
1003.000000	55.181527 
1002.000000	55.171036 
1001.000000	55.156326 
1000.000000	55.140066 
999.000000	 55.124998 
998.000000	 55.112886 
997.000000	 55.104660 
996.000000	 55.099821 
995.000000	 55.096721 
994.000000	 55.092954 
993.000000	 55.086469 
992.000000	 55.075764 
991.000000	 55.060505 
990.000000	 55.041623 
989.000000	 55.020904 
988.000000	 55.000662 
987.000000	 54.982995 
986.000000	 54.969143 
985.000000	 54.959321 
984.000000	 54.953050 
983.000000	 54.949307 
982.000000	 54.946947 
981.000000	 54.945206 
980.000000	 54.943823 
979.000000	 54.943203 
978.000000	 54.943680 
977.000000	 54.945683 
976.000000	 54.949307 
975.000000	 54.954552 
974.000000	 54.960989 
973.000000	 54.968214 
972.000000	 54.976129 
971.000000	 54.985189 
970.000000	 54.996299 
969.000000	 55.010414 
968.000000	 55.028176 
967.000000	 55.049443 
966.000000	 55.073332 
965.000000	 55.098009 
964.000000	 55.121016 
963.000000	 55.139899 
962.000000	 55.152916 
961.000000	 55.159258 
960.000000	 55.159330 
959.000000	 55.154561 
958.000000	 55.147123 
957.000000	 55.139136 
956.000000	 55.132079 
955.000000	 55.126738 
954.000000	 55.122709 
953.000000	 55.118870 
952.000000	 55.113482 
951.000000	 55.104827 
950.000000	 55.091834 
949.000000	 55.074262 
948.000000	 55.053114 
947.000000	 55.029964 
946.000000	 55.007076 
945.000000	 54.986906 
944.000000	 54.971742 
943.000000	 54.963016 
942.000000	 54.961562 
941.000000	 54.967260 
940.000000	 54.979252 
939.000000	 54.995965 
938.000000	 55.015349 
937.000000	 55.035376 
936.000000	 55.054163 
935.000000	 55.069923 
934.000000	 55.081629 
933.000000	 55.088925 
932.000000	 55.092167 
931.000000	 55.092215 
930.000000	 55.090332 
929.000000	 55.087733 
928.000000	 55.085468 
927.000000	 55.084037 
926.000000	 55.083107 
925.000000	 55.081248 
924.000000	 55.076766 
923.000000	 55.067729 
922.000000	 55.052566 
921.000000	 55.030655 
920.000000	 55.002450 
919.000000	 54.969906 
918.000000	 54.935979 
917.000000	 54.904174 
916.000000	 54.877829 
915.000000	 54.859328 
914.000000	 54.849386 
913.000000	 54.847025 
912.000000	 54.849863 
911.000000	 54.854345 
910.000000	 54.856777 
909.000000	 54.854321 
908.000000	 54.845595 
907.000000	 54.831385 
906.000000	 54.814362 
905.000000	 54.798555 
904.000000	 54.788517 
903.000000	 54.788613 
902.000000	 54.801917 
901.000000	 54.829645 
900.000000	 54.870724 
899.000000	 54.921984 
898.000000	 54.978513 
897.000000	 55.034685 
896.000000	 55.084848 
895.000000	 55.124378 
894.000000	 55.149888 
893.000000	 55.160021 
892.000000	 55.155467 
891.000000	 55.138373 
890.000000	 55.112195 
889.000000	 55.081152 
888.000000	 55.049896 
887.000000	 55.022954 
886.000000	 55.004239 
885.000000	 54.996824 
884.000000	 55.002355 
883.000000	 55.021047 
882.000000	 55.051350 
881.000000	 55.090093 
880.000000	 55.132603 
879.000000	 55.173492 
878.000000	 55.207300 
877.000000	 55.229282 
876.000000	 55.236458 
875.000000	 55.228066 
874.000000	 55.205869 
873.000000	 55.173587 
872.000000	 55.136132 
871.000000	 55.098891 
870.000000	 55.066561 
869.000000	 55.042672 
868.000000	 55.029511 
867.000000	 55.027627 
866.000000	 55.036401 
865.000000	 55.053758 
864.000000	 55.076932 
863.000000	 55.102372 
862.000000	 55.125880 
861.000000	 55.143713 
860.000000	 55.152630 
859.000000	 55.150890 
858.000000	 55.138325 
857.000000	 55.116748 
856.000000	 55.089449 
855.000000	 55.060648 
854.000000	 55.034756 
853.000000	 55.015349 
852.000000	 55.004715 
851.000000	 55.003166 
850.000000	 55.009269 
849.000000	 55.020475 
848.000000	 55.033779 
847.000000	 55.046558 
846.000000	 55.057144 
845.000000	 55.064845 
844.000000	 55.069971 
843.000000	 55.073499 
842.000000	 55.076694 
841.000000	 55.080246 
840.000000	 55.084395 
839.000000	 55.089139 
838.000000	 55.094027 
837.000000	 55.098485 
836.000000	 55.101799 
835.000000	 55.103659 
834.000000	 55.103802 
833.000000	 55.102562 
832.000000	 55.100107 
831.000000	 55.096387 
830.000000	 55.090785 
829.000000	 55.082297 
828.000000	 55.069518 
827.000000	 55.051016 
826.000000	 55.026197 
825.000000	 54.995608 
824.000000	 54.961442 
823.000000	 54.927372 
822.000000	 54.897999 
821.000000	 54.878067 
820.000000	 54.871511 
819.000000	 54.880642 
818.000000	 54.906010 
817.000000	 54.945921 
816.000000	 54.996991 
815.000000	 55.054330 
814.000000	 55.112600 
813.000000	 55.166411 
812.000000	 55.210876 
811.000000	 55.242300 
810.000000	 55.258274 
809.000000	 55.257749 
808.000000	 55.241346 
807.000000	 55.210781 
806.000000	 55.168890 
805.000000	 55.119037 
804.000000	 55.065464 
803.000000	 55.012369 
802.000000	 54.963994 
801.000000	 54.923963 
800.000000	 54.895067 
799.000000	 54.878664 
798.000000	 54.874777 
797.000000	 54.881501 
796.000000	 54.895663 
795.000000	 54.913043 
794.000000	 54.929351 
793.000000	 54.940652 
792.000000	 54.944276 
791.000000	 54.938960 
790.000000	 54.925155 
789.000000	 54.904747 
788.000000	 54.880642 
787.000000	 54.855990 
786.000000	 54.833626 
785.000000	 54.815506 
784.000000	 54.803037 
783.000000	 54.796767 
782.000000	 54.796862 
781.000000	 54.803204 
780.000000	 54.815363 
779.000000	 54.832839 
778.000000	 54.854679 
777.000000	 54.879498 
776.000000	 54.904913 
775.000000	 54.927825 
774.000000	 54.944705 
773.000000	 54.952502 
772.000000	 54.948830 
771.000000	 54.932522 
770.000000	 54.904413 
769.000000	 54.867482 
768.000000	 54.826116 
767.000000	 54.785680 
766.000000	 54.751610 
765.000000	 54.728627 
764.000000	 54.719972 
763.000000	 54.727077 
762.000000	 54.749321 
761.000000	 54.784226 
760.000000	 54.828143 
759.000000	 54.876732 
758.000000	 54.925441 
757.000000	 54.970645 
756.000000	 55.009436 
755.000000	 55.040454 
754.000000	 55.063295 
753.000000	 55.078625 
752.000000	 55.087685 
751.000000	 55.091905 
750.000000	 55.092883 
749.000000	 55.092024 
748.000000	 55.090880 
747.000000	 55.090641 
746.000000	 55.092597 
745.000000	 55.097723 
744.000000	 55.106735 
743.000000	 55.119609 
742.000000	 55.135464 
741.000000	 55.152702 
740.000000	 55.169296 
739.000000	 55.183100 
738.000000	 55.192303 
737.000000	 55.196094 
736.000000	 55.194735 
735.000000	 55.189681 
734.000000	 55.182695 
733.000000	 55.175232 
732.000000	 55.168080 
731.000000	 55.160856 
730.000000	 55.152463 
729.000000	 55.141329 
728.000000	 55.126380 
727.000000	 55.107760 
726.000000	 55.086994 
725.000000	 55.067300 
724.000000	 55.052351 
723.000000	 55.045437 
722.000000	 55.047988 
721.000000	 55.059003 
720.000000	 55.074858 
719.000000	 55.089855 
718.000000	 55.097675 
717.000000	 55.092954 
716.000000	 55.072569 
715.000000	 55.036520 
714.000000	 54.987645 
713.000000	 54.931068 
712.000000	 54.872560 
711.000000	 54.817724 
710.000000	 54.770898 
709.000000	 54.735016 
708.000000	 54.711413 
707.000000	 54.700517 
706.000000	 54.702448 
705.000000	 54.717493 
704.000000	 54.745507 
703.000000	 54.786157 
702.000000	 54.837894 
701.000000	 54.898285 
700.000000	 54.962992 
699.000000	 55.027031 
698.000000	 55.085158 
697.000000	 55.132985 
696.000000	 55.167865 
695.000000	 55.188894 
694.000000	 55.197048 
693.000000	 55.194735 
692.000000	 55.185103 
691.000000	 55.171561 
690.000000	 55.157160 
689.000000	 55.144524 
688.000000	 55.135512 
687.000000	 55.130934 
686.000000	 55.130386 
685.000000	 55.132627 
684.000000	 55.135607 
683.000000	 55.136728 
682.000000	 55.133318 
681.000000	 55.123424 
680.000000	 55.106234 
679.000000	 55.081939 
678.000000	 55.052065 
677.000000	 55.019187 
676.000000	 54.986405 
675.000000	 54.956746 
674.000000	 54.932498 
673.000000	 54.914665 
672.000000	 54.903125 
671.000000	 54.896879 
670.000000	 54.894542 
669.000000	 54.894256 
668.000000	 54.894828 
667.000000	 54.895448 
666.000000	 54.896259 
665.000000	 54.897642 
664.000000	 54.900908 
663.000000	 54.907655 
662.000000	 54.919552 
661.000000	 54.937648 
660.000000	 54.962086 
659.000000	 54.991865 
658.000000	 55.024743 
657.000000	 55.057764 
656.000000	 55.087614 
655.000000	 55.111241 
654.000000	 55.126953 
653.000000	 55.134272 
652.000000	 55.134057 
651.000000	 55.128002 
650.000000	 55.118346 
649.000000	 55.106997 
648.000000	 55.095005 
647.000000	 55.082488 
646.000000	 55.069041 
645.000000	 55.054283 
644.000000	 55.038523 
643.000000	 55.022859 
642.000000	 55.009317 
641.000000	 54.999923 
640.000000	 54.996490 
639.000000	 54.999327 
638.000000	 55.006861 
637.000000	 55.015635 
636.000000	 55.021357 
635.000000	 55.019831 
634.000000	 55.008411 
633.000000	 54.986667 
632.000000	 54.956960 
631.000000	 54.923868 
630.000000	 54.893326 
629.000000	 54.871249 
628.000000	 54.862260 
627.000000	 54.868507 
626.000000	 54.889559 
625.000000	 54.922819 
624.000000	 54.964041 
623.000000	 55.008983 
622.000000	 55.052971 
621.000000	 55.091857 
620.000000	 55.121564 
619.000000	 55.138874 
618.000000	 55.140566 
617.000000	 55.123567 
616.000000	 55.086016 
615.000000	 55.027961 
614.000000	 54.952406 
613.000000	 54.865312 
612.000000	 54.775547 
611.000000	 54.693794 
610.000000	 54.630851 
609.000000	 54.595541 
608.000000	 54.592728 
607.000000	 54.622220 
606.000000	 54.678630 
605.000000	 54.752421 
604.000000	 54.831266 
603.000000	 54.902935 
602.000000	 54.957342 
601.000000	 54.989099 
600.000000	 54.997396 
599.000000	 54.986858 
598.000000	 54.965281 
597.000000	 54.942822 
596.000000	 54.929494 
595.000000	 54.933714 
594.000000	 54.960942 
593.000000	 55.012774 
592.000000	 55.087542 
591.000000	 55.179738 
590.000000	 55.281591 
589.000000	 55.383706 
588.000000	 55.476403 
587.000000	 55.551600 
586.000000	 55.604100 
585.000000	 55.631971 
584.000000	 55.636715 
583.000000	 55.621743 
582.000000	 55.591511 
581.000000	 55.550146 
580.000000	 55.500984 
579.000000	 55.445718 
578.000000	 55.384969 
577.000000	 55.319619 
576.000000	 55.251860 
575.000000	 55.185270 
574.000000	 55.125260 
573.000000	 55.078053 
572.000000	 55.050206 
571.000000	 55.046772 
570.000000	 55.070495 
569.000000	 55.120229 
568.000000	 55.191278 
567.000000	 55.276083 
566.000000	 55.365180 
565.000000	 55.448722 
564.000000	 55.517363 
563.000000	 55.563521 
562.000000	 55.582308 
561.000000	 55.571508 
560.000000	 55.532717 
559.000000	 55.471086 
558.000000	 55.394554 
557.000000	 55.312919 
556.000000	 55.236601 
555.000000	 55.175375 
554.000000	 55.136680 
553.000000	 55.124902 
552.000000	 55.141234 
551.000000	 55.183959 
550.000000	 55.249452 
549.000000	 55.332636 
548.000000	 55.427217 
547.000000	 55.526590 
546.000000	 55.623722 
545.000000	 55.712056 
544.000000	 55.786013 
543.000000	 55.841469 
542.000000	 55.876374 
541.000000	 55.890679 
540.000000	 55.886459 
539.000000	 55.867004 
538.000000	 55.837035 
537.000000	 55.801200 
536.000000	 55.764746 
535.000000	 55.731272 
534.000000	 55.703449 
533.000000	 55.681705 
532.000000	 55.664610 
531.000000	 55.649471 
530.000000	 55.632829 
529.000000	 55.613255 
528.000000	 55.592036 
527.000000	 55.573678 
526.000000	 55.564689 
525.000000	 55.570840 
524.000000	 55.595302 
523.000000	 55.637311 
522.000000	 55.691647 
521.000000	 55.749154 
520.000000	 55.798578 
519.000000	 55.829977 
518.000000	 55.836105 
517.000000	 55.814504 
516.000000	 55.767393 
515.000000	 55.700206 
514.000000	 55.620884 
513.000000	 55.538058 
512.000000	 55.459952 
511.000000	 55.392432 
510.000000	 55.339336 
509.000000	 55.304217 
508.000000	 55.287885 
507.000000	 55.289721 
506.000000	 55.305337 
505.000000	 55.327033 
504.000000	 55.344510 
503.000000	 55.345821 
502.000000	 55.323243 
501.000000	 55.275321 
500.000000	 55.209541 
499.000000	 55.141162 
498.000000	 55.090212 
497.000000	 55.076646 
496.000000	 55.114245 
495.000000	 55.206751 
494.000000	 55.347561 
493.000000	 55.519938 
492.000000	 55.702209 
491.000000	 55.870580 
490.000000	 56.004023 
489.000000	 56.086778 
488.000000	 56.112360 
487.000000	 56.081485 
486.000000	 55.999517 
485.000000	 55.875062 
484.000000	 55.720353 
483.000000	 55.547022 
482.000000	 55.365324 
481.000000	 55.183935 
480.000000	 55.013585 
479.000000	 54.862093 
478.000000	 54.734516 
477.000000	 54.632925 
476.000000	 54.556298 
475.000000	 54.502177 
474.000000	 54.467535 
473.000000	 54.447293 
472.000000	 54.434370 
471.000000	 54.421782 
470.000000	 54.404187 
469.000000	 54.373598 
468.000000	 54.324102 
467.000000	 54.255747 
466.000000	 54.177951 
465.000000	 54.106140 
464.000000	 54.063487 
463.000000	 54.074645 
462.000000	 54.163932 
461.000000	 54.346895 
460.000000	 54.629993 
459.000000	 55.003380 
458.000000	 55.448079 
457.000000	 55.936026 
456.000000	 56.439423 
455.000000	 56.935191 
454.000000	 57.406497 
453.000000	 57.847642 
452.000000	 58.250832 
451.000000	 58.604335 
450.000000	 58.885765 
449.000000	 59.067249 
448.000000	 59.113407 
447.000000	 58.993148 
446.000000	 58.682823 
445.000000	 58.176612 
444.000000	 57.488942 
443.000000	 56.656837 
442.000000	 55.732989 
441.000000	 54.782938 
440.000000	 53.869962 
439.000000	 53.055334 
438.000000	 52.396416 
437.000000	 51.944231 
436.000000	 51.732730 
435.000000	 51.778316 
434.000000	 52.078819 
433.000000	 52.607846 
432.000000	 53.299784 
431.000000	 54.072952 
430.000000	 54.827070 
429.000000	 55.479955 
428.000000	 55.974292 
427.000000	 56.298613 
426.000000	 56.486964 
425.000000	 56.599855 
424.000000	 56.712317 
423.000000	 56.864976 
422.000000	 57.049202 
421.000000	 57.201552 
420.000000	 57.225632 
419.000000	 57.016730 
418.000000	 56.504201 
417.000000	 55.682897 
416.000000	 54.636979 
415.000000	 53.530693 
414.000000	 52.588415 
413.000000	 52.053594 
412.000000	 52.136564 
411.000000	 52.959442 
410.000000	 54.527807 
409.000000	 56.711697 
408.000000	 59.286403 
407.000000	 61.964130 
406.000000	 64.475059 
405.000000	 66.638565 
404.000000	 68.369007 
403.000000	 69.685935 
402.000000	 70.650601 
401.000000	 71.348643 
400.000000	 71.798491 
399.000000	 71.925973 
398.000000	 71.598649 
397.000000	 70.698952 
396.000000	 69.160223 
395.000000	 67.031550 
394.000000	 64.489746 
393.000000	 61.833429 
392.000000	 59.399604 
391.000000	 57.492208 
390.000000	 56.306481 
389.000000	 55.885791 
388.000000	 56.114840 
387.000000	 56.758594 
386.000000	 57.523989 
385.000000	 58.137869 
384.000000	 58.429503 
383.000000	 58.345270 
382.000000	 57.933425 
381.000000	 57.287526 
380.000000	 56.527781 
379.000000	 55.688619 
378.000000	 54.708003 
377.000000	 53.392410 
376.000000	 51.508378 
375.000000	 48.800516 
374.000000	 45.122003 
373.000000	 40.447330 
372.000000	 34.914779 
371.000000	 28.821802 
370.000000	 22.583723 

