PE IR       SPECTRUM    SPECTRUM    ASCII       PEDS        1.60        
  -1
BZAC7F~1.ASC
17/04/10
10:53:47.00
17/04/10
10:53:47.00
tln
$BZ12041010-4_t0023$<tbV0>[0.0,-2.0,9.0,0.0,22,1,0]
370.000000
64









2002,4.07    
MIRTGS : RIGHTBACK : INTERNAL 2
MIR : ON : INTERNAL 2
OPTKBR

0.200000
8
8.000000
FILLER
RATIO
SPECTRUM
UNLOCKED 256

DOUBLE
64
COMBINED
1
0
0


1.000000
RATIO


1
0
TRUE
51149
0
LEFT NOT FITTED RIGHT NOT FITTED 0
NONE
NONE
15600
12.000000
4.427000
51148
TRUE
1 0 8 72 0 0 0 0 

15798.010000






#HDR
-1
-1
#GR
CM-1
%T
0.00002384185791015625
0.0
5000.000000
-1.000000
4631
8
72.838139
31.889820
#DATA
5000.000000	56.202459 
4999.000000	56.214118 
4998.000000	56.240987 
4997.000000	56.281995 
4996.000000	56.334161 
4995.000000	56.392359 
4994.000000	56.449961 
4993.000000	56.499481 
4992.000000	56.534457 
4991.000000	56.550860 
4990.000000	56.547760 
4989.000000	56.527161 
4988.000000	56.493949 
4987.000000	56.454992 
4986.000000	56.417155 
4985.000000	56.385827 
4984.000000	56.364655 
4983.000000	56.355190 
4982.000000	56.357097 
4981.000000	56.368684 
4980.000000	56.387758 
4979.000000	56.412053 
4978.000000	56.439995 
4977.000000	56.470227 
4976.000000	56.500816 
4975.000000	56.528997 
4974.000000	56.551575 
4973.000000	56.564736 
4972.000000	56.564664 
4971.000000	56.548023 
4970.000000	56.513786 
4969.000000	56.462812 
4968.000000	56.398510 
4967.000000	56.325435 
4966.000000	56.249165 
4965.000000	56.174254 
4964.000000	56.104016 
4963.000000	56.039237 
4962.000000	55.978894 
4961.000000	55.920815 
4960.000000	55.862927 
4959.000000	55.804324 
4958.000000	55.746054 
4957.000000	55.690813 
4956.000000	55.642700 
4955.000000	55.605936 
4954.000000	55.584383 
4953.000000	55.580496 
4952.000000	55.595207 
4951.000000	55.627608 
4950.000000	55.675482 
4949.000000	55.735301 
4948.000000	55.803060 
4947.000000	55.874323 
4946.000000	55.945110 
4945.000000	56.011414 
4944.000000	56.069922 
4943.000000	56.117773 
4942.000000	56.152749 
4941.000000	56.173706 
4940.000000	56.180071 
4939.000000	56.172370 
4938.000000	56.152153 
4937.000000	56.122350 
4936.000000	56.086993 
4935.000000	56.050848 
4934.000000	56.019568 
4933.000000	55.999183 
4932.000000	55.994939 
4931.000000	56.010675 
4930.000000	56.046319 
4929.000000	56.097555 
4928.000000	56.156682 
4927.000000	56.214547 
4926.000000	56.262254 
4925.000000	56.293725 
4924.000000	56.307601 
4923.000000	56.307148 
4922.000000	56.300163 
4921.000000	56.296229 
4920.000000	56.302475 
4919.000000	56.321954 
4918.000000	56.355261 
4917.000000	56.397652 
4916.000000	56.440663 
4915.000000	56.472826 
4914.000000	56.484937 
4913.000000	56.468749 
4912.000000	56.419968 
4911.000000	56.337141 
4910.000000	56.220817 
4909.000000	56.076049 
4908.000000	55.911755 
4907.000000	55.741548 
4906.000000	55.581212 
4905.000000	55.450224 
4904.000000	55.368900 
4903.000000	55.354142 
4902.000000	55.415225 
4901.000000	55.551362 
4900.000000	55.749416 
4899.000000	55.984902 
4898.000000	56.223630 
4897.000000	56.429028 
4896.000000	56.565070 
4895.000000	56.602215 
4894.000000	56.519699 
4893.000000	56.310248 
4892.000000	55.979347 
4891.000000	55.542469 
4890.000000	55.026912 
4889.000000	54.466414 
4888.000000	53.904771 
4887.000000	53.389620 
4886.000000	52.972912 
4885.000000	52.701520 
4884.000000	52.614355 
4883.000000	52.733540 
4882.000000	53.060269 
4881.000000	53.568601 
4880.000000	54.211378 
4879.000000	54.924082 
4878.000000	55.636000 
4877.000000	56.279420 
4876.000000	56.801533 
4875.000000	57.170987 
4874.000000	57.381796 
4873.000000	57.451534 
4872.000000	57.416939 
4871.000000	57.324337 
4870.000000	57.223773 
4869.000000	57.156777 
4868.000000	57.153391 
4867.000000	57.223796 
4866.000000	57.365202 
4865.000000	57.557845 
4864.000000	57.774829 
4863.000000	57.983136 
4862.000000	58.152604 
4861.000000	58.258652 
4860.000000	58.285021 
4859.000000	58.226823 
4858.000000	58.090853 
4857.000000	57.893347 
4856.000000	57.656335 
4855.000000	57.404708 
4854.000000	57.163977 
4853.000000	56.953763 
4852.000000	56.786704 
4851.000000	56.665205 
4850.000000	56.583237 
4849.000000	56.529283 
4848.000000	56.491351 
4847.000000	56.457757 
4846.000000	56.421446 
4845.000000	56.384396 
4844.000000	56.357502 
4843.000000	56.354951 
4842.000000	56.390976 
4841.000000	56.475877 
4840.000000	56.611108 
4839.000000	56.787467 
4838.000000	56.985020 
4837.000000	57.177138 
4836.000000	57.335615 
4835.000000	57.436776 
4834.000000	57.467007 
4833.000000	57.426166 
4832.000000	57.326984 
4831.000000	57.192111 
4830.000000	57.047939 
4829.000000	56.919193 
4828.000000	56.822729 
4827.000000	56.765937 
4826.000000	56.744623 
4825.000000	56.746006 
4824.000000	56.754064 
4823.000000	56.755614 
4822.000000	56.742739 
4821.000000	56.715059 
4820.000000	56.679558 
4819.000000	56.648039 
4818.000000	56.633377 
4817.000000	56.645107 
4816.000000	56.686282 
4815.000000	56.751680 
4814.000000	56.830239 
4813.000000	56.906247 
4812.000000	56.963372 
4811.000000	56.987810 
4810.000000	56.971764 
4809.000000	56.915140 
4808.000000	56.823825 
4807.000000	56.710529 
4806.000000	56.590914 
4805.000000	56.482529 
4804.000000	56.400275 
4803.000000	56.356430 
4802.000000	56.358933 
4801.000000	56.410956 
4800.000000	56.511116 
4799.000000	56.652617 
4798.000000	56.824064 
4797.000000	57.010221 
4796.000000	57.193899 
4795.000000	57.357025 
4794.000000	57.482528 
4793.000000	57.556676 
4792.000000	57.570409 
4791.000000	57.519984 
4790.000000	57.407164 
4789.000000	57.239723 
4788.000000	57.030200 
4787.000000	56.795406 
4786.000000	56.553721 
4785.000000	56.324672 
4784.000000	56.125354 
4783.000000	55.968785 
4782.000000	55.862355 
4781.000000	55.806303 
4780.000000	55.795907 
4779.000000	55.821704 
4778.000000	55.873346 
4777.000000	55.939579 
4776.000000	56.012511 
4775.000000	56.086540 
4774.000000	56.159543 
4773.000000	56.230640 
4772.000000	56.298756 
4771.000000	56.360864 
4770.000000	56.412243 
4769.000000	56.446838 
4768.000000	56.460380 
4767.000000	56.452012 
4766.000000	56.425833 
4765.000000	56.390404 
4764.000000	56.356692 
4763.000000	56.335330 
4762.000000	56.333279 
4761.000000	56.352043 
4760.000000	56.387948 
4759.000000	56.433010 
4758.000000	56.478333 
4757.000000	56.515789 
4756.000000	56.539750 
4755.000000	56.548094 
4754.000000	56.542658 
4753.000000	56.527829 
4752.000000	56.507921 
4751.000000	56.486868 
4750.000000	56.467485 
4749.000000	56.450963 
4748.000000	56.437301 
4747.000000	56.425952 
4746.000000	56.416797 
4745.000000	56.410002 
4744.000000	56.406140 
4743.000000	56.405687 
4742.000000	56.408381 
4741.000000	56.414318 
4740.000000	56.423878 
4739.000000	56.437587 
4738.000000	56.455874 
4737.000000	56.478857 
4736.000000	56.505942 
4735.000000	56.535005 
4734.000000	56.562876 
4733.000000	56.585860 
4732.000000	56.600713 
4731.000000	56.605815 
4730.000000	56.601381 
4729.000000	56.589341 
4728.000000	56.572771 
4727.000000	56.555366 
4726.000000	56.540465 
4725.000000	56.530261 
4724.000000	56.525850 
4723.000000	56.527304 
4722.000000	56.533980 
4721.000000	56.545138 
4720.000000	56.559848 
4719.000000	56.577491 
4718.000000	56.596541 
4717.000000	56.614613 
4716.000000	56.627678 
4715.000000	56.630778 
4714.000000	56.618571 
4713.000000	56.586861 
4712.000000	56.534218 
4711.000000	56.462883 
4710.000000	56.379055 
4709.000000	56.292247 
4708.000000	56.213331 
4707.000000	56.153011 
4706.000000	56.119036 
4705.000000	56.115412 
4704.000000	56.141066 
4703.000000	56.191229 
4702.000000	56.257987 
4701.000000	56.332945 
4700.000000	56.408238 
4699.000000	56.478333 
4698.000000	56.540203 
4697.000000	56.592941 
4696.000000	56.636786 
4695.000000	56.671905 
4694.000000	56.697487 
4693.000000	56.711792 
4692.000000	56.712770 
4691.000000	56.699132 
4690.000000	56.671595 
4689.000000	56.633448 
4688.000000	56.590867 
4687.000000	56.551194 
4686.000000	56.521630 
4685.000000	56.507349 
4684.000000	56.510448 
4683.000000	56.529688 
4682.000000	56.560850 
4681.000000	56.598305 
4680.000000	56.636500 
4679.000000	56.671023 
4678.000000	56.699776 
4677.000000	56.722784 
4676.000000	56.741833 
4675.000000	56.759047 
4674.000000	56.775975 
4673.000000	56.792926 
4672.000000	56.808543 
4671.000000	56.820631 
4670.000000	56.826114 
4669.000000	56.822562 
4668.000000	56.808495 
4667.000000	56.784582 
4666.000000	56.753230 
4665.000000	56.717991 
4664.000000	56.683588 
4663.000000	56.654906 
4662.000000	56.636142 
4661.000000	56.630039 
4660.000000	56.637120 
4659.000000	56.655526 
4658.000000	56.681394 
4657.000000	56.709504 
4656.000000	56.734466 
4655.000000	56.751775 
4654.000000	56.759047 
4653.000000	56.756138 
4652.000000	56.744813 
4651.000000	56.728172 
4650.000000	56.709718 
4649.000000	56.692457 
4648.000000	56.678557 
4647.000000	56.668686 
4646.000000	56.662487 
4645.000000	56.658530 
4644.000000	56.655287 
4643.000000	56.651043 
4642.000000	56.644630 
4641.000000	56.635260 
4640.000000	56.622743 
4639.000000	56.607151 
4638.000000	56.588363 
4637.000000	56.566691 
4636.000000	56.542801 
4635.000000	56.517720 
4634.000000	56.492805 
4633.000000	56.469845 
4632.000000	56.450915 
4631.000000	56.438207 
4630.000000	56.433820 
4629.000000	56.439447 
4628.000000	56.456089 
4627.000000	56.484174 
4626.000000	56.523251 
4625.000000	56.571531 
4624.000000	56.626391 
4623.000000	56.684279 
4622.000000	56.741523 
4621.000000	56.794786 
4620.000000	56.841278 
4619.000000	56.879711 
4618.000000	56.909394 
4617.000000	56.930661 
4616.000000	56.943464 
4615.000000	56.948161 
4614.000000	56.943607 
4613.000000	56.928086 
4612.000000	56.898927 
4611.000000	56.854224 
4610.000000	56.793308 
4609.000000	56.718015 
4608.000000	56.632757 
4607.000000	56.544446 
4606.000000	56.461763 
4605.000000	56.393790 
4604.000000	56.348299 
4603.000000	56.330442 
4602.000000	56.342554 
4601.000000	56.384062 
4600.000000	56.451272 
4599.000000	56.538081 
4598.000000	56.636619 
4597.000000	56.738281 
4596.000000	56.834101 
4595.000000	56.916022 
4594.000000	56.977224 
4593.000000	57.013702 
4592.000000	57.024312 
4591.000000	57.011461 
4590.000000	56.980991 
4589.000000	56.940507 
4588.000000	56.899213 
4587.000000	56.864738 
4586.000000	56.842613 
4585.000000	56.834220 
4584.000000	56.837415 
4583.000000	56.846356 
4582.000000	56.853532 
4581.000000	56.851124 
4580.000000	56.833267 
4579.000000	56.796216 
4578.000000	56.739354 
4577.000000	56.664776 
4576.000000	56.576943 
4575.000000	56.481385 
4574.000000	56.384611 
4573.000000	56.293177 
4572.000000	56.213974 
4571.000000	56.153559 
4570.000000	56.118035 
4569.000000	56.111764 
4568.000000	56.137156 
4567.000000	56.193590 
4566.000000	56.277251 
4565.000000	56.380128 
4564.000000	56.491637 
4563.000000	56.599688 
4562.000000	56.693029 
4561.000000	56.762766 
4560.000000	56.803894 
4559.000000	56.815958 
4558.000000	56.802725 
4557.000000	56.771636 
4556.000000	56.731271 
4555.000000	56.689763 
4554.000000	56.653428 
4553.000000	56.626105 
4552.000000	56.609177 
4551.000000	56.602168 
4550.000000	56.603717 
4549.000000	56.612277 
4548.000000	56.626224 
4547.000000	56.643939 
4546.000000	56.663584 
4545.000000	56.682896 
4544.000000	56.698679 
4543.000000	56.707549 
4542.000000	56.706500 
4541.000000	56.694102 
4540.000000	56.670141 
4539.000000	56.636953 
4538.000000	56.598901 
4537.000000	56.562447 
4536.000000	56.535315 
4535.000000	56.524777 
4534.000000	56.536269 
4533.000000	56.571602 
4532.000000	56.628751 
4531.000000	56.701064 
4530.000000	56.778192 
4529.000000	56.848335 
4528.000000	56.901025 
4527.000000	56.928706 
4526.000000	56.928324 
4525.000000	56.901693 
4524.000000	56.854844 
4523.000000	56.796717 
4522.000000	56.737112 
4521.000000	56.685352 
4520.000000	56.648278 
4519.000000	56.630039 
4518.000000	56.631422 
4517.000000	56.650733 
4516.000000	56.683826 
4515.000000	56.725573 
4514.000000	56.770205 
4513.000000	56.812453 
4512.000000	56.848192 
4511.000000	56.873464 
4510.000000	56.885838 
4509.000000	56.885647 
4508.000000	56.874418 
4507.000000	56.854414 
4506.000000	56.827640 
4505.000000	56.795787 
4504.000000	56.759405 
4503.000000	56.717896 
4502.000000	56.671428 
4501.000000	56.622576 
4500.000000	56.574487 
4499.000000	56.529951 
4498.000000	56.493830 
4497.000000	56.473231 
4496.000000	56.468033 
4495.000000	56.471419 
4494.000000	56.479215 
4493.000000	56.489920 
4492.000000	56.503462 
4491.000000	56.520795 
4490.000000	56.542181 
4489.000000	56.564879 
4488.000000	56.588077 
4487.000000	56.607508 
4486.000000	56.607556 
4485.000000	56.569075 
4484.000000	56.488108 
4483.000000	56.363511 
4482.000000	56.189346 
4481.000000	55.966210 
4480.000000	55.699324 
4479.000000	55.406188 
4478.000000	55.121350 
4477.000000	54.880142 
4476.000000	54.719924 
4475.000000	54.645299 
4474.000000	54.626870 
4473.000000	54.588627 
4472.000000	54.424142 
4471.000000	54.021191 
4470.000000	53.293657 
4469.000000	52.202248 
4468.000000	50.774979 
4467.000000	49.091148 
4466.000000	47.288942 
4465.000000	45.521759 
4464.000000	43.972468 
4463.000000	42.825698 
4462.000000	42.274403 
4461.000000	42.485475 
4460.000000	43.584513 
4459.000000	45.628309 
4458.000000	48.567485 
4457.000000	52.232265 
4456.000000	56.327033 
4455.000000	60.453510 
4454.000000	64.172601 
4453.000000	67.067742 
4452.000000	68.837165 
4451.000000	69.353914 
4450.000000	68.689012 
4449.000000	67.109918 
4448.000000	64.987754 
4447.000000	62.723350 
4446.000000	60.651755 
4445.000000	58.991217 
4444.000000	57.820534 
4443.000000	57.100772 
4442.000000	56.725311 
4441.000000	56.574344 
4440.000000	56.537961 
4439.000000	56.549477 
4438.000000	56.565976 
4437.000000	56.580090 
4436.000000	56.591176 
4435.000000	56.609892 
4434.000000	56.641936 
4433.000000	56.690335 
4432.000000	56.749868 
4431.000000	56.811428 
4430.000000	56.865835 
4429.000000	56.905627 
4428.000000	56.933164 
4427.000000	56.952667 
4426.000000	56.963753 
4425.000000	56.965303 
4424.000000	56.959724 
4423.000000	56.945037 
4422.000000	56.910204 
4421.000000	56.849789 
4420.000000	56.770205 
4419.000000	56.682205 
4418.000000	56.599640 
4417.000000	56.533741 
4416.000000	56.488847 
4415.000000	56.467080 
4414.000000	56.468057 
4413.000000	56.482219 
4412.000000	56.494665 
4411.000000	56.494164 
4410.000000	56.474900 
4409.000000	56.435775 
4408.000000	56.381464 
4407.000000	56.318974 
4406.000000	56.257796 
4405.000000	56.206321 
4404.000000	56.172299 
4403.000000	56.160926 
4402.000000	56.175541 
4401.000000	56.216883 
4400.000000	56.284070 
4399.000000	56.374287 
4398.000000	56.483483 
4397.000000	56.606674 
4396.000000	56.737780 
4395.000000	56.869435 
4394.000000	56.993389 
4393.000000	57.100892 
4392.000000	57.183837 
4391.000000	57.235956 
4390.000000	57.254123 
4389.000000	57.238936 
4388.000000	57.195210 
4387.000000	57.131409 
4386.000000	57.057523 
4385.000000	56.983613 
4384.000000	56.918406 
4383.000000	56.867885 
4382.000000	56.834959 
4381.000000	56.819415 
4380.000000	56.819152 
4379.000000	56.831216 
4378.000000	56.852674 
4377.000000	56.881451 
4376.000000	56.915831 
4375.000000	56.954836 
4374.000000	56.997275 
4373.000000	57.041454 
4372.000000	57.084512 
4371.000000	57.122421 
4370.000000	57.150578 
4369.000000	57.164549 
4368.000000	57.161092 
4367.000000	57.139253 
4366.000000	57.101178 
4365.000000	57.051348 
4364.000000	56.995987 
4363.000000	56.941556 
4362.000000	56.893658 
4361.000000	56.855583 
4360.000000	56.828093 
4359.000000	56.810092 
4358.000000	56.799554 
4357.000000	56.794619 
4356.000000	56.794309 
4355.000000	56.798672 
4354.000000	56.808471 
4353.000000	56.824421 
4352.000000	56.846094 
4351.000000	56.870841 
4350.000000	56.894254 
4349.000000	56.910634 
4348.000000	56.914687 
4347.000000	56.903052 
4346.000000	56.875467 
4345.000000	56.835126 
4344.000000	56.788372 
4343.000000	56.743049 
4342.000000	56.707072 
4341.000000	56.686115 
4340.000000	56.683206 
4339.000000	56.698203 
4338.000000	56.728267 
4337.000000	56.768727 
4336.000000	56.814146 
4335.000000	56.859302 
4334.000000	56.899690 
4333.000000	56.931805 
4332.000000	56.953263 
4331.000000	56.962871 
4330.000000	56.960654 
4329.000000	56.947851 
4328.000000	56.926941 
4327.000000	56.901407 
4326.000000	56.875824 
4325.000000	56.854462 
4324.000000	56.840991 
4323.000000	56.837296 
4322.000000	56.843400 
4321.000000	56.857371 
4320.000000	56.875824 
4319.000000	56.894826 
4318.000000	56.910896 
4317.000000	56.921839 
4316.000000	56.926965 
4315.000000	56.926918 
4314.000000	56.923389 
4313.000000	56.917858 
4312.000000	56.911110 
4311.000000	56.902909 
4310.000000	56.892013 
4309.000000	56.876444 
4308.000000	56.854200 
4307.000000	56.823873 
4306.000000	56.785297 
4305.000000	56.739401 
4304.000000	56.688451 
4303.000000	56.635260 
4302.000000	56.583142 
4301.000000	56.535482 
4300.000000	56.495761 
4299.000000	56.466889 
4298.000000	56.451463 
4297.000000	56.451129 
4296.000000	56.466555 
4295.000000	56.496906 
4294.000000	56.539821 
4293.000000	56.591129 
4292.000000	56.645774 
4291.000000	56.698226 
4290.000000	56.744098 
4289.000000	56.780433 
4288.000000	56.806564 
4287.000000	56.823873 
4286.000000	56.834959 
4285.000000	56.842589 
4284.000000	56.848621 
4283.000000	56.853485 
4282.000000	56.856322 
4281.000000	56.855607 
4280.000000	56.850147 
4279.000000	56.839752 
4278.000000	56.825804 
4277.000000	56.810998 
4276.000000	56.798648 
4275.000000	56.791853 
4274.000000	56.792378 
4273.000000	56.800556 
4272.000000	56.814765 
4271.000000	56.832647 
4270.000000	56.851506 
4269.000000	56.869769 
4268.000000	56.887149 
4267.000000	56.904697 
4266.000000	56.924223 
4265.000000	56.947374 
4264.000000	56.974792 
4263.000000	57.005715 
4262.000000	57.038235 
4261.000000	57.069158 
4260.000000	57.095170 
4259.000000	57.112646 
4258.000000	57.118916 
4257.000000	57.111763 
4256.000000	57.090210 
4255.000000	57.054400 
4254.000000	57.005834 
4253.000000	56.947398 
4252.000000	56.883025 
4251.000000	56.817293 
4250.000000	56.754875 
4249.000000	56.699800 
4248.000000	56.654834 
4247.000000	56.621146 
4246.000000	56.598281 
4245.000000	56.584048 
4244.000000	56.575536 
4243.000000	56.569337 
4242.000000	56.562900 
4241.000000	56.554341 
4240.000000	56.543636 
4239.000000	56.532049 
4238.000000	56.522178 
4237.000000	56.516480 
4236.000000	56.517243 
4235.000000	56.525659 
4234.000000	56.541562 
4233.000000	56.563377 
4232.000000	56.588649 
4231.000000	56.614589 
4230.000000	56.638669 
4229.000000	56.658816 
4228.000000	56.673908 
4227.000000	56.683707 
4226.000000	56.688666 
4225.000000	56.689620 
4224.000000	56.687259 
4223.000000	56.682038 
4222.000000	56.674647 
4221.000000	56.665563 
4220.000000	56.655454 
4219.000000	56.644654 
4218.000000	56.634068 
4217.000000	56.624245 
4216.000000	56.614923 
4215.000000	56.605482 
4214.000000	56.594824 
4213.000000	56.582212 
4212.000000	56.567668 
4211.000000	56.552124 
4210.000000	56.537771 
4209.000000	56.526708 
4208.000000	56.520652 
4207.000000	56.519770 
4206.000000	56.522178 
4205.000000	56.524467 
4204.000000	56.522393 
4203.000000	56.512260 
4202.000000	56.491804 
4201.000000	56.461477 
4200.000000	56.424522 
4199.000000	56.386256 
4198.000000	56.353044 
4197.000000	56.330776 
4196.000000	56.323480 
4195.000000	56.332588 
4194.000000	56.356620 
4193.000000	56.391930 
4192.000000	56.433463 
4191.000000	56.476116 
4190.000000	56.515550 
4189.000000	56.548213 
4188.000000	56.572127 
4187.000000	56.586146 
4186.000000	56.590342 
4185.000000	56.585383 
4184.000000	56.572389 
4183.000000	56.553578 
4182.000000	56.530833 
4181.000000	56.506013 
4180.000000	56.480145 
4179.000000	56.453609 
4178.000000	56.426358 
4177.000000	56.398081 
4176.000000	56.368803 
4175.000000	56.339144 
4174.000000	56.310725 
4173.000000	56.285858 
4172.000000	56.267619 
4171.000000	56.258845 
4170.000000	56.261658 
4169.000000	56.276869 
4168.000000	56.303381 
4167.000000	56.338429 
4166.000000	56.377458 
4165.000000	56.415247 
4164.000000	56.446719 
4163.000000	56.468343 
4162.000000	56.478381 
4161.000000	56.477689 
4160.000000	56.469178 
4159.000000	56.457233 
4158.000000	56.446909 
4157.000000	56.442093 
4156.000000	56.445121 
4155.000000	56.455111 
4154.000000	56.468772 
4153.000000	56.480526 
4152.000000	56.484460 
4151.000000	56.475782 
4150.000000	56.452035 
4149.000000	56.414413 
4148.000000	56.367444 
4147.000000	56.317830 
4146.000000	56.272840 
4145.000000	56.238627 
4144.000000	56.219005 
4143.000000	56.214880 
4142.000000	56.224584 
4141.000000	56.244683 
4140.000000	56.271409 
4139.000000	56.301379 
4138.000000	56.332397 
4137.000000	56.363344 
4136.000000	56.394004 
4135.000000	56.424212 
4134.000000	56.453442 
4133.000000	56.480145 
4132.000000	56.502437 
4131.000000	56.518483 
4130.000000	56.527256 
4129.000000	56.528902 
4128.000000	56.525564 
4127.000000	56.520938 
4126.000000	56.519579 
4125.000000	56.525826 
4124.000000	56.542706 
4123.000000	56.571102 
4122.000000	56.609416 
4121.000000	56.653904 
4120.000000	56.699275 
4119.000000	56.739950 
4118.000000	56.771135 
4117.000000	56.790208 
4116.000000	56.796717 
4115.000000	56.792616 
4114.000000	56.781840 
4113.000000	56.769466 
4112.000000	56.760764 
4111.000000	56.759762 
4110.000000	56.769180 
4109.000000	56.789088 
4108.000000	56.817793 
4107.000000	56.851100 
4106.000000	56.883883 
4105.000000	56.910157 
4104.000000	56.924533 
4103.000000	56.922674 
4102.000000	56.902360 
4101.000000	56.863927 
4100.000000	56.809949 
4099.000000	56.745266 
4098.000000	56.675767 
4097.000000	56.608271 
4096.000000	56.549286 
4095.000000	56.504225 
4094.000000	56.476616 
4093.000000	56.468129 
4092.000000	56.478595 
4091.000000	56.505727 
4090.000000	56.545782 
4089.000000	56.594252 
4088.000000	56.646513 
4087.000000	56.697726 
4086.000000	56.743693 
4085.000000	56.780743 
4084.000000	56.806921 
4083.000000	56.821393 
4082.000000	56.825637 
4081.000000	56.822848 
4080.000000	56.818151 
4079.000000	56.817650 
4078.000000	56.827139 
4077.000000	56.851196 
4076.000000	56.891298 
4075.000000	56.945919 
4074.000000	57.010126 
4073.000000	57.076621 
4072.000000	57.136797 
4071.000000	57.183051 
4070.000000	57.209587 
4069.000000	57.213711 
4068.000000	57.195973 
4067.000000	57.159996 
4066.000000	57.110857 
4065.000000	57.054138 
4064.000000	56.995034 
4063.000000	56.937766 
4062.000000	56.885886 
4061.000000	56.842231 
4060.000000	56.809282 
4059.000000	56.789064 
4058.000000	56.782960 
4057.000000	56.791424 
4056.000000	56.812453 
4055.000000	56.842541 
4054.000000	56.876778 
4053.000000	56.910324 
4052.000000	56.938600 
4051.000000	56.959009 
4050.000000	56.971240 
4049.000000	56.977272 
4048.000000	56.980538 
4047.000000	56.984853 
4046.000000	56.993293 
4045.000000	57.007122 
4044.000000	57.025361 
4043.000000	57.045388 
4042.000000	57.063865 
4041.000000	57.077550 
4040.000000	57.084393 
4039.000000	57.083916 
4038.000000	57.077193 
4037.000000	57.066321 
4036.000000	57.053446 
4035.000000	57.039880 
4034.000000	57.025575 
4033.000000	57.009339 
4032.000000	56.989240 
4031.000000	56.963205 
4030.000000	56.929564 
4029.000000	56.888222 
4028.000000	56.840848 
4027.000000	56.790709 
4026.000000	56.742453 
4025.000000	56.700778 
4024.000000	56.669759 
4023.000000	56.652045 
4022.000000	56.648135 
4021.000000	56.656193 
4020.000000	56.672358 
4019.000000	56.691598 
4018.000000	56.708550 
4017.000000	56.718349 
4016.000000	56.717848 
4015.000000	56.705904 
4014.000000	56.683993 
4013.000000	56.655526 
4012.000000	56.625509 
4011.000000	56.599450 
4010.000000	56.582403 
4009.000000	56.577920 
4008.000000	56.587314 
4007.000000	56.609296 
4006.000000	56.640386 
4005.000000	56.675553 
4004.000000	56.708955 
4003.000000	56.735396 
4002.000000	56.751012 
4001.000000	56.754207 
4000.000000	56.745648 
3999.000000	56.728196 
3998.000000	56.706070 
3997.000000	56.683945 
3996.000000	56.665873 
3995.000000	56.654524 
3994.000000	56.651234 
3993.000000	56.655430 
3992.000000	56.665301 
3991.000000	56.678223 
3990.000000	56.691861 
3989.000000	56.704258 
3988.000000	56.714105 
3987.000000	56.720900 
3986.000000	56.724834 
3985.000000	56.726861 
3984.000000	56.728219 
3983.000000	56.730151 
3982.000000	56.733441 
3981.000000	56.738066 
3980.000000	56.743144 
3979.000000	56.746983 
3978.000000	56.747364 
3977.000000	56.742024 
3976.000000	56.729316 
3975.000000	56.708574 
3974.000000	56.680583 
3973.000000	56.647348 
3972.000000	56.612086 
3971.000000	56.578207 
3970.000000	56.549048 
3969.000000	56.526970 
3968.000000	56.513381 
3967.000000	56.508421 
3966.000000	56.511330 
3965.000000	56.521177 
3964.000000	56.536817 
3963.000000	56.557011 
3962.000000	56.580233 
3961.000000	56.604409 
3960.000000	56.626605 
3959.000000	56.643319 
3958.000000	56.650948 
3957.000000	56.646513 
3956.000000	56.628823 
3955.000000	56.598782 
3954.000000	56.559586 
3953.000000	56.516385 
3952.000000	56.475114 
3951.000000	56.441545 
3950.000000	56.420063 
3949.000000	56.412792 
3948.000000	56.419539 
3947.000000	56.438040 
3946.000000	56.464767 
3945.000000	56.495475 
3944.000000	56.526541 
3943.000000	56.554770 
3942.000000	56.577348 
3941.000000	56.592011 
3940.000000	56.596899 
3939.000000	56.590843 
3938.000000	56.573247 
3937.000000	56.545019 
3936.000000	56.508684 
3935.000000	56.468439 
3934.000000	56.429743 
3933.000000	56.398320 
3932.000000	56.379127 
3931.000000	56.375217 
3930.000000	56.387114 
3929.000000	56.412434 
3928.000000	56.446433 
3927.000000	56.483030 
3926.000000	56.516075 
3925.000000	56.540656 
3924.000000	56.554150 
3923.000000	56.556129 
3922.000000	56.548833 
3921.000000	56.535887 
3920.000000	56.522297 
3919.000000	56.512713 
3918.000000	56.511116 
3917.000000	56.520223 
3916.000000	56.540918 
3915.000000	56.572365 
3914.000000	56.611990 
3913.000000	56.655955 
3912.000000	56.699752 
3911.000000	56.738996 
3910.000000	56.770038 
3909.000000	56.790447 
3908.000000	56.799387 
3907.000000	56.797504 
3906.000000	56.786561 
3905.000000	56.769347 
3904.000000	56.748509 
3903.000000	56.726288 
3902.000000	56.704354 
3901.000000	56.683826 
3900.000000	56.665730 
3899.000000	56.651115 
3898.000000	56.641316 
3897.000000	56.637763 
3896.000000	56.641602 
3895.000000	56.653356 
3894.000000	56.671929 
3893.000000	56.694960 
3892.000000	56.718897 
3891.000000	56.740021 
3890.000000	56.754851 
3889.000000	56.761217 
3888.000000	56.758379 
3887.000000	56.747412 
3886.000000	56.730842 
3885.000000	56.712126 
3884.000000	56.694579 
3883.000000	56.681084 
3882.000000	56.673550 
3881.000000	56.672573 
3880.000000	56.677937 
3879.000000	56.688666 
3878.000000	56.703329 
3877.000000	56.720018 
3876.000000	56.736755 
3875.000000	56.751346 
3874.000000	56.761741 
3873.000000	56.766080 
3872.000000	56.763219 
3871.000000	56.753039 
3870.000000	56.736469 
3869.000000	56.715559 
3868.000000	56.693077 
3867.000000	56.672096 
3866.000000	56.655645 
3865.000000	56.646132 
3864.000000	56.644988 
3863.000000	56.652617 
3862.000000	56.668281 
3861.000000	56.690502 
3860.000000	56.717276 
3859.000000	56.746268 
3858.000000	56.775188 
3857.000000	56.801891 
3856.000000	56.824898 
3855.000000	56.843161 
3854.000000	56.856441 
3853.000000	56.865096 
3852.000000	56.870031 
3851.000000	56.872582 
3850.000000	56.873750 
3849.000000	56.874108 
3848.000000	56.873321 
3847.000000	56.870436 
3846.000000	56.864261 
3845.000000	56.853675 
3844.000000	56.838321 
3843.000000	56.818771 
3842.000000	56.796693 
3841.000000	56.774520 
3840.000000	56.754875 
3839.000000	56.740069 
3838.000000	56.731414 
3837.000000	56.729292 
3836.000000	56.732773 
3835.000000	56.740164 
3834.000000	56.749415 
3833.000000	56.758832 
3832.000000	56.767439 
3831.000000	56.775355 
3830.000000	56.783413 
3829.000000	56.792998 
3828.000000	56.805467 
3827.000000	56.821560 
3826.000000	56.841063 
3825.000000	56.862592 
3824.000000	56.883883 
3823.000000	56.901931 
3822.000000	56.913733 
3821.000000	56.916856 
3820.000000	56.909990 
3819.000000	56.893444 
3818.000000	56.868886 
3817.000000	56.839203 
3816.000000	56.807851 
3815.000000	56.778216 
3814.000000	56.752753 
3813.000000	56.732821 
3812.000000	56.718754 
3811.000000	56.709790 
3810.000000	56.705093 
3809.000000	56.703758 
3808.000000	56.705641 
3807.000000	56.711173 
3806.000000	56.721663 
3805.000000	56.738162 
3804.000000	56.761622 
3803.000000	56.792116 
3802.000000	56.828713 
3801.000000	56.869149 
3800.000000	56.910657 
3799.000000	56.950235 
3798.000000	56.985068 
3797.000000	57.013201 
3796.000000	57.033419 
3795.000000	57.045555 
3794.000000	57.050228 
3793.000000	57.048511 
3792.000000	57.041978 
3791.000000	57.032132 
3790.000000	57.020759 
3789.000000	57.009363 
3788.000000	56.999468 
3787.000000	56.991839 
3786.000000	56.986880 
3785.000000	56.984162 
3784.000000	56.982421 
3783.000000	56.980061 
3782.000000	56.975078 
3781.000000	56.965899 
3780.000000	56.951761 
3779.000000	56.932830 
3778.000000	56.910324 
3777.000000	56.886124 
3776.000000	56.862425 
3775.000000	56.841158 
3774.000000	56.823325 
3773.000000	56.809186 
3772.000000	56.798315 
3771.000000	56.789898 
3770.000000	56.783103 
3769.000000	56.777572 
3768.000000	56.773543 
3767.000000	56.771588 
3766.000000	56.772351 
3765.000000	56.776380 
3764.000000	56.783771 
3763.000000	56.794047 
3762.000000	56.806063 
3761.000000	56.818103 
3760.000000	56.828212 
3759.000000	56.834769 
3758.000000	56.836533 
3757.000000	56.833148 
3756.000000	56.824827 
3755.000000	56.812596 
3754.000000	56.797814 
3753.000000	56.781983 
3752.000000	56.766510 
3751.000000	56.752634 
3750.000000	56.741547 
3749.000000	56.734061 
3748.000000	56.730914 
3747.000000	56.732702 
3746.000000	56.739521 
3745.000000	56.751108 
3744.000000	56.766414 
3743.000000	56.783795 
3742.000000	56.801223 
3741.000000	56.816554 
3740.000000	56.827974 
3739.000000	56.834411 
3738.000000	56.835842 
3737.000000	56.833410 
3736.000000	56.828999 
3735.000000	56.824278 
3734.000000	56.820631 
3733.000000	56.818413 
3732.000000	56.816744 
3731.000000	56.813883 
3730.000000	56.807947 
3729.000000	56.797671 
3728.000000	56.783103 
3727.000000	56.766080 
3726.000000	56.749892 
3725.000000	56.738781 
3724.000000	56.736660 
3723.000000	56.746125 
3722.000000	56.767416 
3721.000000	56.798076 
3720.000000	56.833481 
3719.000000	56.867575 
3718.000000	56.894183 
3717.000000	56.908440 
3716.000000	56.907773 
3715.000000	56.892013 
3714.000000	56.863212 
3713.000000	56.824970 
3712.000000	56.781244 
3711.000000	56.735658 
3710.000000	56.690859 
3709.000000	56.648445 
3708.000000	56.609392 
3707.000000	56.574559 
3706.000000	56.545233 
3705.000000	56.523084 
3704.000000	56.510281 
3703.000000	56.508517 
3702.000000	56.518888 
3701.000000	56.540775 
3700.000000	56.572198 
3699.000000	56.609606 
3698.000000	56.648874 
3697.000000	56.685733 
3696.000000	56.717014 
3695.000000	56.740856 
3694.000000	56.757187 
3693.000000	56.767344 
3692.000000	56.773591 
3691.000000	56.778311 
3690.000000	56.783699 
3689.000000	56.791043 
3688.000000	56.800842 
3687.000000	56.812810 
3686.000000	56.826019 
3685.000000	56.839275 
3684.000000	56.850981 
3683.000000	56.859493 
3682.000000	56.863236 
3681.000000	56.860971 
3680.000000	56.852173 
3679.000000	56.837034 
3678.000000	56.817030 
3677.000000	56.794357 
3676.000000	56.771516 
3675.000000	56.750869 
3674.000000	56.734085 
3673.000000	56.721711 
3672.000000	56.713342 
3671.000000	56.707668 
3670.000000	56.702947 
3669.000000	56.697869 
3668.000000	56.691837 
3667.000000	56.685304 
3666.000000	56.679320 
3665.000000	56.675338 
3664.000000	56.674551 
3663.000000	56.677412 
3662.000000	56.683278 
3661.000000	56.690883 
3660.000000	56.698513 
3659.000000	56.704807 
3658.000000	56.709241 
3657.000000	56.711721 
3656.000000	56.712794 
3655.000000	56.713151 
3654.000000	56.713414 
3653.000000	56.713747 
3652.000000	56.713676 
3651.000000	56.712508 
3650.000000	56.709384 
3649.000000	56.703305 
3648.000000	56.693720 
3647.000000	56.680703 
3646.000000	56.664967 
3645.000000	56.647849 
3644.000000	56.631183 
3643.000000	56.616997 
3642.000000	56.607246 
3641.000000	56.603336 
3640.000000	56.605982 
3639.000000	56.614947 
3638.000000	56.629514 
3637.000000	56.648445 
3636.000000	56.670570 
3635.000000	56.694698 
3634.000000	56.720399 
3633.000000	56.747841 
3632.000000	56.777691 
3631.000000	56.810498 
3630.000000	56.846427 
3629.000000	56.884646 
3628.000000	56.923365 
3627.000000	56.959915 
3626.000000	56.991362 
3625.000000	57.015156 
3624.000000	57.029986 
3623.000000	57.035565 
3622.000000	57.033109 
3621.000000	57.024574 
3620.000000	57.012462 
3619.000000	56.999206 
3618.000000	56.986737 
3617.000000	56.975936 
3616.000000	56.967377 
3615.000000	56.960415 
3614.000000	56.954026 
3613.000000	56.946730 
3612.000000	56.937146 
3611.000000	56.924152 
3610.000000	56.907296 
3609.000000	56.886887 
3608.000000	56.863927 
3607.000000	56.840157 
3606.000000	56.817841 
3605.000000	56.799197 
3604.000000	56.785893 
3603.000000	56.778717 
3602.000000	56.777238 
3601.000000	56.779766 
3600.000000	56.783652 
3599.000000	56.786203 
3598.000000	56.785368 
3597.000000	56.779813 
3596.000000	56.770062 
3595.000000	56.757688 
3594.000000	56.745505 
3593.000000	56.736350 
3592.000000	56.732821 
3591.000000	56.736660 
3590.000000	56.748175 
3589.000000	56.766390 
3588.000000	56.788873 
3587.000000	56.812667 
3586.000000	56.834411 
3585.000000	56.851291 
3584.000000	56.861400 
3583.000000	56.864023 
3582.000000	56.859827 
3581.000000	56.850457 
3580.000000	56.838345 
3579.000000	56.825828 
3578.000000	56.814956 
3577.000000	56.806850 
3576.000000	56.801605 
3575.000000	56.798434 
3574.000000	56.796026 
3573.000000	56.793212 
3572.000000	56.789517 
3571.000000	56.785321 
3570.000000	56.782078 
3569.000000	56.781744 
3568.000000	56.786251 
3567.000000	56.796669 
3566.000000	56.812834 
3565.000000	56.832981 
3564.000000	56.854009 
3563.000000	56.872177 
3562.000000	56.884026 
3561.000000	56.887030 
3560.000000	56.880187 
3559.000000	56.864452 
3558.000000	56.842350 
3557.000000	56.817531 
3556.000000	56.793999 
3555.000000	56.775188 
3554.000000	56.763386 
3553.000000	56.759262 
3552.000000	56.761908 
3551.000000	56.769061 
3550.000000	56.777691 
3549.000000	56.784415 
3548.000000	56.786370 
3547.000000	56.781291 
3546.000000	56.768369 
3545.000000	56.748008 
3544.000000	56.722116 
3543.000000	56.693530 
3542.000000	56.665587 
3541.000000	56.641602 
3540.000000	56.624412 
3539.000000	56.615662 
3538.000000	56.615805 
3537.000000	56.623959 
3536.000000	56.638073 
3535.000000	56.655430 
3534.000000	56.673121 
3533.000000	56.688237 
3532.000000	56.698632 
3531.000000	56.702947 
3530.000000	56.700921 
3529.000000	56.693172 
3528.000000	56.681203 
3527.000000	56.666755 
3526.000000	56.651663 
3525.000000	56.637239 
3524.000000	56.624150 
3523.000000	56.612253 
3522.000000	56.600522 
3521.000000	56.587433 
3520.000000	56.571149 
3519.000000	56.550478 
3518.000000	56.524848 
3517.000000	56.495213 
3516.000000	56.463575 
3515.000000	56.432962 
3514.000000	56.406569 
3513.000000	56.387662 
3512.000000	56.378316 
3511.000000	56.379795 
3510.000000	56.391763 
3509.000000	56.412959 
3508.000000	56.441259 
3507.000000	56.474161 
3506.000000	56.509089 
3505.000000	56.543302 
3504.000000	56.574344 
3503.000000	56.599736 
3502.000000	56.617188 
3501.000000	56.624674 
3500.000000	56.620764 
3499.000000	56.604838 
3498.000000	56.577682 
3497.000000	56.541371 
3496.000000	56.499433 
3495.000000	56.455898 
3494.000000	56.414937 
3493.000000	56.380152 
3492.000000	56.354045 
3491.000000	56.337594 
3490.000000	56.330490 
3489.000000	56.331205 
3488.000000	56.337785 
3487.000000	56.347918 
3486.000000	56.359648 
3485.000000	56.371283 
3484.000000	56.381893 
3483.000000	56.390643 
3482.000000	56.397366 
3481.000000	56.401968 
3480.000000	56.404662 
3479.000000	56.405925 
3478.000000	56.406426 
3477.000000	56.407022 
3476.000000	56.408405 
3475.000000	56.411147 
3474.000000	56.415271 
3473.000000	56.420421 
3472.000000	56.426024 
3471.000000	56.431746 
3470.000000	56.437540 
3469.000000	56.443810 
3468.000000	56.451225 
3467.000000	56.460571 
3466.000000	56.472349 
3465.000000	56.486463 
3464.000000	56.502056 
3463.000000	56.517410 
3462.000000	56.530618 
3461.000000	56.539797 
3460.000000	56.543397 
3459.000000	56.541013 
3458.000000	56.533122 
3457.000000	56.521463 
3456.000000	56.508302 
3455.000000	56.496047 
3454.000000	56.486797 
3453.000000	56.481909 
3452.000000	56.481909 
3451.000000	56.486153 
3450.000000	56.493377 
3449.000000	56.501483 
3448.000000	56.508088 
3447.000000	56.510829 
3446.000000	56.507873 
3445.000000	56.498217 
3444.000000	56.482052 
3443.000000	56.460714 
3442.000000	56.436324 
3441.000000	56.411480 
3440.000000	56.388664 
3439.000000	56.369757 
3438.000000	56.355714 
3437.000000	56.346750 
3436.000000	56.342458 
3435.000000	56.342005 
3434.000000	56.344771 
3433.000000	56.350636 
3432.000000	56.359744 
3431.000000	56.372308 
3430.000000	56.388306 
3429.000000	56.407308 
3428.000000	56.428074 
3427.000000	56.448602 
3426.000000	56.466698 
3425.000000	56.480455 
3424.000000	56.488919 
3423.000000	56.492304 
3422.000000	56.491851 
3421.000000	56.489419 
3420.000000	56.487035 
3419.000000	56.486320 
3418.000000	56.488084 
3417.000000	56.492280 
3416.000000	56.498169 
3415.000000	56.504654 
3414.000000	56.510734 
3413.000000	56.515717 
3412.000000	56.519508 
3411.000000	56.522440 
3410.000000	56.525182 
3409.000000	56.528139 
3408.000000	56.531643 
3407.000000	56.535434 
3406.000000	56.538772 
3405.000000	56.540560 
3404.000000	56.539797 
3403.000000	56.535625 
3402.000000	56.527543 
3401.000000	56.515741 
3400.000000	56.500864 
3399.000000	56.484270 
3398.000000	56.468033 
3397.000000	56.454563 
3396.000000	56.446027 
3395.000000	56.444239 
3394.000000	56.450295 
3393.000000	56.463932 
3392.000000	56.483626 
3391.000000	56.506776 
3390.000000	56.530046 
3389.000000	56.550145 
3388.000000	56.564402 
3387.000000	56.571006 
3386.000000	56.569409 
3385.000000	56.560516 
3384.000000	56.546092 
3383.000000	56.528472 
3382.000000	56.510066 
3381.000000	56.492877 
3380.000000	56.478500 
3379.000000	56.467795 
3378.000000	56.461143 
3377.000000	56.458711 
3376.000000	56.460237 
3375.000000	56.465339 
3374.000000	56.472992 
3373.000000	56.481766 
3372.000000	56.489968 
3371.000000	56.495523 
3370.000000	56.496667 
3369.000000	56.492018 
3368.000000	56.481337 
3367.000000	56.465482 
3366.000000	56.446695 
3365.000000	56.428170 
3364.000000	56.413793 
3363.000000	56.407308 
3362.000000	56.411576 
3361.000000	56.427979 
3360.000000	56.456089 
3359.000000	56.493854 
3358.000000	56.537699 
3357.000000	56.583166 
3356.000000	56.626105 
3355.000000	56.663131 
3354.000000	56.692099 
3353.000000	56.712341 
3352.000000	56.724405 
3351.000000	56.729626 
3350.000000	56.729888 
3349.000000	56.726717 
3348.000000	56.721258 
3347.000000	56.714010 
3346.000000	56.705236 
3345.000000	56.695032 
3344.000000	56.683754 
3343.000000	56.671786 
3342.000000	56.659984 
3341.000000	56.649136 
3340.000000	56.639742 
3339.000000	56.631851 
3338.000000	56.624984 
3337.000000	56.618094 
3336.000000	56.609940 
3335.000000	56.599426 
3334.000000	56.585836 
3333.000000	56.569004 
3332.000000	56.549453 
3331.000000	56.527972 
3330.000000	56.505966 
3329.000000	56.485056 
3328.000000	56.467103 
3327.000000	56.453704 
3326.000000	56.446433 
3325.000000	56.446647 
3324.000000	56.455302 
3323.000000	56.472587 
3322.000000	56.497812 
3321.000000	56.529378 
3320.000000	56.564879 
3319.000000	56.601166 
3318.000000	56.634926 
3317.000000	56.663084 
3316.000000	56.683683 
3315.000000	56.695961 
3314.000000	56.700563 
3313.000000	56.699419 
3312.000000	56.695365 
3311.000000	56.691455 
3310.000000	56.690216 
3309.000000	56.692934 
3308.000000	56.699514 
3307.000000	56.708550 
3306.000000	56.717562 
3305.000000	56.723284 
3304.000000	56.722927 
3303.000000	56.714415 
3302.000000	56.696939 
3301.000000	56.670975 
3300.000000	56.638550 
3299.000000	56.602358 
3298.000000	56.565499 
3297.000000	56.530833 
3296.000000	56.500697 
3295.000000	56.476545 
3294.000000	56.458926 
3293.000000	56.447768 
3292.000000	56.442189 
3291.000000	56.441330 
3290.000000	56.444096 
3289.000000	56.449699 
3288.000000	56.457185 
3287.000000	56.466150 
3286.000000	56.476187 
3285.000000	56.487131 
3284.000000	56.498718 
3283.000000	56.510996 
3282.000000	56.524038 
3281.000000	56.537842 
3280.000000	56.552362 
3279.000000	56.567478 
3278.000000	56.582832 
3277.000000	56.598019 
3276.000000	56.612467 
3275.000000	56.625795 
3274.000000	56.637573 
3273.000000	56.647706 
3272.000000	56.656169 
3271.000000	56.662821 
3270.000000	56.667375 
3269.000000	56.669688 
3268.000000	56.669497 
3267.000000	56.666636 
3266.000000	56.661343 
3265.000000	56.654405 
3264.000000	56.647109 
3263.000000	56.640744 
3262.000000	56.636619 
3261.000000	56.635761 
3260.000000	56.638312 
3259.000000	56.643748 
3258.000000	56.650614 
3257.000000	56.656932 
3256.000000	56.660532 
3255.000000	56.659436 
3254.000000	56.652164 
3253.000000	56.638026 
3252.000000	56.617450 
3251.000000	56.591963 
3250.000000	56.563854 
3249.000000	56.535816 
3248.000000	56.510663 
3247.000000	56.490993 
3246.000000	56.478643 
3245.000000	56.474423 
3244.000000	56.478381 
3243.000000	56.489562 
3242.000000	56.506109 
3241.000000	56.525874 
3240.000000	56.546568 
3239.000000	56.566452 
3238.000000	56.584119 
3237.000000	56.599044 
3236.000000	56.611490 
3235.000000	56.622433 
3234.000000	56.633019 
3233.000000	56.644320 
3232.000000	56.656837 
3231.000000	56.670236 
3230.000000	56.683421 
3229.000000	56.694483 
3228.000000	56.701135 
3227.000000	56.701397 
3226.000000	56.694006 
3225.000000	56.678867 
3224.000000	56.657099 
3223.000000	56.630873 
3222.000000	56.603145 
3221.000000	56.576704 
3220.000000	56.553792 
3219.000000	56.535649 
3218.000000	56.522202 
3217.000000	56.512451 
3216.000000	56.504774 
3215.000000	56.497621 
3214.000000	56.489825 
3213.000000	56.480932 
3212.000000	56.471419 
3211.000000	56.462264 
3210.000000	56.455016 
3209.000000	56.450891 
3208.000000	56.450796 
3207.000000	56.454944 
3206.000000	56.462764 
3205.000000	56.473374 
3204.000000	56.485509 
3203.000000	56.498026 
3202.000000	56.509923 
3201.000000	56.520509 
3200.000000	56.529521 
3199.000000	56.536817 
3198.000000	56.542587 
3197.000000	56.547069 
3196.000000	56.550455 
3195.000000	56.552720 
3194.000000	56.553530 
3193.000000	56.552338 
3192.000000	56.548380 
3191.000000	56.541109 
3190.000000	56.530523 
3189.000000	56.517481 
3188.000000	56.503677 
3187.000000	56.491589 
3186.000000	56.483840 
3185.000000	56.482625 
3184.000000	56.489372 
3183.000000	56.504297 
3182.000000	56.526112 
3181.000000	56.552410 
3180.000000	56.580162 
3179.000000	56.606364 
3178.000000	56.628513 
3177.000000	56.645154 
3176.000000	56.656098 
3175.000000	56.662082 
3174.000000	56.664538 
3173.000000	56.665015 
3172.000000	56.664729 
3171.000000	56.664180 
3170.000000	56.663012 
3169.000000	56.660389 
3168.000000	56.655001 
3167.000000	56.645679 
3166.000000	56.631517 
3165.000000	56.612420 
3164.000000	56.589245 
3163.000000	56.563568 
3162.000000	56.537961 
3161.000000	56.515192 
3160.000000	56.498169 
3159.000000	56.489157 
3158.000000	56.489753 
3157.000000	56.500363 
3156.000000	56.520199 
3155.000000	56.547164 
3154.000000	56.578302 
3153.000000	56.610155 
3152.000000	56.639313 
3151.000000	56.662726 
3150.000000	56.678318 
3149.000000	56.684947 
3148.000000	56.682920 
3147.000000	56.673645 
3146.000000	56.659388 
3145.000000	56.642746 
3144.000000	56.626415 
3143.000000	56.612634 
3142.000000	56.602931 
3141.000000	56.597995 
3140.000000	56.597685 
3139.000000	56.601262 
3138.000000	56.607532 
3137.000000	56.615519 
3136.000000	56.624221 
3135.000000	56.633353 
3134.000000	56.642746 
3133.000000	56.653070 
3132.000000	56.665039 
3131.000000	56.679487 
3130.000000	56.696963 
3129.000000	56.717419 
3128.000000	56.740307 
3127.000000	56.764316 
3126.000000	56.787729 
3125.000000	56.808471 
3124.000000	56.824541 
3123.000000	56.834363 
3122.000000	56.837129 
3121.000000	56.833028 
3120.000000	56.823229 
3119.000000	56.809449 
3118.000000	56.793785 
3117.000000	56.778144 
3116.000000	56.763863 
3115.000000	56.751561 
3114.000000	56.741333 
3113.000000	56.732940 
3112.000000	56.726121 
3111.000000	56.721115 
3110.000000	56.718325 
3109.000000	56.718516 
3108.000000	56.722068 
3107.000000	56.728696 
3106.000000	56.737256 
3105.000000	56.745505 
3104.000000	56.750774 
3103.000000	56.750464 
3102.000000	56.743144 
3101.000000	56.729054 
3100.000000	56.710505 
3099.000000	56.691455 
3098.000000	56.676888 
3097.000000	56.671333 
3096.000000	56.677865 
3095.000000	56.697106 
3094.000000	56.727409 
3093.000000	56.764984 
3092.000000	56.804919 
3091.000000	56.842231 
3090.000000	56.872916 
3089.000000	56.894540 
3088.000000	56.906390 
3087.000000	56.909108 
3086.000000	56.904315 
3085.000000	56.893634 
3084.000000	56.878662 
3083.000000	56.860637 
3082.000000	56.840515 
3081.000000	56.819272 
3080.000000	56.798386 
3079.000000	56.779789 
3078.000000	56.765604 
3077.000000	56.757998 
3076.000000	56.758356 
3075.000000	56.767296 
3074.000000	56.784129 
3073.000000	56.807088 
3072.000000	56.833577 
3071.000000	56.860375 
3070.000000	56.884384 
3069.000000	56.902956 
3068.000000	56.914114 
3067.000000	56.916809 
3066.000000	56.910848 
3065.000000	56.896710 
3064.000000	56.875443 
3063.000000	56.848669 
3062.000000	56.818437 
3061.000000	56.787014 
3060.000000	56.756639 
3059.000000	56.729769 
3058.000000	56.708240 
3057.000000	56.693387 
3056.000000	56.685638 
3055.000000	56.684446 
3054.000000	56.688523 
3053.000000	56.695771 
3052.000000	56.704211 
3051.000000	56.711602 
3050.000000	56.716847 
3049.000000	56.719398 
3048.000000	56.719899 
3047.000000	56.719732 
3046.000000	56.720805 
3045.000000	56.724786 
3044.000000	56.732559 
3043.000000	56.743884 
3042.000000	56.757187 
3041.000000	56.769704 
3040.000000	56.778240 
3039.000000	56.779813 
3038.000000	56.772518 
3037.000000	56.755995 
3036.000000	56.732058 
3035.000000	56.704163 
3034.000000	56.676816 
3033.000000	56.654763 
3032.000000	56.641864 
3031.000000	56.640362 
3030.000000	56.650352 
3029.000000	56.670045 
3028.000000	56.695914 
3027.000000	56.723785 
3026.000000	56.749701 
3025.000000	56.770730 
3024.000000	56.785154 
3023.000000	56.792688 
3022.000000	56.794190 
3021.000000	56.791138 
3020.000000	56.784963 
3019.000000	56.776714 
3018.000000	56.766891 
3017.000000	56.755471 
3016.000000	56.742215 
3015.000000	56.727075 
3014.000000	56.710529 
3013.000000	56.693649 
3012.000000	56.678056 
3011.000000	56.665515 
3010.000000	56.657361 
3009.000000	56.654429 
3008.000000	56.656646 
3007.000000	56.662797 
3006.000000	56.671023 
3005.000000	56.679034 
3004.000000	56.684827 
3003.000000	56.686902 
3002.000000	56.684947 
3001.000000	56.679344 
3000.000000	56.671547 
2999.000000	56.663346 
2998.000000	56.656551 
2997.000000	56.652736 
2996.000000	56.652688 
2995.000000	56.656432 
2994.000000	56.663250 
2993.000000	56.672310 
2992.000000	56.682562 
2991.000000	56.693100 
2990.000000	56.703186 
2989.000000	56.712412 
2988.000000	56.720447 
2987.000000	56.726956 
2986.000000	56.731319 
2985.000000	56.732869 
2984.000000	56.730914 
2983.000000	56.725001 
2982.000000	56.715011 
2981.000000	56.701302 
2980.000000	56.684923 
2979.000000	56.667423 
2978.000000	56.650280 
2977.000000	56.634902 
2976.000000	56.622219 
2975.000000	56.612467 
2974.000000	56.605148 
2973.000000	56.599426 
2972.000000	56.593847 
2971.000000	56.587290 
2970.000000	56.578755 
2969.000000	56.567978 
2968.000000	56.555223 
2967.000000	56.541275 
2966.000000	56.527304 
2965.000000	56.514692 
2964.000000	56.504583 
2963.000000	56.497907 
2962.000000	56.494927 
2961.000000	56.495594 
2960.000000	56.499242 
2959.000000	56.504917 
2958.000000	56.511497 
2957.000000	56.517958 
2956.000000	56.523585 
2955.000000	56.528091 
2954.000000	56.531381 
2953.000000	56.533837 
2952.000000	56.535840 
2951.000000	56.537556 
2950.000000	56.538653 
2949.000000	56.538367 
2948.000000	56.535577 
2947.000000	56.529045 
2946.000000	56.517910 
2945.000000	56.501960 
2944.000000	56.481814 
2943.000000	56.458926 
2942.000000	56.435441 
2941.000000	56.413626 
2940.000000	56.396007 
2939.000000	56.384277 
2938.000000	56.379699 
2937.000000	56.382489 
2936.000000	56.392407 
2935.000000	56.408405 
2934.000000	56.429100 
2933.000000	56.453037 
2932.000000	56.478834 
2931.000000	56.505131 
2930.000000	56.530714 
2929.000000	56.554651 
2928.000000	56.575965 
2927.000000	56.593871 
2926.000000	56.607723 
2925.000000	56.616806 
2924.000000	56.620550 
2923.000000	56.618404 
2922.000000	56.609988 
2921.000000	56.595301 
2920.000000	56.574678 
2919.000000	56.549096 
2918.000000	56.520199 
2917.000000	56.490015 
2916.000000	56.461167 
2915.000000	56.436157 
2914.000000	56.417226 
2913.000000	56.406044 
2912.000000	56.403207 
2911.000000	56.408262 
2910.000000	56.419777 
2909.000000	56.435728 
2908.000000	56.453776 
2907.000000	56.471800 
2906.000000	56.487965 
2905.000000	56.501102 
2904.000000	56.510591 
2903.000000	56.516194 
2902.000000	56.517910 
2901.000000	56.516242 
2900.000000	56.511783 
2899.000000	56.505513 
2898.000000	56.498408 
2897.000000	56.491541 
2896.000000	56.485772 
2895.000000	56.481838 
2894.000000	56.480050 
2893.000000	56.480288 
2892.000000	56.482267 
2891.000000	56.485438 
2890.000000	56.489372 
2889.000000	56.493830 
2888.000000	56.498718 
2887.000000	56.504058 
2886.000000	56.509804 
2885.000000	56.515550 
2884.000000	56.520509 
2883.000000	56.523656 
2882.000000	56.523895 
2881.000000	56.520414 
2880.000000	56.513023 
2879.000000	56.502246 
2878.000000	56.489539 
2877.000000	56.476807 
2876.000000	56.466150 
2875.000000	56.459474 
2874.000000	56.458115 
2873.000000	56.462812 
2872.000000	56.473612 
2871.000000	56.489944 
2870.000000	56.510686 
2869.000000	56.534385 
2868.000000	56.559586 
2867.000000	56.584858 
2866.000000	56.608700 
2865.000000	56.629848 
2864.000000	56.647181 
2863.000000	56.660008 
2862.000000	56.667757 
2861.000000	56.670379 
2860.000000	56.668353 
2859.000000	56.662511 
2858.000000	56.654167 
2857.000000	56.644821 
2856.000000	56.636023 
2855.000000	56.628942 
2854.000000	56.624341 
2853.000000	56.622290 
2852.000000	56.622362 
2851.000000	56.623673 
2850.000000	56.625270 
2849.000000	56.626319 
2848.000000	56.626558 
2847.000000	56.626343 
2846.000000	56.626915 
2845.000000	56.629920 
2844.000000	56.637120 
2843.000000	56.649923 
2842.000000	56.668972 
2841.000000	56.693720 
2840.000000	56.722545 
2839.000000	56.752991 
2838.000000	56.782341 
2837.000000	56.807971 
2836.000000	56.827998 
2835.000000	56.841635 
2834.000000	56.849122 
2833.000000	56.851625 
2832.000000	56.851124 
2831.000000	56.849694 
2830.000000	56.849384 
2829.000000	56.851649 
2828.000000	56.857228 
2827.000000	56.866121 
2826.000000	56.877613 
2825.000000	56.890726 
2824.000000	56.904125 
2823.000000	56.916546 
2822.000000	56.926941 
2821.000000	56.934475 
2820.000000	56.938529 
2819.000000	56.938719 
2818.000000	56.934809 
2817.000000	56.926918 
2816.000000	56.915521 
2815.000000	56.901454 
2814.000000	56.885933 
2813.000000	56.870508 
2812.000000	56.856751 
2811.000000	56.846022 
2810.000000	56.839084 
2809.000000	56.836128 
2808.000000	56.836748 
2807.000000	56.840085 
2806.000000	56.844735 
2805.000000	56.849575 
2804.000000	56.853842 
2803.000000	56.857395 
2802.000000	56.860423 
2801.000000	56.863570 
2800.000000	56.867599 
2799.000000	56.872987 
2798.000000	56.879687 
2797.000000	56.887102 
2796.000000	56.894159 
2795.000000	56.899547 
2794.000000	56.902146 
2793.000000	56.901264 
2792.000000	56.896996 
2791.000000	56.890130 
2790.000000	56.882119 
2789.000000	56.874799 
2788.000000	56.870126 
2787.000000	56.869530 
2786.000000	56.873559 
2785.000000	56.881809 
2784.000000	56.892657 
2783.000000	56.903839 
2782.000000	56.912875 
2781.000000	56.917405 
2780.000000	56.915783 
2779.000000	56.907510 
2778.000000	56.893372 
2777.000000	56.875133 
2776.000000	56.855106 
2775.000000	56.835722 
2774.000000	56.819009 
2773.000000	56.806254 
2772.000000	56.797862 
2771.000000	56.793427 
2770.000000	56.792235 
2769.000000	56.793451 
2768.000000	56.796407 
2767.000000	56.800651 
2766.000000	56.805896 
2765.000000	56.811714 
2764.000000	56.817221 
2763.000000	56.821298 
2762.000000	56.822705 
2761.000000	56.820559 
2760.000000	56.814312 
2759.000000	56.804394 
2758.000000	56.791973 
2757.000000	56.779098 
2756.000000	56.767988 
2755.000000	56.760740 
2754.000000	56.758737 
2753.000000	56.762385 
2752.000000	56.771016 
2751.000000	56.783032 
2750.000000	56.796312 
2749.000000	56.808519 
2748.000000	56.817650 
2747.000000	56.822252 
2746.000000	56.821656 
2745.000000	56.816101 
2744.000000	56.806349 
2743.000000	56.793785 
2742.000000	56.780004 
2741.000000	56.766700 
2740.000000	56.755161 
2739.000000	56.746053 
2738.000000	56.739425 
2737.000000	56.734442 
2736.000000	56.729769 
2735.000000	56.723833 
2734.000000	56.715321 
2733.000000	56.703543 
2732.000000	56.688714 
2731.000000	56.671929 
2730.000000	56.655168 
2729.000000	56.640672 
2728.000000	56.630659 
2727.000000	56.626605 
2726.000000	56.628990 
2725.000000	56.637120 
2724.000000	56.649374 
2723.000000	56.663513 
2722.000000	56.677103 
2721.000000	56.688165 
2720.000000	56.695413 
2719.000000	56.698441 
2718.000000	56.697559 
2717.000000	56.693482 
2716.000000	56.686949 
2715.000000	56.678557 
2714.000000	56.668472 
2713.000000	56.656670 
2712.000000	56.642985 
2711.000000	56.627559 
2710.000000	56.611108 
2709.000000	56.595063 
2708.000000	56.581377 
2707.000000	56.572365 
2706.000000	56.569957 
2705.000000	56.575441 
2704.000000	56.588935 
2703.000000	56.609272 
2702.000000	56.634044 
2701.000000	56.660032 
2700.000000	56.683850 
2699.000000	56.702518 
2698.000000	56.713986 
2697.000000	56.717514 
2696.000000	56.713366 
2695.000000	56.703042 
2694.000000	56.688475 
2693.000000	56.672048 
2692.000000	56.655812 
2691.000000	56.641578 
2690.000000	56.630635 
2689.000000	56.623792 
2688.000000	56.621551 
2687.000000	56.624054 
2686.000000	56.631207 
2685.000000	56.642508 
2684.000000	56.657171 
2683.000000	56.674098 
2682.000000	56.691813 
2681.000000	56.708598 
2680.000000	56.722569 
2679.000000	56.732082 
2678.000000	56.735897 
2677.000000	56.733417 
2676.000000	56.724739 
2675.000000	56.710672 
2674.000000	56.692719 
2673.000000	56.672716 
2672.000000	56.652784 
2671.000000	56.634736 
2670.000000	56.619977 
2669.000000	56.609392 
2668.000000	56.603288 
2667.000000	56.601357 
2666.000000	56.603002 
2665.000000	56.607270 
2664.000000	56.613373 
2663.000000	56.620669 
2662.000000	56.628775 
2661.000000	56.637620 
2660.000000	56.647181 
2659.000000	56.657695 
2658.000000	56.669211 
2657.000000	56.681632 
2656.000000	56.694912 
2655.000000	56.708693 
2654.000000	56.722640 
2653.000000	56.736159 
2652.000000	56.748652 
2651.000000	56.759214 
2650.000000	56.766819 
2649.000000	56.770157 
2648.000000	56.768083 
2647.000000	56.759715 
2646.000000	56.744790 
2645.000000	56.724095 
2644.000000	56.699585 
2643.000000	56.674242 
2642.000000	56.651592 
2641.000000	56.635189 
2640.000000	56.628012 
2639.000000	56.631517 
2638.000000	56.645393 
2637.000000	56.667399 
2636.000000	56.693863 
2635.000000	56.720757 
2634.000000	56.744313 
2633.000000	56.761980 
2632.000000	56.772971 
2631.000000	56.778311 
2630.000000	56.780505 
2629.000000	56.782698 
2628.000000	56.787633 
2627.000000	56.797099 
2626.000000	56.811189 
2625.000000	56.828713 
2624.000000	56.846952 
2623.000000	56.862998 
2622.000000	56.873917 
2621.000000	56.877994 
2620.000000	56.874895 
2619.000000	56.865453 
2618.000000	56.851959 
2617.000000	56.837129 
2616.000000	56.823992 
2615.000000	56.815242 
2614.000000	56.812596 
2613.000000	56.817030 
2612.000000	56.828236 
2611.000000	56.844997 
2610.000000	56.865215 
2609.000000	56.886506 
2608.000000	56.906342 
2607.000000	56.922650 
2606.000000	56.933856 
2605.000000	56.939220 
2604.000000	56.938743 
2603.000000	56.933069 
2602.000000	56.923127 
2601.000000	56.910133 
2600.000000	56.895661 
2599.000000	56.881284 
2598.000000	56.868624 
2597.000000	56.859254 
2596.000000	56.854462 
2595.000000	56.854987 
2594.000000	56.861019 
2593.000000	56.872010 
2592.000000	56.886577 
2591.000000	56.902790 
2590.000000	56.918191 
2589.000000	56.930398 
2588.000000	56.937456 
2587.000000	56.938123 
2586.000000	56.932234 
2585.000000	56.920647 
2584.000000	56.905055 
2583.000000	56.887674 
2582.000000	56.870865 
2581.000000	56.856679 
2580.000000	56.846380 
2579.000000	56.840419 
2578.000000	56.838297 
2577.000000	56.838917 
2576.000000	56.840753 
2575.000000	56.842184 
2574.000000	56.842041 
2573.000000	56.839632 
2572.000000	56.835079 
2571.000000	56.829071 
2570.000000	56.822872 
2569.000000	56.817770 
2568.000000	56.814908 
2567.000000	56.815004 
2566.000000	56.818175 
2565.000000	56.823825 
2564.000000	56.830906 
2563.000000	56.838083 
2562.000000	56.844115 
2561.000000	56.848001 
2560.000000	56.849479 
2559.000000	56.848669 
2558.000000	56.846523 
2557.000000	56.844353 
2556.000000	56.843757 
2555.000000	56.846094 
2554.000000	56.852245 
2553.000000	56.862425 
2552.000000	56.876158 
2551.000000	56.892395 
2550.000000	56.909728 
2549.000000	56.926584 
2548.000000	56.941795 
2547.000000	56.954622 
2546.000000	56.964588 
2545.000000	56.971740 
2544.000000	56.976318 
2543.000000	56.978607 
2542.000000	56.979036 
2541.000000	56.977844 
2540.000000	56.975293 
2539.000000	56.971573 
2538.000000	56.966924 
2537.000000	56.961488 
2536.000000	56.955432 
2535.000000	56.948637 
2534.000000	56.940984 
2533.000000	56.932091 
2532.000000	56.921577 
2531.000000	56.909084 
2530.000000	56.894516 
2529.000000	56.878137 
2528.000000	56.860685 
2527.000000	56.843304 
2526.000000	56.827569 
2525.000000	56.815028 
2524.000000	56.807088 
2523.000000	56.804609 
2522.000000	56.807923 
2521.000000	56.816506 
2520.000000	56.829094 
2519.000000	56.843972 
2518.000000	56.859207 
2517.000000	56.872773 
2516.000000	56.882786 
2515.000000	56.887817 
2514.000000	56.886863 
2513.000000	56.879687 
2512.000000	56.866526 
2511.000000	56.848216 
2510.000000	56.826210 
2509.000000	56.802487 
2508.000000	56.779098 
2507.000000	56.758141 
2506.000000	56.741166 
2505.000000	56.729388 
2504.000000	56.723070 
2503.000000	56.721568 
2502.000000	56.723499 
2501.000000	56.727147 
2500.000000	56.730866 
2499.000000	56.733322 
2498.000000	56.733989 
2497.000000	56.733059 
2496.000000	56.731295 
2495.000000	56.729650 
2494.000000	56.728959 
2493.000000	56.729841 
2492.000000	56.732225 
2491.000000	56.735873 
2490.000000	56.740164 
2489.000000	56.744718 
2488.000000	56.749296 
2487.000000	56.754183 
2486.000000	56.759810 
2485.000000	56.766748 
2484.000000	56.775498 
2483.000000	56.786179 
2482.000000	56.798458 
2481.000000	56.811618 
2480.000000	56.824660 
2479.000000	56.836557 
2478.000000	56.846618 
2477.000000	56.854391 
2476.000000	56.859755 
2475.000000	56.862950 
2474.000000	56.864547 
2473.000000	56.865143 
2472.000000	56.865215 
2471.000000	56.865167 
2470.000000	56.865191 
2469.000000	56.865167 
2468.000000	56.864643 
2467.000000	56.863021 
2466.000000	56.859660 
2465.000000	56.853938 
2464.000000	56.845688 
2463.000000	56.835007 
2462.000000	56.822562 
2461.000000	56.809377 
2460.000000	56.796550 
2459.000000	56.785082 
2458.000000	56.775808 
2457.000000	56.769227 
2456.000000	56.765413 
2455.000000	56.764078 
2454.000000	56.765007 
2453.000000	56.767845 
2452.000000	56.772446 
2451.000000	56.778764 
2450.000000	56.786823 
2449.000000	56.796431 
2448.000000	56.807184 
2447.000000	56.818246 
2446.000000	56.828594 
2445.000000	56.836986 
2444.000000	56.842398 
2443.000000	56.844258 
2442.000000	56.842517 
2441.000000	56.837844 
2440.000000	56.831359 
2439.000000	56.824374 
2438.000000	56.818246 
2437.000000	56.814026 
2436.000000	56.812143 
2435.000000	56.812572 
2434.000000	56.814908 
2433.000000	56.818556 
2432.000000	56.822872 
2431.000000	56.827378 
2430.000000	56.831741 
2429.000000	56.835913 
2428.000000	56.839871 
2427.000000	56.843757 
2426.000000	56.847548 
2425.000000	56.851339 
2424.000000	56.855177 
2423.000000	56.859230 
2422.000000	56.863737 
2421.000000	56.868958 
2420.000000	56.875014 
2419.000000	56.881713 
2418.000000	56.888556 
2417.000000	56.894612 
2416.000000	56.898808 
2415.000000	56.900024 
2414.000000	56.897377 
2413.000000	56.890559 
2412.000000	56.879806 
2411.000000	56.865906 
2410.000000	56.849813 
2409.000000	56.832599 
2408.000000	56.815218 
2407.000000	56.798481 
2406.000000	56.782841 
2405.000000	56.768846 
2404.000000	56.756925 
2403.000000	56.747841 
2402.000000	56.742310 
2401.000000	56.740951 
2400.000000	56.743979 
2399.000000	56.751084 
2398.000000	56.761217 
2397.000000	56.772708 
2396.000000	56.783676 
2395.000000	56.792235 
2394.000000	56.797075 
2393.000000	56.797790 
2392.000000	56.794881 
2391.000000	56.789708 
2390.000000	56.784057 
2389.000000	56.779670 
2388.000000	56.778049 
2387.000000	56.779909 
2386.000000	56.785345 
2385.000000	56.793594 
2384.000000	56.803321 
2383.000000	56.812953 
2382.000000	56.820964 
2381.000000	56.826019 
2380.000000	56.827116 
2379.000000	56.823825 
2378.000000	56.816244 
2377.000000	56.805181 
2376.000000	56.791782 
2375.000000	56.777739 
2374.000000	56.764960 
2373.000000	56.755375 
2372.000000	56.750726 
2371.000000	56.752109 
2370.000000	56.759810 
2369.000000	56.773257 
2368.000000	56.790924 
2367.000000	56.810545 
2366.000000	56.829595 
2365.000000	56.845641 
2364.000000	56.856822 
2363.000000	56.862306 
2362.000000	56.862115 
2361.000000	56.857347 
2360.000000	56.849837 
2359.000000	56.841635 
2358.000000	56.834721 
2357.000000	56.830477 
2356.000000	56.829524 
2355.000000	56.831789 
2354.000000	56.836605 
2353.000000	56.843233 
2352.000000	56.850743 
2351.000000	56.858777 
2350.000000	56.867003 
2349.000000	56.875371 
2348.000000	56.883525 
2347.000000	56.890964 
2346.000000	56.896638 
2345.000000	56.899213 
2344.000000	56.897187 
2343.000000	56.889533 
2342.000000	56.875729 
2341.000000	56.856369 
2340.000000	56.832838 
2339.000000	56.807398 
2338.000000	56.782627 
2337.000000	56.760883 
2336.000000	56.743955 
2335.000000	56.732630 
2334.000000	56.726717 
2333.000000	56.725454 
2332.000000	56.727528 
2331.000000	56.731748 
2330.000000	56.737279 
2329.000000	56.744122 
2328.000000	56.752538 
2327.000000	56.763267 
2326.000000	56.776952 
2325.000000	56.793832 
2324.000000	56.813406 
2323.000000	56.834602 
2322.000000	56.855869 
2321.000000	56.875181 
2320.000000	56.890869 
2319.000000	56.901597 
2318.000000	56.906747 
2317.000000	56.906604 
2316.000000	56.902098 
2315.000000	56.894779 
2314.000000	56.886434 
2313.000000	56.878709 
2312.000000	56.873011 
2311.000000	56.870055 
2310.000000	56.869864 
2309.000000	56.871843 
2308.000000	56.874990 
2307.000000	56.878256 
2306.000000	56.880688 
2305.000000	56.881833 
2304.000000	56.881642 
2303.000000	56.880545 
2302.000000	56.879067 
2301.000000	56.877875 
2300.000000	56.877112 
2299.000000	56.876468 
2298.000000	56.875228 
2297.000000	56.872153 
2296.000000	56.866216 
2295.000000	56.856608 
2294.000000	56.843161 
2293.000000	56.826448 
2292.000000	56.807804 
2291.000000	56.788969 
2290.000000	56.771969 
2289.000000	56.758260 
2288.000000	56.748962 
2287.000000	56.744527 
2286.000000	56.744551 
2285.000000	56.748127 
2284.000000	56.753945 
2283.000000	56.760501 
2282.000000	56.766366 
2281.000000	56.770467 
2280.000000	56.772112 
2279.000000	56.771206 
2278.000000	56.768226 
2277.000000	56.764054 
2276.000000	56.759858 
2275.000000	56.756711 
2274.000000	56.755471 
2273.000000	56.756639 
2272.000000	56.760191 
2271.000000	56.765556 
2270.000000	56.772017 
2269.000000	56.778502 
2268.000000	56.784176 
2267.000000	56.788301 
2266.000000	56.790637 
2265.000000	56.791353 
2264.000000	56.790757 
2263.000000	56.789278 
2262.000000	56.787371 
2261.000000	56.785392 
2260.000000	56.783413 
2259.000000	56.781482 
2258.000000	56.779575 
2257.000000	56.777834 
2256.000000	56.776404 
2255.000000	56.775617 
2254.000000	56.775832 
2253.000000	56.777453 
2252.000000	56.780815 
2251.000000	56.785988 
2250.000000	56.792593 
2249.000000	56.799888 
2248.000000	56.806850 
2247.000000	56.812238 
2246.000000	56.814956 
2245.000000	56.814455 
2244.000000	56.810688 
2243.000000	56.804251 
2242.000000	56.796288 
2241.000000	56.788253 
2240.000000	56.781530 
2239.000000	56.777238 
2238.000000	56.775903 
2237.000000	56.777548 
2236.000000	56.781601 
2235.000000	56.787252 
2234.000000	56.793498 
2233.000000	56.799435 
2232.000000	56.804275 
2231.000000	56.807303 
2230.000000	56.807899 
2229.000000	56.805562 
2228.000000	56.799817 
2227.000000	56.790280 
2226.000000	56.776976 
2225.000000	56.760454 
2224.000000	56.741714 
2223.000000	56.722211 
2222.000000	56.703686 
2221.000000	56.687736 
2220.000000	56.675553 
2219.000000	56.667733 
2218.000000	56.664085 
2217.000000	56.663751 
2216.000000	56.665539 
2215.000000	56.668233 
2214.000000	56.670761 
2213.000000	56.672692 
2212.000000	56.674075 
2211.000000	56.675314 
2210.000000	56.676959 
2209.000000	56.679511 
2208.000000	56.682968 
2207.000000	56.686830 
2206.000000	56.690144 
2205.000000	56.691670 
2204.000000	56.690430 
2203.000000	56.685853 
2202.000000	56.678080 
2201.000000	56.668066 
2200.000000	56.657361 
2199.000000	56.647729 
2198.000000	56.640887 
2197.000000	56.637954 
2196.000000	56.639170 
2195.000000	56.643724 
2194.000000	56.649899 
2193.000000	56.655573 
2192.000000	56.658768 
2191.000000	56.658244 
2190.000000	56.653928 
2189.000000	56.646919 
2188.000000	56.639242 
2187.000000	56.633329 
2186.000000	56.631493 
2185.000000	56.635212 
2184.000000	56.644845 
2183.000000	56.659579 
2182.000000	56.677699 
2181.000000	56.696987 
2180.000000	56.715297 
2179.000000	56.730771 
2178.000000	56.742238 
2177.000000	56.749296 
2176.000000	56.751990 
2175.000000	56.750535 
2174.000000	56.745386 
2173.000000	56.736850 
2172.000000	56.725502 
2171.000000	56.712055 
2170.000000	56.697583 
2169.000000	56.683278 
2168.000000	56.670570 
2167.000000	56.660461 
2166.000000	56.653642 
2165.000000	56.649971 
2164.000000	56.648874 
2163.000000	56.649589 
2162.000000	56.651091 
2161.000000	56.652808 
2160.000000	56.654644 
2159.000000	56.657099 
2158.000000	56.660890 
2157.000000	56.667017 
2156.000000	56.676268 
2155.000000	56.689190 
2154.000000	56.705617 
2153.000000	56.724953 
2152.000000	56.746268 
2151.000000	56.768274 
2150.000000	56.789755 
2149.000000	56.809544 
2148.000000	56.826734 
2147.000000	56.840324 
2146.000000	56.849622 
2145.000000	56.853795 
2144.000000	56.852364 
2143.000000	56.845116 
2142.000000	56.832385 
2141.000000	56.815147 
2140.000000	56.795001 
2139.000000	56.774306 
2138.000000	56.755542 
2137.000000	56.740951 
2136.000000	56.732058 
2135.000000	56.729435 
2134.000000	56.732368 
2133.000000	56.739258 
2132.000000	56.747817 
2131.000000	56.755638 
2130.000000	56.761026 
2129.000000	56.763052 
2128.000000	56.762194 
2127.000000	56.759715 
2126.000000	56.757521 
2125.000000	56.757545 
2124.000000	56.760931 
2123.000000	56.767940 
2122.000000	56.777572 
2121.000000	56.787943 
2120.000000	56.796765 
2119.000000	56.801867 
2118.000000	56.801986 
2117.000000	56.796908 
2116.000000	56.787824 
2115.000000	56.776833 
2114.000000	56.766510 
2113.000000	56.759333 
2112.000000	56.757068 
2111.000000	56.760430 
2110.000000	56.768918 
2109.000000	56.780958 
2108.000000	56.794381 
2107.000000	56.806969 
2106.000000	56.817030 
2105.000000	56.823563 
2104.000000	56.826543 
2103.000000	56.826782 
2102.000000	56.825327 
2101.000000	56.823325 
2100.000000	56.821537 
2099.000000	56.820321 
2098.000000	56.819725 
2097.000000	56.819462 
2096.000000	56.819272 
2095.000000	56.818962 
2094.000000	56.818628 
2093.000000	56.818580 
2092.000000	56.819224 
2091.000000	56.821227 
2090.000000	56.824994 
2089.000000	56.830978 
2088.000000	56.838989 
2087.000000	56.848478 
2086.000000	56.858348 
2085.000000	56.867074 
2084.000000	56.873011 
2083.000000	56.874561 
2082.000000	56.870770 
2081.000000	56.861519 
2080.000000	56.847548 
2079.000000	56.830501 
2078.000000	56.812310 
2077.000000	56.795120 
2076.000000	56.780552 
2075.000000	56.769537 
2074.000000	56.762075 
2073.000000	56.757402 
2072.000000	56.754207 
2071.000000	56.751203 
2070.000000	56.747436 
2069.000000	56.742525 
2068.000000	56.736850 
2067.000000	56.731271 
2066.000000	56.726932 
2065.000000	56.724667 
2064.000000	56.724905 
2063.000000	56.727480 
2062.000000	56.731772 
2061.000000	56.736922 
2060.000000	56.742167 
2059.000000	56.747174 
2058.000000	56.752157 
2057.000000	56.757760 
2056.000000	56.764960 
2055.000000	56.774425 
2054.000000	56.786561 
2053.000000	56.800985 
2052.000000	56.816887 
2051.000000	56.832885 
2050.000000	56.847667 
2049.000000	56.859827 
2048.000000	56.868386 
2047.000000	56.872653 
2046.000000	56.872582 
2045.000000	56.868386 
2044.000000	56.860494 
2043.000000	56.849527 
2042.000000	56.836175 
2041.000000	56.821084 
2040.000000	56.805109 
2039.000000	56.789207 
2038.000000	56.774258 
2037.000000	56.761288 
2036.000000	56.751346 
2035.000000	56.745147 
2034.000000	56.743025 
2033.000000	56.744694 
2032.000000	56.749367 
2031.000000	56.755638 
2030.000000	56.761813 
2029.000000	56.766033 
2028.000000	56.767034 
2027.000000	56.763935 
2026.000000	56.756758 
2025.000000	56.746363 
2024.000000	56.734371 
2023.000000	56.722664 
2022.000000	56.713128 
2021.000000	56.707262 
2020.000000	56.705760 
2019.000000	56.708431 
2018.000000	56.714177 
2017.000000	56.721472 
2016.000000	56.728458 
2015.000000	56.733584 
2014.000000	56.735610 
2013.000000	56.734085 
2012.000000	56.729102 
2011.000000	56.721353 
2010.000000	56.711792 
2009.000000	56.701517 
2008.000000	56.691575 
2007.000000	56.682705 
2006.000000	56.675386 
2005.000000	56.669759 
2004.000000	56.665730 
2003.000000	56.663203 
2002.000000	56.661796 
2001.000000	56.661343 
2000.000000	56.661629 
1999.000000	56.662440 
1998.000000	56.663799 
1997.000000	56.665730 
1996.000000	56.668281 
1995.000000	56.671380 
1994.000000	56.674695 
1993.000000	56.677746 
1992.000000	56.679916 
1991.000000	56.680369 
1990.000000	56.678462 
1989.000000	56.673526 
1988.000000	56.665396 
1987.000000	56.654214 
1986.000000	56.640362 
1985.000000	56.624579 
1984.000000	56.607818 
1983.000000	56.591272 
1982.000000	56.576132 
1981.000000	56.563568 
1980.000000	56.554841 
1979.000000	56.550884 
1978.000000	56.552171 
1977.000000	56.558871 
1976.000000	56.570553 
1975.000000	56.586074 
1974.000000	56.603837 
1973.000000	56.621861 
1972.000000	56.638216 
1971.000000	56.651115 
1970.000000	56.659317 
1969.000000	56.662321 
1968.000000	56.660294 
1967.000000	56.654214 
1966.000000	56.645250 
1965.000000	56.634759 
1964.000000	56.623864 
1963.000000	56.613349 
1962.000000	56.603527 
1961.000000	56.594419 
1960.000000	56.585907 
1959.000000	56.578040 
1958.000000	56.571245 
1957.000000	56.566143 
1956.000000	56.563520 
1955.000000	56.564092 
1954.000000	56.568241 
1953.000000	56.575798 
1952.000000	56.586122 
1951.000000	56.598043 
1950.000000	56.610131 
1949.000000	56.621050 
1948.000000	56.629776 
1947.000000	56.635856 
1946.000000	56.639337 
1945.000000	56.640553 
1944.000000	56.640195 
1943.000000	56.638741 
1942.000000	56.636595 
1941.000000	56.633806 
1940.000000	56.630206 
1939.000000	56.625342 
1938.000000	56.618857 
1937.000000	56.610488 
1936.000000	56.600379 
1935.000000	56.588983 
1934.000000	56.577205 
1933.000000	56.566333 
1932.000000	56.557846 
1931.000000	56.553196 
1930.000000	56.553459 
1929.000000	56.559228 
1928.000000	56.570315 
1927.000000	56.585669 
1926.000000	56.603360 
1925.000000	56.620860 
1924.000000	56.635403 
1923.000000	56.644535 
1922.000000	56.646561 
1921.000000	56.640815 
1920.000000	56.628131 
1919.000000	56.610608 
1918.000000	56.591129 
1917.000000	56.573104 
1916.000000	56.559491 
1915.000000	56.552457 
1914.000000	56.552910 
1913.000000	56.560420 
1912.000000	56.573390 
1911.000000	56.589627 
1910.000000	56.606650 
1909.000000	56.622338 
1908.000000	56.635046 
1907.000000	56.644034 
1906.000000	56.649112 
1905.000000	56.650567 
1904.000000	56.648778 
1903.000000	56.644225 
1902.000000	56.637287 
1901.000000	56.628322 
1900.000000	56.617975 
1899.000000	56.607151 
1898.000000	56.597137 
1897.000000	56.589436 
1896.000000	56.585597 
1895.000000	56.586718 
1894.000000	56.593322 
1893.000000	56.605005 
1892.000000	56.620573 
1891.000000	56.638145 
1890.000000	56.655550 
1889.000000	56.670808 
1888.000000	56.682515 
1887.000000	56.690144 
1886.000000	56.693863 
1885.000000	56.694602 
1884.000000	56.693625 
1883.000000	56.692266 
1882.000000	56.691527 
1881.000000	56.691908 
1880.000000	56.693291 
1879.000000	56.695032 
1878.000000	56.696152 
1877.000000	56.695556 
1876.000000	56.692361 
1875.000000	56.685924 
1874.000000	56.676077 
1873.000000	56.663274 
1872.000000	56.648445 
1871.000000	56.632804 
1870.000000	56.617617 
1869.000000	56.604194 
1868.000000	56.593465 
1867.000000	56.585860 
1866.000000	56.581354 
1865.000000	56.579256 
1864.000000	56.578803 
1863.000000	56.579160 
1862.000000	56.579780 
1861.000000	56.580400 
1860.000000	56.580996 
1859.000000	56.581878 
1858.000000	56.583309 
1857.000000	56.585264 
1856.000000	56.587481 
1855.000000	56.589341 
1854.000000	56.590175 
1853.000000	56.589436 
1852.000000	56.586885 
1851.000000	56.582784 
1850.000000	56.577992 
1849.000000	56.573820 
1848.000000	56.571602 
1847.000000	56.572532 
1846.000000	56.577372 
1845.000000	56.586194 
1844.000000	56.598377 
1843.000000	56.612896 
1842.000000	56.628489 
1841.000000	56.643795 
1840.000000	56.657600 
1839.000000	56.668996 
1838.000000	56.677389 
1837.000000	56.682538 
1836.000000	56.684589 
1835.000000	56.683945 
1834.000000	56.681370 
1833.000000	56.677675 
1832.000000	56.673860 
1831.000000	56.670784 
1830.000000	56.669163 
1829.000000	56.669497 
1828.000000	56.672072 
1827.000000	56.676816 
1826.000000	56.683492 
1825.000000	56.691765 
1824.000000	56.701421 
1823.000000	56.712222 
1822.000000	56.723952 
1821.000000	56.736350 
1820.000000	56.749010 
1819.000000	56.761050 
1818.000000	56.771492 
1817.000000	56.779098 
1816.000000	56.782722 
1815.000000	56.781506 
1814.000000	56.775212 
1813.000000	56.764483 
1812.000000	56.750631 
1811.000000	56.735515 
1810.000000	56.721282 
1809.000000	56.709837 
1808.000000	56.702637 
1807.000000	56.700229 
1806.000000	56.702017 
1805.000000	56.706809 
1804.000000	56.712794 
1803.000000	56.717991 
1802.000000	56.720805 
1801.000000	56.720185 
1800.000000	56.716012 
1799.000000	56.708788 
1798.000000	56.699442 
1797.000000	56.689190 
1796.000000	56.679177 
1795.000000	56.670212 
1794.000000	56.662750 
1793.000000	56.656742 
1792.000000	56.652021 
1791.000000	56.648254 
1790.000000	56.645250 
1789.000000	56.643009 
1788.000000	56.641459 
1787.000000	56.640672 
1786.000000	56.640625 
1785.000000	56.641340 
1784.000000	56.642603 
1783.000000	56.644082 
1782.000000	56.645441 
1781.000000	56.646323 
1780.000000	56.646466 
1779.000000	56.645345 
1778.000000	56.642508 
1777.000000	56.637477 
1776.000000	56.629633 
1775.000000	56.618642 
1774.000000	56.604409 
1773.000000	56.587529 
1772.000000	56.569170 
1771.000000	56.551218 
1770.000000	56.535696 
1769.000000	56.524658 
1768.000000	56.519627 
1767.000000	56.521105 
1766.000000	56.528210 
1765.000000	56.538915 
1764.000000	56.550407 
1763.000000	56.559467 
1762.000000	56.563305 
1761.000000	56.560158 
1760.000000	56.549692 
1759.000000	56.532931 
1758.000000	56.512045 
1757.000000	56.489801 
1756.000000	56.468749 
1755.000000	56.450819 
1754.000000	56.436634 
1753.000000	56.425905 
1752.000000	56.417250 
1751.000000	56.408858 
1750.000000	56.399226 
1749.000000	56.387424 
1748.000000	56.373620 
1747.000000	56.359148 
1746.000000	56.346130 
1745.000000	56.336736 
1744.000000	56.332755 
1743.000000	56.334733 
1742.000000	56.341934 
1741.000000	56.352353 
1740.000000	56.363248 
1739.000000	56.371665 
1738.000000	56.375360 
1737.000000	56.373333 
1736.000000	56.365823 
1735.000000	56.354498 
1734.000000	56.341767 
1733.000000	56.330275 
1732.000000	56.322216 
1731.000000	56.318926 
1730.000000	56.320667 
1729.000000	56.326651 
1728.000000	56.335306 
1727.000000	56.344771 
1726.000000	56.353402 
1725.000000	56.359934 
1724.000000	56.363725 
1723.000000	56.364655 
1722.000000	56.363105 
1721.000000	56.359791 
1720.000000	56.355476 
1719.000000	56.350612 
1718.000000	56.345558 
1717.000000	56.340265 
1716.000000	56.334328 
1715.000000	56.327247 
1714.000000	56.318688 
1713.000000	56.308674 
1712.000000	56.297969 
1711.000000	56.287932 
1710.000000	56.280446 
1709.000000	56.277346 
1708.000000	56.280112 
1707.000000	56.289339 
1706.000000	56.304621 
1705.000000	56.324553 
1704.000000	56.347155 
1703.000000	56.370186 
1702.000000	56.391525 
1701.000000	56.409406 
1700.000000	56.422972 
1699.000000	56.432008 
1698.000000	56.436896 
1697.000000	56.438493 
1696.000000	56.437683 
1695.000000	56.435418 
1694.000000	56.432366 
1693.000000	56.428861 
1692.000000	56.425118 
1691.000000	56.421279 
1690.000000	56.417202 
1689.000000	56.412696 
1688.000000	56.407666 
1687.000000	56.402111 
1686.000000	56.396198 
1685.000000	56.389975 
1684.000000	56.383633 
1683.000000	56.377243 
1682.000000	56.370592 
1681.000000	56.363368 
1680.000000	56.354856 
1679.000000	56.344699 
1678.000000	56.332612 
1677.000000	56.318926 
1676.000000	56.304574 
1675.000000	56.290936 
1674.000000	56.279611 
1673.000000	56.272125 
1672.000000	56.269383 
1671.000000	56.271624 
1670.000000	56.278181 
1669.000000	56.287980 
1668.000000	56.299519 
1667.000000	56.311535 
1666.000000	56.323146 
1665.000000	56.334137 
1664.000000	56.344914 
1663.000000	56.356143 
1662.000000	56.368398 
1661.000000	56.381940 
1660.000000	56.396508 
1659.000000	56.411457 
1658.000000	56.425738 
1657.000000	56.438446 
1656.000000	56.448817 
1655.000000	56.456589 
1654.000000	56.461811 
1653.000000	56.464791 
1652.000000	56.466102 
1651.000000	56.466078 
1650.000000	56.464934 
1649.000000	56.463003 
1648.000000	56.460404 
1647.000000	56.457471 
1646.000000	56.454658 
1645.000000	56.452727 
1644.000000	56.452536 
1643.000000	56.454873 
1642.000000	56.460452 
1641.000000	56.469559 
1640.000000	56.482195 
1639.000000	56.498003 
1638.000000	56.516313 
1637.000000	56.536221 
1636.000000	56.556534 
1635.000000	56.576061 
1634.000000	56.593322 
1633.000000	56.607007 
1632.000000	56.616067 
1631.000000	56.619811 
1630.000000	56.618237 
1629.000000	56.611943 
1628.000000	56.602287 
1627.000000	56.590938 
1626.000000	56.579709 
1625.000000	56.570100 
1624.000000	56.563115 
1623.000000	56.559109 
1622.000000	56.557750 
1621.000000	56.558275 
1620.000000	56.559729 
1619.000000	56.561350 
1618.000000	56.562805 
1617.000000	56.564140 
1616.000000	56.565713 
1615.000000	56.567811 
1614.000000	56.570553 
1613.000000	56.573653 
1612.000000	56.576490 
1611.000000	56.578183 
1610.000000	56.577801 
1609.000000	56.574630 
1608.000000	56.568479 
1607.000000	56.559658 
1606.000000	56.548857 
1605.000000	56.537032 
1604.000000	56.525182 
1603.000000	56.514024 
1602.000000	56.503915 
1601.000000	56.494879 
1600.000000	56.486654 
1599.000000	56.478929 
1598.000000	56.471729 
1597.000000	56.465458 
1596.000000	56.461191 
1595.000000	56.460356 
1594.000000	56.464481 
1593.000000	56.474685 
1592.000000	56.491231 
1591.000000	56.513404 
1590.000000	56.539249 
1589.000000	56.565952 
1588.000000	56.590151 
1587.000000	56.608605 
1586.000000	56.618809 
1585.000000	56.619572 
1584.000000	56.611371 
1583.000000	56.596016 
1582.000000	56.576514 
1581.000000	56.556367 
1580.000000	56.538987 
1579.000000	56.526947 
1578.000000	56.521272 
1577.000000	56.521344 
1576.000000	56.525111 
1575.000000	56.529784 
1574.000000	56.532454 
1573.000000	56.531023 
1572.000000	56.524658 
1571.000000	56.514286 
1570.000000	56.501913 
1569.000000	56.490516 
1568.000000	56.482911 
1567.000000	56.481456 
1566.000000	56.487226 
1565.000000	56.500101 
1564.000000	56.518673 
1563.000000	56.540298 
1562.000000	56.561589 
1561.000000	56.578969 
1560.000000	56.589269 
1559.000000	56.590437 
1558.000000	56.581878 
1557.000000	56.564784 
1556.000000	56.541752 
1555.000000	56.516551 
1554.000000	56.493425 
1553.000000	56.476330 
1552.000000	56.468105 
1551.000000	56.470251 
1550.000000	56.482768 
1549.000000	56.504154 
1548.000000	56.531834 
1547.000000	56.562352 
1546.000000	56.592249 
1545.000000	56.618237 
1544.000000	56.637811 
1543.000000	56.649327 
1542.000000	56.652474 
1541.000000	56.647920 
1540.000000	56.637334 
1539.000000	56.622982 
1538.000000	56.607341 
1537.000000	56.592965 
1536.000000	56.581783 
1535.000000	56.575131 
1534.000000	56.573343 
1533.000000	56.575989 
1532.000000	56.581926 
1531.000000	56.589722 
1530.000000	56.597709 
1529.000000	56.604480 
1528.000000	56.608986 
1527.000000	56.610751 
1526.000000	56.609797 
1525.000000	56.606459 
1524.000000	56.601095 
1523.000000	56.594061 
1522.000000	56.585669 
1521.000000	56.576085 
1520.000000	56.565475 
1519.000000	56.554126 
1518.000000	56.542706 
1517.000000	56.532216 
1516.000000	56.523776 
1515.000000	56.518411 
1514.000000	56.516861 
1513.000000	56.519055 
1512.000000	56.524252 
1511.000000	56.530952 
1510.000000	56.537127 
1509.000000	56.540656 
1508.000000	56.539487 
1507.000000	56.532359 
1506.000000	56.518936 
1505.000000	56.499958 
1504.000000	56.477022 
1503.000000	56.452417 
1502.000000	56.428480 
1501.000000	56.407165 
1500.000000	56.389498 
1499.000000	56.375718 
1498.000000	56.365466 
1497.000000	56.358075 
1496.000000	56.353402 
1495.000000	56.351780 
1494.000000	56.354141 
1493.000000	56.361532 
1492.000000	56.374812 
1491.000000	56.393837 
1490.000000	56.417703 
1489.000000	56.444263 
1488.000000	56.470870 
1487.000000	56.494808 
1486.000000	56.514048 
1485.000000	56.527447 
1484.000000	56.534862 
1483.000000	56.537294 
1482.000000	56.536102 
1481.000000	56.532597 
1480.000000	56.527662 
1479.000000	56.521654 
1478.000000	56.514525 
1477.000000	56.506252 
1476.000000	56.496953 
1475.000000	56.487345 
1474.000000	56.478500 
1473.000000	56.471562 
1472.000000	56.467437 
1471.000000	56.466484 
1470.000000	56.468176 
1469.000000	56.471538 
1468.000000	56.475305 
1467.000000	56.478476 
1466.000000	56.480526 
1465.000000	56.481647 
1464.000000	56.482648 
1463.000000	56.484651 
1462.000000	56.488800 
1461.000000	56.495690 
1460.000000	56.504988 
1459.000000	56.515455 
1458.000000	56.525397 
1457.000000	56.532740 
1456.000000	56.535744 
1455.000000	56.533026 
1454.000000	56.524395 
1453.000000	56.510448 
1452.000000	56.492447 
1451.000000	56.472086 
1450.000000	56.451010 
1449.000000	56.430721 
1448.000000	56.412363 
1447.000000	56.396627 
1446.000000	56.383895 
1445.000000	56.374406 
1444.000000	56.368446 
1443.000000	56.366300 
1442.000000	56.368303 
1441.000000	56.374526 
1440.000000	56.384658 
1439.000000	56.397747 
1438.000000	56.412196 
1437.000000	56.425952 
1436.000000	56.436657 
1435.000000	56.442165 
1434.000000	56.441116 
1433.000000	56.433081 
1432.000000	56.418824 
1431.000000	56.400060 
1430.000000	56.379032 
1429.000000	56.358218 
1428.000000	56.339812 
1427.000000	56.325268 
1426.000000	56.315326 
1425.000000	56.309938 
1424.000000	56.308674 
1423.000000	56.310820 
1422.000000	56.315803 
1421.000000	56.323289 
1420.000000	56.332993 
1419.000000	56.344461 
1418.000000	56.357073 
1417.000000	56.369805 
1416.000000	56.381225 
1415.000000	56.389617 
1414.000000	56.393384 
1413.000000	56.391549 
1412.000000	56.384015 
1411.000000	56.371665 
1410.000000	56.356358 
1409.000000	56.340575 
1408.000000	56.327295 
1407.000000	56.318974 
1406.000000	56.317377 
1405.000000	56.322884 
1404.000000	56.334900 
1403.000000	56.351327 
1402.000000	56.369376 
1401.000000	56.385922 
1400.000000	56.398129 
1399.000000	56.404161 
1398.000000	56.403207 
1397.000000	56.396031 
1396.000000	56.384325 
1395.000000	56.370782 
1394.000000	56.358265 
1393.000000	56.349420 
1392.000000	56.346106 
1391.000000	56.348991 
1390.000000	56.357645 
1389.000000	56.370353 
1388.000000	56.384754 
1387.000000	56.398034 
1386.000000	56.407690 
1385.000000	56.412124 
1384.000000	56.410813 
1383.000000	56.404447 
1382.000000	56.394600 
1381.000000	56.383275 
1380.000000	56.372427 
1379.000000	56.363463 
1378.000000	56.356978 
1377.000000	56.352806 
1376.000000	56.350183 
1375.000000	56.348204 
1374.000000	56.346082 
1373.000000	56.343412 
1372.000000	56.340289 
1371.000000	56.337094 
1370.000000	56.334519 
1369.000000	56.333327 
1368.000000	56.334137 
1367.000000	56.336998 
1366.000000	56.341600 
1365.000000	56.347155 
1364.000000	56.352782 
1363.000000	56.357598 
1362.000000	56.360936 
1361.000000	56.362628 
1360.000000	56.363058 
1359.000000	56.363010 
1358.000000	56.363773 
1357.000000	56.366896 
1356.000000	56.373620 
1355.000000	56.384658 
1354.000000	56.400132 
1353.000000	56.419348 
1352.000000	56.440901 
1351.000000	56.462836 
1350.000000	56.483101 
1349.000000	56.499576 
1348.000000	56.510829 
1347.000000	56.515765 
1346.000000	56.514024 
1345.000000	56.505656 
1344.000000	56.491374 
1343.000000	56.472158 
1342.000000	56.449317 
1341.000000	56.424403 
1340.000000	56.399154 
1339.000000	56.375288 
1338.000000	56.354546 
1337.000000	56.338286 
1336.000000	56.327271 
1335.000000	56.321382 
1334.000000	56.319522 
1333.000000	56.319808 
1332.000000	56.319975 
1331.000000	56.317782 
1330.000000	56.311583 
1329.000000	56.300687 
1328.000000	56.285595 
1327.000000	56.267666 
1326.000000	56.249070 
1325.000000	56.231975 
1324.000000	56.218481 
1323.000000	56.209874 
1322.000000	56.206774 
1321.000000	56.209039 
1320.000000	56.215906 
1319.000000	56.226253 
1318.000000	56.238698 
1317.000000	56.251740 
1316.000000	56.263828 
1315.000000	56.273341 
1314.000000	56.279039 
1313.000000	56.279873 
1312.000000	56.275725 
1311.000000	56.267309 
1310.000000	56.256508 
1309.000000	56.246018 
1308.000000	56.238842 
1307.000000	56.237483 
1306.000000	56.243562 
1305.000000	56.257128 
1304.000000	56.276559 
1303.000000	56.298518 
1302.000000	56.319141 
1301.000000	56.334638 
1300.000000	56.342244 
1299.000000	56.340909 
1298.000000	56.331515 
1297.000000	56.316423 
1296.000000	56.298971 
1295.000000	56.282472 
1294.000000	56.269526 
1293.000000	56.261491 
1292.000000	56.258630 
1291.000000	56.260061 
1290.000000	56.264543 
1289.000000	56.270551 
1288.000000	56.277060 
1287.000000	56.283307 
1286.000000	56.288790 
1285.000000	56.293416 
1284.000000	56.297230 
1283.000000	56.300234 
1282.000000	56.302452 
1281.000000	56.303930 
1280.000000	56.304979 
1279.000000	56.306028 
1278.000000	56.307816 
1277.000000	56.311082 
1276.000000	56.316447 
1275.000000	56.324434 
1274.000000	56.334805 
1273.000000	56.346797 
1272.000000	56.359052 
1271.000000	56.369900 
1270.000000	56.377553 
1269.000000	56.380629 
1268.000000	56.378221 
1267.000000	56.370258 
1266.000000	56.357336 
1265.000000	56.340360 
1264.000000	56.320595 
1263.000000	56.299352 
1262.000000	56.277942 
1261.000000	56.257152 
1260.000000	56.237649 
1259.000000	56.220006 
1258.000000	56.204557 
1257.000000	56.191611 
1256.000000	56.181263 
1255.000000	56.173706 
1254.000000	56.169033 
1253.000000	56.167292 
1252.000000	56.168508 
1251.000000	56.172776 
1250.000000	56.180191 
1249.000000	56.191110 
1248.000000	56.205534 
1247.000000	56.223487 
1246.000000	56.244659 
1245.000000	56.268572 
1244.000000	56.294322 
1243.000000	56.320714 
1242.000000	56.346607 
1241.000000	56.370806 
1240.000000	56.392526 
1239.000000	56.411147 
1238.000000	56.426262 
1237.000000	56.437468 
1236.000000	56.444644 
1235.000000	56.447625 
1234.000000	56.446361 
1233.000000	56.441211 
1232.000000	56.433057 
1231.000000	56.423401 
1230.000000	56.414055 
1229.000000	56.406998 
1228.000000	56.404161 
1227.000000	56.406712 
1226.000000	56.414747 
1225.000000	56.427073 
1224.000000	56.441259 
1223.000000	56.453990 
1222.000000	56.461787 
1221.000000	56.461691 
1220.000000	56.452202 
1219.000000	56.433796 
1218.000000	56.408953 
1217.000000	56.381702 
1216.000000	56.356692 
1215.000000	56.338214 
1214.000000	56.329274 
1213.000000	56.330680 
1212.000000	56.341290 
1211.000000	56.358337 
1210.000000	56.378269 
1209.000000	56.397604 
1208.000000	56.413960 
1207.000000	56.426286 
1206.000000	56.434988 
1205.000000	56.441211 
1204.000000	56.446552 
1203.000000	56.452202 
1202.000000	56.458783 
1201.000000	56.465935 
1200.000000	56.472921 
1199.000000	56.478738 
1198.000000	56.482863 
1197.000000	56.485056 
1196.000000	56.485700 
1195.000000	56.485533 
1194.000000	56.485009 
1193.000000	56.484413 
1192.000000	56.483554 
1191.000000	56.481933 
1190.000000	56.479096 
1189.000000	56.474590 
1188.000000	56.468725 
1187.000000	56.462001 
1186.000000	56.455564 
1185.000000	56.450390 
1184.000000	56.447029 
1183.000000	56.445407 
1182.000000	56.444644 
1181.000000	56.443524 
1180.000000	56.440901 
1179.000000	56.435871 
1178.000000	56.428360 
1177.000000	56.419062 
1176.000000	56.409120 
1175.000000	56.399869 
1174.000000	56.392168 
1173.000000	56.386208 
1172.000000	56.381249 
1171.000000	56.376004 
1170.000000	56.368827 
1169.000000	56.358098 
1168.000000	56.342697 
1167.000000	56.322526 
1166.000000	56.298303 
1165.000000	56.271457 
1164.000000	56.243872 
1163.000000	56.217622 
1162.000000	56.194686 
1161.000000	56.176376 
1160.000000	56.163311 
1159.000000	56.155610 
1158.000000	56.152582 
1157.000000	56.152915 
1156.000000	56.155061 
1155.000000	56.157255 
1154.000000	56.158423 
1153.000000	56.157994 
1152.000000	56.156277 
1151.000000	56.154108 
1150.000000	56.152820 
1149.000000	56.153798 
1148.000000	56.157803 
1147.000000	56.164908 
1146.000000	56.174492 
1145.000000	56.185650 
1144.000000	56.197261 
1143.000000	56.208920 
1142.000000	56.221127 
1141.000000	56.235527 
1140.000000	56.254529 
1139.000000	56.280517 
1138.000000	56.314921 
1137.000000	56.357741 
1136.000000	56.407094 
1135.000000	56.459808 
1134.000000	56.511998 
1133.000000	56.559848 
1132.000000	56.600952 
1131.000000	56.633973 
1130.000000	56.658625 
1129.000000	56.675362 
1128.000000	56.684803 
1127.000000	56.687521 
1126.000000	56.683921 
1125.000000	56.674027 
1124.000000	56.658267 
1123.000000	56.636857 
1122.000000	56.610178 
1121.000000	56.578516 
1120.000000	56.542515 
1119.000000	56.503033 
1118.000000	56.461429 
1117.000000	56.419444 
1116.000000	56.379318 
1115.000000	56.343388 
1114.000000	56.314134 
1113.000000	56.293034 
1112.000000	56.281042 
1111.000000	56.278371 
1110.000000	56.284427 
1109.000000	56.297659 
1108.000000	56.315803 
1107.000000	56.336450 
1106.000000	56.357359 
1105.000000	56.376123 
1104.000000	56.391024 
1103.000000	56.401205 
1102.000000	56.406617 
1101.000000	56.407642 
1100.000000	56.405282 
1099.000000	56.401062 
1098.000000	56.396484 
1097.000000	56.392693 
1096.000000	56.390666 
1095.000000	56.391048 
1094.000000	56.393980 
1093.000000	56.399297 
1092.000000	56.406450 
1091.000000	56.414580 
1090.000000	56.422686 
1089.000000	56.429791 
1088.000000	56.434750 
1087.000000	56.436467 
1086.000000	56.434154 
1085.000000	56.427478 
1084.000000	56.416440 
1083.000000	56.401371 
1082.000000	56.383228 
1081.000000	56.363201 
1080.000000	56.342697 
1079.000000	56.322884 
1078.000000	56.304788 
1077.000000	56.288695 
1076.000000	56.274557 
1075.000000	56.261467 
1074.000000	56.247973 
1073.000000	56.232380 
1072.000000	56.213021 
1071.000000	56.188654 
1070.000000	56.158781 
1069.000000	56.124019 
1068.000000	56.086087 
1067.000000	56.047868 
1066.000000	56.012797 
1065.000000	55.984306 
1064.000000	55.965256 
1063.000000	55.957365 
1062.000000	55.960845 
1061.000000	55.974292 
1060.000000	55.995011 
1059.000000	56.019353 
1058.000000	56.043505 
1057.000000	56.064033 
1056.000000	56.078553 
1055.000000	56.085681 
1054.000000	56.085348 
1053.000000	56.078386 
1052.000000	56.066274 
1051.000000	56.050729 
1050.000000	56.033420 
1049.000000	56.015825 
1048.000000	55.999016 
1047.000000	55.983877 
1046.000000	55.970907 
1045.000000	55.960440 
1044.000000	55.952692 
1043.000000	55.947852 
1042.000000	55.946016 
1041.000000	55.947327 
1040.000000	55.952072 
1039.000000	55.960583 
1038.000000	55.973029 
1037.000000	55.989146 
1036.000000	56.008386 
1035.000000	56.029725 
1034.000000	56.051254 
1033.000000	56.070446 
1032.000000	56.084728 
1031.000000	56.091666 
1030.000000	56.089472 
1029.000000	56.077313 
1028.000000	56.055760 
1027.000000	56.026554 
1026.000000	55.992460 
1025.000000	55.956721 
1024.000000	55.922412 
1023.000000	55.892157 
1022.000000	55.867695 
1021.000000	55.849909 
1020.000000	55.838704 
1019.000000	55.833387 
1018.000000	55.832695 
1017.000000	55.835437 
1016.000000	55.840444 
1015.000000	55.846953 
1014.000000	55.854678 
1013.000000	55.863571 
1012.000000	55.873775 
1011.000000	55.885577 
1010.000000	55.899238 
1009.000000	55.914855 
1008.000000	55.932378 
1007.000000	55.951714 
1006.000000	55.972552 
1005.000000	55.994629 
1004.000000	56.017398 
1003.000000	56.040048 
1002.000000	56.061363 
1001.000000	56.079936 
1000.000000	56.094026 
999.000000	 56.102085 
998.000000	 56.102824 
997.000000	 56.095886 
996.000000	 56.081891 
995.000000	 56.062436 
994.000000	 56.039786 
993.000000	 56.017017 
992.000000	 55.996727 
991.000000	 55.980896 
990.000000	 55.969977 
989.000000	 55.963325 
988.000000	 55.959057 
987.000000	 55.954837 
986.000000	 55.948257 
985.000000	 55.937647 
984.000000	 55.922532 
983.000000	 55.904078 
982.000000	 55.884599 
981.000000	 55.867290 
980.000000	 55.855417 
979.000000	 55.851674 
978.000000	 55.857515 
977.000000	 55.873084 
976.000000	 55.897068 
975.000000	 55.927062 
974.000000	 55.960154 
973.000000	 55.993270 
972.000000	 56.023597 
971.000000	 56.049132 
970.000000	 56.068634 
969.000000	 56.081748 
968.000000	 56.088876 
967.000000	 56.090736 
966.000000	 56.088280 
965.000000	 56.081867 
964.000000	 56.071400 
963.000000	 56.056189 
962.000000	 56.035447 
961.000000	 56.008791 
960.000000	 55.976867 
959.000000	 55.941796 
958.000000	 55.907368 
957.000000	 55.878400 
956.000000	 55.860185 
955.000000	 55.857062 
954.000000	 55.871701 
953.000000	 55.904197 
952.000000	 55.952143 
951.000000	 56.010842 
950.000000	 56.074333 
949.000000	 56.136560 
948.000000	 56.192755 
947.000000	 56.239986 
946.000000	 56.277537 
945.000000	 56.306481 
944.000000	 56.328773 
943.000000	 56.346583 
942.000000	 56.361126 
941.000000	 56.372666 
940.000000	 56.380033 
939.000000	 56.381821 
938.000000	 56.376504 
937.000000	 56.363582 
936.000000	 56.343817 
935.000000	 56.319379 
934.000000	 56.293487 
933.000000	 56.269860 
932.000000	 56.251645 
931.000000	 56.241011 
930.000000	 56.238245 
929.000000	 56.241941 
928.000000	 56.249451 
927.000000	 56.257534 
926.000000	 56.263113 
925.000000	 56.264209 
924.000000	 56.259989 
923.000000	 56.251311 
922.000000	 56.239914 
921.000000	 56.228232 
920.000000	 56.218338 
919.000000	 56.212043 
918.000000	 56.210732 
917.000000	 56.214904 
916.000000	 56.224465 
915.000000	 56.238341 
914.000000	 56.255292 
913.000000	 56.273269 
912.000000	 56.289935 
911.000000	 56.302714 
910.000000	 56.309151 
909.000000	 56.307339 
908.000000	 56.296515 
907.000000	 56.277179 
906.000000	 56.251144 
905.000000	 56.221461 
904.000000	 56.191897 
903.000000	 56.166243 
902.000000	 56.147670 
901.000000	 56.138253 
900.000000	 56.138634 
899.000000	 56.148028 
898.000000	 56.164431 
897.000000	 56.185221 
896.000000	 56.207466 
895.000000	 56.228399 
894.000000	 56.245875 
893.000000	 56.258082 
892.000000	 56.264281 
891.000000	 56.264281 
890.000000	 56.259131 
889.000000	 56.250381 
888.000000	 56.240558 
887.000000	 56.232523 
886.000000	 56.229543 
885.000000	 56.234478 
884.000000	 56.249451 
883.000000	 56.275486 
882.000000	 56.311869 
881.000000	 56.356287 
880.000000	 56.404852 
879.000000	 56.452655 
878.000000	 56.494474 
877.000000	 56.525826 
876.000000	 56.543755 
875.000000	 56.547403 
874.000000	 56.538319 
873.000000	 56.519937 
872.000000	 56.497001 
871.000000	 56.474161 
870.000000	 56.455469 
869.000000	 56.443238 
868.000000	 56.438112 
867.000000	 56.438660 
866.000000	 56.442499 
865.000000	 56.446456 
864.000000	 56.448006 
863.000000	 56.445479 
862.000000	 56.438255 
861.000000	 56.427001 
860.000000	 56.413149 
859.000000	 56.398534 
858.000000	 56.384730 
857.000000	 56.372952 
856.000000	 56.363821 
855.000000	 56.357598 
854.000000	 56.353998 
853.000000	 56.352829 
852.000000	 56.353926 
851.000000	 56.357026 
850.000000	 56.361842 
849.000000	 56.367874 
848.000000	 56.374311 
847.000000	 56.380105 
846.000000	 56.383967 
845.000000	 56.384778 
844.000000	 56.381726 
843.000000	 56.374549 
842.000000	 56.363701 
841.000000	 56.350064 
840.000000	 56.334924 
839.000000	 56.319808 
838.000000	 56.306338 
837.000000	 56.295871 
836.000000	 56.289339 
835.000000	 56.287431 
834.000000	 56.290268 
833.000000	 56.297421 
832.000000	 56.307911 
831.000000	 56.320238 
830.000000	 56.332612 
829.000000	 56.343173 
828.000000	 56.350445 
827.000000	 56.353855 
826.000000	 56.353807 
825.000000	 56.351685 
824.000000	 56.349849 
823.000000	 56.350994 
822.000000	 56.357479 
821.000000	 56.370735 
820.000000	 56.390690 
819.000000	 56.415915 
818.000000	 56.443738 
817.000000	 56.471037 
816.000000	 56.494927 
815.000000	 56.513166 
814.000000	 56.525063 
813.000000	 56.531310 
812.000000	 56.533336 
811.000000	 56.533122 
810.000000	 56.532430 
809.000000	 56.532263 
808.000000	 56.532931 
807.000000	 56.533861 
806.000000	 56.534147 
805.000000	 56.532859 
804.000000	 56.529760 
803.000000	 56.525230 
802.000000	 56.520557 
801.000000	 56.517267 
800.000000	 56.516790 
799.000000	 56.519889 
798.000000	 56.526470 
797.000000	 56.535387 
796.000000	 56.544756 
795.000000	 56.552553 
794.000000	 56.557178 
793.000000	 56.557655 
792.000000	 56.553745 
791.000000	 56.545734 
790.000000	 56.534123 
789.000000	 56.519174 
788.000000	 56.500720 
787.000000	 56.478548 
786.000000	 56.452465 
785.000000	 56.422781 
784.000000	 56.390762 
783.000000	 56.358408 
782.000000	 56.328439 
781.000000	 56.303501 
780.000000	 56.285881 
779.000000	 56.276679 
778.000000	 56.275796 
777.000000	 56.281757 
776.000000	 56.292247 
775.000000	 56.304597 
774.000000	 56.316542 
773.000000	 56.326508 
772.000000	 56.334018 
771.000000	 56.339359 
770.000000	 56.343269 
769.000000	 56.346631 
768.000000	 56.349873 
767.000000	 56.352806 
766.000000	 56.354928 
765.000000	 56.355547 
764.000000	 56.354475 
763.000000	 56.352066 
762.000000	 56.349587 
761.000000	 56.348848 
760.000000	 56.351542 
759.000000	 56.358790 
758.000000	 56.370782 
757.000000	 56.386470 
756.000000	 56.404042 
755.000000	 56.421089 
754.000000	 56.435489 
753.000000	 56.445527 
752.000000	 56.450462 
751.000000	 56.450581 
750.000000	 56.447196 
749.000000	 56.442070 
748.000000	 56.436944 
747.000000	 56.433415 
746.000000	 56.432843 
745.000000	 56.435966 
744.000000	 56.443023 
743.000000	 56.453680 
742.000000	 56.467223 
741.000000	 56.482625 
740.000000	 56.498694 
739.000000	 56.514048 
738.000000	 56.527638 
737.000000	 56.539416 
736.000000	 56.550025 
735.000000	 56.560897 
734.000000	 56.573128 
733.000000	 56.587243 
732.000000	 56.602096 
731.000000	 56.615138 
730.000000	 56.622672 
729.000000	 56.621003 
728.000000	 56.607794 
727.000000	 56.582736 
726.000000	 56.548714 
725.000000	 56.511044 
724.000000	 56.477260 
723.000000	 56.454873 
722.000000	 56.450128 
721.000000	 56.466436 
720.000000	 56.503629 
719.000000	 56.557989 
718.000000	 56.622791 
717.000000	 56.689786 
716.000000	 56.750559 
715.000000	 56.797862 
714.000000	 56.826162 
713.000000	 56.832361 
712.000000	 56.815767 
711.000000	 56.778192 
710.000000	 56.723904 
709.000000	 56.658983 
708.000000	 56.591129 
707.000000	 56.527924 
706.000000	 56.476426 
705.000000	 56.441235 
704.000000	 56.423854 
703.000000	 56.422781 
702.000000	 56.433701 
701.000000	 56.451153 
700.000000	 56.469178 
699.000000	 56.483554 
698.000000	 56.492400 
697.000000	 56.496977 
696.000000	 56.500124 
695.000000	 56.506085 
694.000000	 56.518435 
693.000000	 56.539177 
692.000000	 56.567740 
691.000000	 56.601548 
690.000000	 56.636500 
689.000000	 56.668400 
688.000000	 56.693983 
687.000000	 56.711888 
686.000000	 56.722593 
685.000000	 56.727790 
684.000000	 56.729626 
683.000000	 56.730127 
682.000000	 56.730389 
681.000000	 56.730556 
680.000000	 56.729340 
679.000000	 56.725120 
678.000000	 56.715893 
677.000000	 56.700706 
676.000000	 56.679463 
675.000000	 56.652832 
674.000000	 56.622195 
673.000000	 56.589412 
672.000000	 56.556439 
671.000000	 56.524848 
670.000000	 56.495857 
669.000000	 56.470322 
668.000000	 56.449031 
667.000000	 56.432986 
666.000000	 56.422996 
665.000000	 56.419587 
664.000000	 56.422805 
663.000000	 56.431984 
662.000000	 56.445455 
661.000000	 56.460499 
660.000000	 56.473636 
659.000000	 56.481337 
658.000000	 56.480669 
657.000000	 56.470179 
656.000000	 56.450104 
655.000000	 56.422638 
654.000000	 56.391620 
653.000000	 56.362128 
652.000000	 56.339073 
651.000000	 56.326556 
650.000000	 56.327176 
649.000000	 56.341147 
648.000000	 56.366896 
647.000000	 56.400680 
646.000000	 56.437730 
645.000000	 56.472659 
644.000000	 56.500887 
643.000000	 56.518578 
642.000000	 56.523275 
641.000000	 56.513762 
640.000000	 56.490111 
639.000000	 56.453537 
638.000000	 56.406354 
637.000000	 56.352233 
636.000000	 56.295919 
635.000000	 56.243300 
634.000000	 56.200957 
633.000000	 56.175374 
632.000000	 56.172108 
631.000000	 56.194591 
630.000000	 56.243252 
629.000000	 56.315398 
628.000000	 56.405353 
627.000000	 56.505084 
626.000000	 56.605458 
625.000000	 56.697797 
624.000000	 56.774520 
623.000000	 56.830883 
622.000000	 56.864070 
621.000000	 56.873416 
620.000000	 56.859302 
619.000000	 56.823873 
618.000000	 56.769537 
617.000000	 56.699657 
616.000000	 56.617999 
615.000000	 56.529784 
614.000000	 56.440591 
613.000000	 56.356596 
612.000000	 56.283545 
611.000000	 56.226038 
610.000000	 56.186747 
609.000000	 56.166028 
608.000000	 56.161785 
607.000000	 56.169819 
606.000000	 56.185054 
605.000000	 56.202292 
604.000000	 56.217050 
603.000000	 56.226348 
602.000000	 56.228923 
601.000000	 56.225514 
600.000000	 56.218218 
599.000000	 56.210565 
598.000000	 56.206345 
597.000000	 56.209325 
596.000000	 56.222939 
595.000000	 56.249332 
594.000000	 56.288838 
593.000000	 56.339740 
592.000000	 56.398248 
591.000000	 56.459259 
590.000000	 56.516957 
589.000000	 56.566166 
588.000000	 56.603026 
587.000000	 56.626152 
586.000000	 56.636810 
585.000000	 56.638240 
584.000000	 56.634998 
583.000000	 56.630563 
582.000000	 56.626486 
581.000000	 56.621479 
580.000000	 56.612229 
579.000000	 56.594181 
578.000000	 56.563758 
577.000000	 56.519913 
576.000000	 56.465840 
575.000000	 56.408405 
574.000000	 56.357884 
573.000000	 56.325387 
572.000000	 56.321048 
571.000000	 56.352019 
570.000000	 56.420493 
569.000000	 56.523299 
568.000000	 56.651544 
567.000000	 56.792283 
566.000000	 56.929659 
565.000000	 57.047820 
564.000000	 57.132983 
563.000000	 57.175803 
562.000000	 57.172489 
561.000000	 57.125377 
560.000000	 57.042098 
559.000000	 56.934571 
558.000000	 56.816601 
557.000000	 56.701993 
556.000000	 56.601524 
555.000000	 56.522083 
554.000000	 56.465744 
553.000000	 56.431007 
552.000000	 56.413626 
551.000000	 56.408715 
550.000000	 56.412124 
549.000000	 56.421661 
548.000000	 56.436705 
547.000000	 56.458234 
546.000000	 56.486630 
545.000000	 56.521940 
544.000000	 56.563186 
543.000000	 56.608104 
542.000000	 56.653141 
541.000000	 56.693935 
540.000000	 56.726574 
539.000000	 56.747841 
538.000000	 56.755304 
537.000000	 56.748604 
536.000000	 56.729602 
535.000000	 56.702566 
534.000000	 56.673240 
533.000000	 56.648612 
532.000000	 56.635642 
531.000000	 56.640124 
530.000000	 56.665444 
529.000000	 56.711769 
528.000000	 56.775951 
527.000000	 56.851983 
526.000000	 56.931972 
525.000000	 57.007837 
524.000000	 57.072210 
523.000000	 57.120275 
522.000000	 57.149195 
521.000000	 57.157897 
520.000000	 57.145404 
519.000000	 57.111382 
518.000000	 57.054495 
517.000000	 56.973147 
516.000000	 56.865954 
515.000000	 56.733608 
514.000000	 56.579780 
513.000000	 56.411671 
512.000000	 56.240558 
511.000000	 56.080079 
510.000000	 55.945396 
509.000000	 55.849504 
508.000000	 55.802106 
507.000000	 55.807375 
506.000000	 55.862069 
505.000000	 55.955362 
504.000000	 56.070446 
503.000000	 56.187009 
502.000000	 56.284737 
501.000000	 56.346917 
500.000000	 56.363058 
499.000000	 56.330585 
498.000000	 56.255888 
497.000000	 56.152915 
496.000000	 56.040644 
495.000000	 55.939292 
494.000000	 55.867266 
493.000000	 55.837082 
492.000000	 55.853629 
491.000000	 55.913114 
490.000000	 56.004691 
489.000000	 56.113314 
488.000000	 56.221318 
487.000000	 56.315064 
486.000000	 56.385898 
485.000000	 56.434965 
484.000000	 56.469559 
483.000000	 56.504464 
482.000000	 56.557345 
481.000000	 56.643676 
480.000000	 56.773066 
479.000000	 56.943488 
478.000000	 57.141494 
477.000000	 57.342934 
476.000000	 57.519435 
475.000000	 57.642912 
474.000000	 57.692646 
473.000000	 57.661414 
472.000000	 57.557487 
471.000000	 57.403302 
470.000000	 57.230138 
469.000000	 57.071018 
468.000000	 56.952118 
467.000000	 56.888747 
466.000000	 56.880617 
465.000000	 56.912875 
464.000000	 56.959438 
463.000000	 56.995034 
462.000000	 56.997704 
461.000000	 56.950449 
460.000000	 56.846117 
459.000000	 56.690812 
458.000000	 56.498217 
457.000000	 56.281733 
456.000000	 56.055426 
455.000000	 55.829405 
454.000000	 55.613684 
453.000000	 55.417895 
452.000000	 55.254650 
451.000000	 55.138802 
450.000000	 55.086207 
449.000000	 55.109119 
448.000000	 55.214047 
447.000000	 55.398011 
446.000000	 55.645275 
445.000000	 55.927658 
444.000000	 56.209087 
443.000000	 56.448888 
442.000000	 56.617569 
441.000000	 56.693744 
440.000000	 56.662750 
439.000000	 56.507301 
438.000000	 56.217861 
437.000000	 55.779194 
436.000000	 55.166387 
435.000000	 54.355335 
434.000000	 53.338956 
433.000000	 52.140927 
432.000000	 50.810623 
431.000000	 49.442005 
430.000000	 48.165059 
429.000000	 47.127008 
428.000000	 46.463036 
427.000000	 46.262145 
426.000000	 46.545338 
425.000000	 47.244954 
424.000000	 48.211860 
423.000000	 49.241447 
422.000000	 50.106382 
421.000000	 50.633692 
420.000000	 50.741767 
419.000000	 50.471067 
418.000000	 49.969935 
417.000000	 49.461531 
416.000000	 49.186158 
415.000000	 49.326491 
414.000000	 49.968791 
413.000000	 51.105165 
412.000000	 52.641582 
411.000000	 54.421043 
410.000000	 56.274890 
409.000000	 58.062553 
408.000000	 59.710836 
407.000000	 61.196970 
406.000000	 62.565183 
405.000000	 63.910484 
404.000000	 65.320992 
403.000000	 66.871118 
402.000000	 68.535637 
401.000000	 70.192861 
400.000000	 71.621966 
399.000000	 72.580146 
398.000000	 72.838139 
397.000000	 72.252154 
396.000000	 70.827054 
395.000000	 68.755245 
394.000000	 66.335344 
393.000000	 63.907575 
392.000000	 61.773419 
391.000000	 60.124993 
390.000000	 58.982419 
389.000000	 58.196902 
388.000000	 57.495117 
387.000000	 56.556820 
386.000000	 55.129647 
385.000000	 53.091883 
384.000000	 50.446581 
383.000000	 47.338867 
382.000000	 44.026136 
381.000000	 40.820097 
380.000000	 37.942957 
379.000000	 35.560321 
378.000000	 33.748126 
377.000000	 32.546210 
376.000000	 31.921792 
375.000000	 31.889820 
374.000000	 32.489299 
373.000000	 33.837080 
372.000000	 36.042380 
371.000000	 39.214396 
370.000000	 43.351149 

