PE IR       SPECTRUM    SPECTRUM    ASCII       PEDS        1.60        
  -1
BZ2C70~1.ASC
17/04/10
10:27:47.00
17/04/10
10:27:47.00
tln
$BZ12041010-4_t0019$<tbV0>[-2.6,-4.6,9.0,0.0,22,1,0]
370.000000
64









2002,4.07    
MIRTGS : RIGHTBACK : INTERNAL 2
MIR : ON : INTERNAL 2
OPTKBR

0.200000
8
8.000000
FILLER
RATIO
SPECTRUM
UNLOCKED 256

DOUBLE
64
COMBINED
1
0
0


1.000000
RATIO


1
0
TRUE
51149
0
LEFT NOT FITTED RIGHT NOT FITTED 0
NONE
NONE
15600
12.000000
4.427000
51148
TRUE
1 0 8 72 0 0 0 0 

15798.010000






#HDR
-1
-1
#GR
CM-1
%T
0.00002384185791015625
0.0
5000.000000
-1.000000
4631
8
76.499700
9.356856
#DATA
5000.000000	65.103220 
4999.000000	64.981245 
4998.000000	64.838290 
4997.000000	64.693498 
4996.000000	64.562797 
4995.000000	64.457559 
4994.000000	64.381694 
4993.000000	64.333009 
4992.000000	64.304232 
4991.000000	64.286088 
4990.000000	64.270615 
4989.000000	64.253211 
4988.000000	64.233684 
4987.000000	64.215040 
4986.000000	64.202332 
4985.000000	64.199900 
4984.000000	64.210343 
4983.000000	64.233207 
4982.000000	64.265394 
4981.000000	64.301872 
4980.000000	64.338207 
4979.000000	64.371228 
4978.000000	64.399695 
4977.000000	64.423394 
4976.000000	64.443039 
4975.000000	64.458203 
4974.000000	64.466238 
4973.000000	64.461660 
4972.000000	64.438056 
4971.000000	64.389085 
4970.000000	64.310836 
4969.000000	64.204072 
4968.000000	64.074850 
4967.000000	63.935065 
4966.000000	63.800525 
4965.000000	63.688611 
4964.000000	63.613939 
4963.000000	63.586783 
4962.000000	63.610410 
4961.000000	63.681006 
4960.000000	63.787984 
4959.000000	63.916635 
4958.000000	64.050602 
4957.000000	64.174342 
4956.000000	64.275479 
4955.000000	64.346313 
4954.000000	64.384412 
4953.000000	64.391708 
4952.000000	64.373207 
4951.000000	64.336323 
4950.000000	64.288330 
4949.000000	64.235854 
4948.000000	64.182949 
4947.000000	64.132142 
4946.000000	64.083933 
4945.000000	64.038300 
4944.000000	63.995242 
4943.000000	63.955593 
4942.000000	63.921403 
4941.000000	63.895535 
4940.000000	63.881230 
4939.000000	63.880443 
4938.000000	63.893651 
4937.000000	63.918590 
4936.000000	63.951611 
4935.000000	63.987374 
4934.000000	64.021539 
4933.000000	64.051437 
4932.000000	64.077949 
4931.000000	64.104771 
4930.000000	64.138197 
4929.000000	64.185047 
4928.000000	64.250326 
4927.000000	64.335250 
4926.000000	64.436936 
4925.000000	64.547991 
4924.000000	64.658093 
4923.000000	64.755630 
4922.000000	64.830470 
4921.000000	64.875245 
4920.000000	64.887928 
4919.000000	64.870786 
4918.000000	64.829421 
4917.000000	64.771056 
4916.000000	64.704179 
4915.000000	64.635229 
4914.000000	64.568471 
4913.000000	64.504814 
4912.000000	64.444303 
4911.000000	64.385223 
4910.000000	64.326119 
4909.000000	64.266252 
4908.000000	64.206385 
4907.000000	64.148545 
4906.000000	64.095282 
4905.000000	64.049410 
4904.000000	64.012670 
4903.000000	63.986492 
4902.000000	63.971805 
4901.000000	63.968086 
4900.000000	63.973617 
4899.000000	63.987135 
4898.000000	64.008331 
4897.000000	64.036250 
4896.000000	64.070677 
4895.000000	64.112329 
4894.000000	64.163064 
4893.000000	64.224386 
4892.000000	64.297533 
4891.000000	64.383077 
4890.000000	64.479660 
4889.000000	64.584136 
4888.000000	64.690971 
4887.000000	64.792299 
4886.000000	64.879870 
4885.000000	64.947152 
4884.000000	64.990711 
4883.000000	65.010976 
4882.000000	65.012550 
4881.000000	65.004754 
4880.000000	64.996147 
4879.000000	64.993071 
4878.000000	64.995908 
4877.000000	64.999890 
4876.000000	64.992952 
4875.000000	64.959168 
4874.000000	64.883399 
4873.000000	64.756131 
4872.000000	64.576005 
4871.000000	64.351987 
4870.000000	64.102458 
4869.000000	63.852691 
4868.000000	63.628768 
4867.000000	63.454198 
4866.000000	63.344049 
4865.000000	63.304591 
4864.000000	63.331723 
4863.000000	63.414978 
4862.000000	63.538622 
4861.000000	63.687586 
4860.000000	63.849377 
4859.000000	64.016318 
4858.000000	64.181756 
4857.000000	64.342665 
4856.000000	64.495921 
4855.000000	64.639306 
4854.000000	64.768886 
4853.000000	64.882373 
4852.000000	64.979720 
4851.000000	65.064096 
4850.000000	65.141916 
4849.000000	65.220856 
4848.000000	65.308022 
4847.000000	65.405941 
4846.000000	65.511751 
4845.000000	65.618801 
4844.000000	65.718722 
4843.000000	65.802884 
4842.000000	65.865993 
4841.000000	65.910410 
4840.000000	65.943980 
4839.000000	65.980362 
4838.000000	66.030883 
4837.000000	66.100788 
4836.000000	66.184258 
4835.000000	66.267085 
4834.000000	66.326880 
4833.000000	66.338896 
4832.000000	66.283488 
4831.000000	66.153216 
4830.000000	65.955972 
4829.000000	65.714740 
4828.000000	65.463089 
4827.000000	65.237522 
4826.000000	65.069532 
4825.000000	64.979314 
4824.000000	64.968204 
4823.000000	65.018677 
4822.000000	65.095758 
4821.000000	65.155076 
4820.000000	65.148878 
4819.000000	65.037226 
4818.000000	64.794445 
4817.000000	64.417815 
4816.000000	63.926100 
4815.000000	63.361454 
4814.000000	62.781476 
4813.000000	62.252569 
4812.000000	61.837172 
4811.000000	61.584234 
4810.000000	61.519980 
4809.000000	61.644601 
4808.000000	61.930823 
4807.000000	62.332820 
4806.000000	62.793159 
4805.000000	63.255858 
4804.000000	63.672971 
4803.000000	64.012598 
4802.000000	64.258098 
4801.000000	64.407849 
4800.000000	64.469528 
4799.000000	64.454913 
4798.000000	64.374947 
4797.000000	64.239311 
4796.000000	64.058136 
4795.000000	63.841819 
4794.000000	63.603830 
4793.000000	63.362884 
4792.000000	63.142490 
4791.000000	62.965798 
4790.000000	62.852215 
4789.000000	62.812709 
4788.000000	62.848591 
4787.000000	62.949800 
4786.000000	63.098454 
4785.000000	63.273072 
4784.000000	63.452863 
4783.000000	63.618254 
4782.000000	63.756012 
4781.000000	63.858699 
4780.000000	63.926458 
4779.000000	63.962912 
4778.000000	63.976502 
4777.000000	63.977193 
4776.000000	63.975405 
4775.000000	63.981580 
4774.000000	64.002609 
4773.000000	64.041614 
4772.000000	64.097499 
4771.000000	64.167094 
4770.000000	64.243507 
4769.000000	64.317941 
4768.000000	64.381313 
4767.000000	64.426541 
4766.000000	64.450144 
4765.000000	64.453744 
4764.000000	64.444041 
4763.000000	64.431977 
4762.000000	64.431118 
4761.000000	64.454317 
4760.000000	64.511084 
4759.000000	64.604115 
4758.000000	64.729261 
4757.000000	64.874267 
4756.000000	65.021324 
4755.000000	65.149879 
4754.000000	65.240955 
4753.000000	65.281343 
4752.000000	65.267276 
4751.000000	65.204381 
4750.000000	65.106678 
4749.000000	64.992284 
4748.000000	64.879488 
4747.000000	64.782261 
4746.000000	64.708209 
4745.000000	64.657950 
4744.000000	64.627170 
4743.000000	64.609169 
4742.000000	64.598035 
4741.000000	64.590144 
4740.000000	64.585018 
4739.000000	64.583396 
4738.000000	64.585661 
4737.000000	64.590430 
4736.000000	64.594173 
4735.000000	64.590549 
4734.000000	64.572763 
4733.000000	64.536237 
4732.000000	64.480733 
4731.000000	64.411115 
4730.000000	64.336943 
4729.000000	64.269995 
4728.000000	64.222025 
4727.000000	64.200973 
4726.000000	64.210581 
4725.000000	64.249444 
4724.000000	64.312458 
4723.000000	64.391827 
4722.000000	64.479517 
4721.000000	64.568758 
4720.000000	64.654374 
4719.000000	64.732861 
4718.000000	64.801454 
4717.000000	64.857244 
4716.000000	64.897370 
4715.000000	64.919042 
4714.000000	64.919829 
4713.000000	64.898371 
4712.000000	64.855432 
4711.000000	64.794135 
4710.000000	64.719414 
4709.000000	64.637780 
4708.000000	64.556074 
4707.000000	64.481067 
4706.000000	64.418840 
4705.000000	64.374256 
4704.000000	64.351129 
4703.000000	64.351439 
4702.000000	64.375209 
4701.000000	64.420104 
4700.000000	64.480805 
4699.000000	64.549875 
4698.000000	64.618325 
4697.000000	64.677619 
4696.000000	64.720535 
4695.000000	64.743256 
4694.000000	64.745736 
4693.000000	64.731526 
4692.000000	64.707016 
4691.000000	64.678955 
4690.000000	64.653062 
4689.000000	64.631867 
4688.000000	64.614295 
4687.000000	64.596581 
4686.000000	64.574003 
4685.000000	64.542841 
4684.000000	64.501929 
4683.000000	64.453577 
4682.000000	64.403033 
4681.000000	64.357352 
4680.000000	64.323329 
4679.000000	64.304733 
4678.000000	64.301443 
4677.000000	64.309144 
4676.000000	64.320254 
4675.000000	64.326047 
4674.000000	64.319086 
4673.000000	64.295172 
4672.000000	64.254856 
4671.000000	64.202880 
4670.000000	64.147758 
4669.000000	64.098858 
4668.000000	64.065217 
4667.000000	64.053010 
4666.000000	64.064335 
4665.000000	64.096713 
4664.000000	64.143252 
4663.000000	64.194560 
4662.000000	64.240217 
4661.000000	64.271211 
4660.000000	64.282441 
4659.000000	64.273595 
4658.000000	64.250063 
4657.000000	64.221334 
4656.000000	64.198970 
4655.000000	64.193511 
4654.000000	64.211940 
4653.000000	64.255213 
4652.000000	64.317512 
4651.000000	64.387321 
4650.000000	64.449954 
4649.000000	64.491343 
4648.000000	64.501309 
4647.000000	64.476609 
4646.000000	64.421749 
4645.000000	64.348077 
4644.000000	64.270663 
4643.000000	64.204835 
4642.000000	64.162135 
4641.000000	64.148020 
4640.000000	64.161443 
4639.000000	64.195156 
4638.000000	64.238715 
4637.000000	64.280939 
4636.000000	64.313244 
4635.000000	64.330863 
4634.000000	64.333581 
4633.000000	64.325284 
4632.000000	64.311981 
4631.000000	64.299821 
4630.000000	64.292860 
4629.000000	64.292502 
4628.000000	64.296793 
4627.000000	64.302134 
4626.000000	64.304232 
4625.000000	64.299678 
4624.000000	64.286661 
4623.000000	64.266276 
4622.000000	64.241456 
4621.000000	64.215993 
4620.000000	64.193153 
4619.000000	64.174818 
4618.000000	64.160656 
4617.000000	64.148640 
4616.000000	64.135289 
4615.000000	64.117145 
4614.000000	64.091181 
4613.000000	64.055490 
4612.000000	64.009904 
4611.000000	63.956022 
4610.000000	63.896727 
4609.000000	63.834905 
4608.000000	63.773798 
4607.000000	63.716173 
4606.000000	63.665175 
4605.000000	63.624310 
4604.000000	63.597059 
4603.000000	63.586711 
4602.000000	63.596391 
4601.000000	63.628435 
4600.000000	63.683032 
4599.000000	63.757824 
4598.000000	63.847804 
4597.000000	63.945794 
4596.000000	64.042830 
4595.000000	64.129567 
4594.000000	64.197587 
4593.000000	64.241123 
4592.000000	64.257502 
4591.000000	64.248371 
4590.000000	64.219045 
4589.000000	64.177918 
4588.000000	64.135432 
4587.000000	64.101624 
4586.000000	64.084839 
4585.000000	64.089298 
4584.000000	64.115405 
4583.000000	64.158344 
4582.000000	64.209628 
4581.000000	64.258265 
4580.000000	64.293384 
4579.000000	64.306020 
4578.000000	64.291024 
4577.000000	64.247798 
4576.000000	64.180207 
4575.000000	64.095616 
4574.000000	64.003038 
4573.000000	63.911342 
4572.000000	63.827681 
4571.000000	63.756513 
4570.000000	63.699769 
4569.000000	63.656997 
4568.000000	63.627004 
4567.000000	63.608479 
4566.000000	63.601040 
4565.000000	63.604235 
4564.000000	63.618016 
4563.000000	63.641571 
4562.000000	63.673186 
4561.000000	63.708853 
4560.000000	63.744068 
4559.000000	63.774156 
4558.000000	63.795804 
4557.000000	63.807725 
4556.000000	63.810372 
4555.000000	63.805484 
4554.000000	63.795137 
4553.000000	63.781261 
4552.000000	63.764214 
4551.000000	63.742756 
4550.000000	63.715076 
4549.000000	63.679814 
4548.000000	63.637208 
4547.000000	63.589572 
4546.000000	63.542079 
4545.000000	63.501572 
4544.000000	63.474464 
4543.000000	63.465213 
4542.000000	63.475036 
4541.000000	63.501024 
4540.000000	63.536620 
4539.000000	63.573002 
4538.000000	63.601517 
4537.000000	63.615393 
4536.000000	63.610720 
4535.000000	63.587951 
4534.000000	63.550877 
4533.000000	63.506960 
4532.000000	63.465237 
4531.000000	63.435220 
4530.000000	63.424944 
4529.000000	63.439249 
4528.000000	63.478779 
4527.000000	63.540577 
4526.000000	63.618993 
4525.000000	63.707447 
4524.000000	63.799667 
4523.000000	63.891530 
4522.000000	63.980937 
4521.000000	64.066600 
4520.000000	64.147186 
4519.000000	64.220547 
4518.000000	64.283466 
4517.000000	64.331889 
4516.000000	64.361858 
4515.000000	64.371728 
4514.000000	64.362001 
4513.000000	64.336585 
4512.000000	64.301061 
4511.000000	64.261746 
4510.000000	64.224386 
4509.000000	64.192986 
4508.000000	64.169907 
4507.000000	64.156317 
4506.000000	64.152812 
4505.000000	64.157700 
4504.000000	64.171957 
4503.000000	64.201235 
4502.000000	64.251017 
4501.000000	64.322638 
4500.000000	64.417147 
4499.000000	64.535069 
4498.000000	64.671468 
4497.000000	64.816188 
4496.000000	64.957523 
4495.000000	65.084195 
4494.000000	65.188837 
4493.000000	65.268659 
4492.000000	65.325784 
4491.000000	65.364503 
4490.000000	65.388774 
4489.000000	65.398764 
4488.000000	65.395784 
4487.000000	65.376710 
4486.000000	65.332317 
4485.000000	65.254354 
4484.000000	65.130496 
4483.000000	64.964365 
4482.000000	64.778065 
4481.000000	64.617848 
4480.000000	64.535140 
4479.000000	64.594006 
4478.000000	64.849829 
4477.000000	65.347385 
4476.000000	66.097736 
4475.000000	67.093753 
4474.000000	68.308687 
4473.000000	69.690346 
4472.000000	71.165466 
4471.000000	72.626638 
4470.000000	73.945713 
4469.000000	74.981784 
4468.000000	75.612926 
4467.000000	75.774216 
4466.000000	75.481915 
4465.000000	74.852609 
4464.000000	74.075722 
4463.000000	73.387289 
4462.000000	72.994160 
4461.000000	73.039960 
4460.000000	73.538661 
4459.000000	74.381589 
4458.000000	75.340628 
4457.000000	76.137447 
4456.000000	76.499700 
4455.000000	76.241397 
4454.000000	75.297236 
4453.000000	73.745107 
4452.000000	71.774554 
4451.000000	69.632196 
4450.000000	67.567753 
4449.000000	65.768408 
4448.000000	64.348483 
4447.000000	63.342809 
4446.000000	62.723898 
4445.000000	62.433505 
4444.000000	62.394547 
4443.000000	62.537193 
4442.000000	62.789368 
4441.000000	63.087892 
4440.000000	63.388109 
4439.000000	63.666224 
4438.000000	63.913202 
4437.000000	64.130854 
4436.000000	64.324951 
4435.000000	64.497613 
4434.000000	64.639687 
4433.000000	64.733052 
4432.000000	64.758181 
4431.000000	64.698481 
4430.000000	64.556908 
4429.000000	64.347553 
4428.000000	64.094543 
4427.000000	63.826227 
4426.000000	63.569474 
4425.000000	63.345384 
4424.000000	63.166832 
4423.000000	63.038182 
4422.000000	62.958765 
4421.000000	62.921500 
4420.000000	62.913918 
4419.000000	62.927079 
4418.000000	62.959027 
4417.000000	63.006687 
4416.000000	63.063955 
4415.000000	63.126301 
4414.000000	63.189911 
4413.000000	63.249945 
4412.000000	63.301587 
4411.000000	63.341784 
4410.000000	63.369560 
4409.000000	63.387274 
4408.000000	63.399124 
4407.000000	63.409185 
4406.000000	63.420343 
4405.000000	63.434171 
4404.000000	63.450455 
4403.000000	63.467764 
4402.000000	63.484025 
4401.000000	63.497853 
4400.000000	63.509011 
4399.000000	63.518524 
4398.000000	63.528585 
4397.000000	63.541674 
4396.000000	63.560748 
4395.000000	63.588547 
4394.000000	63.626933 
4393.000000	63.676095 
4392.000000	63.735437 
4391.000000	63.803434 
4390.000000	63.877272 
4389.000000	63.952875 
4388.000000	64.024853 
4387.000000	64.087152 
4386.000000	64.134335 
4385.000000	64.162516 
4384.000000	64.170384 
4383.000000	64.159870 
4382.000000	64.136385 
4381.000000	64.107537 
4380.000000	64.082169 
4379.000000	64.067602 
4378.000000	64.068984 
4377.000000	64.086747 
4376.000000	64.117503 
4375.000000	64.153885 
4374.000000	64.186716 
4373.000000	64.207077 
4372.000000	64.208459 
4371.000000	64.188337 
4370.000000	64.148783 
4369.000000	64.095616 
4368.000000	64.036703 
4367.000000	63.979911 
4366.000000	63.931035 
4365.000000	63.892436 
4364.000000	63.862800 
4363.000000	63.837957 
4362.000000	63.812589 
4361.000000	63.782262 
4360.000000	63.745045 
4359.000000	63.702511 
4358.000000	63.659763 
4357.000000	63.623476 
4356.000000	63.600587 
4355.000000	63.595986 
4354.000000	63.611459 
4353.000000	63.644480 
4352.000000	63.689517 
4351.000000	63.739418 
4350.000000	63.787364 
4349.000000	63.828444 
4348.000000	63.860583 
4347.000000	63.884472 
4346.000000	63.902878 
4345.000000	63.918924 
4344.000000	63.935136 
4343.000000	63.952207 
4342.000000	63.969111 
4341.000000	63.983535 
4340.000000	63.992881 
4339.000000	63.995504 
4338.000000	63.991737 
4337.000000	63.984417 
4336.000000	63.977766 
4335.000000	63.976693 
4334.000000	63.985443 
4333.000000	64.006495 
4332.000000	64.039921 
4331.000000	64.083075 
4330.000000	64.131450 
4329.000000	64.179468 
4328.000000	64.221429 
4327.000000	64.252352 
4326.000000	64.269018 
4325.000000	64.270257 
4324.000000	64.257192 
4323.000000	64.232468 
4322.000000	64.200186 
4321.000000	64.164471 
4320.000000	64.129304 
4319.000000	64.097714 
4318.000000	64.071393 
4317.000000	64.051222 
4316.000000	64.037942 
4315.000000	64.032244 
4314.000000	64.034938 
4313.000000	64.046978 
4312.000000	64.068889 
4311.000000	64.100337 
4310.000000	64.139556 
4309.000000	64.183235 
4308.000000	64.226865 
4307.000000	64.265394 
4306.000000	64.294338 
4305.000000	64.310956 
4304.000000	64.314794 
4303.000000	64.307951 
4302.000000	64.294290 
4301.000000	64.278483 
4300.000000	64.264345 
4299.000000	64.253997 
4298.000000	64.247107 
4297.000000	64.241790 
4296.000000	64.235067 
4295.000000	64.223980 
4294.000000	64.206600 
4293.000000	64.182996 
4292.000000	64.155340 
4291.000000	64.127111 
4290.000000	64.102506 
4289.000000	64.085078 
4288.000000	64.077425 
4287.000000	64.080500 
4286.000000	64.093852 
4285.000000	64.115667 
4284.000000	64.143776 
4283.000000	64.176106 
4282.000000	64.211153 
4281.000000	64.247822 
4280.000000	64.285421 
4279.000000	64.323067 
4278.000000	64.359688 
4277.000000	64.393591 
4276.000000	64.422678 
4275.000000	64.444088 
4274.000000	64.455199 
4273.000000	64.453315 
4272.000000	64.436793 
4271.000000	64.404988 
4270.000000	64.358496 
4269.000000	64.299464 
4268.000000	64.231538 
4267.000000	64.159870 
4266.000000	64.089918 
4265.000000	64.027571 
4264.000000	63.978219 
4263.000000	63.946390 
4262.000000	63.934755 
4261.000000	63.944315 
4260.000000	63.973808 
4259.000000	64.020228 
4258.000000	64.078927 
4257.000000	64.144492 
4256.000000	64.211273 
4255.000000	64.273977 
4254.000000	64.328241 
4253.000000	64.370822 
4252.000000	64.399862 
4251.000000	64.415335 
4250.000000	64.418697 
4249.000000	64.412498 
4248.000000	64.399814 
4247.000000	64.384150 
4246.000000	64.368677 
4245.000000	64.356207 
4244.000000	64.348602 
4243.000000	64.347267 
4242.000000	64.352750 
4241.000000	64.365267 
4240.000000	64.384484 
4239.000000	64.409279 
4238.000000	64.438128 
4237.000000	64.469146 
4236.000000	64.500474 
4235.000000	64.529967 
4234.000000	64.556312 
4233.000000	64.579081 
4232.000000	64.598917 
4231.000000	64.617085 
4230.000000	64.635252 
4229.000000	64.654779 
4228.000000	64.675855 
4227.000000	64.697289 
4226.000000	64.716172 
4225.000000	64.728426 
4224.000000	64.730000 
4223.000000	64.718008 
4222.000000	64.691519 
4221.000000	64.652276 
4220.000000	64.604902 
4219.000000	64.556097 
4218.000000	64.513063 
4217.000000	64.482164 
4216.000000	64.467620 
4215.000000	64.470791 
4214.000000	64.489984 
4213.000000	64.521408 
4212.000000	64.560031 
4211.000000	64.601182 
4210.000000	64.641308 
4209.000000	64.678525 
4208.000000	64.712405 
4207.000000	64.743351 
4206.000000	64.771628 
4205.000000	64.796924 
4204.000000	64.817905 
4203.000000	64.832544 
4202.000000	64.838671 
4201.000000	64.834737 
4200.000000	64.820313 
4199.000000	64.796543 
4198.000000	64.766025 
4197.000000	64.731836 
4196.000000	64.696836 
4195.000000	64.663028 
4194.000000	64.631223 
4193.000000	64.601182 
4192.000000	64.572262 
4191.000000	64.543771 
4190.000000	64.515995 
4189.000000	64.490413 
4188.000000	64.469790 
4187.000000	64.457201 
4186.000000	64.455652 
4185.000000	64.466834 
4184.000000	64.490747 
4183.000000	64.525246 
4182.000000	64.566707 
4181.000000	64.610457 
4180.000000	64.651870 
4179.000000	64.686965 
4178.000000	64.713716 
4177.000000	64.732170 
4176.000000	64.744281 
4175.000000	64.753055 
4174.000000	64.762330 
4173.000000	64.775681 
4172.000000	64.795756 
4171.000000	64.823484 
4170.000000	64.857912 
4169.000000	64.896059 
4168.000000	64.933824 
4167.000000	64.966392 
4166.000000	64.989042 
4165.000000	64.997959 
4164.000000	64.991331 
4163.000000	64.969468 
4162.000000	64.934611 
4161.000000	64.890718 
4160.000000	64.843130 
4159.000000	64.797520 
4158.000000	64.759373 
4157.000000	64.732837 
4156.000000	64.720559 
4155.000000	64.722681 
4154.000000	64.737176 
4153.000000	64.759802 
4152.000000	64.784669 
4151.000000	64.805388 
4150.000000	64.816427 
4149.000000	64.814043 
4148.000000	64.796757 
4147.000000	64.766526 
4146.000000	64.728522 
4145.000000	64.689898 
4144.000000	64.658570 
4143.000000	64.641571 
4142.000000	64.643812 
4141.000000	64.666795 
4140.000000	64.708662 
4139.000000	64.764666 
4138.000000	64.828395 
4137.000000	64.893126 
4136.000000	64.953136 
4135.000000	65.004539 
4134.000000	65.045356 
4133.000000	65.075755 
4132.000000	65.096592 
4131.000000	65.108871 
4130.000000	65.112757 
4129.000000	65.108370 
4128.000000	65.094876 
4127.000000	65.071415 
4126.000000	65.037512 
4125.000000	64.994168 
4124.000000	64.943408 
4123.000000	64.888525 
4122.000000	64.833164 
4121.000000	64.780712 
4120.000000	64.733862 
4119.000000	64.694309 
4118.000000	64.662599 
4117.000000	64.638185 
4116.000000	64.620089 
4115.000000	64.607810 
4114.000000	64.600920 
4113.000000	64.599657 
4112.000000	64.604520 
4111.000000	64.616465 
4110.000000	64.635825 
4109.000000	64.663076 
4108.000000	64.698195 
4107.000000	64.741063 
4106.000000	64.791011 
4105.000000	64.847040 
4104.000000	64.907717 
4103.000000	64.970731 
4102.000000	65.033030 
4101.000000	65.090632 
4100.000000	65.139365 
4099.000000	65.174651 
4098.000000	65.193104 
4097.000000	65.192341 
4096.000000	65.172100 
4095.000000	65.133738 
4094.000000	65.080642 
4093.000000	65.016961 
4092.000000	64.947104 
4091.000000	64.875173 
4090.000000	64.804649 
4089.000000	64.738416 
4088.000000	64.678621 
4087.000000	64.627194 
4086.000000	64.585828 
4085.000000	64.555358 
4084.000000	64.536452 
4083.000000	64.528346 
4082.000000	64.529991 
4081.000000	64.539456 
4080.000000	64.554858 
4079.000000	64.574241 
4078.000000	64.596104 
4077.000000	64.619255 
4076.000000	64.642429 
4075.000000	64.664196 
4074.000000	64.682412 
4073.000000	64.694595 
4072.000000	64.697766 
4071.000000	64.689421 
4070.000000	64.668178 
4069.000000	64.634323 
4068.000000	64.590096 
4067.000000	64.539361 
4066.000000	64.486575 
4065.000000	64.435863 
4064.000000	64.390158 
4063.000000	64.350938 
4062.000000	64.318442 
4061.000000	64.292502 
4060.000000	64.273142 
4059.000000	64.261364 
4058.000000	64.258766 
4057.000000	64.267396 
4056.000000	64.288568 
4055.000000	64.322686 
4054.000000	64.368057 
4053.000000	64.421653 
4052.000000	64.478731 
4051.000000	64.534354 
4050.000000	64.583945 
4049.000000	64.624238 
4048.000000	64.654016 
4047.000000	64.673638 
4046.000000	64.684939 
4045.000000	64.690113 
4044.000000	64.691495 
4043.000000	64.690637 
4042.000000	64.688348 
4041.000000	64.684534 
4040.000000	64.678716 
4039.000000	64.669799 
4038.000000	64.656662 
4037.000000	64.638304 
4036.000000	64.614033 
4035.000000	64.583778 
4034.000000	64.547967 
4033.000000	64.507865 
4032.000000	64.465403 
4031.000000	64.422702 
4030.000000	64.382004 
4029.000000	64.345002 
4028.000000	64.313030 
4027.000000	64.286947 
4026.000000	64.267563 
4025.000000	64.255046 
4024.000000	64.250087 
4023.000000	64.253425 
4022.000000	64.266037 
4021.000000	64.288234 
4020.000000	64.319562 
4019.000000	64.358305 
4018.000000	64.401102 
4017.000000	64.442968 
4016.000000	64.478302 
4015.000000	64.501857 
4014.000000	64.509916 
4013.000000	64.500951 
4012.000000	64.476490 
4011.000000	64.440846 
4010.000000	64.400172 
4009.000000	64.361095 
4008.000000	64.329576 
4007.000000	64.309358 
4006.000000	64.301395 
4005.000000	64.303660 
4004.000000	64.311885 
4003.000000	64.320659 
4002.000000	64.324975 
4001.000000	64.321613 
4000.000000	64.309263 
3999.000000	64.289307 
3998.000000	64.265131 
3997.000000	64.241456 
3996.000000	64.222931 
3995.000000	64.213323 
3994.000000	64.214730 
3993.000000	64.226865 
3992.000000	64.247512 
3991.000000	64.272761 
3990.000000	64.298295 
3989.000000	64.319801 
3988.000000	64.333844 
3987.000000	64.338183 
3986.000000	64.332222 
3985.000000	64.316153 
3984.000000	64.290928 
3983.000000	64.257597 
3982.000000	64.217519 
3981.000000	64.172339 
3980.000000	64.124369 
3979.000000	64.076781 
3978.000000	64.033865 
3977.000000	64.000582 
3976.000000	63.981771 
3975.000000	63.981342 
3974.000000	64.000988 
3973.000000	64.039111 
3972.000000	64.090776 
3971.000000	64.148139 
3970.000000	64.202356 
3969.000000	64.245057 
3968.000000	64.270949 
3967.000000	64.278435 
3966.000000	64.270997 
3965.000000	64.255642 
3964.000000	64.242076 
3963.000000	64.239931 
3962.000000	64.257049 
3961.000000	64.297533 
3960.000000	64.360690 
3959.000000	64.441418 
3958.000000	64.530825 
3957.000000	64.618396 
3956.000000	64.693665 
3955.000000	64.748287 
3954.000000	64.777421 
3953.000000	64.780330 
3952.000000	64.760327 
3951.000000	64.723873 
3950.000000	64.679026 
3949.000000	64.633822 
3948.000000	64.595341 
3947.000000	64.567899 
3946.000000	64.553308 
3945.000000	64.550662 
3944.000000	64.557337 
3943.000000	64.569854 
3942.000000	64.584898 
3941.000000	64.600086 
3940.000000	64.614200 
3939.000000	64.627003 
3938.000000	64.638686 
3937.000000	64.649343 
3936.000000	64.658069 
3935.000000	64.663362 
3934.000000	64.663052 
3933.000000	64.655280 
3932.000000	64.639186 
3931.000000	64.615416 
3930.000000	64.586305 
3929.000000	64.555549 
3928.000000	64.527082 
3927.000000	64.504647 
3926.000000	64.490604 
3925.000000	64.484953 
3924.000000	64.485311 
3923.000000	64.487791 
3922.000000	64.488005 
3921.000000	64.482092 
3920.000000	64.468216 
3919.000000	64.446711 
3918.000000	64.420413 
3917.000000	64.393901 
3916.000000	64.372444 
3915.000000	64.359927 
3914.000000	64.358687 
3913.000000	64.368605 
3912.000000	64.387536 
3911.000000	64.412045 
3910.000000	64.438605 
3909.000000	64.464592 
3908.000000	64.488554 
3907.000000	64.510464 
3906.000000	64.530897 
3905.000000	64.550495 
3904.000000	64.568829 
3903.000000	64.583921 
3902.000000	64.592647 
3901.000000	64.591526 
3900.000000	64.577841 
3899.000000	64.550566 
3898.000000	64.511394 
3897.000000	64.464664 
3896.000000	64.416718 
3895.000000	64.374637 
3894.000000	64.344787 
3893.000000	64.331579 
3892.000000	64.336752 
3891.000000	64.359092 
3890.000000	64.395022 
3889.000000	64.439272 
3888.000000	64.486026 
3887.000000	64.530086 
3886.000000	64.567160 
3885.000000	64.595270 
3884.000000	64.613938 
3883.000000	64.624905 
3882.000000	64.630818 
3881.000000	64.635515 
3880.000000	64.642858 
3879.000000	64.656209 
3878.000000	64.677572 
3877.000000	64.707136 
3876.000000	64.743304 
3875.000000	64.782476 
3874.000000	64.819669 
3873.000000	64.849257 
3872.000000	64.866304 
3871.000000	64.867305 
3870.000000	64.850974 
3869.000000	64.818644 
3868.000000	64.774131 
3867.000000	64.722800 
3866.000000	64.670872 
3865.000000	64.624142 
3864.000000	64.587116 
3863.000000	64.562654 
3862.000000	64.551305 
3861.000000	64.551854 
3860.000000	64.561223 
3859.000000	64.575672 
3858.000000	64.590954 
3857.000000	64.603114 
3856.000000	64.609050 
3855.000000	64.606285 
3854.000000	64.593887 
3853.000000	64.572238 
3852.000000	64.543199 
3851.000000	64.509487 
3850.000000	64.474534 
3849.000000	64.441847 
3848.000000	64.414358 
3847.000000	64.393901 
3846.000000	64.381122 
3845.000000	64.375185 
3844.000000	64.374184 
3843.000000	64.375543 
3842.000000	64.376473 
3841.000000	64.374828 
3840.000000	64.369320 
3839.000000	64.360141 
3838.000000	64.348387 
3837.000000	64.336442 
3836.000000	64.327073 
3835.000000	64.323019 
3834.000000	64.325976 
3833.000000	64.336276 
3832.000000	64.353036 
3831.000000	64.374041 
3830.000000	64.396333 
3829.000000	64.416742 
3828.000000	64.432597 
3827.000000	64.442253 
3826.000000	64.445447 
3825.000000	64.443039 
3824.000000	64.436888 
3823.000000	64.429068 
3822.000000	64.421629 
3821.000000	64.416003 
3820.000000	64.413046 
3819.000000	64.413022 
3818.000000	64.415955 
3817.000000	64.421963 
3816.000000	64.431500 
3815.000000	64.445400 
3814.000000	64.464712 
3813.000000	64.490175 
3812.000000	64.522099 
3811.000000	64.559769 
3810.000000	64.601278 
3809.000000	64.643859 
3808.000000	64.683747 
3807.000000	64.717078 
3806.000000	64.740180 
3805.000000	64.750647 
3804.000000	64.747500 
3803.000000	64.731645 
3802.000000	64.705681 
3801.000000	64.673519 
3800.000000	64.639639 
3799.000000	64.608693 
3798.000000	64.584398 
3797.000000	64.569282 
3796.000000	64.564013 
3795.000000	64.567828 
3794.000000	64.578461 
3793.000000	64.593124 
3792.000000	64.608907 
3791.000000	64.623451 
3790.000000	64.635229 
3789.000000	64.643597 
3788.000000	64.648723 
3787.000000	64.651489 
3786.000000	64.652705 
3785.000000	64.653301 
3784.000000	64.654254 
3783.000000	64.656281 
3782.000000	64.660263 
3781.000000	64.666557 
3780.000000	64.675474 
3779.000000	64.686369 
3778.000000	64.698147 
3777.000000	64.708781 
3776.000000	64.715719 
3775.000000	64.716482 
3774.000000	64.709019 
3773.000000	64.693021 
3772.000000	64.669871 
3771.000000	64.642930 
3770.000000	64.616799 
3769.000000	64.596486 
3768.000000	64.586138 
3767.000000	64.587926 
3766.000000	64.601397 
3765.000000	64.623546 
3764.000000	64.649200 
3763.000000	64.672422 
3762.000000	64.687800 
3761.000000	64.691734 
3760.000000	64.683127 
3759.000000	64.663386 
3758.000000	64.636230 
3757.000000	64.606475 
3756.000000	64.579343 
3755.000000	64.559078 
3754.000000	64.548873 
3753.000000	64.550185 
3752.000000	64.562821 
3751.000000	64.585876 
3750.000000	64.617109 
3749.000000	64.653754 
3748.000000	64.692234 
3747.000000	64.728546 
3746.000000	64.758443 
3745.000000	64.777946 
3744.000000	64.783883 
3743.000000	64.774465 
3742.000000	64.749956 
3741.000000	64.712834 
3740.000000	64.667630 
3739.000000	64.620232 
3738.000000	64.576792 
3737.000000	64.542603 
3736.000000	64.521193 
3735.000000	64.513754 
3734.000000	64.519000 
3733.000000	64.533972 
3732.000000	64.554524 
3731.000000	64.576888 
3730.000000	64.598107 
3729.000000	64.617061 
3728.000000	64.633941 
3727.000000	64.650011 
3726.000000	64.666891 
3725.000000	64.685726 
3724.000000	64.706635 
3723.000000	64.728307 
3722.000000	64.748382 
3721.000000	64.763641 
3720.000000	64.771080 
3719.000000	64.768624 
3718.000000	64.755702 
3717.000000	64.733338 
3716.000000	64.704155 
3715.000000	64.671659 
3714.000000	64.639973 
3713.000000	64.612817 
3712.000000	64.593148 
3711.000000	64.582824 
3710.000000	64.582562 
3709.000000	64.592075 
3708.000000	64.610314 
3707.000000	64.635396 
3706.000000	64.664864 
3705.000000	64.696097 
3704.000000	64.726448 
3703.000000	64.753293 
3702.000000	64.774608 
3701.000000	64.788866 
3700.000000	64.795565 
3699.000000	64.795351 
3698.000000	64.789557 
3697.000000	64.780211 
3696.000000	64.769482 
3695.000000	64.759421 
3694.000000	64.751458 
3693.000000	64.746093 
3692.000000	64.743185 
3691.000000	64.742255 
3690.000000	64.742517 
3689.000000	64.743185 
3688.000000	64.743709 
3687.000000	64.743971 
3686.000000	64.744138 
3685.000000	64.744544 
3684.000000	64.745855 
3683.000000	64.748740 
3682.000000	64.753937 
3681.000000	64.762139 
3680.000000	64.773559 
3679.000000	64.787840 
3678.000000	64.804053 
3677.000000	64.820694 
3676.000000	64.836001 
3675.000000	64.848041 
3674.000000	64.855003 
3673.000000	64.855551 
3672.000000	64.849257 
3671.000000	64.836120 
3670.000000	64.816880 
3669.000000	64.792394 
3668.000000	64.763593 
3667.000000	64.731383 
3666.000000	64.696550 
3665.000000	64.660191 
3664.000000	64.623856 
3663.000000	64.589667 
3662.000000	64.560103 
3661.000000	64.537382 
3660.000000	64.523243 
3659.000000	64.518094 
3658.000000	64.521193 
3657.000000	64.530944 
3656.000000	64.545249 
3655.000000	64.562129 
3654.000000	64.579963 
3653.000000	64.597868 
3652.000000	64.615464 
3651.000000	64.632296 
3650.000000	64.647793 
3649.000000	64.660787 
3648.000000	64.669942 
3647.000000	64.673686 
3646.000000	64.671039 
3645.000000	64.662361 
3644.000000	64.649081 
3643.000000	64.634084 
3642.000000	64.620637 
3641.000000	64.611744 
3640.000000	64.609169 
3639.000000	64.613127 
3638.000000	64.622163 
3637.000000	64.633536 
3636.000000	64.644169 
3635.000000	64.651513 
3634.000000	64.654016 
3633.000000	64.651489 
3632.000000	64.644813 
3631.000000	64.635825 
3630.000000	64.626526 
3629.000000	64.618444 
3628.000000	64.612722 
3627.000000	64.609789 
3626.000000	64.609360 
3625.000000	64.610648 
3624.000000	64.612627 
3623.000000	64.614319 
3622.000000	64.614748 
3621.000000	64.613366 
3620.000000	64.609694 
3619.000000	64.603924 
3618.000000	64.596867 
3617.000000	64.590048 
3616.000000	64.585423 
3615.000000	64.584994 
3614.000000	64.590358 
3613.000000	64.602041 
3612.000000	64.619135 
3611.000000	64.639139 
3610.000000	64.658474 
3609.000000	64.673137 
3608.000000	64.679741 
3607.000000	64.676403 
3606.000000	64.663624 
3605.000000	64.644193 
3604.000000	64.622688 
3603.000000	64.604592 
3602.000000	64.594864 
3601.000000	64.596748 
3600.000000	64.610934 
3599.000000	64.635300 
3598.000000	64.665603 
3597.000000	64.696431 
3596.000000	64.722418 
3595.000000	64.739394 
3594.000000	64.745378 
3593.000000	64.740705 
3592.000000	64.727663 
3591.000000	64.709758 
3590.000000	64.690971 
3589.000000	64.674592 
3588.000000	64.662790 
3587.000000	64.656305 
3586.000000	64.654636 
3585.000000	64.656496 
3584.000000	64.660358 
3583.000000	64.664745 
3582.000000	64.668607 
3581.000000	64.671444 
3580.000000	64.673089 
3579.000000	64.673542 
3578.000000	64.672517 
3577.000000	64.669489 
3576.000000	64.663839 
3575.000000	64.655017 
3574.000000	64.642739 
3573.000000	64.627242 
3572.000000	64.609384 
3571.000000	64.590692 
3570.000000	64.573025 
3569.000000	64.558458 
3568.000000	64.548754 
3567.000000	64.544916 
3566.000000	64.547133 
3565.000000	64.554262 
3564.000000	64.564514 
3563.000000	64.575457 
3562.000000	64.584326 
3561.000000	64.589047 
3560.000000	64.588618 
3559.000000	64.583301 
3558.000000	64.574623 
3557.000000	64.564800 
3556.000000	64.556241 
3555.000000	64.550685 
3554.000000	64.548921 
3553.000000	64.550185 
3552.000000	64.552760 
3551.000000	64.554095 
3550.000000	64.551591 
3549.000000	64.543461 
3548.000000	64.528918 
3547.000000	64.508366 
3546.000000	64.483237 
3545.000000	64.455604 
3544.000000	64.427757 
3543.000000	64.401459 
3542.000000	64.377903 
3541.000000	64.357686 
3540.000000	64.340853 
3539.000000	64.327192 
3538.000000	64.316225 
3537.000000	64.307332 
3536.000000	64.299893 
3535.000000	64.293003 
3534.000000	64.285969 
3533.000000	64.278054 
3532.000000	64.269280 
3531.000000	64.260029 
3530.000000	64.251732 
3529.000000	64.246439 
3528.000000	64.246463 
3527.000000	64.253854 
3526.000000	64.269232 
3525.000000	64.291429 
3524.000000	64.317345 
3523.000000	64.342308 
3522.000000	64.360857 
3521.000000	64.367890 
3520.000000	64.359974 
3519.000000	64.335918 
3518.000000	64.297342 
3517.000000	64.248061 
3516.000000	64.193391 
3515.000000	64.138960 
3514.000000	64.089775 
3513.000000	64.049339 
3512.000000	64.019513 
3511.000000	64.000463 
3510.000000	63.991332 
3509.000000	63.990783 
3508.000000	63.997387 
3507.000000	64.010572 
3506.000000	64.029693 
3505.000000	64.054799 
3504.000000	64.085507 
3503.000000	64.121413 
3502.000000	64.161086 
3501.000000	64.202690 
3500.000000	64.243888 
3499.000000	64.282107 
3498.000000	64.314961 
3497.000000	64.340448 
3496.000000	64.357376 
3495.000000	64.365220 
3494.000000	64.364218 
3493.000000	64.355206 
3492.000000	64.339375 
3491.000000	64.318180 
3490.000000	64.292669 
3489.000000	64.264059 
3488.000000	64.233088 
3487.000000	64.200234 
3486.000000	64.166092 
3485.000000	64.131259 
3484.000000	64.097213 
3483.000000	64.065790 
3482.000000	64.039731 
3481.000000	64.021873 
3480.000000	64.015030 
3479.000000	64.020919 
3478.000000	64.039707 
3477.000000	64.069485 
3476.000000	64.106702 
3475.000000	64.146304 
3474.000000	64.182782 
3473.000000	64.211034 
3472.000000	64.227414 
3471.000000	64.230394 
3470.000000	64.220690 
3469.000000	64.200854 
3468.000000	64.174890 
3467.000000	64.147377 
3466.000000	64.122462 
3465.000000	64.103198 
3464.000000	64.091372 
3463.000000	64.087080 
3462.000000	64.089441 
3461.000000	64.096474 
3460.000000	64.105772 
3459.000000	64.114832 
3458.000000	64.121246 
3457.000000	64.123678 
3456.000000	64.121079 
3455.000000	64.113831 
3454.000000	64.103174 
3453.000000	64.091396 
3452.000000	64.081144 
3451.000000	64.075207 
3450.000000	64.075970 
3449.000000	64.084577 
3448.000000	64.100790 
3447.000000	64.122843 
3446.000000	64.147686 
3445.000000	64.171624 
3444.000000	64.191126 
3443.000000	64.203643 
3442.000000	64.208006 
3441.000000	64.204835 
3440.000000	64.196228 
3439.000000	64.185285 
3438.000000	64.175152 
3437.000000	64.168143 
3436.000000	64.165258 
3435.000000	64.166402 
3434.000000	64.170360 
3433.000000	64.175462 
3432.000000	64.180159 
3431.000000	64.183759 
3430.000000	64.186120 
3429.000000	64.187645 
3428.000000	64.188981 
3427.000000	64.190244 
3426.000000	64.191293 
3425.000000	64.191341 
3424.000000	64.189720 
3423.000000	64.185714 
3422.000000	64.179348 
3421.000000	64.171385 
3420.000000	64.163136 
3419.000000	64.156055 
3418.000000	64.151382 
3417.000000	64.149951 
3416.000000	64.151883 
3415.000000	64.156675 
3414.000000	64.163899 
3413.000000	64.173507 
3412.000000	64.185881 
3411.000000	64.201831 
3410.000000	64.221954 
3409.000000	64.246368 
3408.000000	64.274001 
3407.000000	64.302635 
3406.000000	64.329171 
3405.000000	64.349985 
3404.000000	64.362335 
3403.000000	64.364624 
3402.000000	64.356803 
3401.000000	64.340186 
3400.000000	64.317584 
3399.000000	64.291858 
3398.000000	64.265751 
3397.000000	64.240884 
3396.000000	64.217996 
3395.000000	64.196705 
3394.000000	64.176273 
3393.000000	64.155888 
3392.000000	64.135336 
3391.000000	64.115285 
3390.000000	64.097142 
3389.000000	64.082574 
3388.000000	64.073109 
3387.000000	64.069676 
3386.000000	64.072179 
3385.000000	64.079618 
3384.000000	64.090323 
3383.000000	64.102268 
3382.000000	64.113664 
3381.000000	64.123368 
3380.000000	64.130854 
3379.000000	64.136314 
3378.000000	64.140605 
3377.000000	64.144539 
3376.000000	64.149069 
3375.000000	64.154934 
3374.000000	64.162492 
3373.000000	64.171719 
3372.000000	64.182329 
3371.000000	64.193844 
3370.000000	64.205455 
3369.000000	64.216327 
3368.000000	64.225363 
3367.000000	64.231419 
3366.000000	64.233541 
3365.000000	64.231252 
3364.000000	64.224910 
3363.000000	64.215755 
3362.000000	64.205884 
3361.000000	64.197921 
3360.000000	64.194250 
3359.000000	64.196801 
3358.000000	64.206314 
3357.000000	64.222455 
3356.000000	64.243888 
3355.000000	64.268755 
3354.000000	64.295196 
3353.000000	64.321732 
3352.000000	64.347004 
3351.000000	64.370083 
3350.000000	64.389944 
3349.000000	64.405608 
3348.000000	64.415979 
3347.000000	64.419960 
3346.000000	64.417004 
3345.000000	64.407157 
3344.000000	64.391398 
3343.000000	64.371371 
3342.000000	64.349484 
3341.000000	64.327979 
3340.000000	64.308667 
3339.000000	64.292216 
3338.000000	64.278268 
3337.000000	64.265298 
3336.000000	64.251375 
3335.000000	64.234662 
3334.000000	64.214205 
3333.000000	64.190435 
3332.000000	64.165329 
3331.000000	64.141893 
3330.000000	64.123558 
3329.000000	64.113450 
3328.000000	64.113759 
3327.000000	64.125013 
3326.000000	64.146184 
3325.000000	64.174532 
3324.000000	64.206457 
3323.000000	64.238047 
3322.000000	64.265894 
3321.000000	64.287304 
3320.000000	64.300942 
3319.000000	64.306545 
3318.000000	64.304900 
3317.000000	64.297604 
3316.000000	64.286851 
3315.000000	64.274907 
3314.000000	64.263820 
3313.000000	64.255499 
3312.000000	64.251255 
3311.000000	64.251804 
3310.000000	64.256954 
3309.000000	64.265751 
3308.000000	64.276313 
3307.000000	64.286494 
3306.000000	64.293789 
3305.000000	64.296245 
3304.000000	64.292550 
3303.000000	64.282989 
3302.000000	64.269399 
3301.000000	64.255237 
3300.000000	64.244890 
3299.000000	64.242649 
3298.000000	64.251661 
3297.000000	64.272952 
3296.000000	64.305210 
3295.000000	64.344406 
3294.000000	64.385175 
3293.000000	64.421391 
3292.000000	64.447569 
3291.000000	64.459943 
3290.000000	64.456963 
3289.000000	64.439654 
3288.000000	64.411091 
3287.000000	64.375996 
3286.000000	64.339733 
3285.000000	64.307427 
3284.000000	64.283299 
3283.000000	64.269733 
3282.000000	64.267182 
3281.000000	64.274001 
3280.000000	64.287161 
3279.000000	64.302754 
3278.000000	64.316797 
3277.000000	64.325857 
3276.000000	64.327764 
3275.000000	64.321613 
3274.000000	64.308071 
3273.000000	64.288616 
3272.000000	64.265513 
3271.000000	64.241170 
3270.000000	64.217686 
3269.000000	64.196801 
3268.000000	64.179635 
3267.000000	64.167094 
3266.000000	64.159727 
3265.000000	64.157986 
3264.000000	64.162325 
3263.000000	64.172935 
3262.000000	64.189720 
3261.000000	64.211583 
3260.000000	64.236974 
3259.000000	64.263653 
3258.000000	64.289140 
3257.000000	64.310979 
3256.000000	64.327049 
3255.000000	64.335894 
3254.000000	64.337229 
3253.000000	64.331793 
3252.000000	64.321160 
3251.000000	64.307260 
3250.000000	64.292335 
3249.000000	64.278268 
3248.000000	64.266419 
3247.000000	64.257359 
3246.000000	64.251041 
3245.000000	64.246797 
3244.000000	64.244008 
3243.000000	64.241981 
3242.000000	64.240264 
3241.000000	64.238882 
3240.000000	64.237952 
3239.000000	64.237689 
3238.000000	64.238190 
3237.000000	64.239287 
3236.000000	64.240384 
3235.000000	64.240598 
3234.000000	64.239192 
3233.000000	64.235854 
3232.000000	64.230847 
3231.000000	64.225363 
3230.000000	64.221167 
3229.000000	64.220499 
3228.000000	64.225363 
3227.000000	64.237284 
3226.000000	64.256525 
3225.000000	64.282250 
3224.000000	64.312410 
3223.000000	64.344215 
3222.000000	64.374494 
3221.000000	64.400053 
3220.000000	64.418363 
3219.000000	64.427757 
3218.000000	64.427518 
3217.000000	64.418077 
3216.000000	64.400720 
3215.000000	64.377522 
3214.000000	64.351105 
3213.000000	64.324259 
3212.000000	64.299607 
3211.000000	64.279627 
3210.000000	64.265942 
3209.000000	64.259362 
3208.000000	64.259696 
3207.000000	64.265871 
3206.000000	64.276146 
3205.000000	64.288401 
3204.000000	64.300847 
3203.000000	64.312052 
3202.000000	64.321732 
3201.000000	64.330458 
3200.000000	64.339637 
3199.000000	64.350962 
3198.000000	64.365530 
3197.000000	64.383625 
3196.000000	64.404201 
3195.000000	64.425039 
3194.000000	64.443159 
3193.000000	64.455676 
3192.000000	64.460253 
3191.000000	64.456105 
3190.000000	64.444327 
3189.000000	64.427590 
3188.000000	64.409756 
3187.000000	64.394927 
3186.000000	64.386701 
3185.000000	64.387321 
3184.000000	64.397478 
3183.000000	64.416074 
3182.000000	64.440560 
3181.000000	64.467763 
3180.000000	64.494538 
3179.000000	64.518213 
3178.000000	64.537024 
3177.000000	64.550256 
3176.000000	64.558076 
3175.000000	64.561271 
3174.000000	64.560937 
3173.000000	64.558124 
3172.000000	64.553761 
3171.000000	64.548468 
3170.000000	64.542508 
3169.000000	64.535880 
3168.000000	64.528250 
3167.000000	64.518928 
3166.000000	64.507174 
3165.000000	64.492130 
3164.000000	64.473438 
3163.000000	64.451456 
3162.000000	64.427423 
3161.000000	64.403533 
3160.000000	64.382576 
3159.000000	64.367485 
3158.000000	64.360785 
3157.000000	64.363837 
3156.000000	64.376592 
3155.000000	64.397454 
3154.000000	64.423656 
3153.000000	64.451718 
3152.000000	64.478230 
3151.000000	64.500498 
3150.000000	64.517068 
3149.000000	64.527487 
3148.000000	64.532470 
3147.000000	64.533233 
3146.000000	64.530992 
3145.000000	64.526700 
3144.000000	64.520907 
3143.000000	64.513611 
3142.000000	64.504933 
3141.000000	64.495062 
3140.000000	64.484548 
3139.000000	64.474248 
3138.000000	64.465427 
3137.000000	64.459347 
3136.000000	64.457058 
3135.000000	64.458942 
3134.000000	64.464902 
3133.000000	64.474058 
3132.000000	64.484977 
3131.000000	64.495968 
3130.000000	64.505457 
3129.000000	64.511990 
3128.000000	64.514470 
3127.000000	64.512181 
3126.000000	64.505028 
3125.000000	64.493656 
3124.000000	64.479351 
3123.000000	64.463853 
3122.000000	64.449119 
3121.000000	64.436817 
3120.000000	64.428234 
3119.000000	64.423823 
3118.000000	64.423298 
3117.000000	64.425969 
3116.000000	64.431118 
3115.000000	64.438128 
3114.000000	64.446687 
3113.000000	64.456391 
3112.000000	64.466834 
3111.000000	64.477229 
3110.000000	64.486598 
3109.000000	64.493656 
3108.000000	64.497542 
3107.000000	64.497947 
3106.000000	64.495611 
3105.000000	64.492225 
3104.000000	64.490008 
3103.000000	64.491510 
3102.000000	64.498138 
3101.000000	64.510059 
3100.000000	64.525508 
3099.000000	64.541244 
3098.000000	64.553332 
3097.000000	64.558124 
3096.000000	64.553427 
3095.000000	64.539098 
3094.000000	64.517092 
3093.000000	64.491009 
3092.000000	64.465117 
3091.000000	64.443421 
3090.000000	64.428901 
3089.000000	64.422821 
3088.000000	64.424848 
3087.000000	64.433383 
3086.000000	64.445734 
3085.000000	64.458990 
3084.000000	64.470529 
3083.000000	64.478516 
3082.000000	64.481949 
3081.000000	64.480781 
3080.000000	64.475631 
3079.000000	64.467692 
3078.000000	64.458227 
3077.000000	64.448618 
3076.000000	64.440155 
3075.000000	64.433574 
3074.000000	64.429426 
3073.000000	64.427781 
3072.000000	64.428544 
3071.000000	64.431285 
3070.000000	64.435625 
3069.000000	64.440989 
3068.000000	64.446878 
3067.000000	64.452528 
3066.000000	64.457082 
3065.000000	64.459657 
3064.000000	64.459538 
3063.000000	64.456558 
3062.000000	64.451360 
3061.000000	64.445567 
3060.000000	64.441514 
3059.000000	64.441847 
3058.000000	64.448714 
3057.000000	64.463305 
3056.000000	64.485502 
3055.000000	64.513778 
3054.000000	64.545392 
3053.000000	64.576983 
3052.000000	64.605379 
3051.000000	64.628219 
3050.000000	64.644217 
3049.000000	64.653420 
3048.000000	64.656782 
3047.000000	64.655900 
3046.000000	64.652180 
3045.000000	64.646887 
3044.000000	64.640593 
3043.000000	64.633345 
3042.000000	64.624905 
3041.000000	64.615154 
3040.000000	64.604067 
3039.000000	64.592003 
3038.000000	64.579629 
3037.000000	64.567565 
3036.000000	64.556336 
3035.000000	64.546179 
3034.000000	64.536952 
3033.000000	64.528346 
3032.000000	64.519667 
3031.000000	64.510488 
3030.000000	64.500379 
3029.000000	64.489412 
3028.000000	64.477849 
3027.000000	64.466285 
3026.000000	64.455318 
3025.000000	64.445734 
3024.000000	64.438271 
3023.000000	64.433550 
3022.000000	64.431953 
3021.000000	64.433741 
3020.000000	64.438939 
3019.000000	64.447474 
3018.000000	64.458584 
3017.000000	64.471364 
3016.000000	64.484477 
3015.000000	64.496493 
3014.000000	64.505934 
3013.000000	64.511561 
3012.000000	64.512681 
3011.000000	64.509296 
3010.000000	64.502310 
3009.000000	64.493441 
3008.000000	64.484810 
3007.000000	64.478874 
3006.000000	64.477872 
3005.000000	64.483261 
3004.000000	64.495277 
3003.000000	64.513230 
3002.000000	64.535260 
3001.000000	64.558744 
3000.000000	64.580726 
2999.000000	64.598464 
2998.000000	64.609932 
2997.000000	64.614248 
2996.000000	64.611625 
2995.000000	64.603209 
2994.000000	64.590716 
2993.000000	64.576172 
2992.000000	64.561247 
2991.000000	64.547133 
2990.000000	64.534306 
2989.000000	64.522981 
2988.000000	64.512896 
2987.000000	64.503765 
2986.000000	64.495372 
2985.000000	64.487862 
2984.000000	64.481592 
2983.000000	64.477252 
2982.000000	64.475965 
2981.000000	64.479112 
2980.000000	64.488196 
2979.000000	64.504337 
2978.000000	64.528465 
2977.000000	64.560508 
2976.000000	64.599394 
2975.000000	64.642739 
2974.000000	64.686918 
2973.000000	64.727544 
2972.000000	64.759922 
2971.000000	64.779949 
2970.000000	64.784979 
2969.000000	64.774012 
2968.000000	64.748334 
2967.000000	64.710593 
2966.000000	64.664888 
2965.000000	64.615392 
2964.000000	64.566230 
2963.000000	64.520573 
2962.000000	64.480614 
2961.000000	64.447522 
2960.000000	64.421820 
2959.000000	64.403462 
2958.000000	64.392185 
2957.000000	64.387392 
2956.000000	64.388227 
2955.000000	64.393568 
2954.000000	64.402198 
2953.000000	64.412522 
2952.000000	64.422798 
2951.000000	64.431619 
2950.000000	64.437699 
2949.000000	64.440298 
2948.000000	64.438796 
2947.000000	64.432835 
2946.000000	64.422059 
2945.000000	64.406085 
2944.000000	64.384651 
2943.000000	64.358305 
2942.000000	64.328360 
2941.000000	64.297080 
2940.000000	64.267611 
2939.000000	64.243721 
2938.000000	64.228796 
2937.000000	64.225268 
2936.000000	64.233732 
2935.000000	64.252758 
2934.000000	64.279127 
2933.000000	64.308214 
2932.000000	64.334821 
2931.000000	64.354181 
2930.000000	64.362978 
2929.000000	64.360189 
2928.000000	64.347100 
2927.000000	64.327096 
2926.000000	64.304876 
2925.000000	64.285326 
2924.000000	64.272618 
2923.000000	64.268946 
2922.000000	64.274668 
2921.000000	64.287877 
2920.000000	64.305567 
2919.000000	64.323806 
2918.000000	64.339184 
2917.000000	64.349150 
2916.000000	64.352464 
2915.000000	64.349174 
2914.000000	64.340305 
2913.000000	64.327526 
2912.000000	64.312648 
2911.000000	64.297318 
2910.000000	64.282965 
2909.000000	64.270544 
2908.000000	64.260983 
2907.000000	64.254856 
2906.000000	64.252638 
2905.000000	64.254331 
2904.000000	64.259576 
2903.000000	64.267373 
2902.000000	64.276385 
2901.000000	64.285278 
2900.000000	64.293026 
2899.000000	64.299130 
2898.000000	64.303851 
2897.000000	64.308047 
2896.000000	64.312767 
2895.000000	64.319014 
2894.000000	64.327335 
2893.000000	64.337635 
2892.000000	64.349293 
2891.000000	64.361095 
2890.000000	64.371562 
2889.000000	64.379525 
2888.000000	64.383840 
2887.000000	64.383864 
2886.000000	64.379239 
2885.000000	64.370036 
2884.000000	64.356637 
2883.000000	64.339685 
2882.000000	64.319992 
2881.000000	64.298939 
2880.000000	64.278244 
2879.000000	64.260053 
2878.000000	64.246535 
2877.000000	64.239549 
2876.000000	64.240503 
2875.000000	64.249944 
2874.000000	64.267516 
2873.000000	64.291906 
2872.000000	64.321112 
2871.000000	64.352488 
2870.000000	64.383053 
2869.000000	64.409804 
2868.000000	64.429950 
2867.000000	64.441275 
2866.000000	64.442491 
2865.000000	64.433360 
2864.000000	64.415144 
2863.000000	64.390063 
2862.000000	64.361500 
2861.000000	64.332962 
2860.000000	64.308094 
2859.000000	64.289498 
2858.000000	64.278626 
2857.000000	64.275336 
2856.000000	64.278101 
2855.000000	64.284825 
2854.000000	64.293313 
2853.000000	64.302039 
2852.000000	64.310503 
2851.000000	64.319181 
2850.000000	64.329290 
2849.000000	64.342188 
2848.000000	64.358663 
2847.000000	64.378714 
2846.000000	64.401125 
2845.000000	64.424014 
2844.000000	64.445090 
2843.000000	64.462447 
2842.000000	64.474916 
2841.000000	64.482498 
2840.000000	64.486169 
2839.000000	64.487504 
2838.000000	64.488244 
2837.000000	64.489769 
2836.000000	64.492750 
2835.000000	64.497160 
2834.000000	64.502358 
2833.000000	64.507460 
2832.000000	64.511537 
2831.000000	64.513897 
2830.000000	64.514160 
2829.000000	64.512324 
2828.000000	64.508557 
2827.000000	64.503169 
2826.000000	64.496588 
2825.000000	64.489293 
2824.000000	64.481949 
2823.000000	64.475345 
2822.000000	64.470386 
2821.000000	64.467930 
2820.000000	64.468812 
2819.000000	64.473652 
2818.000000	64.482522 
2817.000000	64.495062 
2816.000000	64.510369 
2815.000000	64.527225 
2814.000000	64.544153 
2813.000000	64.559698 
2812.000000	64.572787 
2811.000000	64.582562 
2810.000000	64.588499 
2809.000000	64.590430 
2808.000000	64.588618 
2807.000000	64.583563 
2806.000000	64.575862 
2805.000000	64.566397 
2804.000000	64.556193 
2803.000000	64.546513 
2802.000000	64.538669 
2801.000000	64.533901 
2800.000000	64.533257 
2799.000000	64.537501 
2798.000000	64.546680 
2797.000000	64.560270 
2796.000000	64.577126 
2795.000000	64.595532 
2794.000000	64.613580 
2793.000000	64.629244 
2792.000000	64.640855 
2791.000000	64.647364 
2790.000000	64.648389 
2789.000000	64.644622 
2788.000000	64.637231 
2787.000000	64.627885 
2786.000000	64.618086 
2785.000000	64.608955 
2784.000000	64.600753 
2783.000000	64.592981 
2782.000000	64.584493 
2781.000000	64.573907 
2780.000000	64.560222 
2779.000000	64.543080 
2778.000000	64.523220 
2777.000000	64.502310 
2776.000000	64.482593 
2775.000000	64.466381 
2774.000000	64.455485 
2773.000000	64.450860 
2772.000000	64.452242 
2771.000000	64.458274 
2770.000000	64.466881 
2769.000000	64.475822 
2768.000000	64.483284 
2767.000000	64.487934 
2766.000000	64.489531 
2765.000000	64.488625 
2764.000000	64.486169 
2763.000000	64.483237 
2762.000000	64.480710 
2761.000000	64.479136 
2760.000000	64.478754 
2759.000000	64.479613 
2758.000000	64.481854 
2757.000000	64.485907 
2756.000000	64.492464 
2755.000000	64.502286 
2754.000000	64.515805 
2753.000000	64.532923 
2752.000000	64.552807 
2751.000000	64.573693 
2750.000000	64.593291 
2749.000000	64.609050 
2748.000000	64.618945 
2747.000000	64.621520 
2746.000000	64.616417 
2745.000000	64.604353 
2744.000000	64.586877 
2743.000000	64.565825 
2742.000000	64.543199 
2741.000000	64.520502 
2740.000000	64.498782 
2739.000000	64.478635 
2738.000000	64.460420 
2737.000000	64.444208 
2736.000000	64.430332 
2735.000000	64.419198 
2734.000000	64.411401 
2733.000000	64.407467 
2732.000000	64.407706 
2731.000000	64.411973 
2730.000000	64.420080 
2729.000000	64.431333 
2728.000000	64.444971 
2727.000000	64.460396 
2726.000000	64.477109 
2725.000000	64.494776 
2724.000000	64.512991 
2723.000000	64.531135 
2722.000000	64.548134 
2721.000000	64.562487 
2720.000000	64.572620 
2719.000000	64.577150 
2718.000000	64.575147 
2717.000000	64.566540 
2716.000000	64.552187 
2715.000000	64.533996 
2714.000000	64.514470 
2713.000000	64.496135 
2712.000000	64.481258 
2711.000000	64.471507 
2710.000000	64.467716 
2709.000000	64.469790 
2708.000000	64.476966 
2707.000000	64.487838 
2706.000000	64.500784 
2705.000000	64.514255 
2704.000000	64.526534 
2703.000000	64.536309 
2702.000000	64.542484 
2701.000000	64.544606 
2700.000000	64.542770 
2699.000000	64.537668 
2698.000000	64.530611 
2697.000000	64.522981 
2696.000000	64.516067 
2695.000000	64.510536 
2694.000000	64.506316 
2693.000000	64.502739 
2692.000000	64.498925 
2691.000000	64.493823 
2690.000000	64.486813 
2689.000000	64.477920 
2688.000000	64.467906 
2687.000000	64.457941 
2686.000000	64.449310 
2685.000000	64.443087 
2684.000000	64.439749 
2683.000000	64.439129 
2682.000000	64.440536 
2681.000000	64.443254 
2680.000000	64.446759 
2679.000000	64.451098 
2678.000000	64.456963 
2677.000000	64.465332 
2676.000000	64.477276 
2675.000000	64.493322 
2674.000000	64.513158 
2673.000000	64.535784 
2672.000000	64.559268 
2671.000000	64.581251 
2670.000000	64.599132 
2669.000000	64.610791 
2668.000000	64.614510 
2667.000000	64.609646 
2666.000000	64.596462 
2665.000000	64.576339 
2664.000000	64.551377 
2663.000000	64.524316 
2662.000000	64.498138 
2661.000000	64.475655 
2660.000000	64.459037 
2659.000000	64.449787 
2658.000000	64.448261 
2657.000000	64.453768 
2656.000000	64.464616 
2655.000000	64.478611 
2654.000000	64.493227 
2653.000000	64.506292 
2652.000000	64.516210 
2651.000000	64.522051 
2650.000000	64.523577 
2649.000000	64.521121 
2648.000000	64.515352 
2647.000000	64.506983 
2646.000000	64.496898 
2645.000000	64.485764 
2644.000000	64.474534 
2643.000000	64.463710 
2642.000000	64.453959 
2641.000000	64.445567 
2640.000000	64.438629 
2639.000000	64.433073 
2638.000000	64.428687 
2637.000000	64.425373 
2636.000000	64.423036 
2635.000000	64.421772 
2634.000000	64.421868 
2633.000000	64.423775 
2632.000000	64.427876 
2631.000000	64.434266 
2630.000000	64.442586 
2629.000000	64.452052 
2628.000000	64.461708 
2627.000000	64.470458 
2626.000000	64.477443 
2625.000000	64.482402 
2624.000000	64.485478 
2623.000000	64.487338 
2622.000000	64.489078 
2621.000000	64.491605 
2620.000000	64.495587 
2619.000000	64.501333 
2618.000000	64.508390 
2617.000000	64.515972 
2616.000000	64.522671 
2615.000000	64.527177 
2614.000000	64.528250 
2613.000000	64.525270 
2612.000000	64.518141 
2611.000000	64.507555 
2610.000000	64.494872 
2609.000000	64.481854 
2608.000000	64.470267 
2607.000000	64.461565 
2606.000000	64.456439 
2605.000000	64.454936 
2604.000000	64.456224 
2603.000000	64.458823 
2602.000000	64.461016 
2601.000000	64.461302 
2600.000000	64.458847 
2599.000000	64.453482 
2598.000000	64.446020 
2597.000000	64.437675 
2596.000000	64.429712 
2595.000000	64.423203 
2594.000000	64.418387 
2593.000000	64.414858 
2592.000000	64.411902 
2591.000000	64.408588 
2590.000000	64.404273 
2589.000000	64.398717 
2588.000000	64.392256 
2587.000000	64.385604 
2586.000000	64.379644 
2585.000000	64.375281 
2584.000000	64.373159 
2583.000000	64.373731 
2582.000000	64.377069 
2581.000000	64.383172 
2580.000000	64.391803 
2579.000000	64.402890 
2578.000000	64.416217 
2577.000000	64.431428 
2576.000000	64.447951 
2575.000000	64.464998 
2574.000000	64.481639 
2573.000000	64.496827 
2572.000000	64.509510 
2571.000000	64.519000 
2570.000000	64.524817 
2569.000000	64.526820 
2568.000000	64.525032 
2567.000000	64.519762 
2566.000000	64.511394 
2565.000000	64.500665 
2564.000000	64.488530 
2563.000000	64.476275 
2562.000000	64.465332 
2561.000000	64.457035 
2560.000000	64.452528 
2559.000000	64.452457 
2558.000000	64.456820 
2557.000000	64.465045 
2556.000000	64.476013 
2555.000000	64.488220 
2554.000000	64.500308 
2553.000000	64.511179 
2552.000000	64.520359 
2551.000000	64.527821 
2550.000000	64.534258 
2549.000000	64.540719 
2548.000000	64.548206 
2547.000000	64.557456 
2546.000000	64.568662 
2545.000000	64.581322 
2544.000000	64.594292 
2543.000000	64.605855 
2542.000000	64.614057 
2541.000000	64.617204 
2540.000000	64.614129 
2539.000000	64.604687 
2538.000000	64.590024 
2537.000000	64.572286 
2536.000000	64.554572 
2535.000000	64.539909 
2534.000000	64.530801 
2533.000000	64.528512 
2532.000000	64.532852 
2531.000000	64.541959 
2530.000000	64.552783 
2529.000000	64.561843 
2528.000000	64.565873 
2527.000000	64.562630 
2526.000000	64.551186 
2525.000000	64.532279 
2524.000000	64.507794 
2523.000000	64.480710 
2522.000000	64.454269 
2521.000000	64.431548 
2520.000000	64.414715 
2519.000000	64.404988 
2518.000000	64.402413 
2517.000000	64.406013 
2516.000000	64.414191 
2515.000000	64.424896 
2514.000000	64.436340 
2513.000000	64.446830 
2512.000000	64.455366 
2511.000000	64.461493 
2510.000000	64.465618 
2509.000000	64.468383 
2508.000000	64.470815 
2507.000000	64.473867 
2506.000000	64.478349 
2505.000000	64.484739 
2504.000000	64.493012 
2503.000000	64.502692 
2502.000000	64.512896 
2501.000000	64.522624 
2500.000000	64.530658 
2499.000000	64.535856 
2498.000000	64.537334 
2497.000000	64.534568 
2496.000000	64.527535 
2495.000000	64.516639 
2494.000000	64.502906 
2493.000000	64.487719 
2492.000000	64.472651 
2491.000000	64.459013 
2490.000000	64.447951 
2489.000000	64.440298 
2488.000000	64.436101 
2487.000000	64.434981 
2486.000000	64.436101 
2485.000000	64.438629 
2484.000000	64.441514 
2483.000000	64.444088 
2482.000000	64.445853 
2481.000000	64.446735 
2480.000000	64.446735 
2479.000000	64.446282 
2478.000000	64.445519 
2477.000000	64.444708 
2476.000000	64.444017 
2475.000000	64.443540 
2474.000000	64.443302 
2473.000000	64.443469 
2472.000000	64.444303 
2471.000000	64.446139 
2470.000000	64.449262 
2469.000000	64.453959 
2468.000000	64.460301 
2467.000000	64.468216 
2466.000000	64.477324 
2465.000000	64.487171 
2464.000000	64.497017 
2463.000000	64.506363 
2462.000000	64.514708 
2461.000000	64.521837 
2460.000000	64.527678 
2459.000000	64.532351 
2458.000000	64.536142 
2457.000000	64.539289 
2456.000000	64.542007 
2455.000000	64.544320 
2454.000000	64.546203 
2453.000000	64.547920 
2452.000000	64.549469 
2451.000000	64.551043 
2450.000000	64.552760 
2449.000000	64.554715 
2448.000000	64.556837 
2447.000000	64.558815 
2446.000000	64.560270 
2445.000000	64.560866 
2444.000000	64.560508 
2443.000000	64.559221 
2442.000000	64.557552 
2441.000000	64.556193 
2440.000000	64.556074 
2439.000000	64.557838 
2438.000000	64.561796 
2437.000000	64.567589 
2436.000000	64.574289 
2435.000000	64.580440 
2434.000000	64.584469 
2433.000000	64.584898 
2432.000000	64.580702 
2431.000000	64.571571 
2430.000000	64.558124 
2429.000000	64.541554 
2428.000000	64.523530 
2427.000000	64.505672 
2426.000000	64.489388 
2425.000000	64.475417 
2424.000000	64.463806 
2423.000000	64.454007 
2422.000000	64.445042 
2421.000000	64.435839 
2420.000000	64.425587 
2419.000000	64.414000 
2418.000000	64.401650 
2417.000000	64.389777 
2416.000000	64.380145 
2415.000000	64.374828 
2414.000000	64.375805 
2413.000000	64.384293 
2412.000000	64.400482 
2411.000000	64.423561 
2410.000000	64.451408 
2409.000000	64.480996 
2408.000000	64.508867 
2407.000000	64.531469 
2406.000000	64.546275 
2405.000000	64.551734 
2404.000000	64.547824 
2403.000000	64.535808 
2402.000000	64.518094 
2401.000000	64.497637 
2400.000000	64.477300 
2399.000000	64.459276 
2398.000000	64.444732 
2397.000000	64.433979 
2396.000000	64.426279 
2395.000000	64.420557 
2394.000000	64.415645 
2393.000000	64.410758 
2392.000000	64.405632 
2391.000000	64.400291 
2390.000000	64.394950 
2389.000000	64.389777 
2388.000000	64.384508 
2387.000000	64.378499 
2386.000000	64.370894 
2385.000000	64.360833 
2384.000000	64.348006 
2383.000000	64.332747 
2382.000000	64.316105 
2381.000000	64.299917 
2380.000000	64.286184 
2379.000000	64.276766 
2378.000000	64.272856 
2377.000000	64.274764 
2376.000000	64.281940 
2375.000000	64.293265 
2374.000000	64.307141 
2373.000000	64.321970 
2372.000000	64.336228 
2371.000000	64.348959 
2370.000000	64.359498 
2369.000000	64.367699 
2368.000000	64.373660 
2367.000000	64.377784 
2366.000000	64.380621 
2365.000000	64.382648 
2364.000000	64.384317 
2363.000000	64.386034 
2362.000000	64.388132 
2361.000000	64.390707 
2360.000000	64.393663 
2359.000000	64.396619 
2358.000000	64.399075 
2357.000000	64.400410 
2356.000000	64.399933 
2355.000000	64.397120 
2354.000000	64.391970 
2353.000000	64.384675 
2352.000000	64.376068 
2351.000000	64.367437 
2350.000000	64.360356 
2349.000000	64.356637 
2348.000000	64.357757 
2347.000000	64.364671 
2346.000000	64.377212 
2345.000000	64.394068 
2344.000000	64.412617 
2343.000000	64.429616 
2342.000000	64.441823 
2341.000000	64.446735 
2340.000000	64.443325 
2339.000000	64.432263 
2338.000000	64.416098 
2337.000000	64.398550 
2336.000000	64.383816 
2335.000000	64.375472 
2334.000000	64.375901 
2333.000000	64.385485 
2332.000000	64.402914 
2331.000000	64.425230 
2330.000000	64.448904 
2329.000000	64.470052 
2328.000000	64.485573 
2327.000000	64.493393 
2326.000000	64.492607 
2325.000000	64.483451 
2324.000000	64.467000 
2323.000000	64.445066 
2322.000000	64.419960 
2321.000000	64.394283 
2320.000000	64.370799 
2319.000000	64.351773 
2318.000000	64.338994 
2317.000000	64.333176 
2316.000000	64.333891 
2315.000000	64.339470 
2314.000000	64.347481 
2313.000000	64.355206 
2312.000000	64.360046 
2311.000000	64.360427 
2310.000000	64.356017 
2309.000000	64.347791 
2308.000000	64.337801 
2307.000000	64.328503 
2306.000000	64.322328 
2305.000000	64.320778 
2304.000000	64.324331 
2303.000000	64.332270 
2302.000000	64.342975 
2301.000000	64.354372 
2300.000000	64.364409 
2299.000000	64.371538 
2298.000000	64.374971 
2297.000000	64.374589 
2296.000000	64.370870 
2295.000000	64.364695 
2294.000000	64.357185 
2293.000000	64.349293 
2292.000000	64.341616 
2291.000000	64.334344 
2290.000000	64.327263 
2289.000000	64.320015 
2288.000000	64.312076 
2287.000000	64.303207 
2286.000000	64.293313 
2285.000000	64.282727 
2284.000000	64.272189 
2283.000000	64.262509 
2282.000000	64.254593 
2281.000000	64.249062 
2280.000000	64.246129 
2279.000000	64.245533 
2278.000000	64.246606 
2277.000000	64.248490 
2276.000000	64.250302 
2275.000000	64.251637 
2274.000000	64.252543 
2273.000000	64.253687 
2272.000000	64.255952 
2271.000000	64.260220 
2270.000000	64.266943 
2269.000000	64.275908 
2268.000000	64.286041 
2267.000000	64.295554 
2266.000000	64.302301 
2265.000000	64.304161 
2264.000000	64.299559 
2263.000000	64.288115 
2262.000000	64.270615 
2261.000000	64.249086 
2260.000000	64.226269 
2259.000000	64.205360 
2258.000000	64.189243 
2257.000000	64.179921 
2256.000000	64.178109 
2255.000000	64.183449 
2254.000000	64.194369 
2253.000000	64.208793 
2252.000000	64.224433 
2251.000000	64.239406 
2250.000000	64.252543 
2249.000000	64.263415 
2248.000000	64.272403 
2247.000000	64.280223 
2246.000000	64.287543 
2245.000000	64.294838 
2244.000000	64.301943 
2243.000000	64.308381 
2242.000000	64.313340 
2241.000000	64.316058 
2240.000000	64.316034 
2239.000000	64.313459 
2238.000000	64.308905 
2237.000000	64.303350 
2236.000000	64.297914 
2235.000000	64.293551 
2234.000000	64.290928 
2233.000000	64.290380 
2232.000000	64.291858 
2231.000000	64.295172 
2230.000000	64.300012 
2229.000000	64.305973 
2228.000000	64.312553 
2227.000000	64.319372 
2226.000000	64.325881 
2225.000000	64.331388 
2224.000000	64.335250 
2223.000000	64.336776 
2222.000000	64.335513 
2221.000000	64.331603 
2220.000000	64.325499 
2219.000000	64.318251 
2218.000000	64.311289 
2217.000000	64.306330 
2216.000000	64.304924 
2215.000000	64.308190 
2214.000000	64.316725 
2213.000000	64.330434 
2212.000000	64.348411 
2211.000000	64.369249 
2210.000000	64.391207 
2209.000000	64.412331 
2208.000000	64.430904 
2207.000000	64.445400 
2206.000000	64.454817 
2205.000000	64.458584 
2204.000000	64.456534 
2203.000000	64.448976 
2202.000000	64.436483 
2201.000000	64.420032 
2200.000000	64.400744 
2199.000000	64.379858 
2198.000000	64.358663 
2197.000000	64.338374 
2196.000000	64.320158 
2195.000000	64.305210 
2194.000000	64.294481 
2193.000000	64.288663 
2192.000000	64.288187 
2191.000000	64.292931 
2190.000000	64.302444 
2189.000000	64.315605 
2188.000000	64.331078 
2187.000000	64.347290 
2186.000000	64.362955 
2185.000000	64.376926 
2184.000000	64.388561 
2183.000000	64.397525 
2182.000000	64.403820 
2181.000000	64.407587 
2180.000000	64.408946 
2179.000000	64.408016 
2178.000000	64.404988 
2177.000000	64.400029 
2176.000000	64.393544 
2175.000000	64.386153 
2174.000000	64.378762 
2173.000000	64.372444 
2172.000000	64.368033 
2171.000000	64.365935 
2170.000000	64.366078 
2169.000000	64.367580 
2168.000000	64.368891 
2167.000000	64.368033 
2166.000000	64.363312 
2165.000000	64.353370 
2164.000000	64.337706 
2163.000000	64.316964 
2162.000000	64.292716 
2161.000000	64.267325 
2160.000000	64.243459 
2159.000000	64.223551 
2158.000000	64.209365 
2157.000000	64.201712 
2156.000000	64.200377 
2155.000000	64.204216 
2154.000000	64.211463 
2153.000000	64.220595 
2152.000000	64.230322 
2151.000000	64.240145 
2150.000000	64.250087 
2149.000000	64.260840 
2148.000000	64.273166 
2147.000000	64.287614 
2146.000000	64.304184 
2145.000000	64.322304 
2144.000000	64.340877 
2143.000000	64.358639 
2142.000000	64.374256 
2141.000000	64.386749 
2140.000000	64.395475 
2139.000000	64.400410 
2138.000000	64.401912 
2137.000000	64.400625 
2136.000000	64.397168 
2135.000000	64.392399 
2134.000000	64.386892 
2133.000000	64.381051 
2132.000000	64.375019 
2131.000000	64.369130 
2130.000000	64.363694 
2129.000000	64.359164 
2128.000000	64.356184 
2127.000000	64.355564 
2126.000000	64.357829 
2125.000000	64.363145 
2124.000000	64.371109 
2123.000000	64.380502 
2122.000000	64.389634 
2121.000000	64.396619 
2120.000000	64.399671 
2119.000000	64.397406 
2118.000000	64.389395 
2117.000000	64.376163 
2116.000000	64.359235 
2115.000000	64.340615 
2114.000000	64.322400 
2113.000000	64.306521 
2112.000000	64.294290 
2111.000000	64.286255 
2110.000000	64.282393 
2109.000000	64.282131 
2108.000000	64.284777 
2107.000000	64.289569 
2106.000000	64.295554 
2105.000000	64.301872 
2104.000000	64.307689 
2103.000000	64.312052 
2102.000000	64.313840 
2101.000000	64.312171 
2100.000000	64.306402 
2099.000000	64.296436 
2098.000000	64.282751 
2097.000000	64.266395 
2096.000000	64.248800 
2095.000000	64.231324 
2094.000000	64.215087 
2093.000000	64.200663 
2092.000000	64.188075 
2091.000000	64.176988 
2090.000000	64.167046 
2089.000000	64.158034 
2088.000000	64.150333 
2087.000000	64.144468 
2086.000000	64.141511 
2085.000000	64.142227 
2084.000000	64.147472 
2083.000000	64.157509 
2082.000000	64.172244 
2081.000000	64.191269 
2080.000000	64.213824 
2079.000000	64.238977 
2078.000000	64.265394 
2077.000000	64.291715 
2076.000000	64.316272 
2075.000000	64.337253 
2074.000000	64.352726 
2073.000000	64.361095 
2072.000000	64.361238 
2071.000000	64.353013 
2070.000000	64.337491 
2069.000000	64.316892 
2068.000000	64.294314 
2067.000000	64.273262 
2066.000000	64.256978 
2065.000000	64.248013 
2064.000000	64.247465 
2063.000000	64.254951 
2062.000000	64.268684 
2061.000000	64.285922 
2060.000000	64.303469 
2059.000000	64.318227 
2058.000000	64.327859 
2057.000000	64.331078 
2056.000000	64.327788 
2055.000000	64.319133 
2054.000000	64.306831 
2053.000000	64.293003 
2052.000000	64.279603 
2051.000000	64.268040 
2050.000000	64.258980 
2049.000000	64.252400 
2048.000000	64.247703 
2047.000000	64.244079 
2046.000000	64.240503 
2045.000000	64.236617 
2044.000000	64.232563 
2043.000000	64.229130 
2042.000000	64.227318 
2041.000000	64.228296 
2040.000000	64.232826 
2039.000000	64.241003 
2038.000000	64.252138 
2037.000000	64.264750 
2036.000000	64.276909 
2035.000000	64.286637 
2034.000000	64.292359 
2033.000000	64.293146 
2032.000000	64.288902 
2031.000000	64.280319 
2030.000000	64.268708 
2029.000000	64.255738 
2028.000000	64.243102 
2027.000000	64.232206 
2026.000000	64.224028 
2025.000000	64.219188 
2024.000000	64.217758 
2023.000000	64.219641 
2022.000000	64.224386 
2021.000000	64.231157 
2020.000000	64.239120 
2019.000000	64.247226 
2018.000000	64.254522 
2017.000000	64.260125 
2016.000000	64.263367 
2015.000000	64.264035 
2014.000000	64.262294 
2013.000000	64.258670 
2012.000000	64.253854 
2011.000000	64.248609 
2010.000000	64.243483 
2009.000000	64.238667 
2008.000000	64.234042 
2007.000000	64.229393 
2006.000000	64.224314 
2005.000000	64.218568 
2004.000000	64.212250 
2003.000000	64.205598 
2002.000000	64.199185 
2001.000000	64.193630 
2000.000000	64.189410 
1999.000000	64.186906 
1998.000000	64.186191 
1997.000000	64.187312 
1996.000000	64.190268 
1995.000000	64.195179 
1994.000000	64.202284 
1993.000000	64.211750 
1992.000000	64.223670 
1991.000000	64.237618 
1990.000000	64.252567 
1989.000000	64.266943 
1988.000000	64.279007 
1987.000000	64.286947 
1986.000000	64.289379 
1985.000000	64.285922 
1984.000000	64.277267 
1983.000000	64.265084 
1982.000000	64.251518 
1981.000000	64.238882 
1980.000000	64.229035 
1979.000000	64.222836 
1978.000000	64.220142 
1977.000000	64.219856 
1976.000000	64.220380 
1975.000000	64.220213 
1974.000000	64.218354 
1973.000000	64.214611 
1972.000000	64.209580 
1971.000000	64.204216 
1970.000000	64.199638 
1969.000000	64.196634 
1968.000000	64.195561 
1967.000000	64.196276 
1966.000000	64.198422 
1965.000000	64.201688 
1964.000000	64.206075 
1963.000000	64.212155 
1962.000000	64.220643 
1961.000000	64.232444 
1960.000000	64.248180 
1959.000000	64.268064 
1958.000000	64.291524 
1957.000000	64.317250 
1956.000000	64.343285 
1955.000000	64.367270 
1954.000000	64.386844 
1953.000000	64.400005 
1952.000000	64.405226 
1951.000000	64.401531 
1950.000000	64.388728 
1949.000000	64.367604 
1948.000000	64.339494 
1947.000000	64.306640 
1946.000000	64.271807 
1945.000000	64.238238 
1944.000000	64.209246 
1943.000000	64.187765 
1942.000000	64.175987 
1941.000000	64.174818 
1940.000000	64.183664 
1939.000000	64.200544 
1938.000000	64.222216 
1937.000000	64.244842 
1936.000000	64.264583 
1935.000000	64.278316 
1934.000000	64.284038 
1933.000000	64.281415 
1932.000000	64.271473 
1931.000000	64.256477 
1930.000000	64.239239 
1929.000000	64.222645 
1928.000000	64.209008 
1927.000000	64.200019 
1926.000000	64.196157 
1925.000000	64.196968 
1924.000000	64.201259 
1923.000000	64.207196 
1922.000000	64.213109 
1921.000000	64.217329 
1920.000000	64.218902 
1919.000000	64.217376 
1918.000000	64.213204 
1917.000000	64.207077 
1916.000000	64.200162 
1915.000000	64.193654 
1914.000000	64.188671 
1913.000000	64.185905 
1912.000000	64.185500 
1911.000000	64.187216 
1910.000000	64.190459 
1909.000000	64.194345 
1908.000000	64.197897 
1907.000000	64.200234 
1906.000000	64.200973 
1905.000000	64.200043 
1904.000000	64.197611 
1903.000000	64.193987 
1902.000000	64.189648 
1901.000000	64.184904 
1900.000000	64.180040 
1899.000000	64.175033 
1898.000000	64.170002 
1897.000000	64.165043 
1896.000000	64.160513 
1895.000000	64.156985 
1894.000000	64.155387 
1893.000000	64.156603 
1892.000000	64.161348 
1891.000000	64.169836 
1890.000000	64.181613 
1889.000000	64.195394 
1888.000000	64.209294 
1887.000000	64.221119 
1886.000000	64.229011 
1885.000000	64.231681 
1884.000000	64.228940 
1883.000000	64.221453 
1882.000000	64.210820 
1881.000000	64.198923 
1880.000000	64.187836 
1879.000000	64.179015 
1878.000000	64.173245 
1877.000000	64.170455 
1876.000000	64.170050 
1875.000000	64.170980 
1874.000000	64.172339 
1873.000000	64.173364 
1872.000000	64.173674 
1871.000000	64.173173 
1870.000000	64.172077 
1869.000000	64.170598 
1868.000000	64.168930 
1867.000000	64.167094 
1866.000000	64.165091 
1865.000000	64.162898 
1864.000000	64.160537 
1863.000000	64.158058 
1862.000000	64.155602 
1861.000000	64.153361 
1860.000000	64.151358 
1859.000000	64.149498 
1858.000000	64.147686 
1857.000000	64.145779 
1856.000000	64.143800 
1855.000000	64.142084 
1854.000000	64.141178 
1853.000000	64.141821 
1852.000000	64.144659 
1851.000000	64.150071 
1850.000000	64.157867 
1849.000000	64.167332 
1848.000000	64.177179 
1847.000000	64.185929 
1846.000000	64.192128 
1845.000000	64.194917 
1844.000000	64.193940 
1843.000000	64.189624 
1842.000000	64.182853 
1841.000000	64.174771 
1840.000000	64.166474 
1839.000000	64.158701 
1838.000000	64.151668 
1837.000000	64.145278 
1836.000000	64.139127 
1835.000000	64.132905 
1834.000000	64.126563 
1833.000000	64.120435 
1832.000000	64.114952 
1831.000000	64.110827 
1830.000000	64.108395 
1829.000000	64.107775 
1828.000000	64.108753 
1827.000000	64.110803 
1826.000000	64.113140 
1825.000000	64.115095 
1824.000000	64.116239 
1823.000000	64.116525 
1822.000000	64.116120 
1821.000000	64.115333 
1820.000000	64.114403 
1819.000000	64.113473 
1818.000000	64.112424 
1817.000000	64.111089 
1816.000000	64.109182 
1815.000000	64.106535 
1814.000000	64.103055 
1813.000000	64.098644 
1812.000000	64.093351 
1811.000000	64.087057 
1810.000000	64.079880 
1809.000000	64.072036 
1808.000000	64.064002 
1807.000000	64.056491 
1806.000000	64.050436 
1805.000000	64.046573 
1804.000000	64.045286 
1803.000000	64.046502 
1802.000000	64.049482 
1801.000000	64.052772 
1800.000000	64.054679 
1799.000000	64.053630 
1798.000000	64.048647 
1797.000000	64.039659 
1796.000000	64.027571 
1795.000000	64.014053 
1794.000000	64.001131 
1793.000000	63.990831 
1792.000000	63.984513 
1791.000000	63.982796 
1790.000000	63.985323 
1789.000000	63.991117 
1788.000000	63.998937 
1787.000000	64.007568 
1786.000000	64.016008 
1785.000000	64.023542 
1784.000000	64.029717 
1783.000000	64.034485 
1782.000000	64.037656 
1781.000000	64.039134 
1780.000000	64.038825 
1779.000000	64.036917 
1778.000000	64.033842 
1777.000000	64.030456 
1776.000000	64.027786 
1775.000000	64.026713 
1774.000000	64.027953 
1773.000000	64.031529 
1772.000000	64.036750 
1771.000000	64.042210 
1770.000000	64.046168 
1769.000000	64.046883 
1768.000000	64.043116 
1767.000000	64.034366 
1766.000000	64.021301 
1765.000000	64.005374 
1764.000000	63.988804 
1763.000000	63.974070 
1762.000000	63.963580 
1761.000000	63.959193 
1760.000000	63.961791 
1759.000000	63.971519 
1758.000000	63.987302 
1757.000000	64.007306 
1756.000000	64.029097 
1755.000000	64.049983 
1754.000000	64.067435 
1753.000000	64.079189 
1752.000000	64.083695 
1751.000000	64.080476 
1750.000000	64.069867 
1749.000000	64.053058 
1748.000000	64.031672 
1747.000000	64.007830 
1746.000000	63.983416 
1745.000000	63.960027 
1744.000000	63.938689 
1743.000000	63.919901 
1742.000000	63.903808 
1741.000000	63.890314 
1740.000000	63.879156 
1739.000000	63.870120 
1738.000000	63.862943 
1737.000000	63.857698 
1736.000000	63.854360 
1735.000000	63.852953 
1734.000000	63.853502 
1733.000000	63.855957 
1732.000000	63.860177 
1731.000000	63.865733 
1730.000000	63.872289 
1729.000000	63.878870 
1728.000000	63.884401 
1727.000000	63.887333 
1726.000000	63.885951 
1725.000000	63.878631 
1724.000000	63.864040 
1723.000000	63.841772 
1722.000000	63.812398 
1721.000000	63.777947 
1720.000000	63.741469 
1719.000000	63.706946 
1718.000000	63.678550 
1717.000000	63.660097 
1716.000000	63.654088 
1715.000000	63.661646 
1714.000000	63.682079 
1713.000000	63.712954 
1712.000000	63.750648 
1711.000000	63.790988 
1710.000000	63.829946 
1709.000000	63.864040 
1708.000000	63.890743 
1707.000000	63.908624 
1706.000000	63.917350 
1705.000000	63.917231 
1704.000000	63.909292 
1703.000000	63.895058 
1702.000000	63.876366 
1701.000000	63.855624 
1700.000000	63.835358 
1699.000000	63.818502 
1698.000000	63.807559 
1697.000000	63.804650 
1696.000000	63.810658 
1695.000000	63.825321 
1694.000000	63.846874 
1693.000000	63.872432 
1692.000000	63.898515 
1691.000000	63.921761 
1690.000000	63.939666 
1689.000000	63.950753 
1688.000000	63.955140 
1687.000000	63.954377 
1686.000000	63.950610 
1685.000000	63.946008 
1684.000000	63.942527 
1683.000000	63.941144 
1682.000000	63.941979 
1681.000000	63.944196 
1680.000000	63.946628 
1679.000000	63.947939 
1678.000000	63.947510 
1677.000000	63.945150 
1676.000000	63.941144 
1675.000000	63.936161 
1674.000000	63.930869 
1673.000000	63.925862 
1672.000000	63.921189 
1671.000000	63.916635 
1670.000000	63.911747 
1669.000000	63.906264 
1668.000000	63.900017 
1667.000000	63.893389 
1666.000000	63.887000 
1665.000000	63.881778 
1664.000000	63.878703 
1663.000000	63.879013 
1662.000000	63.883900 
1661.000000	63.894367 
1660.000000	63.910961 
1659.000000	63.933753 
1658.000000	63.962054 
1657.000000	63.994383 
1656.000000	64.028310 
1655.000000	64.060783 
1654.000000	64.088654 
1653.000000	64.109086 
1652.000000	64.119982 
1651.000000	64.120435 
1650.000000	64.110755 
1649.000000	64.092707 
1648.000000	64.068889 
1647.000000	64.042401 
1646.000000	64.016175 
1645.000000	63.992834 
1644.000000	63.974308 
1643.000000	63.961887 
1642.000000	63.956212 
1641.000000	63.957405 
1640.000000	63.964843 
1639.000000	63.977408 
1638.000000	63.993287 
1637.000000	64.010167 
1636.000000	64.025545 
1635.000000	64.037132 
1634.000000	64.043140 
1633.000000	64.042615 
1632.000000	64.035654 
1631.000000	64.023375 
1630.000000	64.007544 
1629.000000	63.990354 
1628.000000	63.974237 
1627.000000	63.961219 
1626.000000	63.952732 
1625.000000	63.949298 
1624.000000	63.950848 
1623.000000	63.956642 
1622.000000	63.965392 
1621.000000	63.975524 
1620.000000	63.985443 
1619.000000	63.993930 
1618.000000	63.999891 
1617.000000	64.003157 
1616.000000	64.004135 
1615.000000	64.003896 
1614.000000	64.003968 
1613.000000	64.005661 
1612.000000	64.009833 
1611.000000	64.016366 
1610.000000	64.024376 
1609.000000	64.032244 
1608.000000	64.038085 
1607.000000	64.040327 
1606.000000	64.038157 
1605.000000	64.031529 
1604.000000	64.021229 
1603.000000	64.008593 
1602.000000	63.995265 
1601.000000	63.982605 
1600.000000	63.971662 
1599.000000	63.963031 
1598.000000	63.956785 
1597.000000	63.952708 
1596.000000	63.950395 
1595.000000	63.949441 
1594.000000	63.949561 
1593.000000	63.950467 
1592.000000	63.952016 
1591.000000	63.953948 
1590.000000	63.955926 
1589.000000	63.957500 
1588.000000	63.958382 
1587.000000	63.958287 
1586.000000	63.957571 
1585.000000	63.957095 
1584.000000	63.957977 
1583.000000	63.961553 
1582.000000	63.968849 
1581.000000	63.980317 
1580.000000	63.995647 
1579.000000	64.013600 
1578.000000	64.032530 
1577.000000	64.050936 
1576.000000	64.067554 
1575.000000	64.081740 
1574.000000	64.093518 
1573.000000	64.103198 
1572.000000	64.111089 
1571.000000	64.117455 
1570.000000	64.122128 
1569.000000	64.124870 
1568.000000	64.125561 
1567.000000	64.124417 
1566.000000	64.122438 
1565.000000	64.121150 
1564.000000	64.122509 
1563.000000	64.128232 
1562.000000	64.139318 
1561.000000	64.155483 
1560.000000	64.174938 
1559.000000	64.194464 
1558.000000	64.210200 
1557.000000	64.218139 
1556.000000	64.215326 
1555.000000	64.200258 
1554.000000	64.173412 
1553.000000	64.137172 
1552.000000	64.095211 
1551.000000	64.051961 
1550.000000	64.011812 
1549.000000	63.978219 
1548.000000	63.953542 
1547.000000	63.938665 
1546.000000	63.933181 
1545.000000	63.935685 
1544.000000	63.944172 
1543.000000	63.956379 
1542.000000	63.970136 
1541.000000	63.983345 
1540.000000	63.994646 
1539.000000	64.003109 
1538.000000	64.008617 
1537.000000	64.011383 
1536.000000	64.012169 
1535.000000	64.011764 
1534.000000	64.010977 
1533.000000	64.010548 
1532.000000	64.010810 
1531.000000	64.011859 
1530.000000	64.013695 
1529.000000	64.016318 
1528.000000	64.019656 
1527.000000	64.023470 
1526.000000	64.027476 
1525.000000	64.031314 
1524.000000	64.034605 
1523.000000	64.037132 
1522.000000	64.038634 
1521.000000	64.039206 
1520.000000	64.039063 
1519.000000	64.038562 
1518.000000	64.038228 
1517.000000	64.038610 
1516.000000	64.039945 
1515.000000	64.042139 
1514.000000	64.044833 
1513.000000	64.047384 
1512.000000	64.049267 
1511.000000	64.050149 
1510.000000	64.049839 
1509.000000	64.048624 
1508.000000	64.047122 
1507.000000	64.046359 
1506.000000	64.047312 
1505.000000	64.051389 
1504.000000	64.059972 
1503.000000	64.074110 
1502.000000	64.094352 
1501.000000	64.119839 
1500.000000	64.148306 
1499.000000	64.176177 
1498.000000	64.199066 
1497.000000	64.212965 
1496.000000	64.215135 
1495.000000	64.205002 
1494.000000	64.184284 
1493.000000	64.156579 
1492.000000	64.126253 
1491.000000	64.097619 
1490.000000	64.073562 
1489.000000	64.055347 
1488.000000	64.042186 
1487.000000	64.032101 
1486.000000	64.022397 
1485.000000	64.010739 
1484.000000	63.995742 
1483.000000	63.977265 
1482.000000	63.956665 
1481.000000	63.935804 
1480.000000	63.917112 
1479.000000	63.902330 
1478.000000	63.892889 
1477.000000	63.889408 
1476.000000	63.891839 
1475.000000	63.899683 
1474.000000	63.912105 
1473.000000	63.928127 
1472.000000	63.946461 
1471.000000	63.965630 
1470.000000	63.983988 
1469.000000	64.000010 
1468.000000	64.012336 
1467.000000	64.020109 
1466.000000	64.023232 
1465.000000	64.022421 
1464.000000	64.019060 
1463.000000	64.014816 
1462.000000	64.011502 
1461.000000	64.010715 
1460.000000	64.013481 
1459.000000	64.020252 
1458.000000	64.030957 
1457.000000	64.044952 
1456.000000	64.061522 
1455.000000	64.079618 
1454.000000	64.097976 
1453.000000	64.115333 
1452.000000	64.130067 
1451.000000	64.140582 
1450.000000	64.145326 
1449.000000	64.143204 
1448.000000	64.133739 
1447.000000	64.117407 
1446.000000	64.095592 
1445.000000	64.070320 
1444.000000	64.043998 
1443.000000	64.018964 
1442.000000	63.996887 
1441.000000	63.978624 
1440.000000	63.963818 
1439.000000	63.951492 
1438.000000	63.940262 
1437.000000	63.928699 
1436.000000	63.915896 
1435.000000	63.901591 
1434.000000	63.886284 
1433.000000	63.870739 
1432.000000	63.856148 
1431.000000	63.843178 
1430.000000	63.832616 
1429.000000	63.824534 
1428.000000	63.819050 
1427.000000	63.816213 
1426.000000	63.816165 
1425.000000	63.819336 
1424.000000	63.825917 
1423.000000	63.835835 
1422.000000	63.848352 
1421.000000	63.861894 
1420.000000	63.874268 
1419.000000	63.882994 
1418.000000	63.885807 
1417.000000	63.881349 
1416.000000	63.869500 
1415.000000	63.851499 
1414.000000	63.829946 
1413.000000	63.808107 
1412.000000	63.789129 
1411.000000	63.775539 
1410.000000	63.768792 
1409.000000	63.769340 
1408.000000	63.776254 
1407.000000	63.788008 
1406.000000	63.802862 
1405.000000	63.819313 
1404.000000	63.836121 
1403.000000	63.852429 
1402.000000	63.867568 
1401.000000	63.881182 
1400.000000	63.892674 
1399.000000	63.901567 
1398.000000	63.907527 
1397.000000	63.910412 
1396.000000	63.910460 
1395.000000	63.908123 
1394.000000	63.904094 
1393.000000	63.898873 
1392.000000	63.892602 
1391.000000	63.884902 
1390.000000	63.875174 
1389.000000	63.862991 
1388.000000	63.848614 
1387.000000	63.833141 
1386.000000	63.818621 
1385.000000	63.807559 
1384.000000	63.802599 
1383.000000	63.805627 
1382.000000	63.817334 
1381.000000	63.836908 
1380.000000	63.862347 
1379.000000	63.890695 
1378.000000	63.918876 
1377.000000	63.944292 
1376.000000	63.965129 
1375.000000	63.980674 
1374.000000	63.991045 
1373.000000	63.996982 
1372.000000	63.999366 
1371.000000	63.998913 
1370.000000	63.996171 
1369.000000	63.991618 
1368.000000	63.985586 
1367.000000	63.978719 
1366.000000	63.971543 
1365.000000	63.964462 
1364.000000	63.957524 
1363.000000	63.950371 
1362.000000	63.942170 
1361.000000	63.931941 
1360.000000	63.918828 
1359.000000	63.902544 
1358.000000	63.883328 
1357.000000	63.862228 
1356.000000	63.840699 
1355.000000	63.820648 
1354.000000	63.803601 
1353.000000	63.790655 
1352.000000	63.782167 
1351.000000	63.778018 
1350.000000	63.777685 
1349.000000	63.780546 
1348.000000	63.786029 
1347.000000	63.793778 
1346.000000	63.803529 
1345.000000	63.815093 
1344.000000	63.827776 
1343.000000	63.840889 
1342.000000	63.853406 
1341.000000	63.864421 
1340.000000	63.873195 
1339.000000	63.879346 
1338.000000	63.883018 
1337.000000	63.884902 
1336.000000	63.885951 
1335.000000	63.887071 
1334.000000	63.888883 
1333.000000	63.891530 
1332.000000	63.894581 
1331.000000	63.897109 
1330.000000	63.897705 
1329.000000	63.894963 
1328.000000	63.887858 
1327.000000	63.875961 
1326.000000	63.859629 
1325.000000	63.839960 
1324.000000	63.818812 
1323.000000	63.798093 
1322.000000	63.779473 
1321.000000	63.764452 
1320.000000	63.753509 
1319.000000	63.746380 
1318.000000	63.741993 
1317.000000	63.738775 
1316.000000	63.735246 
1315.000000	63.730335 
1314.000000	63.723802 
1313.000000	63.716244 
1312.000000	63.709402 
1311.000000	63.705563 
1310.000000	63.707160 
1309.000000	63.716053 
1308.000000	63.733148 
1307.000000	63.757944 
1306.000000	63.788676 
1305.000000	63.822293 
1304.000000	63.855290 
1303.000000	63.884305 
1302.000000	63.906669 
1301.000000	63.920998 
1300.000000	63.927292 
1299.000000	63.927006 
1298.000000	63.922500 
1297.000000	63.916349 
1296.000000	63.911032 
1295.000000	63.908386 
1294.000000	63.909482 
1293.000000	63.914394 
1292.000000	63.922476 
1291.000000	63.932394 
1290.000000	63.942885 
1289.000000	63.952469 
1288.000000	63.959693 
1287.000000	63.963294 
1286.000000	63.962268 
1285.000000	63.956069 
1284.000000	63.944530 
1283.000000	63.928127 
1282.000000	63.907933 
1281.000000	63.885569 
1280.000000	63.862800 
1279.000000	63.841366 
1278.000000	63.822507 
1277.000000	63.807153 
1276.000000	63.795590 
1275.000000	63.787460 
1274.000000	63.782095 
1273.000000	63.778614 
1272.000000	63.776516 
1271.000000	63.775229 
1270.000000	63.774704 
1269.000000	63.774991 
1268.000000	63.776469 
1267.000000	63.779354 
1266.000000	63.783955 
1265.000000	63.790321 
1264.000000	63.798451 
1263.000000	63.808321 
1262.000000	63.819742 
1261.000000	63.832402 
1260.000000	63.845872 
1259.000000	63.859748 
1258.000000	63.873434 
1257.000000	63.886332 
1256.000000	63.897848 
1255.000000	63.907504 
1254.000000	63.914585 
1253.000000	63.918447 
1252.000000	63.918519 
1251.000000	63.914752 
1250.000000	63.907313 
1249.000000	63.897156 
1248.000000	63.885951 
1247.000000	63.875913 
1246.000000	63.869357 
1245.000000	63.868260 
1244.000000	63.873958 
1243.000000	63.886547 
1242.000000	63.904833 
1241.000000	63.926458 
1240.000000	63.948416 
1239.000000	63.967370 
1238.000000	63.980627 
1237.000000	63.986515 
1236.000000	63.984847 
1235.000000	63.976907 
1234.000000	63.965272 
1233.000000	63.953185 
1232.000000	63.943791 
1231.000000	63.939738 
1230.000000	63.942527 
1229.000000	63.952445 
1228.000000	63.968276 
1227.000000	63.987851 
1226.000000	64.008450 
1225.000000	64.027309 
1224.000000	64.042115 
1223.000000	64.051413 
1222.000000	64.054775 
1221.000000	64.052867 
1220.000000	64.047193 
1219.000000	64.039707 
1218.000000	64.032506 
1217.000000	64.027547 
1216.000000	64.026069 
1215.000000	64.028692 
1214.000000	64.035105 
1213.000000	64.044570 
1212.000000	64.055681 
1211.000000	64.066958 
1210.000000	64.077019 
1209.000000	64.084744 
1208.000000	64.089512 
1207.000000	64.091396 
1206.000000	64.090824 
1205.000000	64.088582 
1204.000000	64.085721 
1203.000000	64.083194 
1202.000000	64.081835 
1201.000000	64.082169 
1200.000000	64.084506 
1199.000000	64.089012 
1198.000000	64.095735 
1197.000000	64.104628 
1196.000000	64.115667 
1195.000000	64.128875 
1194.000000	64.143967 
1193.000000	64.160537 
1192.000000	64.177989 
1191.000000	64.195537 
1190.000000	64.212179 
1189.000000	64.226675 
1188.000000	64.237856 
1187.000000	64.244604 
1186.000000	64.246129 
1185.000000	64.241957 
1184.000000	64.232158 
1183.000000	64.217090 
1182.000000	64.197778 
1181.000000	64.175105 
1180.000000	64.150285 
1179.000000	64.124369 
1178.000000	64.098072 
1177.000000	64.072012 
1176.000000	64.046621 
1175.000000	64.022254 
1174.000000	63.999199 
1173.000000	63.977766 
1172.000000	63.958358 
1171.000000	63.941359 
1170.000000	63.927125 
1169.000000	63.915753 
1168.000000	63.907265 
1167.000000	63.901424 
1166.000000	63.897895 
1165.000000	63.896179 
1164.000000	63.895797 
1163.000000	63.896369 
1162.000000	63.897442 
1161.000000	63.898682 
1160.000000	63.899683 
1159.000000	63.899946 
1158.000000	63.899087 
1157.000000	63.896846 
1156.000000	63.892984 
1155.000000	63.887643 
1154.000000	63.880991 
1153.000000	63.873291 
1152.000000	63.864827 
1151.000000	63.855934 
1150.000000	63.847160 
1149.000000	63.839316 
1148.000000	63.833618 
1147.000000	63.831305 
1146.000000	63.833403 
1145.000000	63.840436 
1144.000000	63.852190 
1143.000000	63.867783 
1142.000000	63.885760 
1141.000000	63.904500 
1140.000000	63.922691 
1139.000000	63.939285 
1138.000000	63.953471 
1137.000000	63.964796 
1136.000000	63.972783 
1135.000000	63.977313 
1134.000000	63.978672 
1133.000000	63.977313 
1132.000000	63.974142 
1131.000000	63.970112 
1130.000000	63.966345 
1129.000000	63.963413 
1128.000000	63.961577 
1127.000000	63.960504 
1126.000000	63.959622 
1125.000000	63.958263 
1124.000000	63.955879 
1123.000000	63.952159 
1122.000000	63.947129 
1121.000000	63.941001 
1120.000000	63.934254 
1119.000000	63.927197 
1118.000000	63.920021 
1117.000000	63.912868 
1116.000000	63.905882 
1115.000000	63.899421 
1114.000000	63.893985 
1113.000000	63.890337 
1112.000000	63.889122 
1111.000000	63.890886 
1110.000000	63.895368 
1109.000000	63.901495 
1108.000000	63.907289 
1107.000000	63.910245 
1106.000000	63.908004 
1105.000000	63.898515 
1104.000000	63.880944 
1103.000000	63.855981 
1102.000000	63.825941 
1101.000000	63.794350 
1100.000000	63.765048 
1099.000000	63.741540 
1098.000000	63.726067 
1097.000000	63.719487 
1096.000000	63.721132 
1095.000000	63.729000 
1094.000000	63.740682 
1093.000000	63.753700 
1092.000000	63.766169 
1091.000000	63.777160 
1090.000000	63.786458 
1089.000000	63.794374 
1088.000000	63.801646 
1087.000000	63.808465 
1086.000000	63.814711 
1085.000000	63.819408 
1084.000000	63.821148 
1083.000000	63.818073 
1082.000000	63.808369 
1081.000000	63.790869 
1080.000000	63.765144 
1079.000000	63.732266 
1078.000000	63.694500 
1077.000000	63.655567 
1076.000000	63.619661 
1075.000000	63.591408 
1074.000000	63.574790 
1073.000000	63.572359 
1072.000000	63.584446 
1071.000000	63.609170 
1070.000000	63.642597 
1069.000000	63.679647 
1068.000000	63.714790 
1067.000000	63.743400 
1066.000000	63.762497 
1065.000000	63.771295 
1064.000000	63.770794 
1063.000000	63.763403 
1062.000000	63.751840 
1061.000000	63.738512 
1060.000000	63.724589 
1059.000000	63.709974 
1058.000000	63.693308 
1057.000000	63.672614 
1056.000000	63.646388 
1055.000000	63.614106 
1054.000000	63.577198 
1053.000000	63.538813 
1052.000000	63.504052 
1051.000000	63.478136 
1050.000000	63.465976 
1049.000000	63.470721 
1048.000000	63.493132 
1047.000000	63.531017 
1046.000000	63.579869 
1045.000000	63.633656 
1044.000000	63.685917 
1043.000000	63.731074 
1042.000000	63.765072 
1041.000000	63.785767 
1040.000000	63.793110 
1039.000000	63.788604 
1038.000000	63.774847 
1037.000000	63.754916 
1036.000000	63.731741 
1035.000000	63.707685 
1034.000000	63.684368 
1033.000000	63.662648 
1032.000000	63.642835 
1031.000000	63.624954 
1030.000000	63.608860 
1029.000000	63.594436 
1028.000000	63.581824 
1027.000000	63.571071 
1026.000000	63.562154 
1025.000000	63.554596 
1024.000000	63.547563 
1023.000000	63.540172 
1022.000000	63.531446 
1021.000000	63.520956 
1020.000000	63.508772 
1019.000000	63.495802 
1018.000000	63.483381 
1017.000000	63.473343 
1016.000000	63.467240 
1015.000000	63.466262 
1014.000000	63.470959 
1013.000000	63.480973 
1012.000000	63.494992 
1011.000000	63.511085 
1010.000000	63.527178 
1009.000000	63.541245 
1008.000000	63.551855 
1007.000000	63.558483 
1006.000000	63.561511 
1005.000000	63.562059 
1004.000000	63.561391 
1003.000000	63.560724 
1002.000000	63.560342 
1001.000000	63.560128 
1000.000000	63.559079 
999.000000	 63.556003 
998.000000	 63.549661 
997.000000	 63.539624 
996.000000	 63.525986 
995.000000	 63.509654 
994.000000	 63.491940 
993.000000	 63.474321 
992.000000	 63.458037 
991.000000	 63.443493 
990.000000	 63.430857 
989.000000	 63.419914 
988.000000	 63.410735 
987.000000	 63.403844 
986.000000	 63.400244 
985.000000	 63.401246 
984.000000	 63.407683 
983.000000	 63.419485 
982.000000	 63.435220 
981.000000	 63.452219 
980.000000	 63.467168 
979.000000	 63.476848 
978.000000	 63.479113 
977.000000	 63.473534 
976.000000	 63.461685 
975.000000	 63.446569 
974.000000	 63.431882 
973.000000	 63.421106 
972.000000	 63.416481 
971.000000	 63.418769 
970.000000	 63.427066 
969.000000	 63.439321 
968.000000	 63.453316 
967.000000	 63.467073 
966.000000	 63.479638 
965.000000	 63.490939 
964.000000	 63.501620 
963.000000	 63.512253 
962.000000	 63.523030 
961.000000	 63.533496 
960.000000	 63.542556 
959.000000	 63.549041 
958.000000	 63.552379 
957.000000	 63.552761 
956.000000	 63.551425 
955.000000	 63.550519 
954.000000	 63.552522 
953.000000	 63.559341 
952.000000	 63.571643 
951.000000	 63.588666 
950.000000	 63.608193 
949.000000	 63.626933 
948.000000	 63.641333 
947.000000	 63.648462 
946.000000	 63.646626 
945.000000	 63.635659 
944.000000	 63.616824 
943.000000	 63.592267 
942.000000	 63.564658 
941.000000	 63.536357 
940.000000	 63.509225 
939.000000	 63.484334 
938.000000	 63.462328 
937.000000	 63.443565 
936.000000	 63.428497 
935.000000	 63.417816 
934.000000	 63.412427 
933.000000	 63.413262 
932.000000	 63.420915 
931.000000	 63.435459 
930.000000	 63.456368 
929.000000	 63.482809 
928.000000	 63.513565 
927.000000	 63.547420 
926.000000	 63.583254 
925.000000	 63.620138 
924.000000	 63.657426 
923.000000	 63.694190 
922.000000	 63.729763 
921.000000	 63.763141 
920.000000	 63.793349 
919.000000	 63.819074 
918.000000	 63.839197 
917.000000	 63.852500 
916.000000	 63.858652 
915.000000	 63.857650 
914.000000	 63.850474 
913.000000	 63.838529 
912.000000	 63.824152 
911.000000	 63.809466 
910.000000	 63.796472 
909.000000	 63.786482 
908.000000	 63.780069 
907.000000	 63.776779 
906.000000	 63.775300 
905.000000	 63.773965 
904.000000	 63.771176 
903.000000	 63.765883 
902.000000	 63.757896 
901.000000	 63.747739 
900.000000	 63.736581 
899.000000	 63.725709 
898.000000	 63.716363 
897.000000	 63.708901 
896.000000	 63.703250 
895.000000	 63.699340 
894.000000	 63.697171 
893.000000	 63.697028 
892.000000	 63.699769 
891.000000	 63.706684 
890.000000	 63.718962 
889.000000	 63.737058 
888.000000	 63.760328 
887.000000	 63.786506 
886.000000	 63.812518 
885.000000	 63.834595 
884.000000	 63.849806 
883.000000	 63.856530 
882.000000	 63.855409 
881.000000	 63.848924 
880.000000	 63.840842 
879.000000	 63.835072 
878.000000	 63.834691 
877.000000	 63.840866 
876.000000	 63.852572 
875.000000	 63.866901 
874.000000	 63.880181 
873.000000	 63.888859 
872.000000	 63.890576 
871.000000	 63.884663 
870.000000	 63.872146 
869.000000	 63.855671 
868.000000	 63.838195 
867.000000	 63.822746 
866.000000	 63.811469 
865.000000	 63.805627 
864.000000	 63.805747 
863.000000	 63.811445 
862.000000	 63.822507 
861.000000	 63.838148 
860.000000	 63.857531 
859.000000	 63.879036 
858.000000	 63.900446 
857.000000	 63.918924 
856.000000	 63.931179 
855.000000	 63.934278 
854.000000	 63.926243 
853.000000	 63.906884 
852.000000	 63.878130 
851.000000	 63.843822 
850.000000	 63.808870 
849.000000	 63.778448 
848.000000	 63.756823 
847.000000	 63.746261 
846.000000	 63.746738 
845.000000	 63.756108 
844.000000	 63.770890 
843.000000	 63.787078 
842.000000	 63.801550 
841.000000	 63.812518 
840.000000	 63.820266 
839.000000	 63.826346 
838.000000	 63.833451 
837.000000	 63.844180 
836.000000	 63.860344 
835.000000	 63.882589 
834.000000	 63.910055 
833.000000	 63.940620 
832.000000	 63.971114 
831.000000	 63.998556 
830.000000	 64.020061 
829.000000	 64.033818 
828.000000	 64.038658 
827.000000	 64.034366 
826.000000	 64.021420 
825.000000	 64.000868 
824.000000	 63.974165 
823.000000	 63.942933 
822.000000	 63.908982 
821.000000	 63.874220 
820.000000	 63.840770 
819.000000	 63.810825 
818.000000	 63.786411 
817.000000	 63.769364 
816.000000	 63.760972 
815.000000	 63.761925 
814.000000	 63.772034 
813.000000	 63.790369 
812.000000	 63.814902 
811.000000	 63.843369 
810.000000	 63.873147 
809.000000	 63.901972 
808.000000	 63.927912 
807.000000	 63.949418 
806.000000	 63.965702 
805.000000	 63.976120 
804.000000	 63.980436 
803.000000	 63.978385 
802.000000	 63.969922 
801.000000	 63.955092 
800.000000	 63.934516 
799.000000	 63.909506 
798.000000	 63.882350 
797.000000	 63.856196 
796.000000	 63.834667 
795.000000	 63.821411 
794.000000	 63.819289 
793.000000	 63.829588 
792.000000	 63.851618 
791.000000	 63.882613 
790.000000	 63.918066 
789.000000	 63.952398 
788.000000	 63.980555 
787.000000	 63.998627 
786.000000	 64.005136 
785.000000	 64.000964 
784.000000	 63.989400 
783.000000	 63.975214 
782.000000	 63.963580 
781.000000	 63.958764 
780.000000	 63.963484 
779.000000	 63.978385 
778.000000	 64.002084 
777.000000	 64.031815 
776.000000	 64.064240 
775.000000	 64.096355 
774.000000	 64.126062 
773.000000	 64.152288 
772.000000	 64.174890 
771.000000	 64.194107 
770.000000	 64.210176 
769.000000	 64.222979 
768.000000	 64.231848 
767.000000	 64.235472 
766.000000	 64.232802 
765.000000	 64.223194 
764.000000	 64.206790 
763.000000	 64.184522 
762.000000	 64.158082 
761.000000	 64.129543 
760.000000	 64.101076 
759.000000	 64.074420 
758.000000	 64.050579 
757.000000	 64.029955 
756.000000	 64.012718 
755.000000	 63.998937 
754.000000	 63.988637 
753.000000	 63.981938 
752.000000	 63.978576 
751.000000	 63.978099 
750.000000	 63.979625 
749.000000	 63.982391 
748.000000	 63.985562 
747.000000	 63.989138 
746.000000	 63.993430 
745.000000	 63.999700 
744.000000	 64.009952 
743.000000	 64.025998 
742.000000	 64.049053 
741.000000	 64.079713 
740.000000	 64.117574 
739.000000	 64.161109 
738.000000	 64.207553 
737.000000	 64.253425 
736.000000	 64.294743 
735.000000	 64.327883 
734.000000	 64.350008 
733.000000	 64.359450 
732.000000	 64.356207 
731.000000	 64.342331 
730.000000	 64.321470 
729.000000	 64.298391 
728.000000	 64.278125 
727.000000	 64.265561 
726.000000	 64.263916 
725.000000	 64.274525 
724.000000	 64.295792 
723.000000	 64.324355 
722.000000	 64.354729 
721.000000	 64.380860 
720.000000	 64.396810 
719.000000	 64.398074 
718.000000	 64.382147 
717.000000	 64.349126 
716.000000	 64.301371 
715.000000	 64.242982 
714.000000	 64.179372 
713.000000	 64.116549 
712.000000	 64.060115 
711.000000	 64.014744 
710.000000	 63.984131 
709.000000	 63.970565 
708.000000	 63.974738 
707.000000	 63.995814 
706.000000	 64.031219 
705.000000	 64.077329 
704.000000	 64.129018 
703.000000	 64.180922 
702.000000	 64.227867 
701.000000	 64.265799 
700.000000	 64.291930 
699.000000	 64.305520 
698.000000	 64.307904 
697.000000	 64.301919 
696.000000	 64.291381 
695.000000	 64.279818 
694.000000	 64.269876 
693.000000	 64.262676 
692.000000	 64.257836 
691.000000	 64.253616 
690.000000	 64.247703 
689.000000	 64.237928 
688.000000	 64.223074 
687.000000	 64.202833 
686.000000	 64.178061 
685.000000	 64.150643 
684.000000	 64.123320 
683.000000	 64.099478 
682.000000	 64.082479 
681.000000	 64.075469 
680.000000	 64.080357 
679.000000	 64.097428 
678.000000	 64.124584 
677.000000	 64.157843 
676.000000	 64.191246 
675.000000	 64.217996 
674.000000	 64.231586 
673.000000	 64.227104 
672.000000	 64.202523 
671.000000	 64.159345 
670.000000	 64.102482 
669.000000	 64.039039 
668.000000	 63.977122 
667.000000	 63.924098 
666.000000	 63.885641 
665.000000	 63.864707 
664.000000	 63.862133 
663.000000	 63.876986 
662.000000	 63.907241 
661.000000	 63.950252 
660.000000	 64.002346 
659.000000	 64.059042 
658.000000	 64.114403 
657.000000	 64.161992 
656.000000	 64.195394 
655.000000	 64.210057 
654.000000	 64.204311 
653.000000	 64.180159 
652.000000	 64.143514 
651.000000	 64.102983 
650.000000	 64.068198 
649.000000	 64.047288 
648.000000	 64.045310 
647.000000	 64.062619 
646.000000	 64.094901 
645.000000	 64.134335 
644.000000	 64.172124 
643.000000	 64.200448 
642.000000	 64.214515 
641.000000	 64.213418 
640.000000	 64.199900 
639.000000	 64.179396 
638.000000	 64.158058 
637.000000	 64.140987 
636.000000	 64.130997 
635.000000	 64.128303 
634.000000	 64.131140 
633.000000	 64.136409 
632.000000	 64.140939 
631.000000	 64.142417 
630.000000	 64.140129 
629.000000	 64.135527 
628.000000	 64.131307 
627.000000	 64.130401 
626.000000	 64.134597 
625.000000	 64.144182 
624.000000	 64.156866 
623.000000	 64.168500 
622.000000	 64.173769 
621.000000	 64.167594 
620.000000	 64.146518 
619.000000	 64.109897 
618.000000	 64.060020 
617.000000	 64.001679 
616.000000	 63.941574 
615.000000	 63.886642 
614.000000	 63.843226 
613.000000	 63.816046 
612.000000	 63.807272 
611.000000	 63.816332 
610.000000	 63.840031 
609.000000	 63.873386 
608.000000	 63.910150 
607.000000	 63.944196 
606.000000	 63.969779 
605.000000	 63.982534 
604.000000	 63.980197 
603.000000	 63.962841 
602.000000	 63.932728 
601.000000	 63.893842 
600.000000	 63.851141 
599.000000	 63.809895 
598.000000	 63.774967 
597.000000	 63.750147 
596.000000	 63.737773 
595.000000	 63.738417 
594.000000	 63.750982 
593.000000	 63.772821 
592.000000	 63.800477 
591.000000	 63.829421 
590.000000	 63.854575 
589.000000	 63.870882 
588.000000	 63.874125 
587.000000	 63.861703 
586.000000	 63.832664 
585.000000	 63.789272 
584.000000	 63.736653 
583.000000	 63.682794 
582.000000	 63.637018 
581.000000	 63.608741 
580.000000	 63.605499 
579.000000	 63.630557 
578.000000	 63.681983 
577.000000	 63.752627 
576.000000	 63.831520 
575.000000	 63.905572 
574.000000	 63.962531 
573.000000	 63.993597 
572.000000	 63.995289 
571.000000	 63.969230 
570.000000	 63.922166 
569.000000	 63.863921 
568.000000	 63.805699 
567.000000	 63.757109 
566.000000	 63.725399 
565.000000	 63.714790 
564.000000	 63.726496 
563.000000	 63.759326 
562.000000	 63.810157 
561.000000	 63.874840 
560.000000	 63.948345 
559.000000	 64.025092 
558.000000	 64.098954 
557.000000	 64.163255 
556.000000	 64.212918 
555.000000	 64.245152 
554.000000	 64.260554 
553.000000	 64.263129 
552.000000	 64.259648 
551.000000	 64.258313 
550.000000	 64.266753 
549.000000	 64.290428 
548.000000	 64.331674 
547.000000	 64.389109 
546.000000	 64.458465 
545.000000	 64.533805 
544.000000	 64.609289 
543.000000	 64.680385 
542.000000	 64.745163 
541.000000	 64.803695 
540.000000	 64.857769 
539.000000	 64.909005 
538.000000	 64.958977 
537.000000	 65.006399 
536.000000	 65.047788 
535.000000	 65.076613 
534.000000	 65.086078 
533.000000	 65.069508 
532.000000	 65.023565 
531.000000	 64.948344 
530.000000	 64.848208 
529.000000	 64.731669 
528.000000	 64.610385 
527.000000	 64.496684 
526.000000	 64.401197 
525.000000	 64.331459 
524.000000	 64.290738 
523.000000	 64.277124 
522.000000	 64.285159 
521.000000	 64.306545 
520.000000	 64.333677 
519.000000	 64.359712 
518.000000	 64.382290 
517.000000	 64.403009 
516.000000	 64.428281 
515.000000	 64.465856 
514.000000	 64.523363 
513.000000	 64.606285 
512.000000	 64.714193 
511.000000	 64.841055 
510.000000	 64.973616 
509.000000	 65.094733 
508.000000	 65.185236 
507.000000	 65.228986 
506.000000	 65.215301 
505.000000	 65.141892 
504.000000	 65.015602 
503.000000	 64.851665 
502.000000	 64.670920 
501.000000	 64.496135 
500.000000	 64.347815 
499.000000	 64.240956 
498.000000	 64.183449 
497.000000	 64.175415 
496.000000	 64.210677 
495.000000	 64.278268 
494.000000	 64.363789 
493.000000	 64.452457 
492.000000	 64.530444 
491.000000	 64.587378 
490.000000	 64.615845 
489.000000	 64.613199 
488.000000	 64.580368 
487.000000	 64.522767 
486.000000	 64.448571 
485.000000	 64.368748 
484.000000	 64.295291 
483.000000	 64.240169 
482.000000	 64.213585 
481.000000	 64.222264 
480.000000	 64.269638 
479.000000	 64.352250 
478.000000	 64.460682 
477.000000	 64.578866 
476.000000	 64.686799 
475.000000	 64.764165 
474.000000	 64.794754 
473.000000	 64.769315 
472.000000	 64.688086 
471.000000	 64.561152 
470.000000	 64.407038 
469.000000	 64.250802 
468.000000	 64.119315 
467.000000	 64.037370 
466.000000	 64.022135 
465.000000	 64.079833 
464.000000	 64.203882 
463.000000	 64.377331 
462.000000	 64.576363 
461.000000	 64.770698 
460.000000	 64.935827 
459.000000	 65.055918 
458.000000	 65.130829 
457.000000	 65.174341 
456.000000	 65.211057 
455.000000	 65.268778 
454.000000	 65.369176 
453.000000	 65.524625 
452.000000	 65.726375 
451.000000	 65.946125 
450.000000	 66.142034 
449.000000	 66.271424 
448.000000	 66.300296 
447.000000	 66.213154 
446.000000	 66.022610 
445.000000	 65.767908 
444.000000	 65.502691 
443.000000	 65.279912 
442.000000	 65.141725 
441.000000	 65.104651 
440.000000	 65.153050 
439.000000	 65.240955 
438.000000	 65.305495 
437.000000	 65.283203 
436.000000	 65.126061 
435.000000	 64.819145 
434.000000	 64.379024 
433.000000	 63.861393 
432.000000	 63.343906 
431.000000	 62.917351 
430.000000	 62.657475 
429.000000	 62.619185 
428.000000	 62.823104 
427.000000	 63.256001 
426.000000	 63.870882 
425.000000	 64.604473 
424.000000	 65.387821 
423.000000	 66.163372 
422.000000	 66.887879 
421.000000	 67.548775 
420.000000	 68.159842 
419.000000	 68.748259 
418.000000	 69.337511 
417.000000	 69.959878 
416.000000	 70.640802 
415.000000	 71.377563 
414.000000	 72.132277 
413.000000	 72.854161 
412.000000	 73.477649 
411.000000	 73.925256 
410.000000	 74.125957 
409.000000	 74.049234 
408.000000	 73.701190 
407.000000	 73.134708 
406.000000	 72.427320 
405.000000	 71.665024 
404.000000	 70.925378 
403.000000	 70.260214 
402.000000	 69.700241 
401.000000	 69.269967 
400.000000	 68.977570 
399.000000	 68.827319 
398.000000	 68.805789 
397.000000	 68.893933 
396.000000	 69.032263 
395.000000	 69.155836 
394.000000	 69.095540 
393.000000	 68.563771 
392.000000	 67.410731 
391.000000	 65.621352 
390.000000	 63.332557 
389.000000	 60.828399 
388.000000	 57.702279 
387.000000	 53.299903 
386.000000	 47.235012 
385.000000	 39.504837 
384.000000	 32.275581 
383.000000	 28.039002 
382.000000	 27.744960 
381.000000	 31.097054 
380.000000	 33.703947 
379.000000	 31.554174 
378.000000	 24.303007 
377.000000	 14.002490 
376.000000	 9.356856  
375.000000	 16.618943 
374.000000	 34.455800 
373.000000	 56.224012 
372.000000	 65.022563 
371.000000	 50.529909 
370.000000	 15.022063 

