PE IR       SPECTRUM    SPECTRUM    ASCII       PEDS        1.60        
  -1
BZ4CFA~1.ASC
17/04/07
22:34:29.00
17/04/07
22:34:29.00
tln
$BZ1503107-1_t0113$<tbV0>[7.8,13.0,8.0,0.0,27,1,0]
370.000000
64









2002,4.07    
MIRTGS : RIGHTBACK : INTERNAL 2
MIR : ON : INTERNAL 2
OPTKBR

0.200000
8
8.000000
FILLER
RATIO
SPECTRUM
UNLOCKED 256

DOUBLE
64
COMBINED
1
0
0


1.000000
RATIO


1
0
TRUE
51149
0
LEFT NOT FITTED RIGHT NOT FITTED 0
NONE
NONE
15600
12.000000
4.427000
51148
TRUE
1 0 8 72 0 0 0 0 

15798.010000






#HDR
-1
-1
#GR
CM-1
%T
0.00002384185791015625
0.0
5000.000000
-1.000000
4631
8
68.877291
50.346016
#DATA
5000.000000	65.471744 
4999.000000	65.237998 
4998.000000	65.029048 
4997.000000	64.859747 
4996.000000	64.744138 
4995.000000	64.692449 
4994.000000	64.709806 
4993.000000	64.793372 
4992.000000	64.932584 
4991.000000	65.109252 
4990.000000	65.299558 
4989.000000	65.476965 
4988.000000	65.615487 
4987.000000	65.693593 
4986.000000	65.696167 
4985.000000	65.616607 
4984.000000	65.457677 
4983.000000	65.231251 
4982.000000	64.955878 
4981.000000	64.654707 
4980.000000	64.353775 
4979.000000	64.079475 
4978.000000	63.855314 
4977.000000	63.699865 
4976.000000	63.625288 
4975.000000	63.635635 
4974.000000	63.725399 
4973.000000	63.881182 
4972.000000	64.081239 
4971.000000	64.301586 
4970.000000	64.516329 
4969.000000	64.706134 
4968.000000	64.857244 
4967.000000	64.967370 
4966.000000	65.043425 
4965.000000	65.099573 
4964.000000	65.152311 
4963.000000	65.215301 
4962.000000	65.296483 
4961.000000	65.394258 
4960.000000	65.498948 
4959.000000	65.594339 
4958.000000	65.663099 
4957.000000	65.691304 
4956.000000	65.672802 
4955.000000	65.610551 
4954.000000	65.515804 
4953.000000	65.404629 
4952.000000	65.293478 
4951.000000	65.195775 
4950.000000	65.118741 
4949.000000	65.062069 
4948.000000	65.019488 
4947.000000	64.983177 
4946.000000	64.946269 
4945.000000	64.904427 
4944.000000	64.858341 
4943.000000	64.812302 
4942.000000	64.774036 
4941.000000	64.750957 
4940.000000	64.748883 
4939.000000	64.768600 
4938.000000	64.806270 
4937.000000	64.854526 
4936.000000	64.903259 
4935.000000	64.941740 
4934.000000	64.961051 
4933.000000	64.956378 
4932.000000	64.927124 
4931.000000	64.876770 
4930.000000	64.812040 
4929.000000	64.741277 
4928.000000	64.672803 
4927.000000	64.613509 
4926.000000	64.567947 
4925.000000	64.538240 
4924.000000	64.524364 
4923.000000	64.525365 
4922.000000	64.539909 
4921.000000	64.567399 
4920.000000	64.608168 
4919.000000	64.663076 
4918.000000	64.732098 
4917.000000	64.814019 
4916.000000	64.905238 
4915.000000	65.000176 
4914.000000	65.091776 
4913.000000	65.172219 
4912.000000	65.234923 
4911.000000	65.274691 
4910.000000	65.289235 
4909.000000	65.279078 
4908.000000	65.247654 
4907.000000	65.200519 
4906.000000	65.144729 
4905.000000	65.087580 
4904.000000	65.035963 
4903.000000	64.995598 
4902.000000	64.970588 
4901.000000	64.963054 
4900.000000	64.972925 
4899.000000	64.997959 
4898.000000	65.034294 
4897.000000	65.076708 
4896.000000	65.119338 
4895.000000	65.156459 
4894.000000	65.183138 
4893.000000	65.196084 
4892.000000	65.193819 
4891.000000	65.176272 
4890.000000	65.144753 
4889.000000	65.101909 
4888.000000	65.050840 
4887.000000	64.995431 
4886.000000	64.939212 
4885.000000	64.885497 
4884.000000	64.836645 
4883.000000	64.794111 
4882.000000	64.758253 
4881.000000	64.728260 
4880.000000	64.703154 
4879.000000	64.682269 
4878.000000	64.665555 
4877.000000	64.653348 
4876.000000	64.646005 
4875.000000	64.643311 
4874.000000	64.644074 
4873.000000	64.646339 
4872.000000	64.646840 
4871.000000	64.642405 
4870.000000	64.630770 
4869.000000	64.612221 
4868.000000	64.589738 
4867.000000	64.569306 
4866.000000	64.558458 
4865.000000	64.564538 
4864.000000	64.592528 
4863.000000	64.643573 
4862.000000	64.714097 
4861.000000	64.796280 
4860.000000	64.880204 
4859.000000	64.955425 
4858.000000	65.013694 
4857.000000	65.049791 
4856.000000	65.062308 
4855.000000	65.053176 
4854.000000	65.026569 
4853.000000	64.988112 
4852.000000	64.943623 
4851.000000	64.898967 
4850.000000	64.859676 
4849.000000	64.830994 
4848.000000	64.817643 
4847.000000	64.823412 
4846.000000	64.850544 
4845.000000	64.898753 
4844.000000	64.964842 
4843.000000	65.042352 
4842.000000	65.122723 
4841.000000	65.196847 
4840.000000	65.256643 
4839.000000	65.297126 
4838.000000	65.316557 
4837.000000	65.316987 
4836.000000	65.302395 
4835.000000	65.278100 
4834.000000	65.248274 
4833.000000	65.215706 
4832.000000	65.180349 
4831.000000	65.141010 
4830.000000	65.095233 
4829.000000	65.041637 
4828.000000	64.980220 
4827.000000	64.913129 
4826.000000	64.844799 
4825.000000	64.781117 
4824.000000	64.727926 
4823.000000	64.689397 
4822.000000	64.667105 
4821.000000	64.659667 
4820.000000	64.662861 
4819.000000	64.670944 
4818.000000	64.678263 
4817.000000	64.680862 
4816.000000	64.676761 
4815.000000	64.666867 
4814.000000	64.654326 
4813.000000	64.643621 
4812.000000	64.638638 
4811.000000	64.641880 
4810.000000	64.654159 
4809.000000	64.674305 
4808.000000	64.699506 
4807.000000	64.726233 
4806.000000	64.751434 
4805.000000	64.772844 
4804.000000	64.789795 
4803.000000	64.802575 
4802.000000	64.811849 
4801.000000	64.818358 
4800.000000	64.822530 
4799.000000	64.824318 
4798.000000	64.823126 
4797.000000	64.818167 
4796.000000	64.809179 
4795.000000	64.795494 
4794.000000	64.776492 
4793.000000	64.751529 
4792.000000	64.720320 
4791.000000	64.682626 
4790.000000	64.638328 
4789.000000	64.588356 
4788.000000	64.534568 
4787.000000	64.478993 
4786.000000	64.423966 
4785.000000	64.371800 
4784.000000	64.324760 
4783.000000	64.284920 
4782.000000	64.254355 
4781.000000	64.234614 
4780.000000	64.227175 
4779.000000	64.232635 
4778.000000	64.250612 
4777.000000	64.279222 
4776.000000	64.315080 
4775.000000	64.353346 
4774.000000	64.388751 
4773.000000	64.415884 
4772.000000	64.431071 
4771.000000	64.433073 
4770.000000	64.423680 
4769.000000	64.407086 
4768.000000	64.389324 
4767.000000	64.377140 
4766.000000	64.376282 
4765.000000	64.390683 
4764.000000	64.422130 
4763.000000	64.470052 
4762.000000	64.532399 
4761.000000	64.605665 
4760.000000	64.685368 
4759.000000	64.766073 
4758.000000	64.842200 
4757.000000	64.908170 
4756.000000	64.958739 
4755.000000	64.990115 
4754.000000	65.000557 
4753.000000	64.990663 
4752.000000	64.963889 
4751.000000	64.925503 
4750.000000	64.882755 
4749.000000	64.842367 
4748.000000	64.810180 
4747.000000	64.788961 
4746.000000	64.778780 
4745.000000	64.776325 
4744.000000	64.776635 
4743.000000	64.774012 
4742.000000	64.763736 
4741.000000	64.743804 
4740.000000	64.715433 
4739.000000	64.682841 
4738.000000	64.652299 
4737.000000	64.630961 
4736.000000	64.624905 
4735.000000	64.637565 
4734.000000	64.668774 
4733.000000	64.714789 
4732.000000	64.768695 
4731.000000	64.821958 
4730.000000	64.865994 
4729.000000	64.894366 
4728.000000	64.903783 
4727.000000	64.893841 
4726.000000	64.867496 
4725.000000	64.829897 
4724.000000	64.787197 
4723.000000	64.744949 
4722.000000	64.707446 
4721.000000	64.676976 
4720.000000	64.654350 
4719.000000	64.639496 
4718.000000	64.631676 
4717.000000	64.630174 
4716.000000	64.634442 
4715.000000	64.644265 
4714.000000	64.659118 
4713.000000	64.677810 
4712.000000	64.698266 
4711.000000	64.717650 
4710.000000	64.733147 
4709.000000	64.742493 
4708.000000	64.744734 
4707.000000	64.740133 
4706.000000	64.730429 
4705.000000	64.717626 
4704.000000	64.703655 
4703.000000	64.689254 
4702.000000	64.673781 
4701.000000	64.655232 
4700.000000	64.630818 
4699.000000	64.598774 
4698.000000	64.559221 
4697.000000	64.515256 
4696.000000	64.472436 
4695.000000	64.438104 
4694.000000	64.419674 
4693.000000	64.422917 
4692.000000	64.450287 
4691.000000	64.499878 
4690.000000	64.565515 
4689.000000	64.637827 
4688.000000	64.706277 
4687.000000	64.760875 
4686.000000	64.794301 
4685.000000	64.802980 
4684.000000	64.787673 
4683.000000	64.752721 
4682.000000	64.705181 
4681.000000	64.653396 
4680.000000	64.605283 
4679.000000	64.567184 
4678.000000	64.542651 
4677.000000	64.532947 
4676.000000	64.536452 
4675.000000	64.549612 
4674.000000	64.567708 
4673.000000	64.585614 
4672.000000	64.599561 
4671.000000	64.606976 
4670.000000	64.607763 
4669.000000	64.603638 
4668.000000	64.597940 
4667.000000	64.594531 
4666.000000	64.596748 
4665.000000	64.606571 
4664.000000	64.623856 
4663.000000	64.646315 
4662.000000	64.670085 
4661.000000	64.690947 
4660.000000	64.705514 
4659.000000	64.712238 
4658.000000	64.711761 
4657.000000	64.706873 
4656.000000	64.702177 
4655.000000	64.702749 
4654.000000	64.712738 
4653.000000	64.734482 
4652.000000	64.768028 
4651.000000	64.810967 
4650.000000	64.859437 
4649.000000	64.908576 
4648.000000	64.953827 
4647.000000	64.991116 
4646.000000	65.018200 
4645.000000	65.034103 
4644.000000	65.038752 
4643.000000	65.033149 
4642.000000	65.018892 
4641.000000	64.998054 
4640.000000	64.973473 
4639.000000	64.947962 
4638.000000	64.924764 
4637.000000	64.906239 
4636.000000	64.893674 
4635.000000	64.886903 
4634.000000	64.884257 
4633.000000	64.883160 
4632.000000	64.880776 
4631.000000	64.875125 
4630.000000	64.865660 
4629.000000	64.853787 
4628.000000	64.842271 
4627.000000	64.834356 
4626.000000	64.832782 
4625.000000	64.838647 
4624.000000	64.851450 
4623.000000	64.868521 
4622.000000	64.886474 
4621.000000	64.902448 
4620.000000	64.914965 
4619.000000	64.924716 
4618.000000	64.933967 
4617.000000	64.945721 
4616.000000	64.962172 
4615.000000	64.983606 
4614.000000	65.008234 
4613.000000	65.032553 
4612.000000	65.052318 
4611.000000	65.064001 
4610.000000	65.066003 
4609.000000	65.059471 
4608.000000	65.048027 
4607.000000	65.037131 
4606.000000	65.032291 
4605.000000	65.037441 
4604.000000	65.053939 
4603.000000	65.080046 
4602.000000	65.111136 
4601.000000	65.140652 
4600.000000	65.161919 
4599.000000	65.169739 
4598.000000	65.161252 
4597.000000	65.137028 
4596.000000	65.100765 
4595.000000	65.058851 
4594.000000	65.018963 
4593.000000	64.988398 
4592.000000	64.973139 
4591.000000	64.975428 
4590.000000	64.994239 
4589.000000	65.024232 
4588.000000	65.057492 
4587.000000	65.085005 
4586.000000	65.098500 
4585.000000	65.093040 
4584.000000	65.067481 
4583.000000	65.025877 
4582.000000	64.976286 
4581.000000	64.929080 
4580.000000	64.894294 
4579.000000	64.879465 
4578.000000	64.887762 
4577.000000	64.917469 
4576.000000	64.962720 
4575.000000	65.015339 
4574.000000	65.067076 
4573.000000	65.111851 
4572.000000	65.146994 
4571.000000	65.173125 
4570.000000	65.193510 
4569.000000	65.211677 
4568.000000	65.230894 
4567.000000	65.252661 
4566.000000	65.276813 
4565.000000	65.301918 
4564.000000	65.325570 
4563.000000	65.346074 
4562.000000	65.361976 
4561.000000	65.373539 
4560.000000	65.381193 
4559.000000	65.385127 
4558.000000	65.384697 
4557.000000	65.378069 
4556.000000	65.363049 
4555.000000	65.338087 
4554.000000	65.303373 
4553.000000	65.261554 
4552.000000	65.218114 
4551.000000	65.180659 
4550.000000	65.157604 
4549.000000	65.156078 
4548.000000	65.180134 
4547.000000	65.229249 
4546.000000	65.297985 
4545.000000	65.376567 
4544.000000	65.452575 
4543.000000	65.513467 
4542.000000	65.548443 
4541.000000	65.551638 
4540.000000	65.523147 
4539.000000	65.469264 
4538.000000	65.400767 
4537.000000	65.330433 
4536.000000	65.270614 
4535.000000	65.229892 
4534.000000	65.212273 
4533.000000	65.215420 
4532.000000	65.232563 
4531.000000	65.253710 
4530.000000	65.269255 
4529.000000	65.271687 
4528.000000	65.257549 
4527.000000	65.228080 
4526.000000	65.188288 
4525.000000	65.145754 
4524.000000	65.108299 
4523.000000	65.082073 
4522.000000	65.070199 
4521.000000	65.072655 
4520.000000	65.086364 
4519.000000	65.106654 
4518.000000	65.128278 
4517.000000	65.146660 
4516.000000	65.158295 
4515.000000	65.160894 
4514.000000	65.153574 
4513.000000	65.135931 
4512.000000	65.108871 
4511.000000	65.073466 
4510.000000	65.032529 
4509.000000	64.990401 
4508.000000	64.953279 
4507.000000	64.928245 
4506.000000	64.922285 
4505.000000	64.940953 
4504.000000	64.986395 
4503.000000	65.056777 
4502.000000	65.145301 
4501.000000	65.240955 
4500.000000	65.330624 
4499.000000	65.401721 
4498.000000	65.445184 
4497.000000	65.456914 
4496.000000	65.439486 
4495.000000	65.400981 
4494.000000	65.351581 
4493.000000	65.301179 
4492.000000	65.257859 
4491.000000	65.226578 
4490.000000	65.208911 
4489.000000	65.203309 
4488.000000	65.208482 
4487.000000	65.221929 
4486.000000	65.240597 
4485.000000	65.260267 
4484.000000	65.275216 
4483.000000	65.279531 
4482.000000	65.268182 
4481.000000	65.238690 
4480.000000	65.191411 
4479.000000	65.130615 
4478.000000	65.063858 
4477.000000	65.000557 
4476.000000	64.948415 
4475.000000	64.915084 
4474.000000	64.907383 
4473.000000	64.928722 
4472.000000	64.977383 
4471.000000	65.052390 
4470.000000	65.154695 
4469.000000	65.281367 
4468.000000	65.426206 
4467.000000	65.587949 
4466.000000	65.768408 
4465.000000	65.964937 
4464.000000	66.171121 
4463.000000	66.378474 
4462.000000	66.575479 
4461.000000	66.755199 
4460.000000	66.909885 
4459.000000	67.026400 
4458.000000	67.091059 
4457.000000	67.097115 
4456.000000	67.042398 
4455.000000	66.935801 
4454.000000	66.788744 
4453.000000	66.619563 
4452.000000	66.438961 
4451.000000	66.250419 
4450.000000	66.044926 
4449.000000	65.808582 
4448.000000	65.520095 
4447.000000	65.161728 
4446.000000	64.715933 
4445.000000	64.174842 
4444.000000	63.517785 
4443.000000	62.716650 
4442.000000	61.730217 
4441.000000	60.524177 
4440.000000	59.079098 
4439.000000	57.425117 
4438.000000	55.648803 
4437.000000	53.911018 
4436.000000	52.433204 
4435.000000	51.461386 
4434.000000	51.214122 
4433.000000	51.819634 
4432.000000	53.266739 
4431.000000	55.392169 
4430.000000	57.886099 
4429.000000	60.370349 
4428.000000	62.465620 
4427.000000	63.888192 
4426.000000	64.501166 
4425.000000	64.346647 
4424.000000	63.613247 
4423.000000	62.589812 
4422.000000	61.581039 
4421.000000	60.842418 
4420.000000	60.525846 
4419.000000	60.664534 
4418.000000	61.192417 
4417.000000	61.970996 
4416.000000	62.842917 
4415.000000	63.670349 
4414.000000	64.368867 
4413.000000	64.900946 
4412.000000	65.275239 
4411.000000	65.519523 
4410.000000	65.669417 
4409.000000	65.750932 
4408.000000	65.777039 
4407.000000	65.764594 
4406.000000	65.724134 
4405.000000	65.670752 
4404.000000	65.615606 
4403.000000	65.572476 
4402.000000	65.549111 
4401.000000	65.547895 
4400.000000	65.564918 
4399.000000	65.589451 
4398.000000	65.610623 
4397.000000	65.625715 
4396.000000	65.633487 
4395.000000	65.630793 
4394.000000	65.618038 
4393.000000	65.599298 
4392.000000	65.578007 
4391.000000	65.555810 
4390.000000	65.532875 
4389.000000	65.507912 
4388.000000	65.483283 
4387.000000	65.464878 
4386.000000	65.461373 
4385.000000	65.481710 
4384.000000	65.528726 
4383.000000	65.598535 
4382.000000	65.683722 
4381.000000	65.773439 
4380.000000	65.854477 
4379.000000	65.914726 
4378.000000	65.946245 
4377.000000	65.946626 
4376.000000	65.918827 
4375.000000	65.870785 
4374.000000	65.814113 
4373.000000	65.760827 
4372.000000	65.721988 
4371.000000	65.703296 
4370.000000	65.705204 
4369.000000	65.721130 
4368.000000	65.740799 
4367.000000	65.750813 
4366.000000	65.738844 
4365.000000	65.695858 
4364.000000	65.618729 
4363.000000	65.511035 
4362.000000	65.382456 
4361.000000	65.247082 
4360.000000	65.120506 
4359.000000	65.017056 
4358.000000	64.947175 
4357.000000	64.915609 
4356.000000	64.920997 
4355.000000	64.956855 
4354.000000	65.013098 
4353.000000	65.078115 
4352.000000	65.141248 
4351.000000	65.193533 
4350.000000	65.229821 
4349.000000	65.247535 
4348.000000	65.247654 
4347.000000	65.233182 
4346.000000	65.209054 
4345.000000	65.180754 
4344.000000	65.153861 
4343.000000	65.133547 
4342.000000	65.123724 
4341.000000	65.127086 
4340.000000	65.144133 
4339.000000	65.173244 
4338.000000	65.210556 
4337.000000	65.250778 
4336.000000	65.287828 
4335.000000	65.316057 
4334.000000	65.331244 
4333.000000	65.331220 
4332.000000	65.315985 
4331.000000	65.287446 
4330.000000	65.249300 
4329.000000	65.206456 
4328.000000	65.163612 
4327.000000	65.125107 
4326.000000	65.094852 
4325.000000	65.075755 
4324.000000	65.069890 
4323.000000	65.077924 
4322.000000	65.099477 
4321.000000	65.132474 
4320.000000	65.173554 
4319.000000	65.217804 
4318.000000	65.259361 
4317.000000	65.291929 
4316.000000	65.309786 
4315.000000	65.308475 
4314.000000	65.285968 
4313.000000	65.242695 
4312.000000	65.181660 
4311.000000	65.108084 
4310.000000	65.028619 
4309.000000	64.950728 
4308.000000	64.881587 
4307.000000	64.827370 
4306.000000	64.792418 
4305.000000	64.778637 
4304.000000	64.785528 
4303.000000	64.809942 
4302.000000	64.846873 
4301.000000	64.889788 
4300.000000	64.932346 
4299.000000	64.968585 
4298.000000	64.994955 
4297.000000	65.010142 
4296.000000	65.015959 
4295.000000	65.016269 
4294.000000	65.016317 
4293.000000	65.021252 
4292.000000	65.034556 
4291.000000	65.057635 
4290.000000	65.088748 
4289.000000	65.124058 
4288.000000	65.157961 
4287.000000	65.184926 
4286.000000	65.200161 
4285.000000	65.200924 
4284.000000	65.186929 
4283.000000	65.160441 
4282.000000	65.125799 
4281.000000	65.088367 
4280.000000	65.053868 
4279.000000	65.027236 
4278.000000	65.011978 
4277.000000	65.009498 
4276.000000	65.019226 
4275.000000	65.038704 
4274.000000	65.063786 
4273.000000	65.089583 
4272.000000	65.110874 
4271.000000	65.123414 
4270.000000	65.124750 
4269.000000	65.114688 
4268.000000	65.094900 
4267.000000	65.068697 
4266.000000	65.040016 
4265.000000	65.012931 
4264.000000	64.990377 
4263.000000	64.974331 
4262.000000	64.965963 
4261.000000	64.965605 
4260.000000	64.973402 
4259.000000	64.989113 
4258.000000	65.012216 
4257.000000	65.041446 
4256.000000	65.074491 
4255.000000	65.107870 
4254.000000	65.137243 
4253.000000	65.157961 
4252.000000	65.165972 
4251.000000	65.158486 
4250.000000	65.134787 
4249.000000	65.096640 
4248.000000	65.047883 
4247.000000	64.993262 
4246.000000	64.937353 
4245.000000	64.884257 
4244.000000	64.836335 
4243.000000	64.794659 
4242.000000	64.758801 
4241.000000	64.727902 
4240.000000	64.701080 
4239.000000	64.677882 
4238.000000	64.658594 
4237.000000	64.643478 
4236.000000	64.633440 
4235.000000	64.629054 
4234.000000	64.630913 
4233.000000	64.638972 
4232.000000	64.652919 
4231.000000	64.671874 
4230.000000	64.694619 
4229.000000	64.719724 
4228.000000	64.745688 
4227.000000	64.770960 
4226.000000	64.794087 
4225.000000	64.813971 
4224.000000	64.829921 
4223.000000	64.842176 
4222.000000	64.851737 
4221.000000	64.860463 
4220.000000	64.870715 
4219.000000	64.884901 
4218.000000	64.905309 
4217.000000	64.932894 
4216.000000	64.966964 
4215.000000	65.005040 
4214.000000	65.043354 
4213.000000	65.077424 
4212.000000	65.102887 
4211.000000	65.116667 
4210.000000	65.117621 
4209.000000	65.106964 
4208.000000	65.087842 
4207.000000	65.064811 
4206.000000	65.042757 
4205.000000	65.025687 
4204.000000	65.015888 
4203.000000	65.013408 
4202.000000	65.016365 
4201.000000	65.021133 
4200.000000	65.023541 
4199.000000	65.019655 
4198.000000	65.007042 
4197.000000	64.985513 
4196.000000	64.957237 
4195.000000	64.926195 
4194.000000	64.897298 
4193.000000	64.875626 
4192.000000	64.865064 
4191.000000	64.867401 
4190.000000	64.881634 
4189.000000	64.904546 
4188.000000	64.930868 
4187.000000	64.954590 
4186.000000	64.970278 
4185.000000	64.974188 
4184.000000	64.965367 
4183.000000	64.945387 
4182.000000	64.918422 
4181.000000	64.890170 
4180.000000	64.866590 
4179.000000	64.852619 
4178.000000	64.851403 
4177.000000	64.863824 
4176.000000	64.888381 
4175.000000	64.921617 
4174.000000	64.958643 
4173.000000	64.994287 
4172.000000	65.023565 
4171.000000	65.042853 
4170.000000	65.050077 
4169.000000	65.044999 
4168.000000	65.029191 
4167.000000	65.005397 
4166.000000	64.977216 
4165.000000	64.948081 
4164.000000	64.921188 
4163.000000	64.898633 
4162.000000	64.881229 
4161.000000	64.868545 
4160.000000	64.859604 
4159.000000	64.853024 
4158.000000	64.847970 
4157.000000	64.843893 
4156.000000	64.840722 
4155.000000	64.838266 
4154.000000	64.836001 
4153.000000	64.832615 
4152.000000	64.826059 
4151.000000	64.814138 
4150.000000	64.795279 
4149.000000	64.769244 
4148.000000	64.737582 
4147.000000	64.703440 
4146.000000	64.671063 
4145.000000	64.644598 
4144.000000	64.627408 
4143.000000	64.621043 
4142.000000	64.625215 
4141.000000	64.638018 
4140.000000	64.656615 
4139.000000	64.678192 
4138.000000	64.700794 
4137.000000	64.723634 
4136.000000	64.746856 
4135.000000	64.770793 
4134.000000	64.795327 
4133.000000	64.819312 
4132.000000	64.840698 
4131.000000	64.856672 
4130.000000	64.864683 
4129.000000	64.863538 
4128.000000	64.853715 
4127.000000	64.837741 
4126.000000	64.819455 
4125.000000	64.803338 
4124.000000	64.793014 
4123.000000	64.790606 
4122.000000	64.796018 
4121.000000	64.807200 
4120.000000	64.820933 
4119.000000	64.834117 
4118.000000	64.844775 
4117.000000	64.852786 
4116.000000	64.860010 
4115.000000	64.869904 
4114.000000	64.886260 
4113.000000	64.912223 
4112.000000	64.948892 
4111.000000	64.994812 
4110.000000	65.046477 
4109.000000	65.098595 
4108.000000	65.145611 
4107.000000	65.182328 
4106.000000	65.205550 
4105.000000	65.214037 
4104.000000	65.208578 
4103.000000	65.191507 
4102.000000	65.165972 
4101.000000	65.135192 
4100.000000	65.102434 
4099.000000	65.069866 
4098.000000	65.039181 
4097.000000	65.010786 
4096.000000	64.984607 
4095.000000	64.959692 
4094.000000	64.934825 
4093.000000	64.908885 
4092.000000	64.881253 
4091.000000	64.852285 
4090.000000	64.823484 
4089.000000	64.797306 
4088.000000	64.777016 
4087.000000	64.765715 
4086.000000	64.766263 
4085.000000	64.780211 
4084.000000	64.807820 
4083.000000	64.847517 
4082.000000	64.896297 
4081.000000	64.950299 
4080.000000	65.004968 
4079.000000	65.055966 
4078.000000	65.099048 
4077.000000	65.131258 
4076.000000	65.150213 
4075.000000	65.154576 
4074.000000	65.143609 
4073.000000	65.117859 
4072.000000	65.078926 
4071.000000	65.029764 
4070.000000	64.974308 
4069.000000	64.917540 
4068.000000	64.865016 
4067.000000	64.822363 
4066.000000	64.794492 
4065.000000	64.784789 
4064.000000	64.794778 
4063.000000	64.823627 
4062.000000	64.868283 
4061.000000	64.923858 
4060.000000	64.984393 
4059.000000	65.043687 
4058.000000	65.095901 
4057.000000	65.136384 
4056.000000	65.162205 
4055.000000	65.171957 
4054.000000	65.166091 
4053.000000	65.145921 
4052.000000	65.114092 
4051.000000	65.073275 
4050.000000	65.026664 
4049.000000	64.977097 
4048.000000	64.927506 
4047.000000	64.880228 
4046.000000	64.837384 
4045.000000	64.800620 
4044.000000	64.771199 
4043.000000	64.749693 
4042.000000	64.736247 
4041.000000	64.730381 
4040.000000	64.731097 
4039.000000	64.737486 
4038.000000	64.748573 
4037.000000	64.763641 
4036.000000	64.782333 
4035.000000	64.804267 
4034.000000	64.829063 
4033.000000	64.855957 
4032.000000	64.883708 
4031.000000	64.910602 
4030.000000	64.934563 
4029.000000	64.953374 
4028.000000	64.965081 
4027.000000	64.968442 
4026.000000	64.963531 
4025.000000	64.951539 
4024.000000	64.935374 
4023.000000	64.919137 
4022.000000	64.907622 
4021.000000	64.905714 
4020.000000	64.916992 
4019.000000	64.943003 
4018.000000	64.982414 
4017.000000	65.031528 
4016.000000	65.084052 
4015.000000	65.132594 
4014.000000	65.169858 
4013.000000	65.190315 
4012.000000	65.191149 
4011.000000	65.172815 
4010.000000	65.138745 
4009.000000	65.094566 
4008.000000	65.046715 
4007.000000	65.000939 
4006.000000	64.961314 
4005.000000	64.929747 
4004.000000	64.906263 
4003.000000	64.889335 
4002.000000	64.877009 
4001.000000	64.867544 
4000.000000	64.860105 
3999.000000	64.854931 
3998.000000	64.852380 
3997.000000	64.853239 
3996.000000	64.857840 
3995.000000	64.866018 
3994.000000	64.876627 
3993.000000	64.888429 
3992.000000	64.900183 
3991.000000	64.911079 
3990.000000	64.920830 
3989.000000	64.929556 
3988.000000	64.937472 
3987.000000	64.944481 
3986.000000	64.949989 
3985.000000	64.952945 
3984.000000	64.952254 
3983.000000	64.947223 
3982.000000	64.937877 
3981.000000	64.925479 
3980.000000	64.912176 
3979.000000	64.900875 
3978.000000	64.894318 
3977.000000	64.894223 
3976.000000	64.900732 
3975.000000	64.912581 
3974.000000	64.927411 
3973.000000	64.942288 
3972.000000	64.954757 
3971.000000	64.963459 
3970.000000	64.968466 
3969.000000	64.971041 
3968.000000	64.973020 
3967.000000	64.976215 
3966.000000	64.981603 
3965.000000	64.989042 
3964.000000	64.997148 
3963.000000	65.003824 
3962.000000	65.006566 
3961.000000	65.003681 
3960.000000	64.994311 
3959.000000	64.978837 
3958.000000	64.958977 
3957.000000	64.937520 
3956.000000	64.917659 
3955.000000	64.902353 
3954.000000	64.894056 
3953.000000	64.894127 
3952.000000	64.902687 
3951.000000	64.918684 
3950.000000	64.939928 
3949.000000	64.963698 
3948.000000	64.986777 
3947.000000	65.006422 
3946.000000	65.020537 
3945.000000	65.028309 
3944.000000	65.030145 
3943.000000	65.027618 
3942.000000	65.023303 
3941.000000	65.019679 
3940.000000	65.018916 
3939.000000	65.021777 
3938.000000	65.027832 
3937.000000	65.035104 
3936.000000	65.041089 
3935.000000	65.042901 
3934.000000	65.038323 
3933.000000	65.026569 
3932.000000	65.008354 
3931.000000	64.985704 
3930.000000	64.961481 
3929.000000	64.938569 
3928.000000	64.919137 
3927.000000	64.904379 
3926.000000	64.894151 
3925.000000	64.887499 
3924.000000	64.883160 
3923.000000	64.880037 
3922.000000	64.877462 
3921.000000	64.875578 
3920.000000	64.874792 
3919.000000	64.875388 
3918.000000	64.876961 
3917.000000	64.878320 
3916.000000	64.877843 
3915.000000	64.873790 
3914.000000	64.865207 
3913.000000	64.852452 
3912.000000	64.837336 
3911.000000	64.822649 
3910.000000	64.811849 
3909.000000	64.808011 
3908.000000	64.812970 
3907.000000	64.826869 
3906.000000	64.847755 
3905.000000	64.872169 
3904.000000	64.895558 
3903.000000	64.913368 
3902.000000	64.921855 
3901.000000	64.918994 
3900.000000	64.904999 
3899.000000	64.882159 
3898.000000	64.854288 
3897.000000	64.826202 
3896.000000	64.802598 
3895.000000	64.787507 
3894.000000	64.783453 
3893.000000	64.791417 
3892.000000	64.810800 
3891.000000	64.840030 
3890.000000	64.876794 
3889.000000	64.919114 
3888.000000	64.965438 
3887.000000	65.014863 
3886.000000	65.066814 
3885.000000	65.120625 
3884.000000	65.175104 
3883.000000	65.228104 
3882.000000	65.276765 
3881.000000	65.317893 
3880.000000	65.348958 
3879.000000	65.368318 
3878.000000	65.375971 
3877.000000	65.372991 
3876.000000	65.361166 
3875.000000	65.342283 
3874.000000	65.317702 
3873.000000	65.287804 
3872.000000	65.252351 
3871.000000	65.210866 
3870.000000	65.163683 
3869.000000	65.112328 
3868.000000	65.060091 
3867.000000	65.011715 
3866.000000	64.972496 
3865.000000	64.947199 
3864.000000	64.938831 
3863.000000	64.947867 
3862.000000	64.971661 
3861.000000	65.005111 
3860.000000	65.041351 
3859.000000	65.073156 
3858.000000	65.094256 
3857.000000	65.100836 
3856.000000	65.091609 
3855.000000	65.067505 
3854.000000	65.031766 
3853.000000	64.988923 
3852.000000	64.943814 
3851.000000	64.900732 
3850.000000	64.863109 
3849.000000	64.833259 
3848.000000	64.812421 
3847.000000	64.800834 
3846.000000	64.797830 
3845.000000	64.802098 
3844.000000	64.811801 
3843.000000	64.825034 
3842.000000	64.839410 
3841.000000	64.853048 
3840.000000	64.864826 
3839.000000	64.874958 
3838.000000	64.884614 
3837.000000	64.895749 
3836.000000	64.911103 
3835.000000	64.932394 
3834.000000	64.959764 
3833.000000	64.991116 
3832.000000	65.022516 
3831.000000	65.048623 
3830.000000	65.063881 
3829.000000	65.064048 
3828.000000	65.047621 
3827.000000	65.016174 
3826.000000	64.974570 
3825.000000	64.929795 
3824.000000	64.889240 
3823.000000	64.859127 
3822.000000	64.843153 
3821.000000	64.842009 
3820.000000	64.853692 
3819.000000	64.874410 
3818.000000	64.899945 
3817.000000	64.927005 
3816.000000	64.953947 
3815.000000	64.980792 
3814.000000	65.008687 
3813.000000	65.038633 
3812.000000	65.070962 
3811.000000	65.104532 
3810.000000	65.137147 
3809.000000	65.165972 
3808.000000	65.188264 
3807.000000	65.202736 
3806.000000	65.209412 
3805.000000	65.210080 
3804.000000	65.207242 
3803.000000	65.203404 
3802.000000	65.200018 
3801.000000	65.197014 
3800.000000	65.193033 
3799.000000	65.186095 
3798.000000	65.174388 
3797.000000	65.157270 
3796.000000	65.135622 
3795.000000	65.111708 
3794.000000	65.088534 
3793.000000	65.068888 
3792.000000	65.054202 
3791.000000	65.043997 
3790.000000	65.036106 
3789.000000	65.027356 
3788.000000	65.014934 
3787.000000	64.997339 
3786.000000	64.974904 
3785.000000	64.950084 
3784.000000	64.926910 
3783.000000	64.909934 
3782.000000	64.902400 
3781.000000	64.905810 
3780.000000	64.919281 
3779.000000	64.939951 
3778.000000	64.963507 
3777.000000	64.985275 
3776.000000	65.001511 
3775.000000	65.009760 
3774.000000	65.009307 
3773.000000	65.001058 
3772.000000	64.986848 
3771.000000	64.969158 
3770.000000	64.950489 
3769.000000	64.933300 
3768.000000	64.919805 
3767.000000	64.911866 
3766.000000	64.910888 
3765.000000	64.917421 
3764.000000	64.930701 
3763.000000	64.948678 
3762.000000	64.967966 
3761.000000	64.984226 
3760.000000	64.993143 
3759.000000	64.991331 
3758.000000	64.977407 
3757.000000	64.952135 
3756.000000	64.918851 
3755.000000	64.882493 
3754.000000	64.849042 
3753.000000	64.823889 
3752.000000	64.811229 
3751.000000	64.812898 
3750.000000	64.828467 
3749.000000	64.855384 
3748.000000	64.889621 
3747.000000	64.926695 
3746.000000	64.962339 
3745.000000	64.993214 
3744.000000	65.017056 
3743.000000	65.032792 
3742.000000	65.040612 
3741.000000	65.041565 
3740.000000	65.037393 
3739.000000	65.030097 
3738.000000	65.021681 
3737.000000	65.013885 
3736.000000	65.008091 
3735.000000	65.005350 
3734.000000	65.006256 
3733.000000	65.011119 
3732.000000	65.019845 
3731.000000	65.031719 
3730.000000	65.045762 
3729.000000	65.060400 
3728.000000	65.073561 
3727.000000	65.083026 
3726.000000	65.086555 
3725.000000	65.082406 
3724.000000	65.069890 
3723.000000	65.049624 
3722.000000	65.023446 
3721.000000	64.994263 
3720.000000	64.965820 
3719.000000	64.941716 
3718.000000	64.924502 
3717.000000	64.915251 
3716.000000	64.913272 
3715.000000	64.916563 
3714.000000	64.922523 
3713.000000	64.928340 
3712.000000	64.931869 
3711.000000	64.932036 
3710.000000	64.928793 
3709.000000	64.922928 
3708.000000	64.915752 
3707.000000	64.908218 
3706.000000	64.900803 
3705.000000	64.893460 
3704.000000	64.885735 
3703.000000	64.876699 
3702.000000	64.865922 
3701.000000	64.853310 
3700.000000	64.840102 
3699.000000	64.828395 
3698.000000	64.821243 
3697.000000	64.821672 
3696.000000	64.832186 
3695.000000	64.854097 
3694.000000	64.886713 
3693.000000	64.927530 
3692.000000	64.971780 
3691.000000	65.013432 
3690.000000	65.046000 
3689.000000	65.064001 
3688.000000	65.063881 
3687.000000	65.044903 
3686.000000	65.009450 
3685.000000	64.962863 
3684.000000	64.912462 
3683.000000	64.866232 
3682.000000	64.831328 
3681.000000	64.812779 
3680.000000	64.813113 
3679.000000	64.831614 
3678.000000	64.865136 
3677.000000	64.908266 
3676.000000	64.954376 
3675.000000	64.996933 
3674.000000	65.030217 
3673.000000	65.050649 
3672.000000	65.056681 
3671.000000	65.049433 
3670.000000	65.032052 
3669.000000	65.008974 
3668.000000	64.985036 
3667.000000	64.964365 
3666.000000	64.949989 
3665.000000	64.943289 
3664.000000	64.944124 
3663.000000	64.950966 
3662.000000	64.961719 
3661.000000	64.973711 
3660.000000	64.984464 
3659.000000	64.991617 
3658.000000	64.993214 
3657.000000	64.987897 
3656.000000	64.974880 
3655.000000	64.954090 
3654.000000	64.926338 
3653.000000	64.893364 
3652.000000	64.857792 
3651.000000	64.823055 
3650.000000	64.792871 
3649.000000	64.770555 
3648.000000	64.758563 
3647.000000	64.757800 
3646.000000	64.767765 
3645.000000	64.786672 
3644.000000	64.811873 
3643.000000	64.840221 
3642.000000	64.868831 
3641.000000	64.895248 
3640.000000	64.918160 
3639.000000	64.936900 
3638.000000	64.952087 
3637.000000	64.964842 
3636.000000	64.976835 
3635.000000	64.989542 
3634.000000	65.004134 
3633.000000	65.020847 
3632.000000	65.038919 
3631.000000	65.056610 
3630.000000	65.071749 
3629.000000	65.082001 
3628.000000	65.085625 
3627.000000	65.081787 
3626.000000	65.070986 
3625.000000	65.054798 
3624.000000	65.035605 
3623.000000	65.016007 
3622.000000	64.998006 
3621.000000	64.982795 
3620.000000	64.970541 
3619.000000	64.960837 
3618.000000	64.953064 
3617.000000	64.946961 
3616.000000	64.943242 
3615.000000	64.943194 
3614.000000	64.948463 
3613.000000	64.960217 
3612.000000	64.978337 
3611.000000	65.001249 
3610.000000	65.025782 
3609.000000	65.047764 
3608.000000	65.062785 
3607.000000	65.067458 
3606.000000	65.060448 
3605.000000	65.042781 
3604.000000	65.017724 
3603.000000	64.989876 
3602.000000	64.964246 
3601.000000	64.944815 
3600.000000	64.933848 
3599.000000	64.931344 
3598.000000	64.935207 
3597.000000	64.942145 
3596.000000	64.948678 
3595.000000	64.951920 
3594.000000	64.950752 
3593.000000	64.945340 
3592.000000	64.937496 
3591.000000	64.929556 
3590.000000	64.923930 
3589.000000	64.922308 
3588.000000	64.925098 
3587.000000	64.931583 
3586.000000	64.939785 
3585.000000	64.947366 
3584.000000	64.951944 
3583.000000	64.951729 
3582.000000	64.945864 
3581.000000	64.934444 
3580.000000	64.918828 
3579.000000	64.901351 
3578.000000	64.885020 
3577.000000	64.872908 
3576.000000	64.867997 
3575.000000	64.872550 
3574.000000	64.887762 
3573.000000	64.913082 
3572.000000	64.946579 
3571.000000	64.984750 
3570.000000	65.023207 
3569.000000	65.057396 
3568.000000	65.083098 
3567.000000	65.097403 
3566.000000	65.099167 
3565.000000	65.089297 
3564.000000	65.070557 
3563.000000	65.046548 
3562.000000	65.021538 
3561.000000	64.998936 
3560.000000	64.981055 
3559.000000	64.968514 
3558.000000	64.960741 
3557.000000	64.955902 
3556.000000	64.952063 
3555.000000	64.947581 
3554.000000	64.941716 
3553.000000	64.934754 
3552.000000	64.927697 
3551.000000	64.921760 
3550.000000	64.917898 
3549.000000	64.916229 
3548.000000	64.915919 
3547.000000	64.915609 
3546.000000	64.913606 
3545.000000	64.908695 
3544.000000	64.900588 
3543.000000	64.890122 
3542.000000	64.879059 
3541.000000	64.869594 
3540.000000	64.863729 
3539.000000	64.862346 
3538.000000	64.865088 
3537.000000	64.870357 
3536.000000	64.875841 
3535.000000	64.878988 
3534.000000	64.877820 
3533.000000	64.871525 
3532.000000	64.860701 
3531.000000	64.847302 
3530.000000	64.833855 
3529.000000	64.822793 
3528.000000	64.815688 
3527.000000	64.813017 
3526.000000	64.813828 
3525.000000	64.816164 
3524.000000	64.817881 
3523.000000	64.817309 
3522.000000	64.813995 
3521.000000	64.809060 
3520.000000	64.805078 
3519.000000	64.805340 
3518.000000	64.812922 
3517.000000	64.829707 
3516.000000	64.855790 
3515.000000	64.889168 
3514.000000	64.925885 
3513.000000	64.961004 
3512.000000	64.989900 
3511.000000	65.009140 
3510.000000	65.017318 
3509.000000	65.015244 
3508.000000	65.006017 
3507.000000	64.993453 
3506.000000	64.981412 
3505.000000	64.972567 
3504.000000	64.967966 
3503.000000	64.966750 
3502.000000	64.966750 
3501.000000	64.965248 
3500.000000	64.960145 
3499.000000	64.950251 
3498.000000	64.935708 
3497.000000	64.917731 
3496.000000	64.898347 
3495.000000	64.879703 
3494.000000	64.863705 
3493.000000	64.851379 
3492.000000	64.843153 
3491.000000	64.838886 
3490.000000	64.838504 
3489.000000	64.841890 
3488.000000	64.849472 
3487.000000	64.861965 
3486.000000	64.880228 
3485.000000	64.904594 
3484.000000	64.934682 
3483.000000	64.968919 
3482.000000	65.004873 
3481.000000	65.039014 
3480.000000	65.067982 
3479.000000	65.089225 
3478.000000	65.101695 
3477.000000	65.105938 
3476.000000	65.104269 
3475.000000	65.100216 
3474.000000	65.097665 
3473.000000	65.099787 
3472.000000	65.108180 
3471.000000	65.122413 
3470.000000	65.139937 
3469.000000	65.156817 
3468.000000	65.168499 
3467.000000	65.170931 
3466.000000	65.161609 
3465.000000	65.140056 
3464.000000	65.108013 
3463.000000	65.068936 
3462.000000	65.027427 
3461.000000	64.988207 
3460.000000	64.955186 
3459.000000	64.930701 
3458.000000	64.915442 
3457.000000	64.908337 
3456.000000	64.907264 
3455.000000	64.909243 
3454.000000	64.911293 
3453.000000	64.911127 
3452.000000	64.907550 
3451.000000	64.900422 
3450.000000	64.890336 
3449.000000	64.878320 
3448.000000	64.865469 
3447.000000	64.852476 
3446.000000	64.839529 
3445.000000	64.826536 
3444.000000	64.813351 
3443.000000	64.800190 
3442.000000	64.787817 
3441.000000	64.777588 
3440.000000	64.771246 
3439.000000	64.770627 
3438.000000	64.777302 
3437.000000	64.792084 
3436.000000	64.814949 
3435.000000	64.844751 
3434.000000	64.879536 
3433.000000	64.916610 
3432.000000	64.952969 
3431.000000	64.985752 
3430.000000	65.012454 
3429.000000	65.030980 
3428.000000	65.039825 
3427.000000	65.038561 
3426.000000	65.027761 
3425.000000	65.009093 
3424.000000	64.985227 
3423.000000	64.959645 
3422.000000	64.936113 
3421.000000	64.918160 
3420.000000	64.908456 
3419.000000	64.908504 
3418.000000	64.918160 
3417.000000	64.935922 
3416.000000	64.959120 
3415.000000	64.984440 
3414.000000	65.008521 
3413.000000	65.028452 
3412.000000	65.042209 
3411.000000	65.048909 
3410.000000	65.048885 
3409.000000	65.043568 
3408.000000	65.035057 
3407.000000	65.025711 
3406.000000	65.017843 
3405.000000	65.013194 
3404.000000	65.012812 
3403.000000	65.016913 
3402.000000	65.025258 
3401.000000	65.036845 
3400.000000	65.050506 
3399.000000	65.064764 
3398.000000	65.078282 
3397.000000	65.089726 
3396.000000	65.097808 
3395.000000	65.101337 
3394.000000	65.099215 
3393.000000	65.090680 
3392.000000	65.075421 
3391.000000	65.053915 
3390.000000	65.027427 
3389.000000	64.997982 
3388.000000	64.968180 
3387.000000	64.940690 
3386.000000	64.917683 
3385.000000	64.900469 
3384.000000	64.889383 
3383.000000	64.883637 
3382.000000	64.881873 
3381.000000	64.882183 
3380.000000	64.882922 
3379.000000	64.882850 
3378.000000	64.881539 
3377.000000	64.878940 
3376.000000	64.875650 
3375.000000	64.872479 
3374.000000	64.870357 
3373.000000	64.869999 
3372.000000	64.871931 
3371.000000	64.876222 
3370.000000	64.882540 
3369.000000	64.890456 
3368.000000	64.899158 
3367.000000	64.907670 
3366.000000	64.914989 
3365.000000	64.920020 
3364.000000	64.921784 
3363.000000	64.919495 
3362.000000	64.913129 
3361.000000	64.903330 
3360.000000	64.891648 
3359.000000	64.880156 
3358.000000	64.871358 
3357.000000	64.867568 
3356.000000	64.870238 
3355.000000	64.879465 
3354.000000	64.894032 
3353.000000	64.911293 
3352.000000	64.928030 
3351.000000	64.940977 
3350.000000	64.947819 
3349.000000	64.947748 
3348.000000	64.941740 
3347.000000	64.932417 
3346.000000	64.923262 
3345.000000	64.917588 
3344.000000	64.917778 
3343.000000	64.924526 
3342.000000	64.936757 
3341.000000	64.952158 
3340.000000	64.967894 
3339.000000	64.981484 
3338.000000	64.991521 
3337.000000	64.997982 
3336.000000	65.002107 
3335.000000	65.005755 
3334.000000	65.010738 
3333.000000	65.018224 
3332.000000	65.028333 
3331.000000	65.039992 
3330.000000	65.051031 
3329.000000	65.058922 
3328.000000	65.060997 
3327.000000	65.055346 
3326.000000	65.040850 
3325.000000	65.017557 
3324.000000	64.986586 
3323.000000	64.950060 
3322.000000	64.910769 
3321.000000	64.871907 
3320.000000	64.836454 
3319.000000	64.807128 
3318.000000	64.785623 
3317.000000	64.772582 
3316.000000	64.767718 
3315.000000	64.769577 
3314.000000	64.776396 
3313.000000	64.786243 
3312.000000	64.797687 
3311.000000	64.809799 
3310.000000	64.822125 
3309.000000	64.834380 
3308.000000	64.846062 
3307.000000	64.856123 
3306.000000	64.863109 
3305.000000	64.865326 
3304.000000	64.861416 
3303.000000	64.850616 
3302.000000	64.833307 
3301.000000	64.811134 
3300.000000	64.786839 
3299.000000	64.763879 
3298.000000	64.745664 
3297.000000	64.734840 
3296.000000	64.733028 
3295.000000	64.740228 
3294.000000	64.755344 
3293.000000	64.776301 
3292.000000	64.800739 
3291.000000	64.826321 
3290.000000	64.850902 
3289.000000	64.873051 
3288.000000	64.891719 
3287.000000	64.906454 
3286.000000	64.917135 
3285.000000	64.924073 
3284.000000	64.927721 
3283.000000	64.928722 
3282.000000	64.927816 
3281.000000	64.925646 
3280.000000	64.922809 
3279.000000	64.919662 
3278.000000	64.916396 
3277.000000	64.913010 
3276.000000	64.909267 
3275.000000	64.904999 
3274.000000	64.899945 
3273.000000	64.894080 
3272.000000	64.887642 
3271.000000	64.881110 
3270.000000	64.875102 
3269.000000	64.870285 
3268.000000	64.867496 
3267.000000	64.867401 
3266.000000	64.870405 
3265.000000	64.876604 
3264.000000	64.885592 
3263.000000	64.896440 
3262.000000	64.907646 
3261.000000	64.917302 
3260.000000	64.923524 
3259.000000	64.924931 
3258.000000	64.920687 
3257.000000	64.910888 
3256.000000	64.896416 
3255.000000	64.878988 
3254.000000	64.860653 
3253.000000	64.843559 
3252.000000	64.829611 
3251.000000	64.820289 
3250.000000	64.816236 
3249.000000	64.817523 
3248.000000	64.823770 
3247.000000	64.834165 
3246.000000	64.847707 
3245.000000	64.863109 
3244.000000	64.879202 
3243.000000	64.894556 
3242.000000	64.907979 
3241.000000	64.918279 
3240.000000	64.924526 
3239.000000	64.925813 
3238.000000	64.921879 
3237.000000	64.912462 
3236.000000	64.897632 
3235.000000	64.877438 
3234.000000	64.852404 
3233.000000	64.823460 
3232.000000	64.792203 
3231.000000	64.760804 
3230.000000	64.731860 
3229.000000	64.707899 
3228.000000	64.690995 
3227.000000	64.682126 
3226.000000	64.680910 
3225.000000	64.685368 
3224.000000	64.692401 
3223.000000	64.698314 
3222.000000	64.699840 
3221.000000	64.694619 
3220.000000	64.682102 
3219.000000	64.663505 
3218.000000	64.642000 
3217.000000	64.621400 
3216.000000	64.606094 
3215.000000	64.599347 
3214.000000	64.603185 
3213.000000	64.617848 
3212.000000	64.641952 
3211.000000	64.672565 
3210.000000	64.705848 
3209.000000	64.737820 
3208.000000	64.764738 
3207.000000	64.783859 
3206.000000	64.793515 
3205.000000	64.793300 
3204.000000	64.784049 
3203.000000	64.767575 
3202.000000	64.746356 
3201.000000	64.723014 
3200.000000	64.700198 
3199.000000	64.680361 
3198.000000	64.665269 
3197.000000	64.655971 
3196.000000	64.652991 
3195.000000	64.656305 
3194.000000	64.665365 
3193.000000	64.679121 
3192.000000	64.696264 
3191.000000	64.714884 
3190.000000	64.732670 
3189.000000	64.747190 
3188.000000	64.755940 
3187.000000	64.757323 
3186.000000	64.750695 
3185.000000	64.737200 
3184.000000	64.719486 
3183.000000	64.701342 
3182.000000	64.687085 
3181.000000	64.680433 
3180.000000	64.683675 
3179.000000	64.696884 
3178.000000	64.718151 
3177.000000	64.743733 
3176.000000	64.769101 
3175.000000	64.790105 
3174.000000	64.804124 
3173.000000	64.810657 
3172.000000	64.811205 
3171.000000	64.808773 
3170.000000	64.807057 
3169.000000	64.809346 
3168.000000	64.817500 
3167.000000	64.831757 
3166.000000	64.850521 
3165.000000	64.871358 
3164.000000	64.891314 
3163.000000	64.907860 
3162.000000	64.919185 
3161.000000	64.924621 
3160.000000	64.924454 
3159.000000	64.919734 
3158.000000	64.911675 
3157.000000	64.901471 
3156.000000	64.889693 
3155.000000	64.876580 
3154.000000	64.861869 
3153.000000	64.845514 
3152.000000	64.827346 
3151.000000	64.807653 
3150.000000	64.786982 
3149.000000	64.766168 
3148.000000	64.746165 
3147.000000	64.727807 
3146.000000	64.711761 
3145.000000	64.698338 
3144.000000	64.687800 
3143.000000	64.680409 
3142.000000	64.676594 
3141.000000	64.676690 
3140.000000	64.681291 
3139.000000	64.690923 
3138.000000	64.705371 
3137.000000	64.723801 
3136.000000	64.744472 
3135.000000	64.765048 
3134.000000	64.782571 
3133.000000	64.794659 
3132.000000	64.799785 
3131.000000	64.798283 
3130.000000	64.791989 
3129.000000	64.784097 
3128.000000	64.778566 
3127.000000	64.778900 
3126.000000	64.787483 
3125.000000	64.804768 
3124.000000	64.829158 
3123.000000	64.857459 
3122.000000	64.885854 
3121.000000	64.910602 
3120.000000	64.928960 
3119.000000	64.939928 
3118.000000	64.944267 
3117.000000	64.943647 
3116.000000	64.939999 
3115.000000	64.934754 
3114.000000	64.928340 
3113.000000	64.920139 
3112.000000	64.908552 
3111.000000	64.892101 
3110.000000	64.869952 
3109.000000	64.842700 
3108.000000	64.812612 
3107.000000	64.783024 
3106.000000	64.757966 
3105.000000	64.741230 
3104.000000	64.735555 
3103.000000	64.741420 
3102.000000	64.757347 
3101.000000	64.779949 
3100.000000	64.804959 
3099.000000	64.827871 
3098.000000	64.845371 
3097.000000	64.855933 
3096.000000	64.860320 
3095.000000	64.861011 
3094.000000	64.861726 
3093.000000	64.866113 
3092.000000	64.876914 
3091.000000	64.894986 
3090.000000	64.919328 
3089.000000	64.947032 
3088.000000	64.974117 
3087.000000	64.996409 
3086.000000	65.010690 
3085.000000	65.015292 
3084.000000	65.010404 
3083.000000	64.997792 
3082.000000	64.980149 
3081.000000	64.960312 
3080.000000	64.940524 
3079.000000	64.921760 
3078.000000	64.903855 
3077.000000	64.885592 
3076.000000	64.865541 
3075.000000	64.842581 
3074.000000	64.816546 
3073.000000	64.788675 
3072.000000	64.761400 
3071.000000	64.738154 
3070.000000	64.722466 
3069.000000	64.717197 
3068.000000	64.723706 
3067.000000	64.741730 
3066.000000	64.769196 
3065.000000	64.802598 
3064.000000	64.837503 
3063.000000	64.869475 
3062.000000	64.894866 
3061.000000	64.911222 
3060.000000	64.917683 
3059.000000	64.914846 
3058.000000	64.904618 
3057.000000	64.889454 
3056.000000	64.871788 
3055.000000	64.853787 
3054.000000	64.836692 
3053.000000	64.821100 
3052.000000	64.806866 
3051.000000	64.793610 
3050.000000	64.780879 
3049.000000	64.768767 
3048.000000	64.757585 
3047.000000	64.747714 
3046.000000	64.739704 
3045.000000	64.733743 
3044.000000	64.729857 
3043.000000	64.727592 
3042.000000	64.726495 
3041.000000	64.726042 
3040.000000	64.726352 
3039.000000	64.727950 
3038.000000	64.731740 
3037.000000	64.738869 
3036.000000	64.750146 
3035.000000	64.765691 
3034.000000	64.784407 
3033.000000	64.804077 
3032.000000	64.821863 
3031.000000	64.834523 
3030.000000	64.839315 
3029.000000	64.834499 
3028.000000	64.819812 
3027.000000	64.796876 
3026.000000	64.768671 
3025.000000	64.739251 
3024.000000	64.713096 
3023.000000	64.694333 
3022.000000	64.686131 
3021.000000	64.689993 
3020.000000	64.705562 
3019.000000	64.730572 
3018.000000	64.761376 
3017.000000	64.793562 
3016.000000	64.822626 
3015.000000	64.844846 
3014.000000	64.857888 
3013.000000	64.860963 
3012.000000	64.854812 
3011.000000	64.841532 
3010.000000	64.823961 
3009.000000	64.805006 
3008.000000	64.787054 
3007.000000	64.771747 
3006.000000	64.759707 
3005.000000	64.750695 
3004.000000	64.743995 
3003.000000	64.738655 
3002.000000	64.734005 
3001.000000	64.729857 
3000.000000	64.726567 
2999.000000	64.724683 
2998.000000	64.724779 
2997.000000	64.727234 
2996.000000	64.731931 
2995.000000	64.737868 
2994.000000	64.743709 
2993.000000	64.747691 
2992.000000	64.748263 
2991.000000	64.744520 
2990.000000	64.736723 
2989.000000	64.726161 
2988.000000	64.715194 
2987.000000	64.706635 
2986.000000	64.702963 
2985.000000	64.705872 
2984.000000	64.715528 
2983.000000	64.730596 
2982.000000	64.748454 
2981.000000	64.765858 
2980.000000	64.779734 
2979.000000	64.787673 
2978.000000	64.788532 
2977.000000	64.782381 
2976.000000	64.770460 
2975.000000	64.754533 
2974.000000	64.736318 
2973.000000	64.717078 
2972.000000	64.697647 
2971.000000	64.678144 
2970.000000	64.658522 
2969.000000	64.638519 
2968.000000	64.618372 
2967.000000	64.598751 
2966.000000	64.580416 
2965.000000	64.564323 
2964.000000	64.551234 
2963.000000	64.541840 
2962.000000	64.536595 
2961.000000	64.535927 
2960.000000	64.539957 
2959.000000	64.548754 
2958.000000	64.562129 
2957.000000	64.579439 
2956.000000	64.599442 
2955.000000	64.620351 
2954.000000	64.640045 
2953.000000	64.656209 
2952.000000	64.667272 
2951.000000	64.672374 
2950.000000	64.672136 
2949.000000	64.668393 
2948.000000	64.663958 
2947.000000	64.662122 
2946.000000	64.665865 
2945.000000	64.677119 
2944.000000	64.696359 
2943.000000	64.722514 
2942.000000	64.753103 
2941.000000	64.784789 
2940.000000	64.813852 
2939.000000	64.836978 
2938.000000	64.851593 
2937.000000	64.856314 
2936.000000	64.850997 
2935.000000	64.836525 
2934.000000	64.814639 
2933.000000	64.787578 
2932.000000	64.757847 
2931.000000	64.727926 
2930.000000	64.700198 
2929.000000	64.676666 
2928.000000	64.658975 
2927.000000	64.648365 
2926.000000	64.645671 
2925.000000	64.650964 
2924.000000	64.663696 
2923.000000	64.682531 
2922.000000	64.705467 
2921.000000	64.729857 
2920.000000	64.752435 
2919.000000	64.769792 
2918.000000	64.778971 
2917.000000	64.777803 
2916.000000	64.765429 
2915.000000	64.742565 
2914.000000	64.711403 
2913.000000	64.675188 
2912.000000	64.637923 
2911.000000	64.603185 
2910.000000	64.573526 
2909.000000	64.550256 
2908.000000	64.533162 
2907.000000	64.520978 
2906.000000	64.511585 
2905.000000	64.502882 
2904.000000	64.493632 
2903.000000	64.483499 
2902.000000	64.473366 
2901.000000	64.464855 
2900.000000	64.459967 
2899.000000	64.460420 
2898.000000	64.467477 
2897.000000	64.481663 
2896.000000	64.502882 
2895.000000	64.530563 
2894.000000	64.563727 
2893.000000	64.601254 
2892.000000	64.641666 
2891.000000	64.683222 
2890.000000	64.723825 
2889.000000	64.761042 
2888.000000	64.792275 
2887.000000	64.815068 
2886.000000	64.827370 
2885.000000	64.828348 
2884.000000	64.818191 
2883.000000	64.798641 
2882.000000	64.772415 
2881.000000	64.742875 
2880.000000	64.713573 
2879.000000	64.687585 
2878.000000	64.667177 
2877.000000	64.653420 
2876.000000	64.646220 
2875.000000	64.644646 
2874.000000	64.646863 
2873.000000	64.650964 
2872.000000	64.654922 
2871.000000	64.657378 
2870.000000	64.657759 
2869.000000	64.656448 
2868.000000	64.654541 
2867.000000	64.653444 
2866.000000	64.654612 
2865.000000	64.658713 
2864.000000	64.665532 
2863.000000	64.673876 
2862.000000	64.682078 
2861.000000	64.688253 
2860.000000	64.690732 
2859.000000	64.688849 
2858.000000	64.683103 
2857.000000	64.675021 
2856.000000	64.666771 
2855.000000	64.660644 
2854.000000	64.658308 
2853.000000	64.660596 
2852.000000	64.667105 
2851.000000	64.676666 
2850.000000	64.687418 
2849.000000	64.697742 
2848.000000	64.706373 
2847.000000	64.712691 
2846.000000	64.716696 
2845.000000	64.718747 
2844.000000	64.719533 
2843.000000	64.719438 
2842.000000	64.718651 
2841.000000	64.717125 
2840.000000	64.714622 
2839.000000	64.710855 
2838.000000	64.705634 
2837.000000	64.699077 
2836.000000	64.691424 
2835.000000	64.683198 
2834.000000	64.674830 
2833.000000	64.666748 
2832.000000	64.659404 
2831.000000	64.653325 
2830.000000	64.649057 
2829.000000	64.647030 
2828.000000	64.647507 
2827.000000	64.650321 
2826.000000	64.654827 
2825.000000	64.659953 
2824.000000	64.664030 
2823.000000	64.665412 
2822.000000	64.662790 
2821.000000	64.655709 
2820.000000	64.644575 
2819.000000	64.630866 
2818.000000	64.616727 
2817.000000	64.604830 
2816.000000	64.597535 
2815.000000	64.596652 
2814.000000	64.602851 
2813.000000	64.615559 
2812.000000	64.633178 
2811.000000	64.653158 
2810.000000	64.672756 
2809.000000	64.689302 
2808.000000	64.700722 
2807.000000	64.705848 
2806.000000	64.704322 
2805.000000	64.696812 
2804.000000	64.684486 
2803.000000	64.668989 
2802.000000	64.652085 
2801.000000	64.635491 
2800.000000	64.620709 
2799.000000	64.608860 
2798.000000	64.600801 
2797.000000	64.596986 
2796.000000	64.597725 
2795.000000	64.602828 
2794.000000	64.611959 
2793.000000	64.624595 
2792.000000	64.640235 
2791.000000	64.658260 
2790.000000	64.677929 
2789.000000	64.698529 
2788.000000	64.719128 
2787.000000	64.738702 
2786.000000	64.756131 
2785.000000	64.770269 
2784.000000	64.780306 
2783.000000	64.785599 
2782.000000	64.785957 
2781.000000	64.781737 
2780.000000	64.773821 
2779.000000	64.763450 
2778.000000	64.752078 
2777.000000	64.741492 
2776.000000	64.733147 
2775.000000	64.728307 
2774.000000	64.727616 
2773.000000	64.731001 
2772.000000	64.737701 
2771.000000	64.746379 
2770.000000	64.755344 
2769.000000	64.762759 
2768.000000	64.767169 
2767.000000	64.767718 
2766.000000	64.764285 
2765.000000	64.757466 
2764.000000	64.748334 
2763.000000	64.738059 
2762.000000	64.727520 
2761.000000	64.716982 
2760.000000	64.705824 
2759.000000	64.693021 
2758.000000	64.677214 
2757.000000	64.657330 
2756.000000	64.633131 
2755.000000	64.605236 
2754.000000	64.575314 
2753.000000	64.545845 
2752.000000	64.519453 
2751.000000	64.498710 
2750.000000	64.485383 
2749.000000	64.480400 
2748.000000	64.483618 
2747.000000	64.494132 
2746.000000	64.510416 
2745.000000	64.530849 
2744.000000	64.553904 
2743.000000	64.578247 
2742.000000	64.602565 
2741.000000	64.625763 
2740.000000	64.646792 
2739.000000	64.664602 
2738.000000	64.678287 
2737.000000	64.687252 
2736.000000	64.691257 
2735.000000	64.690613 
2734.000000	64.685916 
2733.000000	64.678263 
2732.000000	64.668846 
2731.000000	64.659023 
2730.000000	64.650058 
2729.000000	64.643001 
2728.000000	64.638495 
2727.000000	64.636969 
2726.000000	64.638233 
2725.000000	64.641880 
2724.000000	64.647102 
2723.000000	64.652919 
2722.000000	64.658379 
2721.000000	64.662647 
2720.000000	64.665246 
2719.000000	64.666128 
2718.000000	64.665699 
2717.000000	64.664769 
2716.000000	64.664173 
2715.000000	64.664721 
2714.000000	64.666867 
2713.000000	64.670681 
2712.000000	64.676022 
2711.000000	64.682388 
2710.000000	64.689469 
2709.000000	64.696717 
2708.000000	64.703750 
2707.000000	64.710164 
2706.000000	64.715433 
2705.000000	64.718914 
2704.000000	64.720106 
2703.000000	64.718222 
2702.000000	64.712977 
2701.000000	64.703989 
2700.000000	64.691281 
2699.000000	64.675045 
2698.000000	64.655733 
2697.000000	64.634084 
2696.000000	64.610791 
2695.000000	64.586925 
2694.000000	64.563584 
2693.000000	64.542198 
2692.000000	64.524269 
2691.000000	64.511418 
2690.000000	64.504790 
2689.000000	64.505028 
2688.000000	64.512014 
2687.000000	64.524626 
2686.000000	64.540815 
2685.000000	64.557933 
2684.000000	64.573144 
2683.000000	64.584207 
2682.000000	64.589905 
2681.000000	64.590287 
2680.000000	64.586520 
2679.000000	64.580774 
2678.000000	64.575409 
2677.000000	64.572405 
2676.000000	64.572644 
2675.000000	64.575958 
2674.000000	64.581060 
2673.000000	64.586114 
2672.000000	64.589309 
2671.000000	64.589571 
2670.000000	64.586734 
2669.000000	64.581727 
2668.000000	64.575982 
2667.000000	64.571189 
2666.000000	64.568495 
2665.000000	64.568018 
2664.000000	64.568829 
2663.000000	64.569544 
2662.000000	64.568781 
2661.000000	64.565849 
2660.000000	64.561295 
2659.000000	64.556789 
2658.000000	64.554619 
2657.000000	64.557003 
2656.000000	64.565062 
2655.000000	64.578604 
2654.000000	64.595985 
2653.000000	64.614510 
2652.000000	64.631080 
2651.000000	64.642834 
2650.000000	64.647889 
2649.000000	64.645695 
2648.000000	64.636993 
2647.000000	64.623498 
2646.000000	64.607262 
2645.000000	64.590239 
2644.000000	64.573955 
2643.000000	64.559316 
2642.000000	64.546537 
2641.000000	64.535427 
2640.000000	64.525771 
2639.000000	64.517354 
2638.000000	64.510202 
2637.000000	64.504456 
2636.000000	64.500427 
2635.000000	64.498543 
2634.000000	64.499258 
2633.000000	64.502930 
2632.000000	64.509463 
2631.000000	64.518141 
2630.000000	64.527511 
2629.000000	64.535546 
2628.000000	64.540076 
2627.000000	64.539289 
2626.000000	64.532256 
2625.000000	64.519405 
2624.000000	64.502668 
2623.000000	64.484810 
2622.000000	64.469313 
2621.000000	64.459228 
2620.000000	64.456796 
2619.000000	64.462947 
2618.000000	64.477229 
2617.000000	64.497900 
2616.000000	64.522361 
2615.000000	64.547991 
2614.000000	64.572358 
2613.000000	64.593625 
2612.000000	64.610600 
2611.000000	64.622569 
2610.000000	64.629364 
2609.000000	64.631128 
2608.000000	64.628553 
2607.000000	64.622688 
2606.000000	64.615225 
2605.000000	64.608097 
2604.000000	64.603114 
2603.000000	64.601516 
2602.000000	64.603543 
2601.000000	64.608407 
2600.000000	64.614582 
2599.000000	64.620089 
2598.000000	64.623260 
2597.000000	64.623022 
2596.000000	64.619469 
2595.000000	64.613485 
2594.000000	64.606523 
2593.000000	64.599919 
2592.000000	64.594316 
2591.000000	64.589452 
2590.000000	64.584183 
2589.000000	64.576959 
2588.000000	64.566302 
2587.000000	64.551496 
2586.000000	64.533185 
2585.000000	64.513254 
2584.000000	64.494490 
2583.000000	64.479732 
2582.000000	64.471220 
2581.000000	64.470124 
2580.000000	64.476251 
2579.000000	64.488196 
2578.000000	64.503669 
2577.000000	64.520144 
2576.000000	64.535427 
2575.000000	64.548087 
2574.000000	64.557385 
2573.000000	64.563250 
2572.000000	64.566016 
2571.000000	64.566087 
2570.000000	64.563584 
2569.000000	64.558529 
2568.000000	64.550852 
2567.000000	64.540696 
2566.000000	64.528679 
2565.000000	64.516115 
2564.000000	64.504647 
2563.000000	64.496350 
2562.000000	64.492869 
2561.000000	64.495158 
2560.000000	64.503097 
2559.000000	64.515447 
2558.000000	64.530038 
2557.000000	64.544367 
2556.000000	64.556002 
2555.000000	64.563179 
2554.000000	64.565229 
2553.000000	64.562654 
2552.000000	64.556860 
2551.000000	64.549827 
2550.000000	64.543533 
2549.000000	64.539647 
2548.000000	64.539074 
2547.000000	64.541912 
2546.000000	64.547777 
2545.000000	64.555859 
2544.000000	64.565348 
2543.000000	64.575171 
2542.000000	64.584708 
2541.000000	64.593362 
2540.000000	64.600706 
2539.000000	64.606451 
2538.000000	64.610219 
2537.000000	64.611697 
2536.000000	64.610862 
2535.000000	64.607739 
2534.000000	64.602589 
2533.000000	64.595532 
2532.000000	64.586901 
2531.000000	64.576792 
2530.000000	64.565300 
2529.000000	64.552378 
2528.000000	64.537978 
2527.000000	64.522218 
2526.000000	64.505577 
2525.000000	64.488625 
2524.000000	64.472198 
2523.000000	64.457178 
2522.000000	64.444470 
2521.000000	64.434480 
2520.000000	64.427351 
2519.000000	64.422821 
2518.000000	64.420485 
2517.000000	64.419913 
2516.000000	64.421057 
2515.000000	64.424133 
2514.000000	64.429831 
2513.000000	64.438986 
2512.000000	64.452171 
2511.000000	64.469504 
2510.000000	64.490294 
2509.000000	64.512968 
2508.000000	64.535188 
2507.000000	64.554214 
2506.000000	64.567470 
2505.000000	64.573168 
2504.000000	64.570546 
2503.000000	64.560127 
2502.000000	64.543628 
2501.000000	64.523649 
2500.000000	64.503002 
2499.000000	64.484095 
2498.000000	64.468574 
2497.000000	64.457130 
2496.000000	64.449310 
2495.000000	64.443945 
2494.000000	64.439582 
2493.000000	64.434981 
2492.000000	64.429283 
2491.000000	64.422369 
2490.000000	64.414715 
2489.000000	64.407348 
2488.000000	64.401412 
2487.000000	64.397907 
2486.000000	64.397406 
2485.000000	64.399886 
2484.000000	64.404988 
2483.000000	64.411878 
2482.000000	64.419484 
2481.000000	64.426779 
2480.000000	64.432859 
2479.000000	64.437174 
2478.000000	64.439392 
2477.000000	64.439463 
2476.000000	64.437627 
2475.000000	64.434242 
2474.000000	64.429736 
2473.000000	64.424657 
2472.000000	64.419531 
2471.000000	64.414954 
2470.000000	64.411473 
2469.000000	64.409518 
2468.000000	64.409351 
2467.000000	64.411306 
2466.000000	64.415478 
2465.000000	64.422035 
2464.000000	64.430904 
2463.000000	64.441895 
2462.000000	64.454603 
2461.000000	64.468240 
2460.000000	64.481830 
2459.000000	64.494061 
2458.000000	64.503598 
2457.000000	64.509510 
2456.000000	64.511132 
2455.000000	64.508509 
2454.000000	64.502263 
2453.000000	64.493513 
2452.000000	64.483475 
2451.000000	64.473462 
2450.000000	64.464259 
2449.000000	64.456439 
2448.000000	64.450049 
2447.000000	64.445042 
2446.000000	64.441370 
2445.000000	64.439201 
2444.000000	64.438796 
2443.000000	64.440488 
2442.000000	64.444112 
2441.000000	64.448904 
2440.000000	64.453315 
2439.000000	64.455318 
2438.000000	64.452600 
2437.000000	64.443325 
2436.000000	64.426565 
2435.000000	64.402866 
2434.000000	64.373850 
2433.000000	64.342260 
2432.000000	64.311122 
2431.000000	64.283227 
2430.000000	64.260506 
2429.000000	64.243888 
2428.000000	64.233160 
2427.000000	64.227390 
2426.000000	64.225339 
2425.000000	64.225840 
2424.000000	64.228177 
2423.000000	64.231944 
2422.000000	64.236974 
2421.000000	64.243245 
2420.000000	64.250349 
2419.000000	64.257812 
2418.000000	64.264893 
2417.000000	64.271235 
2416.000000	64.276695 
2415.000000	64.281630 
2414.000000	64.286780 
2413.000000	64.292931 
2412.000000	64.300799 
2411.000000	64.310526 
2410.000000	64.321637 
2409.000000	64.333105 
2408.000000	64.343690 
2407.000000	64.352345 
2406.000000	64.358735 
2405.000000	64.363408 
2404.000000	64.367651 
2403.000000	64.373302 
2402.000000	64.382219 
2401.000000	64.395833 
2400.000000	64.414668 
2399.000000	64.438009 
2398.000000	64.463996 
2397.000000	64.490222 
2396.000000	64.514088 
2395.000000	64.533400 
2394.000000	64.546585 
2393.000000	64.553213 
2392.000000	64.553737 
2391.000000	64.549350 
2390.000000	64.541625 
2389.000000	64.532113 
2388.000000	64.522290 
2387.000000	64.513134 
2386.000000	64.505243 
2385.000000	64.498591 
2384.000000	64.492654 
2383.000000	64.486575 
2382.000000	64.479136 
2381.000000	64.469242 
2380.000000	64.456200 
2379.000000	64.440107 
2378.000000	64.421701 
2377.000000	64.402461 
2376.000000	64.384460 
2375.000000	64.369797 
2374.000000	64.360237 
2373.000000	64.356732 
2372.000000	64.359450 
2371.000000	64.367604 
2370.000000	64.379549 
2369.000000	64.393281 
2368.000000	64.406752 
2367.000000	64.418196 
2366.000000	64.426231 
2365.000000	64.430069 
2364.000000	64.429450 
2363.000000	64.424538 
2362.000000	64.415836 
2361.000000	64.404153 
2360.000000	64.390659 
2359.000000	64.376783 
2358.000000	64.364004 
2357.000000	64.353680 
2356.000000	64.346623 
2355.000000	64.343142 
2354.000000	64.342832 
2353.000000	64.344739 
2352.000000	64.347624 
2351.000000	64.350032 
2350.000000	64.350962 
2349.000000	64.349675 
2348.000000	64.345955 
2347.000000	64.340090 
2346.000000	64.332699 
2345.000000	64.324712 
2344.000000	64.317250 
2343.000000	64.311146 
2342.000000	64.307188 
2341.000000	64.305782 
2340.000000	64.307165 
2339.000000	64.311170 
2338.000000	64.317440 
2337.000000	64.325380 
2336.000000	64.334106 
2335.000000	64.342784 
2334.000000	64.350748 
2333.000000	64.357447 
2332.000000	64.362621 
2331.000000	64.366269 
2330.000000	64.368343 
2329.000000	64.369010 
2328.000000	64.368271 
2327.000000	64.366173 
2326.000000	64.362907 
2325.000000	64.358568 
2324.000000	64.353513 
2323.000000	64.347958 
2322.000000	64.342021 
2321.000000	64.335393 
2320.000000	64.327573 
2319.000000	64.317774 
2318.000000	64.305305 
2317.000000	64.289784 
2316.000000	64.271569 
2315.000000	64.251947 
2314.000000	64.232802 
2313.000000	64.216423 
2312.000000	64.205074 
2311.000000	64.200353 
2310.000000	64.202690 
2309.000000	64.211130 
2308.000000	64.223742 
2307.000000	64.238071 
2306.000000	64.251852 
2305.000000	64.263677 
2304.000000	64.273071 
2303.000000	64.280724 
2302.000000	64.287972 
2301.000000	64.296340 
2300.000000	64.306712 
2299.000000	64.319133 
2298.000000	64.332628 
2297.000000	64.345383 
2296.000000	64.355349 
2295.000000	64.360857 
2294.000000	64.360928 
2293.000000	64.355945 
2292.000000	64.347338 
2291.000000	64.337277 
2290.000000	64.328360 
2289.000000	64.322781 
2288.000000	64.322090 
2287.000000	64.326715 
2286.000000	64.335966 
2285.000000	64.348363 
2284.000000	64.361882 
2283.000000	64.374351 
2282.000000	64.383983 
2281.000000	64.389562 
2280.000000	64.390730 
2279.000000	64.387989 
2278.000000	64.382529 
2277.000000	64.375901 
2276.000000	64.369606 
2275.000000	64.364576 
2274.000000	64.361143 
2273.000000	64.358806 
2272.000000	64.356470 
2271.000000	64.352679 
2270.000000	64.346075 
2269.000000	64.335846 
2268.000000	64.322161 
2267.000000	64.306163 
2266.000000	64.289879 
2265.000000	64.275670 
2264.000000	64.265871 
2263.000000	64.262247 
2262.000000	64.265227 
2261.000000	64.273929 
2260.000000	64.286231 
2259.000000	64.299225 
2258.000000	64.309906 
2257.000000	64.315724 
2256.000000	64.315247 
2255.000000	64.308476 
2254.000000	64.296960 
2253.000000	64.283394 
2252.000000	64.271020 
2251.000000	64.262986 
2250.000000	64.261579 
2249.000000	64.267945 
2248.000000	64.281582 
2247.000000	64.300870 
2246.000000	64.322924 
2245.000000	64.344453 
2244.000000	64.362144 
2243.000000	64.373326 
2242.000000	64.376449 
2241.000000	64.370965 
2240.000000	64.357447 
2239.000000	64.337444 
2238.000000	64.313173 
2237.000000	64.287090 
2236.000000	64.261627 
2235.000000	64.239001 
2234.000000	64.220809 
2233.000000	64.208030 
2232.000000	64.200878 
2231.000000	64.199042 
2230.000000	64.201712 
2229.000000	64.207935 
2228.000000	64.216637 
2227.000000	64.226603 
2226.000000	64.236950 
2225.000000	64.246988 
2224.000000	64.256167 
2223.000000	64.263916 
2222.000000	64.270067 
2221.000000	64.274621 
2220.000000	64.277768 
2219.000000	64.279890 
2218.000000	64.281344 
2217.000000	64.282631 
2216.000000	64.284110 
2215.000000	64.285945 
2214.000000	64.288091 
2213.000000	64.290261 
2212.000000	64.291954 
2211.000000	64.292955 
2210.000000	64.293146 
2209.000000	64.292883 
2208.000000	64.292955 
2207.000000	64.294219 
2206.000000	64.297461 
2205.000000	64.303016 
2204.000000	64.310765 
2203.000000	64.319872 
2202.000000	64.328956 
2201.000000	64.336323 
2200.000000	64.340257 
2199.000000	64.339065 
2198.000000	64.331746 
2197.000000	64.317870 
2196.000000	64.297914 
2195.000000	64.273309 
2194.000000	64.246296 
2193.000000	64.219737 
2192.000000	64.196729 
2191.000000	64.180183 
2190.000000	64.172363 
2189.000000	64.174342 
2188.000000	64.185953 
2187.000000	64.205694 
2186.000000	64.230966 
2185.000000	64.258360 
2184.000000	64.284539 
2183.000000	64.306640 
2182.000000	64.322710 
2181.000000	64.331793 
2180.000000	64.333820 
2179.000000	64.329338 
2178.000000	64.319205 
2177.000000	64.304351 
2176.000000	64.285635 
2175.000000	64.264106 
2174.000000	64.240980 
2173.000000	64.217638 
2172.000000	64.195632 
2171.000000	64.176464 
2170.000000	64.161300 
2169.000000	64.150905 
2168.000000	64.145398 
2167.000000	64.144468 
2166.000000	64.147353 
2165.000000	64.153361 
2164.000000	64.161825 
2163.000000	64.172363 
2162.000000	64.184713 
2161.000000	64.198493 
2160.000000	64.212989 
2159.000000	64.227056 
2158.000000	64.239120 
2157.000000	64.247465 
2156.000000	64.250564 
2155.000000	64.247536 
2154.000000	64.238357 
2153.000000	64.223861 
2152.000000	64.205670 
2151.000000	64.185571 
2150.000000	64.165258 
2149.000000	64.145851 
2148.000000	64.127993 
2147.000000	64.111995 
2146.000000	64.098000 
2145.000000	64.086294 
2144.000000	64.077496 
2143.000000	64.072537 
2142.000000	64.072370 
2141.000000	64.077448 
2140.000000	64.087557 
2139.000000	64.101314 
2138.000000	64.116692 
2137.000000	64.131021 
2136.000000	64.141964 
2135.000000	64.147925 
2134.000000	64.148592 
2133.000000	64.145255 
2132.000000	64.140176 
2131.000000	64.136171 
2130.000000	64.135527 
2129.000000	64.139437 
2128.000000	64.147639 
2127.000000	64.158368 
2126.000000	64.169001 
2125.000000	64.176964 
2124.000000	64.180469 
2123.000000	64.179086 
2122.000000	64.173841 
2121.000000	64.166879 
2120.000000	64.160752 
2119.000000	64.157652 
2118.000000	64.158773 
2117.000000	64.163780 
2116.000000	64.171409 
2115.000000	64.179611 
2114.000000	64.186096 
2113.000000	64.189004 
2112.000000	64.187407 
2111.000000	64.181232 
2110.000000	64.171195 
2109.000000	64.158415 
2108.000000	64.144110 
2107.000000	64.129376 
2106.000000	64.114975 
2105.000000	64.101576 
2104.000000	64.089703 
2103.000000	64.079928 
2102.000000	64.072799 
2101.000000	64.068746 
2100.000000	64.067816 
2099.000000	64.069724 
2098.000000	64.073920 
2097.000000	64.079499 
2096.000000	64.085316 
2095.000000	64.090371 
2094.000000	64.093971 
2093.000000	64.095902 
2092.000000	64.096403 
2091.000000	64.096474 
2090.000000	64.097404 
2089.000000	64.100694 
2088.000000	64.107608 
2087.000000	64.118838 
2086.000000	64.134192 
2085.000000	64.152765 
2084.000000	64.172816 
2083.000000	64.192414 
2082.000000	64.209508 
2081.000000	64.222526 
2080.000000	64.230418 
2079.000000	64.233016 
2078.000000	64.230513 
2077.000000	64.223647 
2076.000000	64.213204 
2075.000000	64.199781 
2074.000000	64.183664 
2073.000000	64.165139 
2072.000000	64.144325 
2071.000000	64.121723 
2070.000000	64.098119 
2069.000000	64.074897 
2068.000000	64.053535 
2067.000000	64.035582 
2066.000000	64.022207 
2065.000000	64.014101 
2064.000000	64.011454 
2063.000000	64.013981 
2062.000000	64.020943 
2061.000000	64.031457 
2060.000000	64.044523 
2059.000000	64.058947 
2058.000000	64.073538 
2057.000000	64.086771 
2056.000000	64.097261 
2055.000000	64.103412 
2054.000000	64.104080 
2053.000000	64.098596 
2052.000000	64.087033 
2051.000000	64.070320 
2050.000000	64.050102 
2049.000000	64.028620 
2048.000000	64.008355 
2047.000000	63.991689 
2046.000000	63.980460 
2045.000000	63.975715 
2044.000000	63.977766 
2043.000000	63.986158 
2042.000000	63.999795 
2041.000000	64.017152 
2040.000000	64.036321 
2039.000000	64.055347 
2038.000000	64.072418 
2037.000000	64.085841 
2036.000000	64.094328 
2035.000000	64.097166 
2034.000000	64.094471 
2033.000000	64.087080 
2032.000000	64.076447 
2031.000000	64.064478 
2030.000000	64.053177 
2029.000000	64.044213 
2028.000000	64.038443 
2027.000000	64.036035 
2026.000000	64.036154 
2025.000000	64.037394 
2024.000000	64.038062 
2023.000000	64.036703 
2022.000000	64.032459 
2021.000000	64.025354 
2020.000000	64.016127 
2019.000000	64.005970 
2018.000000	63.996315 
2017.000000	63.988089 
2016.000000	63.981795 
2015.000000	63.977217 
2014.000000	63.973736 
2013.000000	63.970541 
2012.000000	63.966965 
2011.000000	63.962769 
2010.000000	63.958287 
2009.000000	63.954257 
2008.000000	63.951492 
2007.000000	63.950872 
2006.000000	63.952946 
2005.000000	63.958024 
2004.000000	63.966155 
2003.000000	63.977074 
2002.000000	63.990473 
2001.000000	64.005994 
2000.000000	64.023256 
1999.000000	64.041471 
1998.000000	64.059591 
1997.000000	64.076113 
1996.000000	64.089274 
1995.000000	64.097309 
1994.000000	64.098811 
1993.000000	64.093208 
1992.000000	64.080929 
1991.000000	64.063477 
1990.000000	64.043021 
1989.000000	64.022159 
1988.000000	64.003372 
1987.000000	63.988447 
1986.000000	63.978409 
1985.000000	63.973259 
1984.000000	63.972282 
1983.000000	63.974428 
1982.000000	63.978528 
1981.000000	63.983607 
1980.000000	63.988995 
1979.000000	63.994455 
1978.000000	63.999891 
1977.000000	64.005088 
1976.000000	64.009833 
1975.000000	64.013552 
1974.000000	64.015650 
1973.000000	64.015579 
1972.000000	64.013099 
1971.000000	64.008545 
1970.000000	64.002561 
1969.000000	63.996362 
1968.000000	63.991212 
1967.000000	63.988375 
1966.000000	63.988614 
1965.000000	63.992047 
1964.000000	63.998222 
1963.000000	64.005947 
1962.000000	64.013743 
1961.000000	64.019989 
1960.000000	64.023184 
1959.000000	64.022183 
1958.000000	64.016389 
1957.000000	64.005994 
1956.000000	63.991808 
1955.000000	63.975191 
1954.000000	63.957929 
1953.000000	63.941884 
1952.000000	63.928747 
1951.000000	63.919878 
1950.000000	63.915848 
1949.000000	63.916683 
1948.000000	63.921809 
1947.000000	63.930153 
1946.000000	63.940477 
1945.000000	63.951659 
1944.000000	63.962745 
1943.000000	63.973164 
1942.000000	63.982486 
1941.000000	63.990712 
1940.000000	63.997888 
1939.000000	64.004230 
1938.000000	64.009737 
1937.000000	64.014434 
1936.000000	64.018154 
1935.000000	64.020729 
1934.000000	64.022040 
1933.000000	64.022064 
1932.000000	64.021039 
1931.000000	64.019370 
1930.000000	64.017558 
1929.000000	64.016127 
1928.000000	64.015293 
1927.000000	64.014935 
1926.000000	64.014625 
1925.000000	64.013624 
1924.000000	64.011001 
1923.000000	64.005827 
1922.000000	63.997530 
1921.000000	63.986063 
1920.000000	63.971877 
1919.000000	63.956069 
1918.000000	63.940167 
1917.000000	63.925981 
1916.000000	63.915133 
1915.000000	63.908910 
1914.000000	63.907814 
1913.000000	63.911581 
1912.000000	63.919138 
1911.000000	63.928627 
1910.000000	63.938021 
1909.000000	63.945317 
1908.000000	63.949227 
1907.000000	63.949060 
1906.000000	63.945269 
1905.000000	63.939237 
1904.000000	63.932871 
1903.000000	63.928103 
1902.000000	63.926482 
1901.000000	63.928699 
1900.000000	63.934564 
1899.000000	63.942766 
1898.000000	63.951468 
1897.000000	63.958811 
1896.000000	63.963341 
1895.000000	63.964247 
1894.000000	63.961482 
1893.000000	63.955616 
1892.000000	63.947749 
1891.000000	63.938903 
1890.000000	63.929963 
1889.000000	63.921356 
1888.000000	63.913226 
1887.000000	63.905453 
1886.000000	63.897871 
1885.000000	63.890457 
1884.000000	63.883566 
1883.000000	63.877725 
1882.000000	63.873744 
1881.000000	63.872265 
1880.000000	63.873720 
1879.000000	63.878011 
1878.000000	63.884377 
1877.000000	63.891625 
1876.000000	63.898015 
1875.000000	63.901734 
1874.000000	63.901257 
1873.000000	63.895606 
1872.000000	63.884758 
1871.000000	63.869595 
1870.000000	63.852095 
1869.000000	63.834834 
1868.000000	63.820767 
1867.000000	63.812375 
1866.000000	63.811492 
1865.000000	63.818740 
1864.000000	63.833332 
1863.000000	63.853478 
1862.000000	63.876628 
1861.000000	63.899803 
1860.000000	63.920402 
1859.000000	63.936424 
1858.000000	63.947057 
1857.000000	63.952445 
1856.000000	63.953447 
1855.000000	63.951230 
1854.000000	63.947033 
1853.000000	63.941740 
1852.000000	63.935708 
1851.000000	63.928818 
1850.000000	63.920569 
1849.000000	63.910627 
1848.000000	63.898921 
1847.000000	63.885927 
1846.000000	63.872599 
1845.000000	63.860392 
1844.000000	63.850855 
1843.000000	63.845300 
1842.000000	63.844680 
1841.000000	63.849067 
1840.000000	63.857579 
1839.000000	63.868474 
1838.000000	63.879537 
1837.000000	63.888359 
1836.000000	63.892841 
1835.000000	63.891696 
1834.000000	63.884592 
1833.000000	63.872528 
1832.000000	63.857555 
1831.000000	63.842368 
1830.000000	63.829636 
1829.000000	63.821601 
1828.000000	63.819432 
1827.000000	63.822937 
1826.000000	63.830685 
1825.000000	63.840270 
1824.000000	63.848924 
1823.000000	63.854193 
1822.000000	63.854551 
1821.000000	63.849735 
1820.000000	63.840913 
1819.000000	63.830256 
1818.000000	63.820552 
1817.000000	63.814449 
1816.000000	63.813805 
1815.000000	63.819479 
1814.000000	63.831043 
1813.000000	63.846969 
1812.000000	63.865017 
1811.000000	63.882875 
1810.000000	63.898253 
1809.000000	63.909363 
1808.000000	63.915061 
1807.000000	63.914871 
1806.000000	63.908815 
1805.000000	63.897609 
1804.000000	63.882303 
1803.000000	63.864302 
1802.000000	63.845205 
1801.000000	63.826751 
1800.000000	63.810539 
1799.000000	63.797903 
1798.000000	63.789749 
1797.000000	63.786292 
1796.000000	63.787245 
1795.000000	63.791966 
1794.000000	63.799691 
1793.000000	63.809728 
1792.000000	63.821601 
1791.000000	63.834953 
1790.000000	63.849639 
1789.000000	63.865423 
1788.000000	63.881683 
1787.000000	63.897514 
1786.000000	63.911795 
1785.000000	63.923406 
1784.000000	63.931536 
1783.000000	63.935852 
1782.000000	63.936638 
1781.000000	63.934683 
1780.000000	63.931035 
1779.000000	63.926672 
1778.000000	63.922286 
1777.000000	63.917946 
1776.000000	63.913297 
1775.000000	63.907337 
1774.000000	63.899159 
1773.000000	63.887882 
1772.000000	63.873267 
1771.000000	63.855791 
1770.000000	63.836455 
1769.000000	63.816761 
1768.000000	63.798213 
1767.000000	63.782024 
1766.000000	63.768744 
1765.000000	63.758134 
1764.000000	63.749361 
1763.000000	63.741159 
1762.000000	63.732504 
1761.000000	63.722610 
1760.000000	63.711309 
1759.000000	63.699293 
1758.000000	63.687920 
1757.000000	63.678574 
1756.000000	63.672542 
1755.000000	63.670539 
1754.000000	63.672614 
1753.000000	63.677906 
1752.000000	63.685059 
1751.000000	63.692665 
1750.000000	63.699460 
1749.000000	63.704681 
1748.000000	63.708019 
1747.000000	63.709568 
1746.000000	63.709568 
1745.000000	63.708209 
1744.000000	63.705348 
1743.000000	63.700628 
1742.000000	63.693642 
1741.000000	63.684177 
1740.000000	63.672399 
1739.000000	63.659024 
1738.000000	63.645195 
1737.000000	63.632416 
1736.000000	63.622021 
1735.000000	63.614869 
1734.000000	63.611292 
1733.000000	63.610720 
1732.000000	63.612055 
1731.000000	63.613796 
1730.000000	63.614726 
1729.000000	63.613820 
1728.000000	63.610649 
1727.000000	63.605165 
1726.000000	63.597726 
1725.000000	63.589048 
1724.000000	63.579702 
1723.000000	63.570356 
1722.000000	63.561558 
1721.000000	63.553667 
1720.000000	63.547015 
1719.000000	63.541841 
1718.000000	63.538479 
1717.000000	63.537096 
1716.000000	63.537764 
1715.000000	63.540315 
1714.000000	63.544440 
1713.000000	63.549566 
1712.000000	63.555121 
1711.000000	63.560605 
1710.000000	63.565731 
1709.000000	63.570642 
1708.000000	63.575911 
1707.000000	63.582515 
1706.000000	63.591265 
1705.000000	63.602900 
1704.000000	63.617396 
1703.000000	63.634037 
1702.000000	63.651442 
1701.000000	63.667654 
1700.000000	63.680553 
1699.000000	63.688397 
1698.000000	63.690161 
1697.000000	63.685894 
1696.000000	63.676834 
1695.000000	63.665199 
1694.000000	63.653945 
1693.000000	63.646030 
1692.000000	63.643765 
1691.000000	63.648486 
1690.000000	63.659977 
1689.000000	63.676476 
1688.000000	63.695073 
1687.000000	63.712167 
1686.000000	63.724493 
1685.000000	63.729810 
1684.000000	63.727450 
1683.000000	63.718438 
1682.000000	63.705182 
1681.000000	63.690805 
1680.000000	63.678574 
1679.000000	63.670659 
1678.000000	63.667845 
1677.000000	63.669204 
1676.000000	63.672566 
1675.000000	63.675045 
1674.000000	63.673925 
1673.000000	63.667416 
1672.000000	63.655042 
1671.000000	63.637828 
1670.000000	63.617944 
1669.000000	63.598155 
1668.000000	63.580965 
1667.000000	63.568162 
1666.000000	63.560509 
1665.000000	63.557720 
1664.000000	63.558673 
1663.000000	63.561701 
1662.000000	63.565230 
1661.000000	63.567805 
1660.000000	63.568544 
1659.000000	63.566946 
1658.000000	63.562941 
1657.000000	63.556575 
1656.000000	63.548183 
1655.000000	63.538360 
1654.000000	63.528013 
1653.000000	63.518309 
1652.000000	63.510584 
1651.000000	63.506197 
1650.000000	63.506126 
1649.000000	63.510847 
1648.000000	63.519978 
1647.000000	63.532304 
1646.000000	63.545942 
1645.000000	63.558769 
1644.000000	63.568878 
1643.000000	63.574886 
1642.000000	63.576269 
1641.000000	63.573408 
1640.000000	63.567352 
1639.000000	63.559389 
1638.000000	63.550829 
1637.000000	63.542699 
1636.000000	63.535356 
1635.000000	63.528633 
1634.000000	63.521885 
1633.000000	63.514566 
1632.000000	63.506102 
1631.000000	63.496255 
1630.000000	63.485002 
1629.000000	63.472604 
1628.000000	63.459539 
1627.000000	63.446426 
1626.000000	63.433742 
1625.000000	63.422107 
1624.000000	63.411784 
1623.000000	63.403105 
1622.000000	63.396286 
1621.000000	63.391566 
1620.000000	63.388848 
1619.000000	63.388085 
1618.000000	63.388848 
1617.000000	63.390779 
1616.000000	63.393282 
1615.000000	63.395977 
1614.000000	63.398480 
1613.000000	63.400840 
1612.000000	63.403296 
1611.000000	63.406300 
1610.000000	63.410449 
1609.000000	63.416171 
1608.000000	63.423657 
1607.000000	63.432693 
1606.000000	63.442707 
1605.000000	63.452720 
1604.000000	63.461542 
1603.000000	63.468265 
1602.000000	63.472342 
1601.000000	63.474011 
1600.000000	63.474249 
1599.000000	63.474678 
1598.000000	63.476967 
1597.000000	63.482522 
1596.000000	63.491773 
1595.000000	63.504147 
1594.000000	63.517999 
1593.000000	63.530921 
1592.000000	63.540267 
1591.000000	63.543772 
1590.000000	63.540172 
1589.000000	63.529443 
1588.000000	63.512635 
1587.000000	63.491892 
1586.000000	63.469600 
1585.000000	63.448047 
1584.000000	63.428831 
1583.000000	63.412833 
1582.000000	63.400173 
1581.000000	63.390564 
1580.000000	63.383531 
1579.000000	63.378834 
1578.000000	63.376426 
1577.000000	63.376355 
1576.000000	63.378691 
1575.000000	63.383507 
1574.000000	63.390493 
1573.000000	63.399147 
1572.000000	63.408803 
1571.000000	63.418626 
1570.000000	63.427853 
1569.000000	63.435816 
1568.000000	63.441944 
1567.000000	63.445854 
1566.000000	63.447570 
1565.000000	63.447022 
1564.000000	63.444566 
1563.000000	63.440561 
1562.000000	63.435673 
1561.000000	63.430380 
1560.000000	63.425278 
1559.000000	63.420605 
1558.000000	63.416385 
1557.000000	63.412427 
1556.000000	63.408446 
1555.000000	63.404226 
1554.000000	63.399791 
1553.000000	63.395762 
1552.000000	63.393163 
1551.000000	63.393139 
1550.000000	63.396716 
1549.000000	63.404488 
1548.000000	63.416242 
1547.000000	63.430905 
1546.000000	63.446521 
1545.000000	63.460779 
1544.000000	63.471436 
1543.000000	63.476920 
1542.000000	63.476586 
1541.000000	63.470911 
1540.000000	63.461375 
1539.000000	63.449954 
1538.000000	63.438677 
1537.000000	63.429212 
1536.000000	63.422536 
1535.000000	63.419055 
1534.000000	63.418412 
1533.000000	63.420033 
1532.000000	63.423037 
1531.000000	63.426661 
1530.000000	63.430047 
1529.000000	63.432431 
1528.000000	63.433265 
1527.000000	63.432216 
1526.000000	63.429164 
1525.000000	63.424420 
1524.000000	63.418674 
1523.000000	63.412904 
1522.000000	63.408327 
1521.000000	63.406062 
1520.000000	63.406825 
1519.000000	63.410782 
1518.000000	63.417291 
1517.000000	63.425278 
1516.000000	63.433456 
1515.000000	63.440561 
1514.000000	63.445734 
1513.000000	63.448619 
1512.000000	63.449525 
1511.000000	63.449192 
1510.000000	63.448286 
1509.000000	63.447332 
1508.000000	63.446569 
1507.000000	63.445758 
1506.000000	63.444352 
1505.000000	63.441419 
1504.000000	63.435959 
1503.000000	63.427066 
1502.000000	63.414430 
1501.000000	63.398528 
1500.000000	63.380575 
1499.000000	63.362455 
1498.000000	63.346529 
1497.000000	63.334822 
1496.000000	63.328981 
1495.000000	63.329434 
1494.000000	63.335537 
1493.000000	63.345527 
1492.000000	63.357090 
1491.000000	63.367605 
1490.000000	63.374876 
1489.000000	63.377499 
1488.000000	63.374948 
1487.000000	63.367724 
1486.000000	63.356947 
1485.000000	63.343930 
1484.000000	63.329982 
1483.000000	63.316059 
1482.000000	63.302946 
1481.000000	63.291192 
1480.000000	63.281440 
1479.000000	63.274669 
1478.000000	63.271784 
1477.000000	63.273644 
1476.000000	63.280797 
1475.000000	63.293051 
1474.000000	63.309431 
1473.000000	63.328146 
1472.000000	63.346815 
1471.000000	63.362789 
1470.000000	63.373756 
1469.000000	63.377928 
1468.000000	63.374495 
1467.000000	63.363718 
1466.000000	63.346648 
1465.000000	63.325190 
1464.000000	63.301610 
1463.000000	63.278412 
1462.000000	63.258099 
1461.000000	63.242816 
1460.000000	63.234281 
1459.000000	63.233399 
1458.000000	63.240313 
1457.000000	63.254237 
1456.000000	63.273406 
1455.000000	63.295531 
1454.000000	63.318109 
1453.000000	63.338756 
1452.000000	63.355612 
1451.000000	63.367295 
1450.000000	63.373255 
1449.000000	63.373255 
1448.000000	63.367629 
1447.000000	63.356924 
1446.000000	63.341689 
1445.000000	63.322567 
1444.000000	63.300514 
1443.000000	63.276743 
1442.000000	63.252782 
1441.000000	63.230347 
1440.000000	63.211059 
1439.000000	63.195919 
1438.000000	63.185238 
1437.000000	63.178229 
1436.000000	63.173508 
1435.000000	63.169121 
1434.000000	63.163399 
1433.000000	63.155269 
1432.000000	63.144803 
1431.000000	63.133001 
1430.000000	63.121628 
1429.000000	63.112759 
1428.000000	63.108348 
1427.000000	63.109517 
1426.000000	63.116693 
1425.000000	63.129115 
1424.000000	63.145446 
1423.000000	63.163924 
1422.000000	63.182687 
1421.000000	63.200116 
1420.000000	63.214850 
1419.000000	63.226127 
1418.000000	63.233280 
1417.000000	63.236045 
1416.000000	63.234543 
1415.000000	63.229179 
1414.000000	63.221073 
1413.000000	63.211774 
1412.000000	63.203120 
1411.000000	63.196945 
1410.000000	63.194775 
1409.000000	63.197374 
1408.000000	63.204479 
1407.000000	63.214659 
1406.000000	63.225769 
1405.000000	63.235259 
1404.000000	63.240885 
1403.000000	63.240933 
1402.000000	63.234925 
1401.000000	63.223457 
1400.000000	63.207960 
1399.000000	63.190507 
1398.000000	63.173151 
1397.000000	63.157582 
1396.000000	63.144874 
1395.000000	63.135433 
1394.000000	63.129115 
1393.000000	63.125228 
1392.000000	63.122963 
1391.000000	63.121533 
1390.000000	63.120150 
1389.000000	63.118505 
1388.000000	63.116455 
1387.000000	63.114142 
1386.000000	63.111829 
1385.000000	63.109779 
1384.000000	63.108181 
1383.000000	63.107180 
1382.000000	63.106727 
1381.000000	63.106846 
1380.000000	63.107275 
1379.000000	63.107824 
1378.000000	63.108372 
1377.000000	63.108873 
1376.000000	63.109421 
1375.000000	63.110113 
1374.000000	63.111042 
1373.000000	63.112211 
1372.000000	63.113641 
1371.000000	63.115143 
1370.000000	63.116550 
1369.000000	63.117861 
1368.000000	63.119220 
1367.000000	63.121032 
1366.000000	63.123822 
1365.000000	63.127970 
1364.000000	63.133788 
1363.000000	63.141298 
1362.000000	63.150191 
1361.000000	63.159728 
1360.000000	63.169145 
1359.000000	63.177752 
1358.000000	63.184976 
1357.000000	63.190698 
1356.000000	63.195037 
1355.000000	63.198280 
1354.000000	63.200688 
1353.000000	63.202238 
1352.000000	63.202714 
1351.000000	63.201737 
1350.000000	63.198947 
1349.000000	63.194274 
1348.000000	63.187909 
1347.000000	63.180375 
1346.000000	63.172554 
1345.000000	63.165259 
1344.000000	63.158917 
1343.000000	63.153862 
1342.000000	63.150072 
1341.000000	63.147449 
1340.000000	63.145828 
1339.000000	63.145065 
1338.000000	63.145327 
1337.000000	63.146829 
1336.000000	63.149762 
1335.000000	63.154053 
1334.000000	63.159394 
1333.000000	63.165187 
1332.000000	63.170838 
1331.000000	63.176107 
1330.000000	63.181281 
1329.000000	63.187146 
1328.000000	63.194632 
1327.000000	63.204598 
1326.000000	63.216996 
1325.000000	63.230776 
1324.000000	63.243818 
1323.000000	63.253521 
1322.000000	63.257145 
1321.000000	63.252782 
1320.000000	63.239765 
1319.000000	63.218975 
1318.000000	63.192653 
1317.000000	63.163995 
1316.000000	63.136363 
1315.000000	63.112616 
1314.000000	63.094425 
1313.000000	63.082265 
1312.000000	63.075470 
1311.000000	63.072681 
1310.000000	63.072395 
1309.000000	63.073325 
1308.000000	63.074874 
1307.000000	63.076996 
1306.000000	63.079929 
1305.000000	63.083934 
1304.000000	63.089108 
1303.000000	63.095211 
1302.000000	63.101696 
1301.000000	63.107609 
1300.000000	63.111877 
1299.000000	63.113617 
1298.000000	63.112044 
1297.000000	63.106918 
1296.000000	63.098597 
1295.000000	63.087916 
1294.000000	63.076043 
1293.000000	63.064551 
1292.000000	63.055014 
1291.000000	63.048791 
1290.000000	63.046717 
1289.000000	63.048887 
1288.000000	63.054680 
1287.000000	63.062858 
1286.000000	63.071584 
1285.000000	63.078927 
1284.000000	63.082885 
1283.000000	63.082146 
1282.000000	63.076162 
1281.000000	63.065195 
1280.000000	63.050341 
1279.000000	63.033175 
1278.000000	63.015532 
1277.000000	62.999200 
1276.000000	62.985539 
1275.000000	62.975430 
1274.000000	62.969017 
1273.000000	62.965941 
1272.000000	62.965154 
1271.000000	62.965393 
1270.000000	62.965393 
1269.000000	62.964010 
1268.000000	62.960600 
1267.000000	62.954783 
1266.000000	62.946653 
1265.000000	62.936544 
1264.000000	62.925052 
1263.000000	62.912797 
1262.000000	62.900495 
1261.000000	62.888741 
1260.000000	62.878131 
1259.000000	62.869095 
1258.000000	62.862014 
1257.000000	62.857103 
1256.000000	62.854337 
1255.000000	62.853550 
1254.000000	62.854433 
1253.000000	62.856698 
1252.000000	62.860035 
1251.000000	62.864422 
1250.000000	62.870049 
1249.000000	62.877249 
1248.000000	62.886524 
1247.000000	62.898349 
1246.000000	62.912464 
1245.000000	62.928223 
1244.000000	62.944436 
1243.000000	62.959575 
1242.000000	62.972044 
1241.000000	62.980651 
1240.000000	62.984871 
1239.000000	62.984848 
1238.000000	62.981557 
1237.000000	62.976288 
1236.000000	62.970542 
1235.000000	62.965655 
1234.000000	62.962603 
1233.000000	62.961983 
1232.000000	62.963891 
1231.000000	62.968039 
1230.000000	62.973761 
1229.000000	62.980055 
1228.000000	62.986016 
1227.000000	62.990570 
1226.000000	62.992882 
1225.000000	62.992382 
1224.000000	62.989044 
1223.000000	62.983536 
1222.000000	62.977075 
1221.000000	62.971305 
1220.000000	62.968015 
1219.000000	62.968754 
1218.000000	62.974381 
1217.000000	62.984633 
1216.000000	62.998056 
1215.000000	63.012337 
1214.000000	63.024592 
1213.000000	63.031983 
1212.000000	63.032531 
1211.000000	63.025760 
1210.000000	63.012790 
1209.000000	62.996172 
1208.000000	62.979245 
1207.000000	62.965369 
1206.000000	62.957286 
1205.000000	62.956213 
1204.000000	62.961864 
1203.000000	62.972450 
1202.000000	62.985372 
1201.000000	62.997817 
1200.000000	63.007235 
1199.000000	63.011932 
1198.000000	63.011193 
1197.000000	63.005352 
1196.000000	62.995362 
1195.000000	62.982678 
1194.000000	62.968897 
1193.000000	62.955379 
1192.000000	62.943172 
1191.000000	62.932705 
1190.000000	62.924313 
1189.000000	62.917685 
1188.000000	62.912487 
1187.000000	62.908291 
1186.000000	62.904524 
1185.000000	62.900733 
1184.000000	62.896466 
1183.000000	62.891387 
1182.000000	62.885260 
1181.000000	62.877941 
1180.000000	62.869381 
1179.000000	62.859702 
1178.000000	62.849140 
1177.000000	62.838196 
1176.000000	62.827491 
1175.000000	62.817835 
1174.000000	62.810158 
1173.000000	62.805247 
1172.000000	62.803697 
1171.000000	62.805795 
1170.000000	62.811446 
1169.000000	62.820100 
1168.000000	62.831091 
1167.000000	62.843513 
1166.000000	62.856364 
1165.000000	62.868571 
1164.000000	62.879157 
1163.000000	62.887406 
1162.000000	62.892699 
1161.000000	62.894654 
1160.000000	62.893176 
1159.000000	62.888479 
1158.000000	62.881231 
1157.000000	62.872433 
1156.000000	62.863373 
1155.000000	62.855577 
1154.000000	62.850308 
1153.000000	62.848496 
1152.000000	62.850499 
1151.000000	62.856054 
1150.000000	62.864136 
1149.000000	62.873315 
1148.000000	62.881851 
1147.000000	62.888097 
1146.000000	62.890601 
1145.000000	62.888503 
1144.000000	62.881422 
1143.000000	62.869572 
1142.000000	62.853741 
1141.000000	62.834930 
1140.000000	62.814450 
1139.000000	62.793612 
1138.000000	62.773585 
1137.000000	62.755393 
1136.000000	62.739872 
1135.000000	62.727546 
1134.000000	62.718582 
1133.000000	62.713098 
1132.000000	62.710833 
1131.000000	62.711834 
1130.000000	62.715959 
1129.000000	62.723255 
1128.000000	62.733602 
1127.000000	62.746644 
1126.000000	62.761688 
1125.000000	62.777376 
1124.000000	62.791800 
1123.000000	62.802648 
1122.000000	62.807774 
1121.000000	62.805366 
1120.000000	62.794494 
1119.000000	62.775349 
1118.000000	62.749505 
1117.000000	62.719464 
1116.000000	62.688422 
1115.000000	62.659668 
1114.000000	62.636256 
1113.000000	62.620306 
1112.000000	62.613153 
1111.000000	62.615275 
1110.000000	62.626767 
1109.000000	62.646961 
1108.000000	62.675046 
1107.000000	62.709498 
1106.000000	62.748432 
1105.000000	62.789249 
1104.000000	62.828731 
1103.000000	62.863469 
1102.000000	62.890148 
1101.000000	62.906289 
1100.000000	62.910032 
1099.000000	62.900686 
1098.000000	62.878656 
1097.000000	62.845754 
1096.000000	62.804698 
1095.000000	62.758946 
1094.000000	62.712383 
1093.000000	62.669014 
1092.000000	62.632369 
1091.000000	62.604999 
1090.000000	62.588429 
1089.000000	62.582778 
1088.000000	62.586879 
1087.000000	62.598443 
1086.000000	62.614297 
1085.000000	62.630748 
1084.000000	62.644171 
1083.000000	62.651491 
1082.000000	62.650370 
1081.000000	62.639808 
1080.000000	62.620091 
1079.000000	62.592983 
1078.000000	62.561488 
1077.000000	62.529468 
1076.000000	62.501168 
1075.000000	62.480616 
1074.000000	62.470960 
1073.000000	62.474083 
1072.000000	62.490248 
1071.000000	62.518000 
1070.000000	62.554264 
1069.000000	62.595248 
1068.000000	62.636947 
1067.000000	62.675881 
1066.000000	62.709307 
1065.000000	62.735629 
1064.000000	62.754130 
1063.000000	62.765002 
1062.000000	62.768650 
1061.000000	62.765383 
1060.000000	62.755131 
1059.000000	62.737703 
1058.000000	62.713098 
1057.000000	62.681865 
1056.000000	62.645435 
1055.000000	62.606382 
1054.000000	62.568449 
1053.000000	62.536025 
1052.000000	62.513709 
1051.000000	62.505078 
1050.000000	62.512207 
1049.000000	62.535142 
1048.000000	62.571597 
1047.000000	62.617230 
1046.000000	62.666344 
1045.000000	62.712717 
1044.000000	62.750649 
1043.000000	62.775826 
1042.000000	62.786030 
1041.000000	62.781167 
1040.000000	62.763261 
1039.000000	62.735843 
1038.000000	62.703347 
1037.000000	62.670207 
1036.000000	62.640237 
1035.000000	62.616014 
1034.000000	62.598848 
1033.000000	62.588548 
1032.000000	62.583994 
1031.000000	62.583327 
1030.000000	62.584733 
1029.000000	62.586784 
1028.000000	62.588453 
1027.000000	62.589383 
1026.000000	62.589406 
1025.000000	62.588453 
1024.000000	62.586355 
1023.000000	62.582731 
1022.000000	62.577056 
1021.000000	62.568950 
1020.000000	62.558412 
1019.000000	62.545776 
1018.000000	62.531876 
1017.000000	62.517976 
1016.000000	62.505722 
1015.000000	62.497067 
1014.000000	62.493896 
1013.000000	62.497878 
1012.000000	62.509918 
1011.000000	62.530088 
1010.000000	62.557339 
1009.000000	62.589406 
1008.000000	62.623143 
1007.000000	62.654781 
1006.000000	62.680506 
1005.000000	62.697243 
1004.000000	62.703180 
1003.000000	62.697982 
1002.000000	62.682604 
1001.000000	62.659621 
1000.000000	62.632226 
999.000000	 62.603855 
998.000000	 62.577366 
997.000000	 62.554955 
996.000000	 62.537908 
995.000000	 62.526679 
994.000000	 62.521362 
993.000000	 62.521624 
992.000000	 62.527513 
991.000000	 62.539219 
990.000000	 62.557196 
989.000000	 62.581539 
988.000000	 62.611746 
987.000000	 62.646389 
986.000000	 62.683033 
985.000000	 62.718534 
984.000000	 62.749218 
983.000000	 62.771487 
982.000000	 62.782716 
981.000000	 62.781691 
980.000000	 62.768673 
979.000000	 62.745451 
978.000000	 62.715101 
977.000000	 62.681388 
976.000000	 62.648272 
975.000000	 62.619161 
974.000000	 62.596559 
973.000000	 62.581586 
972.000000	 62.574601 
971.000000	 62.574505 
970.000000	 62.579417 
969.000000	 62.586665 
968.000000	 62.593173 
967.000000	 62.596178 
966.000000	 62.593221 
965.000000	 62.583041 
964.000000	 62.565541 
963.000000	 62.542247 
962.000000	 62.516069 
961.000000	 62.491130 
960.000000	 62.471938 
959.000000	 62.462854 
958.000000	 62.467050 
957.000000	 62.486243 
956.000000	 62.520122 
955.000000	 62.566494 
954.000000	 62.621402 
953.000000	 62.680053 
952.000000	 62.737059 
951.000000	 62.787413 
950.000000	 62.826609 
949.000000	 62.851309 
948.000000	 62.859320 
947.000000	 62.849974 
946.000000	 62.823939 
945.000000	 62.783479 
944.000000	 62.731957 
943.000000	 62.674212 
942.000000	 62.615513 
941.000000	 62.561202 
940.000000	 62.515926 
939.000000	 62.483048 
938.000000	 62.464308 
937.000000	 62.459731 
936.000000	 62.467837 
935.000000	 62.485885 
934.000000	 62.510776 
933.000000	 62.539386 
932.000000	 62.569236 
931.000000	 62.598538 
930.000000	 62.626314 
929.000000	 62.652206 
928.000000	 62.676239 
927.000000	 62.698531 
926.000000	 62.719082 
925.000000	 62.737488 
924.000000	 62.753224 
923.000000	 62.765431 
922.000000	 62.773466 
921.000000	 62.776780 
920.000000	 62.775206 
919.000000	 62.768745 
918.000000	 62.758350 
917.000000	 62.745404 
916.000000	 62.731575 
915.000000	 62.718582 
914.000000	 62.707948 
913.000000	 62.700629 
912.000000	 62.697076 
911.000000	 62.696933 
910.000000	 62.699341 
909.000000	 62.703132 
908.000000	 62.707185 
907.000000	 62.710618 
906.000000	 62.712860 
905.000000	 62.713742 
904.000000	 62.713503 
903.000000	 62.712669 
902.000000	 62.711834 
901.000000	 62.711524 
900.000000	 62.711834 
899.000000	 62.712597 
898.000000	 62.713050 
897.000000	 62.712216 
896.000000	 62.708711 
895.000000	 62.701320 
894.000000	 62.689137 
893.000000	 62.671685 
892.000000	 62.649154 
891.000000	 62.622594 
890.000000	 62.593793 
889.000000	 62.564802 
888.000000	 62.537622 
887.000000	 62.513828 
886.000000	 62.494373 
885.000000	 62.479376 
884.000000	 62.468433 
883.000000	 62.460851 
882.000000	 62.456035 
881.000000	 62.453603 
880.000000	 62.453365 
879.000000	 62.455415 
878.000000	 62.459754 
877.000000	 62.466311 
876.000000	 62.474822 
875.000000	 62.484765 
874.000000	 62.495636 
873.000000	 62.507081 
872.000000	 62.518835 
871.000000	 62.530708 
870.000000	 62.542343 
869.000000	 62.553024 
868.000000	 62.561321 
867.000000	 62.565279 
866.000000	 62.562870 
865.000000	 62.552571 
864.000000	 62.533926 
863.000000	 62.507748 
862.000000	 62.476849 
861.000000	 62.444877 
860.000000	 62.415790 
859.000000	 62.392973 
858.000000	 62.378406 
857.000000	 62.372398 
856.000000	 62.373566 
855.000000	 62.379693 
854.000000	 62.388515 
853.000000	 62.398409 
852.000000	 62.408661 
851.000000	 62.419581 
850.000000	 62.432074 
849.000000	 62.446427 
848.000000	 62.461948 
847.000000	 62.476515 
846.000000	 62.487125 
845.000000	 62.490677 
844.000000	 62.485098 
843.000000	 62.470293 
842.000000	 62.448692 
841.000000	 62.425088 
840.000000	 62.405443 
839.000000	 62.395381 
838.000000	 62.398886 
837.000000	 62.417340 
836.000000	 62.448811 
835.000000	 62.488818 
834.000000	 62.530803 
833.000000	 62.567591 
832.000000	 62.593221 
831.000000	 62.603998 
830.000000	 62.599873 
829.000000	 62.583708 
828.000000	 62.561178 
827.000000	 62.539362 
826.000000	 62.524819 
825.000000	 62.522101 
824.000000	 62.532782 
823.000000	 62.555360 
822.000000	 62.586021 
821.000000	 62.619662 
820.000000	 62.651109 
819.000000	 62.675952 
818.000000	 62.691283 
817.000000	 62.695789 
816.000000	 62.689113 
815.000000	 62.671947 
814.000000	 62.645530 
813.000000	 62.611699 
812.000000	 62.572669 
811.000000	 62.531232 
810.000000	 62.490940 
809.000000	 62.455534 
808.000000	 62.428760 
807.000000	 62.413883 
806.000000	 62.413334 
805.000000	 62.428307 
804.000000	 62.458181 
803.000000	 62.500691 
802.000000	 62.552428 
801.000000	 62.608909 
800.000000	 62.665033 
799.000000	 62.715697 
798.000000	 62.756299 
797.000000	 62.782907 
796.000000	 62.792825 
795.000000	 62.784957 
794.000000	 62.759876 
793.000000	 62.720012 
792.000000	 62.669277 
791.000000	 62.612795 
790.000000	 62.555909 
789.000000	 62.503647 
788.000000	 62.459492 
787.000000	 62.425374 
786.000000	 62.401223 
785.000000	 62.385177 
784.000000	 62.374067 
783.000000	 62.364220 
782.000000	 62.352418 
781.000000	 62.336325 
780.000000	 62.315273 
779.000000	 62.289571 
778.000000	 62.261128 
777.000000	 62.232398 
776.000000	 62.206268 
775.000000	 62.185311 
774.000000	 62.171435 
773.000000	 62.165355 
772.000000	 62.166380 
771.000000	 62.172746 
770.000000	 62.181329 
769.000000	 62.188601 
768.000000	 62.191295 
767.000000	 62.187170 
766.000000	 62.175464 
765.000000	 62.156867 
764.000000	 62.133526 
763.000000	 62.108159 
762.000000	 62.083745 
761.000000	 62.062644 
760.000000	 62.046170 
759.000000	 62.034559 
758.000000	 62.027263 
757.000000	 62.023520 
756.000000	 62.022686 
755.000000	 62.024950 
754.000000	 62.030935 
753.000000	 62.041616 
752.000000	 62.057471 
751.000000	 62.078237 
750.000000	 62.102365 
749.000000	 62.127304 
748.000000	 62.149691 
747.000000	 62.166285 
746.000000	 62.174749 
745.000000	 62.174153 
744.000000	 62.165355 
743.000000	 62.150859 
742.000000	 62.134146 
741.000000	 62.119340 
740.000000	 62.110304 
739.000000	 62.109899 
738.000000	 62.119269 
737.000000	 62.137961 
736.000000	 62.163639 
735.000000	 62.192678 
734.000000	 62.220287 
733.000000	 62.241482 
732.000000	 62.251901 
731.000000	 62.248349 
730.000000	 62.230324 
729.000000	 62.199521 
728.000000	 62.160515 
727.000000	 62.119984 
726.000000	 62.085580 
725.000000	 62.064456 
724.000000	 62.061524 
723.000000	 62.078785 
722.000000	 62.113952 
721.000000	 62.161254 
720.000000	 62.211966 
719.000000	 62.256717 
718.000000	 62.286591 
717.000000	 62.295007 
716.000000	 62.278819 
715.000000	 62.238883 
714.000000	 62.179565 
713.000000	 62.107944 
712.000000	 62.032389 
711.000000	 61.960959 
710.000000	 61.900210 
709.000000	 61.854672 
708.000000	 61.826348 
707.000000	 61.815285 
706.000000	 61.820387 
705.000000	 61.839866 
704.000000	 61.871147 
703.000000	 61.911582 
702.000000	 61.957979 
701.000000	 62.007331 
700.000000	 62.055301 
699.000000	 62.098693 
698.000000	 62.134933 
697.000000	 62.163591 
696.000000	 62.185978 
695.000000	 62.205410 
694.000000	 62.226462 
693.000000	 62.253737 
692.000000	 62.290740 
691.000000	 62.338423 
690.000000	 62.394618 
689.000000	 62.454438 
688.000000	 62.511420 
687.000000	 62.558698 
686.000000	 62.590312 
685.000000	 62.602639 
684.000000	 62.594580 
683.000000	 62.567639 
682.000000	 62.524890 
681.000000	 62.470149 
680.000000	 62.406969 
679.000000	 62.338733 
678.000000	 62.267827 
677.000000	 62.196731 
676.000000	 62.127161 
675.000000	 62.060928 
674.000000	 61.999225 
673.000000	 61.942672 
672.000000	 61.891222 
671.000000	 61.843776 
670.000000	 61.799287 
669.000000	 61.756205 
668.000000	 61.714935 
667.000000	 61.677551 
666.000000	 61.648654 
665.000000	 61.633324 
664.000000	 61.637854 
663.000000	 61.667823 
662.000000	 61.725306 
661.000000	 61.807250 
660.000000	 61.905479 
659.000000	 62.007308 
658.000000	 62.097024 
657.000000	 62.158608 
656.000000	 62.179064 
655.000000	 62.151265 
654.000000	 62.075543 
653.000000	 61.960029 
652.000000	 61.818504 
651.000000	 61.668610 
650.000000	 61.528778 
649.000000	 61.415219 
648.000000	 61.339521 
647.000000	 61.307239 
646.000000	 61.319255 
645.000000	 61.370110 
644.000000	 61.450076 
643.000000	 61.545395 
642.000000	 61.641430 
641.000000	 61.722373 
640.000000	 61.773109 
639.000000	 61.780548 
638.000000	 61.735415 
637.000000	 61.634039 
636.000000	 61.479401 
635.000000	 61.281442 
634.000000	 61.056137 
633.000000	 60.823559 
632.000000	 60.604929 
631.000000	 60.420346 
630.000000	 60.285782 
629.000000	 60.210275 
628.000000	 60.195779 
627.000000	 60.236859 
626.000000	 60.322928 
625.000000	 60.438656 
624.000000	 60.568571 
623.000000	 60.697197 
622.000000	 60.814499 
621.000000	 60.913991 
620.000000	 60.996222 
619.000000	 61.065816 
618.000000	 61.130428 
617.000000	 61.198019 
616.000000	 61.273002 
615.000000	 61.356210 
614.000000	 61.440873 
613.000000	 61.515378 
612.000000	 61.563968 
611.000000	 61.571645 
610.000000	 61.529064 
609.000000	 61.436486 
608.000000	 61.305165 
607.000000	 61.156463 
606.000000	 61.018323 
605.000000	 60.919833 
604.000000	 60.884904 
603.000000	 60.927248 
602.000000	 61.048865 
601.000000	 61.239194 
600.000000	 61.478734 
599.000000	 61.741900 
598.000000	 62.000918 
597.000000	 62.230420 
596.000000	 62.410879 
595.000000	 62.530827 
594.000000	 62.586665 
593.000000	 62.582492 
592.000000	 62.528514 
591.000000	 62.438035 
590.000000	 62.326645 
589.000000	 62.207555 
588.000000	 62.092709 
587.000000	 61.988496 
586.000000	 61.897921 
585.000000	 61.819219 
584.000000	 61.748981 
583.000000	 61.682105 
582.000000	 61.613988 
581.000000	 61.540651 
580.000000	 61.459517 
579.000000	 61.368203 
578.000000	 61.265230 
577.000000	 61.148905 
576.000000	 61.019730 
575.000000	 60.880947 
574.000000	 60.740876 
573.000000	 60.612344 
572.000000	 60.511994 
571.000000	 60.456848 
570.000000	 60.460710 
569.000000	 60.529160 
568.000000	 60.657978 
567.000000	 60.832905 
566.000000	 61.032271 
565.000000	 61.228322 
564.000000	 61.396265 
563.000000	 61.518955 
562.000000	 61.591148 
561.000000	 61.618590 
560.000000	 61.616778 
559.000000	 61.605834 
558.000000	 61.604881 
557.000000	 61.627340 
556.000000	 61.677265 
555.000000	 61.749315 
554.000000	 61.831283 
553.000000	 61.908531 
552.000000	 61.967039 
551.000000	 61.997795 
550.000000	 61.998772 
549.000000	 61.975455 
548.000000	 61.938190 
547.000000	 61.899518 
546.000000	 61.871981 
545.000000	 61.863780 
544.000000	 61.877608 
543.000000	 61.908102 
542.000000	 61.946439 
541.000000	 61.978554 
540.000000	 61.988878 
539.000000	 61.962842 
538.000000	 61.889934 
537.000000	 61.766982 
536.000000	 61.599802 
535.000000	 61.402320 
534.000000	 61.193752 
533.000000	 60.995125 
532.000000	 60.825586 
531.000000	 60.697770 
530.000000	 60.614800 
529.000000	 60.573124 
528.000000	 60.564613 
527.000000	 60.579323 
526.000000	 60.608410 
525.000000	 60.645771 
524.000000	 60.689353 
523.000000	 60.738635 
522.000000	 60.795044 
521.000000	 60.860729 
520.000000	 60.938334 
519.000000	 61.030077 
518.000000	 61.136770 
517.000000	 61.257719 
516.000000	 61.389350 
515.000000	 61.526656 
514.000000	 61.661362 
513.000000	 61.783790 
512.000000	 61.882376 
511.000000	 61.947822 
510.000000	 61.971759 
509.000000	 61.949443 
508.000000	 61.879515 
507.000000	 61.766767 
506.000000	 61.619114 
505.000000	 61.447572 
504.000000	 61.263942 
503.000000	 61.080479 
502.000000	 60.906839 
501.000000	 60.749626 
500.000000	 60.612797 
499.000000	 60.498523 
498.000000	 60.406804 
497.000000	 60.336875 
496.000000	 60.287570 
495.000000	 60.258793 
494.000000	 60.251259 
493.000000	 60.266923 
492.000000	 60.306167 
491.000000	 60.368418 
490.000000	 60.449790 
489.000000	 60.545158 
488.000000	 60.645604 
487.000000	 60.743761 
486.000000	 60.835480 
485.000000	 60.921025 
484.000000	 61.004304 
483.000000	 61.090660 
482.000000	 61.185455 
481.000000	 61.289930 
480.000000	 61.400008 
479.000000	 61.506390 
478.000000	 61.596775 
477.000000	 61.659789 
476.000000	 61.688661 
475.000000	 61.684322 
474.000000	 61.656045 
473.000000	 61.619257 
472.000000	 61.591625 
471.000000	 61.588001 
470.000000	 61.616230 
469.000000	 61.675453 
468.000000	 61.756253 
467.000000	 61.844301 
466.000000	 61.922860 
465.000000	 61.979937 
464.000000	 62.007427 
463.000000	 62.001419 
462.000000	 61.960482 
461.000000	 61.884522 
460.000000	 61.774563 
459.000000	 61.631965 
458.000000	 61.461138 
457.000000	 61.270499 
456.000000	 61.073541 
455.000000	 60.889720 
454.000000	 60.739016 
453.000000	 60.639333 
452.000000	 60.599613 
451.000000	 60.617828 
450.000000	 60.678029 
449.000000	 60.753035 
448.000000	 60.810041 
447.000000	 60.818529 
446.000000	 60.756063 
445.000000	 60.614013 
444.000000	 60.401344 
443.000000	 60.144042 
442.000000	 59.877586 
441.000000	 59.641432 
440.000000	 59.471678 
439.000000	 59.395098 
438.000000	 59.426236 
437.000000	 59.564352 
436.000000	 59.794116 
435.000000	 60.087656 
434.000000	 60.410809 
433.000000	 60.727262 
432.000000	 61.001348 
431.000000	 61.205863 
430.000000	 61.324644 
429.000000	 61.355280 
428.000000	 61.304473 
427.000000	 61.190533 
426.000000	 61.042666 
425.000000	 60.889935 
424.000000	 60.757398 
423.000000	 60.658693 
422.000000	 60.598707 
421.000000	 60.562968 
420.000000	 60.523200 
419.000000	 60.444760 
418.000000	 60.298204 
417.000000	 60.065984 
416.000000	 59.751653 
415.000000	 59.380078 
414.000000	 58.996105 
413.000000	 58.661866 
412.000000	 58.443140 
411.000000	 58.382391 
410.000000	 58.496761 
409.000000	 58.777856 
408.000000	 59.196376 
407.000000	 59.700942 
406.000000	 60.240554 
405.000000	 60.770130 
404.000000	 61.267495 
403.000000	 61.732244 
402.000000	 62.184739 
401.000000	 62.646985 
400.000000	 63.140678 
399.000000	 63.680171 
398.000000	 64.259743 
397.000000	 64.845871 
396.000000	 65.401935 
395.000000	 65.898799 
394.000000	 66.332340 
393.000000	 66.727781 
392.000000	 67.124700 
391.000000	 67.556500 
390.000000	 68.026471 
389.000000	 68.485140 
388.000000	 68.822002 
387.000000	 68.877291 
386.000000	 68.462944 
385.000000	 67.417860 
384.000000	 65.670800 
383.000000	 63.278579 
382.000000	 60.418295 
381.000000	 57.386183 
380.000000	 54.537987 
379.000000	 52.239108 
378.000000	 50.779175 
377.000000	 50.346016 
376.000000	 50.923085 
375.000000	 52.401685 
374.000000	 54.627299 
373.000000	 57.429265 
372.000000	 60.663127 
371.000000	 64.163279 
370.000000	 67.730259 

