PE IR       SPECTRUM    SPECTRUM    ASCII       PEDS        1.60        
  -1
BZ6F24~1.ASC
17/04/07
17:08:17.00
17/04/07
17:08:17.00
tln
$BZ1503107-1_t0047$<tbV0>[7.8,-2.6,8.0,0.0,27,1,0]
370.000000
64









2002,4.07    
MIRTGS : RIGHTBACK : INTERNAL 2
MIR : ON : INTERNAL 2
OPTKBR

0.200000
8
8.000000
FILLER
RATIO
SPECTRUM
UNLOCKED 256

DOUBLE
64
COMBINED
1
0
0


1.000000
RATIO


1
0
TRUE
51149
0
LEFT NOT FITTED RIGHT NOT FITTED 0
NONE
NONE
15600
12.000000
4.427000
51148
TRUE
1 0 8 72 0 0 0 0 

15798.010000






#HDR
-1
-1
#GR
CM-1
%T
0.00002384185791015625
0.0
5000.000000
-1.000000
4631
8
70.222067
43.118643
#DATA
5000.000000	65.953969 
4999.000000	66.156744 
4998.000000	66.396307 
4997.000000	66.645336 
4996.000000	66.865968 
4995.000000	67.019057 
4994.000000	67.073535 
4993.000000	67.015576 
4992.000000	66.852927 
4991.000000	66.616129 
4990.000000	66.349363 
4989.000000	66.100001 
4988.000000	65.908265 
4987.000000	65.799474 
4986.000000	65.777134 
4985.000000	65.824413 
4984.000000	65.910291 
4983.000000	65.999269 
4982.000000	66.059660 
4981.000000	66.071557 
4980.000000	66.027951 
4979.000000	65.935754 
4978.000000	65.809106 
4977.000000	65.666985 
4976.000000	65.527963 
4975.000000	65.407466 
4974.000000	65.316677 
4973.000000	65.260314 
4972.000000	65.239214 
4971.000000	65.248799 
4970.000000	65.281558 
4969.000000	65.327429 
4968.000000	65.374827 
4967.000000	65.412807 
4966.000000	65.431308 
4965.000000	65.424203 
4964.000000	65.389394 
4963.000000	65.329694 
4962.000000	65.251135 
4961.000000	65.162730 
4960.000000	65.074539 
4959.000000	64.995884 
4958.000000	64.933800 
4957.000000	64.892268 
4956.000000	64.871668 
4955.000000	64.869999 
4954.000000	64.883184 
4953.000000	64.904952 
4952.000000	64.928460 
4951.000000	64.945769 
4950.000000	64.950752 
4949.000000	64.939546 
4948.000000	64.913105 
4947.000000	64.877057 
4946.000000	64.841747 
4945.000000	64.819264 
4944.000000	64.821577 
4943.000000	64.858150 
4942.000000	64.932298 
4941.000000	65.040230 
4940.000000	65.170168 
4939.000000	65.305471 
4938.000000	65.426349 
4937.000000	65.514755 
4936.000000	65.556573 
4935.000000	65.545058 
4934.000000	65.480518 
4933.000000	65.370297 
4932.000000	65.226149 
4931.000000	65.062189 
4930.000000	64.892411 
4929.000000	64.729142 
4928.000000	64.582395 
4927.000000	64.459872 
4926.000000	64.367079 
4925.000000	64.308190 
4924.000000	64.285540 
4923.000000	64.300274 
4922.000000	64.351296 
4921.000000	64.435744 
4920.000000	64.547204 
4919.000000	64.677262 
4918.000000	64.815211 
4917.000000	64.950013 
4916.000000	65.070843 
4915.000000	65.168905 
4914.000000	65.238261 
4913.000000	65.276479 
4912.000000	65.284776 
4911.000000	65.266942 
4910.000000	65.229368 
4909.000000	65.178632 
4908.000000	65.121603 
4907.000000	65.063142 
4906.000000	65.006661 
4905.000000	64.952874 
4904.000000	64.901113 
4903.000000	64.849448 
4902.000000	64.796400 
4901.000000	64.741492 
4900.000000	64.686155 
4899.000000	64.632797 
4898.000000	64.584922 
4897.000000	64.546394 
4896.000000	64.520931 
4895.000000	64.510893 
4894.000000	64.517021 
4893.000000	64.538049 
4892.000000	64.570832 
4891.000000	64.610934 
4890.000000	64.653205 
4889.000000	64.691805 
4888.000000	64.721894 
4887.000000	64.740037 
4886.000000	64.744973 
4885.000000	64.737105 
4884.000000	64.719009 
4883.000000	64.694857 
4882.000000	64.669299 
4881.000000	64.646792 
4880.000000	64.630222 
4879.000000	64.620351 
4878.000000	64.616060 
4877.000000	64.615154 
4876.000000	64.614844 
4875.000000	64.612555 
4874.000000	64.607310 
4873.000000	64.599871 
4872.000000	64.591550 
4871.000000	64.583468 
4870.000000	64.576101 
4869.000000	64.568471 
4868.000000	64.557981 
4867.000000	64.541125 
4866.000000	64.514803 
4865.000000	64.477610 
4864.000000	64.430236 
4863.000000	64.376139 
4862.000000	64.320921 
4861.000000	64.271497 
4860.000000	64.234089 
4859.000000	64.213490 
4858.000000	64.211559 
4857.000000	64.227771 
4856.000000	64.259147 
4855.000000	64.301824 
4854.000000	64.351439 
4853.000000	64.404678 
4852.000000	64.459347 
4851.000000	64.514708 
4850.000000	64.570641 
4849.000000	64.627599 
4848.000000	64.685726 
4847.000000	64.744687 
4846.000000	64.803242 
4845.000000	64.859318 
4844.000000	64.910101 
4843.000000	64.952778 
4842.000000	64.984917 
4841.000000	65.005016 
4840.000000	65.012788 
4839.000000	65.009713 
4838.000000	64.998745 
4837.000000	64.984440 
4836.000000	64.971971 
4835.000000	64.966630 
4834.000000	64.972257 
4833.000000	64.991044 
4832.000000	65.022134 
4831.000000	65.062594 
4830.000000	65.106701 
4829.000000	65.147542 
4828.000000	65.177869 
4827.000000	65.191793 
4826.000000	65.185761 
4825.000000	65.159344 
4824.000000	65.115046 
4823.000000	65.057921 
4822.000000	64.994740 
4821.000000	64.932680 
4820.000000	64.878296 
4819.000000	64.836359 
4818.000000	64.809823 
4817.000000	64.799141 
4816.000000	64.802646 
4815.000000	64.816498 
4814.000000	64.835262 
4813.000000	64.852690 
4812.000000	64.862036 
4811.000000	64.858269 
4810.000000	64.838194 
4809.000000	64.802002 
4808.000000	64.753103 
4807.000000	64.697790 
4806.000000	64.643621 
4805.000000	64.597940 
4804.000000	64.566302 
4803.000000	64.551329 
4802.000000	64.552092 
4801.000000	64.564871 
4800.000000	64.583683 
4799.000000	64.602947 
4798.000000	64.618778 
4797.000000	64.629912 
4796.000000	64.637517 
4795.000000	64.645028 
4794.000000	64.656758 
4793.000000	64.676141 
4792.000000	64.704799 
4791.000000	64.742207 
4790.000000	64.786076 
4789.000000	64.833498 
4788.000000	64.881587 
4787.000000	64.928293 
4786.000000	64.972829 
4785.000000	65.015697 
4784.000000	65.058612 
4783.000000	65.103697 
4782.000000	65.152549 
4781.000000	65.206098 
4780.000000	65.263080 
4779.000000	65.320873 
4778.000000	65.374565 
4777.000000	65.418863 
4776.000000	65.447688 
4775.000000	65.455937 
4774.000000	65.439915 
4773.000000	65.399241 
4772.000000	65.335726 
4771.000000	65.253686 
4770.000000	65.158939 
4769.000000	65.058422 
4768.000000	64.958786 
4767.000000	64.866065 
4766.000000	64.784598 
4765.000000	64.717411 
4764.000000	64.666509 
4763.000000	64.633464 
4762.000000	64.619088 
4761.000000	64.623475 
4760.000000	64.645433 
4759.000000	64.682626 
4758.000000	64.730143 
4757.000000	64.781880 
4756.000000	64.830684 
4755.000000	64.870476 
4754.000000	64.895963 
4753.000000	64.905071 
4752.000000	64.899110 
4751.000000	64.882946 
4750.000000	64.863252 
4749.000000	64.848017 
4748.000000	64.844918 
4747.000000	64.859151 
4746.000000	64.892816 
4745.000000	64.943599 
4744.000000	65.005779 
4743.000000	65.070796 
4742.000000	65.129303 
4741.000000	65.172624 
4740.000000	65.194559 
4739.000000	65.192985 
4738.000000	65.170145 
4737.000000	65.131592 
4736.000000	65.085053 
4735.000000	65.039348 
4734.000000	65.002179 
4733.000000	64.978885 
4732.000000	64.970827 
4731.000000	64.976453 
4730.000000	64.990806 
4729.000000	65.007090 
4728.000000	65.017890 
4727.000000	65.016746 
4726.000000	64.999485 
4725.000000	64.965009 
4724.000000	64.915323 
4723.000000	64.854931 
4722.000000	64.790129 
4721.000000	64.727687 
4720.000000	64.673519 
4719.000000	64.631605 
4718.000000	64.603781 
4717.000000	64.589571 
4716.000000	64.586925 
4715.000000	64.592933 
4714.000000	64.605331 
4713.000000	64.623022 
4712.000000	64.646148 
4711.000000	64.675712 
4710.000000	64.712643 
4709.000000	64.757299 
4708.000000	64.808273 
4707.000000	64.862394 
4706.000000	64.915466 
4705.000000	64.962840 
4704.000000	65.001177 
4703.000000	65.028667 
4702.000000	65.045785 
4701.000000	65.054631 
4700.000000	65.058851 
4699.000000	65.062093 
4698.000000	65.067315 
4697.000000	65.075635 
4696.000000	65.086579 
4695.000000	65.097856 
4694.000000	65.106630 
4693.000000	65.109729 
4692.000000	65.105199 
4691.000000	65.092277 
4690.000000	65.071845 
4689.000000	65.046310 
4688.000000	65.019106 
4687.000000	64.994239 
4686.000000	64.975285 
4685.000000	64.965152 
4684.000000	64.965438 
4683.000000	64.976286 
4682.000000	64.996433 
4681.000000	65.023088 
4680.000000	65.052604 
4679.000000	65.081119 
4678.000000	65.105390 
4677.000000	65.123081 
4676.000000	65.133452 
4675.000000	65.137505 
4674.000000	65.137243 
4673.000000	65.135407 
4672.000000	65.133857 
4671.000000	65.133690 
4670.000000	65.134215 
4669.000000	65.133404 
4668.000000	65.128517 
4667.000000	65.117096 
4666.000000	65.098118 
4665.000000	65.072679 
4664.000000	65.043950 
4663.000000	65.016484 
4662.000000	64.995265 
4661.000000	64.984273 
4660.000000	64.985203 
4659.000000	64.997100 
4658.000000	65.016531 
4657.000000	65.038657 
4656.000000	65.058994 
4655.000000	65.074777 
4654.000000	65.085411 
4653.000000	65.092563 
4652.000000	65.099358 
4651.000000	65.109252 
4650.000000	65.124058 
4649.000000	65.143632 
4648.000000	65.165853 
4647.000000	65.187215 
4646.000000	65.204048 
4645.000000	65.213441 
4644.000000	65.214276 
4643.000000	65.207242 
4642.000000	65.194773 
4641.000000	65.180230 
4640.000000	65.166878 
4639.000000	65.157580 
4638.000000	65.154147 
4637.000000	65.157437 
4636.000000	65.167522 
4635.000000	65.183687 
4634.000000	65.204906 
4633.000000	65.228724 
4632.000000	65.251302 
4631.000000	65.267300 
4630.000000	65.270566 
4629.000000	65.254759 
4628.000000	65.214896 
4627.000000	65.148830 
4626.000000	65.058469 
4625.000000	64.950013 
4624.000000	64.833331 
4623.000000	64.720153 
4622.000000	64.622449 
4621.000000	64.549994 
4620.000000	64.508843 
4619.000000	64.500141 
4618.000000	64.520215 
4617.000000	64.561438 
4616.000000	64.614391 
4615.000000	64.669084 
4614.000000	64.717817 
4613.000000	64.755725 
4612.000000	64.781928 
4611.000000	64.798069 
4610.000000	64.808416 
4609.000000	64.817643 
4608.000000	64.830160 
4607.000000	64.848637 
4606.000000	64.874076 
4605.000000	64.905667 
4604.000000	64.941215 
4603.000000	64.977788 
4602.000000	65.012526 
4601.000000	65.043044 
4600.000000	65.067434 
4599.000000	65.084671 
4598.000000	65.094065 
4597.000000	65.095806 
4596.000000	65.090823 
4595.000000	65.080976 
4594.000000	65.068912 
4593.000000	65.057730 
4592.000000	65.051460 
4591.000000	65.053319 
4590.000000	65.064716 
4589.000000	65.084981 
4588.000000	65.111804 
4587.000000	65.141487 
4586.000000	65.169477 
4585.000000	65.191817 
4584.000000	65.206122 
4583.000000	65.211367 
4582.000000	65.208220 
4581.000000	65.197515 
4580.000000	65.180015 
4579.000000	65.155601 
4578.000000	65.123510 
4577.000000	65.082740 
4576.000000	65.032696 
4575.000000	64.974546 
4574.000000	64.911556 
4573.000000	64.849042 
4572.000000	64.793539 
4571.000000	64.751744 
4570.000000	64.729189 
4569.000000	64.727759 
4568.000000	64.746689 
4567.000000	64.782190 
4566.000000	64.829897 
4565.000000	64.884567 
4564.000000	64.942932 
4563.000000	65.003681 
4562.000000	65.068006 
4561.000000	65.138220 
4560.000000	65.216302 
4559.000000	65.302228 
4558.000000	65.393042 
4557.000000	65.482854 
4556.000000	65.563225 
4555.000000	65.625214 
4554.000000	65.661358 
4553.000000	65.667843 
4552.000000	65.645551 
4551.000000	65.600061 
4550.000000	65.540742 
4549.000000	65.478491 
4548.000000	65.423202 
4547.000000	65.380978 
4546.000000	65.353798 
4545.000000	65.338420 
4544.000000	65.327501 
4543.000000	65.311622 
4542.000000	65.281939 
4541.000000	65.233278 
4540.000000	65.165090 
4539.000000	65.083122 
4538.000000	64.996886 
4537.000000	64.919090 
4536.000000	64.861702 
4535.000000	64.834213 
4534.000000	64.840388 
4533.000000	64.878892 
4532.000000	64.943957 
4531.000000	65.026473 
4530.000000	65.116143 
4529.000000	65.202999 
4528.000000	65.278840 
4527.000000	65.337944 
4526.000000	65.376758 
4525.000000	65.395116 
4524.000000	65.395855 
4523.000000	65.383863 
4522.000000	65.365028 
4521.000000	65.345406 
4520.000000	65.329837 
4519.000000	65.321350 
4518.000000	65.320539 
4517.000000	65.326333 
4516.000000	65.335702 
4515.000000	65.345788 
4514.000000	65.353012 
4513.000000	65.353560 
4512.000000	65.344214 
4511.000000	65.322113 
4510.000000	65.286469 
4509.000000	65.238261 
4508.000000	65.181112 
4507.000000	65.120792 
4506.000000	65.064644 
4505.000000	65.020418 
4504.000000	64.994001 
4503.000000	64.988303 
4502.000000	65.001749 
4501.000000	65.028738 
4500.000000	65.059995 
4499.000000	65.084505 
4498.000000	65.092611 
4497.000000	65.078306 
4496.000000	65.040659 
4495.000000	64.983725 
4494.000000	64.914941 
4493.000000	64.843297 
4492.000000	64.776420 
4491.000000	64.719986 
4490.000000	64.677619 
4489.000000	64.650869 
4488.000000	64.640808 
4487.000000	64.647293 
4486.000000	64.668488 
4485.000000	64.700722 
4484.000000	64.737796 
4483.000000	64.772558 
4482.000000	64.798831 
4481.000000	64.811205 
4480.000000	64.806628 
4479.000000	64.783000 
4478.000000	64.738702 
4477.000000	64.673042 
4476.000000	64.585161 
4475.000000	64.478302 
4474.000000	64.359641 
4473.000000	64.242720 
4472.000000	64.146256 
4471.000000	64.086294 
4470.000000	64.071941 
4469.000000	64.104413 
4468.000000	64.176487 
4467.000000	64.272403 
4466.000000	64.372324 
4465.000000	64.459323 
4464.000000	64.522719 
4463.000000	64.557743 
4462.000000	64.566349 
4461.000000	64.556360 
4460.000000	64.537072 
4459.000000	64.515757 
4458.000000	64.494752 
4457.000000	64.471292 
4456.000000	64.437580 
4455.000000	64.387822 
4454.000000	64.315462 
4453.000000	64.216637 
4452.000000	64.090824 
4451.000000	63.939523 
4450.000000	63.771677 
4449.000000	63.595986 
4448.000000	63.438129 
4447.000000	63.336396 
4446.000000	63.340353 
4445.000000	63.499784 
4444.000000	63.849067 
4443.000000	64.395403 
4442.000000	65.111160 
4441.000000	65.937423 
4440.000000	66.799402 
4439.000000	67.621350 
4438.000000	68.347573 
4437.000000	68.947052 
4436.000000	69.415378 
4435.000000	69.763517 
4434.000000	70.009136 
4433.000000	70.161509 
4432.000000	70.222067 
4431.000000	70.176339 
4430.000000	70.013880 
4429.000000	69.720554 
4428.000000	69.300174 
4427.000000	68.764090 
4426.000000	68.144536 
4425.000000	67.477154 
4424.000000	66.798281 
4423.000000	66.138315 
4422.000000	65.516090 
4421.000000	64.948391 
4420.000000	64.451432 
4419.000000	64.047646 
4418.000000	63.764095 
4417.000000	63.628435 
4416.000000	63.660907 
4415.000000	63.861823 
4414.000000	64.206814 
4413.000000	64.649939 
4412.000000	65.130853 
4411.000000	65.583848 
4410.000000	65.951561 
4409.000000	66.196727 
4408.000000	66.307902 
4407.000000	66.294455 
4406.000000	66.185116 
4405.000000	66.020679 
4404.000000	65.843415 
4403.000000	65.689516 
4402.000000	65.581226 
4401.000000	65.529489 
4400.000000	65.529465 
4399.000000	65.571522 
4398.000000	65.636610 
4397.000000	65.703368 
4396.000000	65.750145 
4395.000000	65.759825 
4394.000000	65.721607 
4393.000000	65.630555 
4392.000000	65.492749 
4391.000000	65.324282 
4390.000000	65.144896 
4389.000000	64.973378 
4388.000000	64.825487 
4387.000000	64.711403 
4386.000000	64.634966 
4385.000000	64.594197 
4384.000000	64.584207 
4383.000000	64.598345 
4382.000000	64.629292 
4381.000000	64.670372 
4380.000000	64.712452 
4379.000000	64.747262 
4378.000000	64.768552 
4377.000000	64.773106 
4376.000000	64.759612 
4375.000000	64.730167 
4374.000000	64.688587 
4373.000000	64.641213 
4372.000000	64.594793 
4371.000000	64.556956 
4370.000000	64.534425 
4369.000000	64.533519 
4368.000000	64.559173 
4367.000000	64.614200 
4366.000000	64.698076 
4365.000000	64.806842 
4364.000000	64.933323 
4363.000000	65.067625 
4362.000000	65.198421 
4361.000000	65.314579 
4360.000000	65.406703 
4359.000000	65.467786 
4358.000000	65.493917 
4357.000000	65.485596 
4356.000000	65.447139 
4355.000000	65.385890 
4354.000000	65.310621 
4353.000000	65.231513 
4352.000000	65.157413 
4351.000000	65.095949 
4350.000000	65.051031 
4349.000000	65.023517 
4348.000000	65.010428 
4347.000000	65.006184 
4346.000000	65.004181 
4345.000000	64.997458 
4344.000000	64.982271 
4343.000000	64.958286 
4342.000000	64.929986 
4341.000000	64.904689 
4340.000000	64.891290 
4339.000000	64.897346 
4338.000000	64.926862 
4337.000000	64.978718 
4336.000000	65.047407 
4335.000000	65.124154 
4334.000000	65.199017 
4333.000000	65.262937 
4332.000000	65.309906 
4331.000000	65.337681 
4330.000000	65.347123 
4329.000000	65.341448 
4328.000000	65.324974 
4327.000000	65.301823 
4326.000000	65.274977 
4325.000000	65.245819 
4324.000000	65.214896 
4323.000000	65.182042 
4322.000000	65.148043 
4321.000000	65.114164 
4320.000000	65.082454 
4319.000000	65.055203 
4318.000000	65.034437 
4317.000000	65.021419 
4316.000000	65.016126 
4315.000000	65.017247 
4314.000000	65.022301 
4313.000000	65.028214 
4312.000000	65.031814 
4311.000000	65.030598 
4310.000000	65.023040 
4309.000000	65.009450 
4308.000000	64.991712 
4307.000000	64.973187 
4306.000000	64.957833 
4305.000000	64.949059 
4304.000000	64.948892 
4303.000000	64.957094 
4302.000000	64.971303 
4301.000000	64.988040 
4300.000000	65.003299 
4299.000000	65.013480 
4298.000000	65.016078 
4297.000000	65.010428 
4296.000000	64.997577 
4295.000000	64.979600 
4294.000000	64.959049 
4293.000000	64.938044 
4292.000000	64.918041 
4291.000000	64.899563 
4290.000000	64.882564 
4289.000000	64.866638 
4288.000000	64.851593 
4287.000000	64.837789 
4286.000000	64.826345 
4285.000000	64.818501 
4284.000000	64.815855 
4283.000000	64.819622 
4282.000000	64.830899 
4281.000000	64.850068 
4280.000000	64.877033 
4279.000000	64.910960 
4278.000000	64.949870 
4277.000000	64.990448 
4276.000000	65.028476 
4275.000000	65.059113 
4274.000000	65.077519 
4273.000000	65.079951 
4272.000000	65.064811 
4271.000000	65.032839 
4270.000000	64.987611 
4269.000000	64.934659 
4268.000000	64.880847 
4267.000000	64.832735 
4266.000000	64.795851 
4265.000000	64.773321 
4264.000000	64.765644 
4263.000000	64.770746 
4262.000000	64.784765 
4261.000000	64.803099 
4260.000000	64.821672 
4259.000000	64.837813 
4258.000000	64.850544 
4257.000000	64.861035 
4256.000000	64.871549 
4255.000000	64.884948 
4254.000000	64.903569 
4253.000000	64.928722 
4252.000000	64.959931 
4251.000000	64.995145 
4250.000000	65.030813 
4249.000000	65.062761 
4248.000000	65.087127 
4247.000000	65.101456 
4246.000000	65.104889 
4245.000000	65.098428 
4244.000000	65.084362 
4243.000000	65.065836 
4242.000000	65.045928 
4241.000000	65.026926 
4240.000000	65.009927 
4239.000000	64.995121 
4238.000000	64.981913 
4237.000000	64.969754 
4236.000000	64.958548 
4235.000000	64.948797 
4234.000000	64.942049 
4233.000000	64.940237 
4232.000000	64.945578 
4231.000000	64.959311 
4230.000000	64.981794 
4229.000000	65.011882 
4228.000000	65.047168 
4227.000000	65.084385 
4226.000000	65.119957 
4225.000000	65.150451 
4224.000000	65.173149 
4223.000000	65.186452 
4222.000000	65.189814 
4221.000000	65.183639 
4220.000000	65.169286 
4219.000000	65.148520 
4218.000000	65.123391 
4217.000000	65.095734 
4216.000000	65.067410 
4215.000000	65.039753 
4214.000000	65.013790 
4213.000000	64.990258 
4212.000000	64.969897 
4211.000000	64.953780 
4210.000000	64.942812 
4209.000000	64.938473 
4208.000000	64.942097 
4207.000000	64.954948 
4206.000000	64.977574 
4205.000000	65.009617 
4204.000000	65.049457 
4203.000000	65.094280 
4202.000000	65.140414 
4201.000000	65.183830 
4200.000000	65.220928 
4199.000000	65.249109 
4198.000000	65.267133 
4197.000000	65.275502 
4196.000000	65.275859 
4195.000000	65.270614 
4194.000000	65.261983 
4193.000000	65.252041 
4192.000000	65.241694 
4191.000000	65.231037 
4190.000000	65.218925 
4189.000000	65.203738 
4188.000000	65.183782 
4187.000000	65.157842 
4186.000000	65.126037 
4185.000000	65.089440 
4184.000000	65.050673 
4183.000000	65.013289 
4182.000000	64.981269 
4181.000000	64.958238 
4180.000000	64.946746 
4179.000000	64.947748 
4178.000000	64.960408 
4177.000000	64.981961 
4176.000000	65.008068 
4175.000000	65.033626 
4174.000000	65.053534 
4173.000000	65.063571 
4172.000000	65.060830 
4171.000000	65.044188 
4170.000000	65.014076 
4169.000000	64.972448 
4168.000000	64.922261 
4167.000000	64.867210 
4166.000000	64.811491 
4165.000000	64.759230 
4164.000000	64.714550 
4163.000000	64.680743 
4162.000000	64.659786 
4161.000000	64.652371 
4160.000000	64.657402 
4159.000000	64.672875 
4158.000000	64.695620 
4157.000000	64.722657 
4156.000000	64.751029 
4155.000000	64.778637 
4154.000000	64.803743 
4153.000000	64.825272 
4152.000000	64.842557 
4151.000000	64.855170 
4150.000000	64.862608 
4149.000000	64.864778 
4148.000000	64.862108 
4147.000000	64.855575 
4146.000000	64.846801 
4145.000000	64.838123 
4144.000000	64.832019 
4143.000000	64.830708 
4142.000000	64.835548 
4141.000000	64.846992 
4140.000000	64.864444 
4139.000000	64.886355 
4138.000000	64.910650 
4137.000000	64.935374 
4136.000000	64.958834 
4135.000000	64.979743 
4134.000000	64.997291 
4133.000000	65.011215 
4132.000000	65.021777 
4131.000000	65.029406 
4130.000000	65.034961 
4129.000000	65.039706 
4128.000000	65.045070 
4127.000000	65.052843 
4126.000000	65.064287 
4125.000000	65.079998 
4124.000000	65.098977 
4123.000000	65.119028 
4122.000000	65.136837 
4121.000000	65.148639 
4120.000000	65.152144 
4119.000000	65.147256 
4118.000000	65.136814 
4117.000000	65.125846 
4116.000000	65.120625 
4115.000000	65.126800 
4114.000000	65.147614 
4113.000000	65.182828 
4112.000000	65.228724 
4111.000000	65.278768 
4110.000000	65.325498 
4109.000000	65.362000 
4108.000000	65.384101 
4107.000000	65.390872 
4106.000000	65.384364 
4105.000000	65.368819 
4104.000000	65.348982 
4103.000000	65.328884 
4102.000000	65.310692 
4101.000000	65.294623 
4100.000000	65.279984 
4099.000000	65.265345 
4098.000000	65.250039 
4097.000000	65.233802 
4096.000000	65.217256 
4095.000000	65.200924 
4094.000000	65.185022 
4093.000000	65.169119 
4092.000000	65.152072 
4091.000000	65.132641 
4090.000000	65.109896 
4089.000000	65.083742 
4088.000000	65.054821 
4087.000000	65.024518 
4086.000000	64.994478 
4085.000000	64.965963 
4084.000000	64.939761 
4083.000000	64.915657 
4082.000000	64.893007 
4081.000000	64.871287 
4080.000000	64.850831 
4079.000000	64.832758 
4078.000000	64.818906 
4077.000000	64.811348 
4076.000000	64.811396 
4075.000000	64.818716 
4074.000000	64.831495 
4073.000000	64.845991 
4072.000000	64.858365 
4071.000000	64.865112 
4070.000000	64.864730 
4069.000000	64.857745 
4068.000000	64.847540 
4067.000000	64.839172 
4066.000000	64.838504 
4065.000000	64.850401 
4064.000000	64.877414 
4063.000000	64.918899 
4062.000000	64.970541 
4061.000000	65.025138 
4060.000000	65.074253 
4059.000000	65.110039 
4058.000000	65.126991 
4057.000000	65.123391 
4056.000000	65.101528 
4055.000000	65.067505 
4054.000000	65.029501 
4053.000000	64.996170 
4052.000000	64.974784 
4051.000000	64.969801 
4050.000000	64.982247 
4049.000000	65.009975 
4048.000000	65.048670 
4047.000000	65.092873 
4046.000000	65.137553 
4045.000000	65.178990 
4044.000000	65.215015 
4043.000000	65.244984 
4042.000000	65.269041 
4041.000000	65.287566 
4040.000000	65.300464 
4039.000000	65.307402 
4038.000000	65.307927 
4037.000000	65.302133 
4036.000000	65.290641 
4035.000000	65.274953 
4034.000000	65.256977 
4033.000000	65.238976 
4032.000000	65.222668 
4031.000000	65.209126 
4030.000000	65.198397 
4029.000000	65.189576 
4028.000000	65.181159 
4027.000000	65.171813 
4026.000000	65.160751 
4025.000000	65.147995 
4024.000000	65.134477 
4023.000000	65.121912 
4022.000000	65.112113 
4021.000000	65.106701 
4020.000000	65.106320 
4019.000000	65.110492 
4018.000000	65.117502 
4017.000000	65.124726 
4016.000000	65.129280 
4015.000000	65.128612 
4014.000000	65.121078 
4013.000000	65.106320 
4012.000000	65.085840 
4011.000000	65.062856 
4010.000000	65.041565 
4009.000000	65.026140 
4008.000000	65.019965 
4007.000000	65.024518 
4006.000000	65.039086 
4005.000000	65.060877 
4004.000000	65.085625 
4003.000000	65.108680 
4002.000000	65.125894 
4001.000000	65.134859 
4000.000000	65.134882 
3999.000000	65.127587 
3998.000000	65.115833 
3997.000000	65.103340 
3996.000000	65.093779 
3995.000000	65.089964 
3994.000000	65.093421 
3993.000000	65.104126 
3992.000000	65.120959 
3991.000000	65.141487 
3990.000000	65.162944 
3989.000000	65.182185 
3988.000000	65.196156 
3987.000000	65.202546 
3986.000000	65.199947 
3985.000000	65.188598 
3984.000000	65.170168 
3983.000000	65.147924 
3982.000000	65.126013 
3981.000000	65.108633 
3980.000000	65.098905 
3979.000000	65.098309 
3978.000000	65.106058 
3977.000000	65.119290 
3976.000000	65.133643 
3975.000000	65.144371 
3974.000000	65.147590 
3973.000000	65.141057 
3972.000000	65.124750 
3971.000000	65.100502 
3970.000000	65.071296 
3969.000000	65.040731 
3968.000000	65.011811 
3967.000000	64.986252 
3966.000000	64.964699 
3965.000000	64.946889 
3964.000000	64.932441 
3963.000000	64.921212 
3962.000000	64.913797 
3961.000000	64.911675 
3960.000000	64.916443 
3959.000000	64.929008 
3958.000000	64.949226 
3957.000000	64.975428 
3956.000000	65.004634 
3955.000000	65.033125 
3954.000000	65.057301 
3953.000000	65.074586 
3952.000000	65.084242 
3951.000000	65.087389 
3950.000000	65.086269 
3949.000000	65.083408 
3948.000000	65.081071 
3947.000000	65.080308 
3946.000000	65.081167 
3945.000000	65.082311 
3944.000000	65.082335 
3943.000000	65.079426 
3942.000000	65.072488 
3941.000000	65.060663 
3940.000000	65.044021 
3939.000000	65.022468 
3938.000000	64.995884 
3937.000000	64.964032 
3936.000000	64.926600 
3935.000000	64.883947 
3934.000000	64.837121 
3933.000000	64.788699 
3932.000000	64.742541 
3931.000000	64.703440 
3930.000000	64.676523 
3929.000000	64.666080 
3928.000000	64.674687 
3927.000000	64.702725 
3926.000000	64.748096 
3925.000000	64.806365 
3924.000000	64.871454 
3923.000000	64.936256 
3922.000000	64.993810 
3921.000000	65.038156 
3920.000000	65.065336 
3919.000000	65.073943 
3918.000000	65.065383 
3917.000000	65.043401 
3916.000000	65.013408 
3915.000000	64.981365 
3914.000000	64.952349 
3913.000000	64.930319 
3912.000000	64.916729 
3911.000000	64.911246 
3910.000000	64.911556 
3909.000000	64.914584 
3908.000000	64.916992 
3907.000000	64.916253 
3906.000000	64.911031 
3905.000000	64.901232 
3904.000000	64.887881 
3903.000000	64.872694 
3902.000000	64.857840 
3901.000000	64.845395 
3900.000000	64.837288 
3899.000000	64.835047 
3898.000000	64.840126 
3897.000000	64.853572 
3896.000000	64.875721 
3895.000000	64.905858 
3894.000000	64.941978 
3893.000000	64.980983 
3892.000000	65.018844 
3891.000000	65.051174 
3890.000000	65.074110 
3889.000000	65.084671 
3888.000000	65.081834 
3887.000000	65.066385 
3886.000000	65.040969 
3885.000000	65.009117 
3884.000000	64.974498 
3883.000000	64.940166 
3882.000000	64.908409 
3881.000000	64.880108 
3880.000000	64.854955 
3879.000000	64.832258 
3878.000000	64.811468 
3877.000000	64.792776 
3876.000000	64.777326 
3875.000000	64.766907 
3874.000000	64.763760 
3873.000000	64.769554 
3872.000000	64.785099 
3871.000000	64.810013 
3870.000000	64.842724 
3869.000000	64.880681 
3868.000000	64.920926 
3867.000000	64.960670 
3866.000000	64.997649 
3865.000000	65.030360 
3864.000000	65.057945 
3863.000000	65.079832 
3862.000000	65.095829 
3861.000000	65.106344 
3860.000000	65.112042 
3859.000000	65.114068 
3858.000000	65.113973 
3857.000000	65.114164 
3856.000000	65.117001 
3855.000000	65.124702 
3854.000000	65.138387 
3853.000000	65.157961 
3852.000000	65.181708 
3851.000000	65.206980 
3850.000000	65.230655 
3849.000000	65.249919 
3848.000000	65.263390 
3847.000000	65.271592 
3846.000000	65.276741 
3845.000000	65.282058 
3844.000000	65.291023 
3843.000000	65.306019 
3842.000000	65.327644 
3841.000000	65.354156 
3840.000000	65.381789 
3839.000000	65.405368 
3838.000000	65.419983 
3837.000000	65.421557 
3836.000000	65.408134 
3835.000000	65.379762 
3834.000000	65.338993 
3833.000000	65.289616 
3832.000000	65.235972 
3831.000000	65.181970 
3830.000000	65.130639 
3829.000000	65.083956 
3828.000000	65.042901 
3827.000000	65.008187 
3826.000000	64.981031 
3825.000000	64.963269 
3824.000000	64.956927 
3823.000000	64.964342 
3822.000000	64.987468 
3821.000000	65.026736 
3820.000000	65.080380 
3819.000000	65.144515 
3818.000000	65.213298 
3817.000000	65.279698 
3816.000000	65.336441 
3815.000000	65.377140 
3814.000000	65.397310 
3813.000000	65.395259 
3812.000000	65.372300 
3811.000000	65.332365 
3810.000000	65.281414 
3809.000000	65.226721 
3808.000000	65.175104 
3807.000000	65.132784 
3806.000000	65.103411 
3805.000000	65.088796 
3804.000000	65.087413 
3803.000000	65.095686 
3802.000000	65.108013 
3801.000000	65.118432 
3800.000000	65.121293 
3799.000000	65.112233 
3798.000000	65.089082 
3797.000000	65.052175 
3796.000000	65.004158 
3795.000000	64.949417 
3794.000000	64.893555 
3793.000000	64.842486 
3792.000000	64.802074 
3791.000000	64.777445 
3790.000000	64.772462 
3789.000000	64.788794 
3788.000000	64.825987 
3787.000000	64.880895 
3786.000000	64.947724 
3785.000000	65.018868 
3784.000000	65.086102 
3783.000000	65.142107 
3782.000000	65.181159 
3781.000000	65.200495 
3780.000000	65.200638 
3779.000000	65.185093 
3778.000000	65.159797 
3777.000000	65.131282 
3776.000000	65.105700 
3775.000000	65.087199 
3774.000000	65.078043 
3773.000000	65.077829 
3772.000000	65.084266 
3771.000000	65.093946 
3770.000000	65.103650 
3769.000000	65.110778 
3768.000000	65.114092 
3767.000000	65.113520 
3766.000000	65.110135 
3765.000000	65.105390 
3764.000000	65.100622 
3763.000000	65.096950 
3762.000000	65.094685 
3761.000000	65.093374 
3760.000000	65.091729 
3759.000000	65.088534 
3758.000000	65.082669 
3757.000000	65.073418 
3756.000000	65.060853 
3755.000000	65.045356 
3754.000000	65.028095 
3753.000000	65.010380 
3752.000000	64.993715 
3751.000000	64.979219 
3750.000000	64.967870 
3749.000000	64.960336 
3748.000000	64.957261 
3747.000000	64.958858 
3746.000000	64.965057 
3745.000000	64.975523 
3744.000000	64.989519 
3743.000000	65.006113 
3742.000000	65.024256 
3741.000000	65.042924 
3740.000000	65.061378 
3739.000000	65.079236 
3738.000000	65.096712 
3737.000000	65.114164 
3736.000000	65.132069 
3735.000000	65.150594 
3734.000000	65.169358 
3733.000000	65.187311 
3732.000000	65.202856 
3731.000000	65.214347 
3730.000000	65.220713 
3729.000000	65.221714 
3728.000000	65.218329 
3727.000000	65.212202 
3726.000000	65.205764 
3725.000000	65.200996 
3724.000000	65.199208 
3723.000000	65.200662 
3722.000000	65.204596 
3721.000000	65.209412 
3720.000000	65.213322 
3719.000000	65.214776 
3718.000000	65.212893 
3717.000000	65.207600 
3716.000000	65.199732 
3715.000000	65.190649 
3714.000000	65.181899 
3713.000000	65.174818 
3712.000000	65.170168 
3711.000000	65.168166 
3710.000000	65.168309 
3709.000000	65.169572 
3708.000000	65.170621 
3707.000000	65.170001 
3706.000000	65.166258 
3705.000000	65.158343 
3704.000000	65.145587 
3703.000000	65.128231 
3702.000000	65.106868 
3701.000000	65.082883 
3700.000000	65.057587 
3699.000000	65.032148 
3698.000000	65.007328 
3697.000000	64.983248 
3696.000000	64.959645 
3695.000000	64.936184 
3694.000000	64.912819 
3693.000000	64.890313 
3692.000000	64.870095 
3691.000000	64.854073 
3690.000000	64.844489 
3689.000000	64.843106 
3688.000000	64.850997 
3687.000000	64.868021 
3686.000000	64.892840 
3685.000000	64.923095 
3684.000000	64.956140 
3683.000000	64.989519 
3682.000000	65.021324 
3681.000000	65.050363 
3680.000000	65.076160 
3679.000000	65.098690 
3678.000000	65.118074 
3677.000000	65.134167 
3676.000000	65.146756 
3675.000000	65.155220 
3674.000000	65.159225 
3673.000000	65.158510 
3672.000000	65.153217 
3671.000000	65.143895 
3670.000000	65.131759 
3669.000000	65.118551 
3668.000000	65.106153 
3667.000000	65.096640 
3666.000000	65.092086 
3665.000000	65.093922 
3664.000000	65.102672 
3663.000000	65.117764 
3662.000000	65.137481 
3661.000000	65.158867 
3660.000000	65.178370 
3659.000000	65.192270 
3658.000000	65.197372 
3657.000000	65.191817 
3656.000000	65.175580 
3655.000000	65.150594 
3654.000000	65.120124 
3653.000000	65.088391 
3652.000000	65.059399 
3651.000000	65.036153 
3650.000000	65.020155 
3649.000000	65.011477 
3648.000000	65.009355 
3647.000000	65.012192 
3646.000000	65.018701 
3645.000000	65.028262 
3644.000000	65.041136 
3643.000000	65.057969 
3642.000000	65.079522 
3641.000000	65.105986 
3640.000000	65.136432 
3639.000000	65.168619 
3638.000000	65.198945 
3637.000000	65.223264 
3636.000000	65.237808 
3635.000000	65.240025 
3634.000000	65.229320 
3633.000000	65.207362 
3632.000000	65.177845 
3631.000000	65.145874 
3630.000000	65.116882 
3629.000000	65.095305 
3628.000000	65.083956 
3627.000000	65.083217 
3626.000000	65.091323 
3625.000000	65.104532 
3624.000000	65.118527 
3623.000000	65.129184 
3622.000000	65.133547 
3621.000000	65.130329 
3620.000000	65.120172 
3619.000000	65.105319 
3618.000000	65.088486 
3617.000000	65.072464 
3616.000000	65.059041 
3615.000000	65.049076 
3614.000000	65.042495 
3613.000000	65.038299 
3612.000000	65.035295 
3611.000000	65.032315 
3610.000000	65.028738 
3609.000000	65.024375 
3608.000000	65.019512 
3607.000000	65.014696 
3606.000000	65.010571 
3605.000000	65.007543 
3604.000000	65.005993 
3603.000000	65.006136 
3602.000000	65.008282 
3601.000000	65.012884 
3600.000000	65.020465 
3599.000000	65.031266 
3598.000000	65.045475 
3597.000000	65.062832 
3596.000000	65.082502 
3595.000000	65.103220 
3594.000000	65.123224 
3593.000000	65.140557 
3592.000000	65.153193 
3591.000000	65.159511 
3590.000000	65.158152 
3589.000000	65.148425 
3588.000000	65.130758 
3587.000000	65.106534 
3586.000000	65.078330 
3585.000000	65.049576 
3584.000000	65.024185 
3583.000000	65.005826 
3582.000000	64.997529 
3581.000000	65.000891 
3580.000000	65.016007 
3579.000000	65.041375 
3578.000000	65.074157 
3577.000000	65.110659 
3576.000000	65.147089 
3575.000000	65.180015 
3574.000000	65.207147 
3573.000000	65.227317 
3572.000000	65.240454 
3571.000000	65.247249 
3570.000000	65.248942 
3569.000000	65.246462 
3568.000000	65.240406 
3567.000000	65.230679 
3566.000000	65.216875 
3565.000000	65.198326 
3564.000000	65.174937 
3563.000000	65.147304 
3562.000000	65.117001 
3561.000000	65.086507 
3560.000000	65.059018 
3559.000000	65.037655 
3558.000000	65.024995 
3557.000000	65.022325 
3556.000000	65.029478 
3555.000000	65.044665 
3554.000000	65.064787 
3553.000000	65.086007 
3552.000000	65.104603 
3551.000000	65.117716 
3550.000000	65.123891 
3549.000000	65.123319 
3548.000000	65.117764 
3547.000000	65.110087 
3546.000000	65.103387 
3545.000000	65.100383 
3544.000000	65.102529 
3543.000000	65.109896 
3542.000000	65.120863 
3541.000000	65.132904 
3540.000000	65.142941 
3539.000000	65.148401 
3538.000000	65.147590 
3537.000000	65.140151 
3536.000000	65.127086 
3535.000000	65.110540 
3534.000000	65.092992 
3533.000000	65.076661 
3532.000000	65.062832 
3531.000000	65.051960 
3530.000000	65.043377 
3529.000000	65.035605 
3528.000000	65.027189 
3527.000000	65.017127 
3526.000000	65.005517 
3525.000000	64.993500 
3524.000000	64.983224 
3523.000000	64.977216 
3522.000000	64.977717 
3521.000000	64.985966 
3520.000000	65.001797 
3519.000000	65.023398 
3518.000000	65.047860 
3517.000000	65.071797 
3516.000000	65.092015 
3515.000000	65.106201 
3514.000000	65.113091 
3513.000000	65.112996 
3512.000000	65.107250 
3511.000000	65.098118 
3510.000000	65.088105 
3509.000000	65.079474 
3508.000000	65.074038 
3507.000000	65.072560 
3506.000000	65.075087 
3505.000000	65.080714 
3504.000000	65.088176 
3503.000000	65.095901 
3502.000000	65.102529 
3501.000000	65.107345 
3500.000000	65.110206 
3499.000000	65.111756 
3498.000000	65.112996 
3497.000000	65.115165 
3496.000000	65.119194 
3495.000000	65.125441 
3494.000000	65.133643 
3493.000000	65.142989 
3492.000000	65.152597 
3491.000000	65.161657 
3490.000000	65.169978 
3489.000000	65.178084 
3488.000000	65.186929 
3487.000000	65.197849 
3486.000000	65.211653 
3485.000000	65.228199 
3484.000000	65.246248 
3483.000000	65.263700 
3482.000000	65.278077 
3481.000000	65.286922 
3480.000000	65.288686 
3479.000000	65.283370 
3478.000000	65.272283 
3477.000000	65.258049 
3476.000000	65.243554 
3475.000000	65.231585 
3474.000000	65.223717 
3473.000000	65.220141 
3472.000000	65.219950 
3471.000000	65.221571 
3470.000000	65.223360 
3469.000000	65.224337 
3468.000000	65.224528 
3467.000000	65.225100 
3466.000000	65.227770 
3465.000000	65.234136 
3464.000000	65.245151 
3463.000000	65.260601 
3462.000000	65.278744 
3461.000000	65.296983 
3460.000000	65.312314 
3459.000000	65.322184 
3458.000000	65.324902 
3457.000000	65.320229 
3456.000000	65.309262 
3455.000000	65.294218 
3454.000000	65.277671 
3453.000000	65.262222 
3452.000000	65.249752 
3451.000000	65.241146 
3450.000000	65.236496 
3449.000000	65.234851 
3448.000000	65.234923 
3447.000000	65.235042 
3446.000000	65.233802 
3445.000000	65.230107 
3444.000000	65.223479 
3443.000000	65.213966 
3442.000000	65.202093 
3441.000000	65.188527 
3440.000000	65.173912 
3439.000000	65.158534 
3438.000000	65.142369 
3437.000000	65.125083 
3436.000000	65.106081 
3435.000000	65.084671 
3434.000000	65.060639 
3433.000000	65.034580 
3432.000000	65.008306 
3431.000000	64.984107 
3430.000000	64.965415 
3429.000000	64.955568 
3428.000000	64.957690 
3427.000000	64.973425 
3426.000000	65.002441 
3425.000000	65.042376 
3424.000000	65.088748 
3423.000000	65.135836 
3422.000000	65.177583 
3421.000000	65.208411 
3420.000000	65.224766 
3419.000000	65.225386 
3418.000000	65.211939 
3417.000000	65.188407 
3416.000000	65.160369 
3415.000000	65.133643 
3414.000000	65.113186 
3413.000000	65.101861 
3412.000000	65.100359 
3411.000000	65.106701 
3410.000000	65.117216 
3409.000000	65.127348 
3408.000000	65.132784 
3407.000000	65.130496 
3406.000000	65.118694 
3405.000000	65.097761 
3404.000000	65.069675 
3403.000000	65.037846 
3402.000000	65.006208 
3401.000000	64.978790 
3400.000000	64.959144 
3399.000000	64.949774 
3398.000000	64.952063 
3397.000000	64.965605 
3396.000000	64.988517 
3395.000000	65.017247 
3394.000000	65.047311 
3393.000000	65.073657 
3392.000000	65.091395 
3391.000000	65.096974 
3390.000000	65.088868 
3389.000000	65.067744 
3388.000000	65.036368 
3387.000000	64.999198 
3386.000000	64.961481 
3385.000000	64.928293 
3384.000000	64.903736 
3383.000000	64.890217 
3382.000000	64.888668 
3381.000000	64.898848 
3380.000000	64.919424 
3379.000000	64.948773 
3378.000000	64.984655 
3377.000000	65.024685 
3376.000000	65.065884 
3375.000000	65.104699 
3374.000000	65.137267 
3373.000000	65.159511 
3372.000000	65.168237 
3371.000000	65.161705 
3370.000000	65.140342 
3369.000000	65.107345 
3368.000000	65.067768 
3367.000000	65.027952 
3366.000000	64.993810 
3365.000000	64.969706 
3364.000000	64.957237 
3363.000000	64.955234 
3362.000000	64.959931 
3361.000000	64.966368 
3360.000000	64.969801 
3359.000000	64.967346 
3358.000000	64.958596 
3357.000000	64.945769 
3356.000000	64.932966 
3355.000000	64.924979 
3354.000000	64.925622 
3353.000000	64.936923 
3352.000000	64.958071 
3351.000000	64.986157 
3350.000000	65.016937 
3349.000000	65.045833 
3348.000000	65.069556 
3347.000000	65.086483 
3346.000000	65.096974 
3345.000000	65.102696 
3344.000000	65.106034 
3343.000000	65.108776 
3342.000000	65.111541 
3341.000000	65.113520 
3340.000000	65.112829 
3339.000000	65.107226 
3338.000000	65.095257 
3337.000000	65.076804 
3336.000000	65.053439 
3335.000000	65.028285 
3334.000000	65.005254 
3333.000000	64.987874 
3332.000000	64.978694 
3331.000000	64.978408 
3330.000000	64.985966 
3329.000000	64.999079 
3328.000000	65.014982 
3327.000000	65.031123 
3326.000000	65.045928 
3325.000000	65.058922 
3324.000000	65.070676 
3323.000000	65.082144 
3322.000000	65.094232 
3321.000000	65.107202 
3320.000000	65.120601 
3319.000000	65.133404 
3318.000000	65.144205 
3317.000000	65.151762 
3316.000000	65.155196 
3315.000000	65.154457 
3314.000000	65.149927 
3313.000000	65.142393 
3312.000000	65.132451 
3311.000000	65.120673 
3310.000000	65.107059 
3309.000000	65.091443 
3308.000000	65.073561 
3307.000000	65.053391 
3306.000000	65.031504 
3305.000000	65.009117 
3304.000000	64.987826 
3303.000000	64.969277 
3302.000000	64.954614 
3301.000000	64.944434 
3300.000000	64.938306 
3299.000000	64.935469 
3298.000000	64.934968 
3297.000000	64.936423 
3296.000000	64.939785 
3295.000000	64.946103 
3294.000000	64.956784 
3293.000000	64.973378 
3292.000000	64.996743 
3291.000000	65.026855 
3290.000000	65.062427 
3289.000000	65.101218 
3288.000000	65.140223 
3287.000000	65.176153 
3286.000000	65.205979 
3285.000000	65.227270 
3284.000000	65.238595 
3283.000000	65.239429 
3282.000000	65.229988 
3281.000000	65.211200 
3280.000000	65.184569 
3279.000000	65.151977 
3278.000000	65.115785 
3277.000000	65.078520 
3276.000000	65.042853 
3275.000000	65.011310 
3274.000000	64.985942 
3273.000000	64.967942 
3272.000000	64.957880 
3271.000000	64.955234 
3270.000000	64.958906 
3269.000000	64.967155 
3268.000000	64.978289 
3267.000000	64.990615 
3266.000000	65.003132 
3265.000000	65.015006 
3264.000000	65.026235 
3263.000000	65.037250 
3262.000000	65.048718 
3261.000000	65.061354 
3260.000000	65.075445 
3259.000000	65.090894 
3258.000000	65.106964 
3257.000000	65.122365 
3256.000000	65.135097 
3255.000000	65.143013 
3254.000000	65.144014 
3253.000000	65.136599 
3252.000000	65.120267 
3251.000000	65.095782 
3250.000000	65.065312 
3249.000000	65.031862 
3248.000000	64.998817 
3247.000000	64.969062 
3246.000000	64.944648 
3245.000000	64.926648 
3244.000000	64.914751 
3243.000000	64.907836 
3242.000000	64.904451 
3241.000000	64.903068 
3240.000000	64.902448 
3239.000000	64.901971 
3238.000000	64.901351 
3237.000000	64.900970 
3236.000000	64.901256 
3235.000000	64.903116 
3234.000000	64.907073 
3233.000000	64.913916 
3232.000000	64.924407 
3231.000000	64.939355 
3230.000000	64.958930 
3229.000000	64.982914 
3228.000000	65.010476 
3227.000000	65.039992 
3226.000000	65.069198 
3225.000000	65.095663 
3224.000000	65.117120 
3223.000000	65.132045 
3222.000000	65.139937 
3221.000000	65.141129 
3220.000000	65.136694 
3219.000000	65.128374 
3218.000000	65.118122 
3217.000000	65.107655 
3216.000000	65.098357 
3215.000000	65.091586 
3214.000000	65.087890 
3213.000000	65.087604 
3212.000000	65.090298 
3211.000000	65.095376 
3210.000000	65.101480 
3209.000000	65.106844 
3208.000000	65.109348 
3207.000000	65.106654 
3206.000000	65.096902 
3205.000000	65.078926 
3204.000000	65.052938 
3203.000000	65.020418 
3202.000000	64.984369 
3201.000000	64.948940 
3200.000000	64.918828 
3199.000000	64.898419 
3198.000000	64.891481 
3197.000000	64.900183 
3196.000000	64.924788 
3195.000000	64.963412 
3194.000000	65.012097 
3193.000000	65.065646 
3192.000000	65.117740 
3191.000000	65.162634 
3190.000000	65.195775 
3189.000000	65.214872 
3188.000000	65.220141 
3187.000000	65.213584 
3186.000000	65.198707 
3185.000000	65.179300 
3184.000000	65.158963 
3183.000000	65.139961 
3182.000000	65.123152 
3181.000000	65.108036 
3180.000000	65.093755 
3179.000000	65.079188 
3178.000000	65.063691 
3177.000000	65.047407 
3176.000000	65.031504 
3175.000000	65.017795 
3174.000000	65.008234 
3173.000000	65.004396 
3172.000000	65.006971 
3171.000000	65.015316 
3170.000000	65.027642 
3169.000000	65.041279 
3168.000000	65.053057 
3167.000000	65.059971 
3166.000000	65.059804 
3165.000000	65.051460 
3164.000000	65.035152 
3163.000000	65.012574 
3162.000000	64.986705 
3161.000000	64.960956 
3160.000000	64.939022 
3159.000000	64.924001 
3158.000000	64.918375 
3157.000000	64.923405 
3156.000000	64.939188 
3155.000000	64.964818 
3154.000000	64.998364 
3153.000000	65.037393 
3152.000000	65.078759 
3151.000000	65.119194 
3150.000000	65.155291 
3149.000000	65.183854 
3148.000000	65.202164 
3147.000000	65.208339 
3146.000000	65.201878 
3145.000000	65.183520 
3144.000000	65.155315 
3143.000000	65.120077 
3142.000000	65.081477 
3141.000000	65.043115 
3140.000000	65.008115 
3139.000000	64.978766 
3138.000000	64.956283 
3137.000000	64.941143 
3136.000000	64.932942 
3135.000000	64.931344 
3134.000000	64.935803 
3133.000000	64.946222 
3132.000000	64.962553 
3131.000000	64.984774 
3130.000000	65.012335 
3129.000000	65.043902 
3128.000000	65.077161 
3127.000000	65.108895 
3126.000000	65.135335 
3125.000000	65.152907 
3124.000000	65.159106 
3123.000000	65.153002 
3122.000000	65.135502 
3121.000000	65.109658 
3120.000000	65.080046 
3119.000000	65.051841 
3118.000000	65.029716 
3117.000000	65.016984 
3116.000000	65.014958 
3115.000000	65.022706 
3114.000000	65.037584 
3113.000000	65.055847 
3112.000000	65.073966 
3111.000000	65.089201 
3110.000000	65.100383 
3109.000000	65.107750 
3108.000000	65.112900 
3107.000000	65.117812 
3106.000000	65.124273 
3105.000000	65.133166 
3104.000000	65.143990 
3103.000000	65.155267 
3102.000000	65.164470 
3101.000000	65.168952 
3100.000000	65.166282 
3099.000000	65.155220 
3098.000000	65.135574 
3097.000000	65.108513 
3096.000000	65.076327 
3095.000000	65.041851 
3094.000000	65.008378 
3093.000000	64.979052 
3092.000000	64.956450 
3091.000000	64.942097 
3090.000000	64.936423 
3089.000000	64.938569 
3088.000000	64.946508 
3087.000000	64.957523 
3086.000000	64.968657 
3085.000000	64.977335 
3084.000000	64.981698 
3083.000000	64.981102 
3082.000000	64.975762 
3081.000000	64.966988 
3080.000000	64.956355 
3079.000000	64.945673 
3078.000000	64.936447 
3077.000000	64.929938 
3076.000000	64.926767 
3075.000000	64.927244 
3074.000000	64.931440 
3073.000000	64.939379 
3072.000000	64.950919 
3071.000000	64.965772 
3070.000000	64.983272 
3069.000000	65.002346 
3068.000000	65.021443 
3067.000000	65.038943 
3066.000000	65.053153 
3065.000000	65.062785 
3064.000000	65.067148 
3063.000000	65.066051 
3062.000000	65.059852 
3061.000000	65.049505 
3060.000000	65.036368 
3059.000000	65.022182 
3058.000000	65.008807 
3057.000000	64.998102 
3056.000000	64.991450 
3055.000000	64.989781 
3054.000000	64.992928 
3053.000000	64.999699 
3052.000000	65.008020 
3051.000000	65.015125 
3050.000000	65.018677 
3049.000000	65.016674 
3048.000000	65.008735 
3047.000000	64.995980 
3046.000000	64.981031 
3045.000000	64.967226 
3044.000000	64.957785 
3043.000000	64.954686 
3042.000000	64.958262 
3041.000000	64.966940 
3040.000000	64.977884 
3039.000000	64.987874 
3038.000000	64.994311 
3037.000000	64.995908 
3036.000000	64.992928 
3035.000000	64.987111 
3034.000000	64.980697 
3033.000000	64.976048 
3032.000000	64.974737 
3031.000000	64.977288 
3030.000000	64.983272 
3029.000000	64.991426 
3028.000000	65.000438 
3027.000000	65.008997 
3026.000000	65.016531 
3025.000000	65.022754 
3024.000000	65.027618 
3023.000000	65.031099 
3022.000000	65.032839 
3021.000000	65.032649 
3020.000000	65.030431 
3019.000000	65.026521 
3018.000000	65.022063 
3017.000000	65.018439 
3016.000000	65.017223 
3015.000000	65.019631 
3014.000000	65.026259 
3013.000000	65.036702 
3012.000000	65.049815 
3011.000000	65.063905 
3010.000000	65.077233 
3009.000000	65.088295 
3008.000000	65.095996 
3007.000000	65.099835 
3006.000000	65.099763 
3005.000000	65.096044 
3004.000000	65.089249 
3003.000000	65.079951 
3002.000000	65.068769 
3001.000000	65.056324 
3000.000000	65.043425 
2999.000000	65.031051 
2998.000000	65.020012 
2997.000000	65.011119 
2996.000000	65.004849 
2995.000000	65.001058 
2994.000000	64.999246 
2993.000000	64.998817 
2992.000000	64.999198 
2991.000000	64.999866 
2990.000000	65.000844 
2989.000000	65.002417 
2988.000000	65.005207 
2987.000000	65.009593 
2986.000000	65.015769 
2985.000000	65.023422 
2984.000000	65.031719 
2983.000000	65.039467 
2982.000000	65.045261 
2981.000000	65.047860 
2980.000000	65.046477 
2979.000000	65.040993 
2978.000000	65.032148 
2977.000000	65.021181 
2976.000000	65.009593 
2975.000000	64.998817 
2974.000000	64.989948 
2973.000000	64.983391 
2972.000000	64.978814 
2971.000000	64.975118 
2970.000000	64.970827 
2969.000000	64.964270 
2968.000000	64.954113 
2967.000000	64.939641 
2966.000000	64.920759 
2965.000000	64.898467 
2964.000000	64.874386 
2963.000000	64.850926 
2962.000000	64.830446 
2961.000000	64.815354 
2960.000000	64.807438 
2959.000000	64.807844 
2958.000000	64.816856 
2957.000000	64.833855 
2956.000000	64.857411 
2955.000000	64.885544 
2954.000000	64.915871 
2953.000000	64.945864 
2952.000000	64.973044 
2951.000000	64.995217 
2950.000000	65.010547 
2949.000000	65.017867 
2948.000000	65.016698 
2947.000000	65.007257 
2946.000000	64.990520 
2945.000000	64.968371 
2944.000000	64.943242 
2943.000000	64.917755 
2942.000000	64.894628 
2941.000000	64.876413 
2940.000000	64.864897 
2939.000000	64.861035 
2938.000000	64.864683 
2937.000000	64.874744 
2936.000000	64.889454 
2935.000000	64.906549 
2934.000000	64.923667 
2933.000000	64.938783 
2932.000000	64.950299 
2931.000000	64.957237 
2930.000000	64.959287 
2929.000000	64.956688 
2928.000000	64.950227 
2927.000000	64.941143 
2926.000000	64.930820 
2925.000000	64.920735 
2924.000000	64.912462 
2923.000000	64.907455 
2922.000000	64.906620 
2921.000000	64.910507 
2920.000000	64.919090 
2919.000000	64.931941 
2918.000000	64.948177 
2917.000000	64.966654 
2916.000000	64.986181 
2915.000000	65.005707 
2914.000000	65.024399 
2913.000000	65.041589 
2912.000000	65.056753 
2911.000000	65.069437 
2910.000000	65.079307 
2909.000000	65.086174 
2908.000000	65.089869 
2907.000000	65.090560 
2906.000000	65.088701 
2905.000000	65.084958 
2904.000000	65.080165 
2903.000000	65.075039 
2902.000000	65.069818 
2901.000000	65.064406 
2900.000000	65.058231 
2899.000000	65.050458 
2898.000000	65.040278 
2897.000000	65.027332 
2896.000000	65.012025 
2895.000000	64.995455 
2894.000000	64.979481 
2893.000000	64.965963 
2892.000000	64.956545 
2891.000000	64.952015 
2890.000000	64.952087 
2889.000000	64.955544 
2888.000000	64.960503 
2887.000000	64.964962 
2886.000000	64.967203 
2885.000000	64.966249 
2884.000000	64.962005 
2883.000000	64.955186 
2882.000000	64.946818 
2881.000000	64.937782 
2880.000000	64.928579 
2879.000000	64.919114 
2878.000000	64.908909 
2877.000000	64.897394 
2876.000000	64.884400 
2875.000000	64.870285 
2874.000000	64.856100 
2873.000000	64.843440 
2872.000000	64.833974 
2871.000000	64.829111 
2870.000000	64.829349 
2869.000000	64.834260 
2868.000000	64.842557 
2867.000000	64.852166 
2866.000000	64.860796 
2865.000000	64.866423 
2864.000000	64.867806 
2863.000000	64.865016 
2862.000000	64.859199 
2861.000000	64.852857 
2860.000000	64.849019 
2859.000000	64.850711 
2858.000000	64.860177 
2857.000000	64.878463 
2856.000000	64.905047 
2855.000000	64.937663 
2854.000000	64.972877 
2853.000000	65.006589 
2852.000000	65.034890 
2851.000000	65.054702 
2850.000000	65.064358 
2849.000000	65.063738 
2848.000000	65.054321 
2847.000000	65.038657 
2846.000000	65.019798 
2845.000000	65.000700 
2844.000000	64.983677 
2843.000000	64.970064 
2842.000000	64.960408 
2841.000000	64.954495 
2840.000000	64.951848 
2839.000000	64.951920 
2838.000000	64.954257 
2837.000000	64.958786 
2836.000000	64.965629 
2835.000000	64.974832 
2834.000000	64.986419 
2833.000000	64.999794 
2832.000000	65.014028 
2831.000000	65.027713 
2830.000000	65.039372 
2829.000000	65.047764 
2828.000000	65.052103 
2827.000000	65.052223 
2826.000000	65.048432 
2825.000000	65.041613 
2824.000000	65.032553 
2823.000000	65.021729 
2822.000000	65.009188 
2821.000000	64.994359 
2820.000000	64.976668 
2819.000000	64.955782 
2818.000000	64.932084 
2817.000000	64.906764 
2816.000000	64.881944 
2815.000000	64.860606 
2814.000000	64.845514 
2813.000000	64.838957 
2812.000000	64.842033 
2811.000000	64.854359 
2810.000000	64.873933 
2809.000000	64.897894 
2808.000000	64.923024 
2807.000000	64.946556 
2806.000000	64.966320 
2805.000000	64.981532 
2804.000000	64.992284 
2803.000000	64.999580 
2802.000000	65.004539 
2801.000000	65.008497 
2800.000000	65.012621 
2799.000000	65.017867 
2798.000000	65.024805 
2797.000000	65.033817 
2796.000000	65.044927 
2795.000000	65.057659 
2794.000000	65.071177 
2793.000000	65.084075 
2792.000000	65.094590 
2791.000000	65.100932 
2790.000000	65.101647 
2789.000000	65.095829 
2788.000000	65.083384 
2787.000000	65.065526 
2786.000000	65.044021 
2785.000000	65.021228 
2784.000000	64.999270 
2783.000000	64.979934 
2782.000000	64.964246 
2781.000000	64.952468 
2780.000000	64.943909 
2779.000000	64.937663 
2778.000000	64.932513 
2777.000000	64.927363 
2776.000000	64.921402 
2775.000000	64.913988 
2774.000000	64.905142 
2773.000000	64.894986 
2772.000000	64.884233 
2771.000000	64.873456 
2770.000000	64.863371 
2769.000000	64.854478 
2768.000000	64.847135 
2767.000000	64.841318 
2766.000000	64.836692 
2765.000000	64.832806 
2764.000000	64.828968 
2763.000000	64.824771 
2762.000000	64.820122 
2761.000000	64.815711 
2760.000000	64.812517 
2759.000000	64.811944 
2758.000000	64.815282 
2757.000000	64.823389 
2756.000000	64.836502 
2755.000000	64.853954 
2754.000000	64.874291 
2753.000000	64.895629 
2752.000000	64.916014 
2751.000000	64.933824 
2750.000000	64.947962 
2749.000000	64.957976 
2748.000000	64.964151 
2747.000000	64.967155 
2746.000000	64.967727 
2745.000000	64.966464 
2744.000000	64.963722 
2743.000000	64.959549 
2742.000000	64.953804 
2741.000000	64.946269 
2740.000000	64.936947 
2739.000000	64.925909 
2738.000000	64.913415 
2737.000000	64.899873 
2736.000000	64.885878 
2735.000000	64.872360 
2734.000000	64.860320 
2733.000000	64.850854 
2732.000000	64.844870 
2731.000000	64.842820 
2730.000000	64.844632 
2729.000000	64.849424 
2728.000000	64.855790 
2727.000000	64.862203 
2726.000000	64.867162 
2725.000000	64.869809 
2724.000000	64.870023 
2723.000000	64.868617 
2722.000000	64.867043 
2721.000000	64.866924 
2720.000000	64.869523 
2719.000000	64.875555 
2718.000000	64.884757 
2717.000000	64.895939 
2716.000000	64.907431 
2715.000000	64.917516 
2714.000000	64.924979 
2713.000000	64.929437 
2712.000000	64.930987 
2711.000000	64.930248 
2710.000000	64.928030 
2709.000000	64.925026 
2708.000000	64.921569 
2707.000000	64.917778 
2706.000000	64.913702 
2705.000000	64.909529 
2704.000000	64.905524 
2703.000000	64.902329 
2702.000000	64.900732 
2701.000000	64.901638 
2700.000000	64.905762 
2699.000000	64.913582 
2698.000000	64.924907 
2697.000000	64.939069 
2696.000000	64.954733 
2695.000000	64.970207 
2694.000000	64.983534 
2693.000000	64.992880 
2692.000000	64.996838 
2691.000000	64.994740 
2690.000000	64.986801 
2689.000000	64.974236 
2688.000000	64.959144 
2687.000000	64.944314 
2686.000000	64.932608 
2685.000000	64.926409 
2684.000000	64.927124 
2683.000000	64.934849 
2682.000000	64.948439 
2681.000000	64.965915 
2680.000000	64.984822 
2679.000000	65.002727 
2678.000000	65.017867 
2677.000000	65.029120 
2676.000000	65.036010 
2675.000000	65.038537 
2674.000000	65.036988 
2673.000000	65.031671 
2672.000000	65.022802 
2671.000000	65.010666 
2670.000000	64.995551 
2669.000000	64.978098 
2668.000000	64.959192 
2667.000000	64.940214 
2666.000000	64.922714 
2665.000000	64.908194 
2664.000000	64.897847 
2663.000000	64.892196 
2662.000000	64.891338 
2661.000000	64.894819 
2660.000000	64.901781 
2659.000000	64.911246 
2658.000000	64.922070 
2657.000000	64.933276 
2656.000000	64.943861 
2655.000000	64.953017 
2654.000000	64.959859 
2653.000000	64.963817 
2652.000000	64.964389 
2651.000000	64.961242 
2650.000000	64.954447 
2649.000000	64.944410 
2648.000000	64.931893 
2647.000000	64.917826 
2646.000000	64.903664 
2645.000000	64.890813 
2644.000000	64.880585 
2643.000000	64.873933 
2642.000000	64.871191 
2641.000000	64.872169 
2640.000000	64.875984 
2639.000000	64.881443 
2638.000000	64.887142 
2637.000000	64.892005 
2636.000000	64.895296 
2635.000000	64.896965 
2634.000000	64.897322 
2633.000000	64.897203 
2632.000000	64.897561 
2631.000000	64.899039 
2630.000000	64.901876 
2629.000000	64.905714 
2628.000000	64.909720 
2627.000000	64.912724 
2626.000000	64.913535 
2625.000000	64.911365 
2624.000000	64.905953 
2623.000000	64.897847 
2622.000000	64.888191 
2621.000000	64.878582 
2620.000000	64.870762 
2619.000000	64.866280 
2618.000000	64.866018 
2617.000000	64.870309 
2616.000000	64.878630 
2615.000000	64.889860 
2614.000000	64.902496 
2613.000000	64.914941 
2612.000000	64.925742 
2611.000000	64.933919 
2610.000000	64.938926 
2609.000000	64.940762 
2608.000000	64.939832 
2607.000000	64.936780 
2606.000000	64.932394 
2605.000000	64.927458 
2604.000000	64.922928 
2603.000000	64.919662 
2602.000000	64.918541 
2601.000000	64.920115 
2600.000000	64.924383 
2599.000000	64.930915 
2598.000000	64.938664 
2597.000000	64.946365 
2596.000000	64.952874 
2595.000000	64.957427 
2594.000000	64.959931 
2593.000000	64.960861 
2592.000000	64.961051 
2591.000000	64.961314 
2590.000000	64.962077 
2589.000000	64.963316 
2588.000000	64.964485 
2587.000000	64.964699 
2586.000000	64.963245 
2585.000000	64.959621 
2584.000000	64.953994 
2583.000000	64.946770 
2582.000000	64.938855 
2581.000000	64.931035 
2580.000000	64.923810 
2579.000000	64.917278 
2578.000000	64.911031 
2577.000000	64.904356 
2576.000000	64.896583 
2575.000000	64.887356 
2574.000000	64.876842 
2573.000000	64.865612 
2572.000000	64.854359 
2571.000000	64.843773 
2570.000000	64.834380 
2569.000000	64.826369 
2568.000000	64.819669 
2567.000000	64.813899 
2566.000000	64.808750 
2565.000000	64.803934 
2564.000000	64.799356 
2563.000000	64.794993 
2562.000000	64.791011 
2561.000000	64.787507 
2560.000000	64.784502 
2559.000000	64.781928 
2558.000000	64.779925 
2557.000000	64.778637 
2556.000000	64.778661 
2555.000000	64.780664 
2554.000000	64.785504 
2553.000000	64.793872 
2552.000000	64.806079 
2551.000000	64.821910 
2550.000000	64.840388 
2549.000000	64.860081 
2548.000000	64.879202 
2547.000000	64.895939 
2546.000000	64.908719 
2545.000000	64.916324 
2544.000000	64.918279 
2543.000000	64.914727 
2542.000000	64.906454 
2541.000000	64.894628 
2540.000000	64.880728 
2539.000000	64.866399 
2538.000000	64.852905 
2537.000000	64.841294 
2536.000000	64.832282 
2535.000000	64.826083 
2534.000000	64.822483 
2533.000000	64.821052 
2532.000000	64.821124 
2531.000000	64.821982 
2530.000000	64.822959 
2529.000000	64.823532 
2528.000000	64.823293 
2527.000000	64.822244 
2526.000000	64.820408 
2525.000000	64.818024 
2524.000000	64.815425 
2523.000000	64.813089 
2522.000000	64.811491 
2521.000000	64.811134 
2520.000000	64.812374 
2519.000000	64.815378 
2518.000000	64.820075 
2517.000000	64.826059 
2516.000000	64.832687 
2515.000000	64.839220 
2514.000000	64.844894 
2513.000000	64.849162 
2512.000000	64.851665 
2511.000000	64.852309 
2510.000000	64.851331 
2509.000000	64.849233 
2508.000000	64.846611 
2507.000000	64.844155 
2506.000000	64.842438 
2505.000000	64.842104 
2504.000000	64.843630 
2503.000000	64.847397 
2502.000000	64.853501 
2501.000000	64.861750 
2500.000000	64.871740 
2499.000000	64.882731 
2498.000000	64.893627 
2497.000000	64.903306 
2496.000000	64.910483 
2495.000000	64.914393 
2494.000000	64.914655 
2493.000000	64.911556 
2492.000000	64.905953 
2491.000000	64.899063 
2490.000000	64.892363 
2489.000000	64.887213 
2488.000000	64.884567 
2487.000000	64.884805 
2486.000000	64.887714 
2485.000000	64.892387 
2484.000000	64.897704 
2483.000000	64.902329 
2482.000000	64.905118 
2481.000000	64.905071 
2480.000000	64.901614 
2479.000000	64.894628 
2478.000000	64.884424 
2477.000000	64.871716 
2476.000000	64.857339 
2475.000000	64.842271 
2474.000000	64.827609 
2473.000000	64.814209 
2472.000000	64.802575 
2471.000000	64.793038 
2470.000000	64.785647 
2469.000000	64.780187 
2468.000000	64.776444 
2467.000000	64.774250 
2466.000000	64.773607 
2465.000000	64.774751 
2464.000000	64.777946 
2463.000000	64.783310 
2462.000000	64.790797 
2461.000000	64.799737 
2460.000000	64.809179 
2459.000000	64.817667 
2458.000000	64.823961 
2457.000000	64.827132 
2456.000000	64.826893 
2455.000000	64.824056 
2454.000000	64.820003 
2453.000000	64.816713 
2452.000000	64.816093 
2451.000000	64.819502 
2450.000000	64.827442 
2449.000000	64.839649 
2448.000000	64.855146 
2447.000000	64.872431 
2446.000000	64.890098 
2445.000000	64.907121 
2444.000000	64.923238 
2443.000000	64.938569 
2442.000000	64.953541 
2441.000000	64.968395 
2440.000000	64.982986 
2439.000000	64.996695 
2438.000000	65.008282 
2437.000000	65.016293 
2436.000000	65.019536 
2435.000000	65.017294 
2434.000000	65.009689 
2433.000000	64.997506 
2432.000000	64.982295 
2431.000000	64.965796 
2430.000000	64.949822 
2429.000000	64.935684 
2428.000000	64.924216 
2427.000000	64.915299 
2426.000000	64.908432 
2425.000000	64.902544 
2424.000000	64.896321 
2423.000000	64.888739 
2422.000000	64.879179 
2421.000000	64.867544 
2420.000000	64.854288 
2419.000000	64.840555 
2418.000000	64.827823 
2417.000000	64.817667 
2416.000000	64.811420 
2415.000000	64.809894 
2414.000000	64.813303 
2413.000000	64.820861 
2412.000000	64.831137 
2411.000000	64.842295 
2410.000000	64.852452 
2409.000000	64.859938 
2408.000000	64.863801 
2407.000000	64.863681 
2406.000000	64.860105 
2405.000000	64.854049 
2404.000000	64.846920 
2403.000000	64.840054 
2402.000000	64.834308 
2401.000000	64.830255 
2400.000000	64.827632 
2399.000000	64.825820 
2398.000000	64.823794 
2397.000000	64.820551 
2396.000000	64.815354 
2395.000000	64.807653 
2394.000000	64.797592 
2393.000000	64.785885 
2392.000000	64.773702 
2391.000000	64.762353 
2390.000000	64.753174 
2389.000000	64.747238 
2388.000000	64.744973 
2387.000000	64.746212 
2386.000000	64.750266 
2385.000000	64.756011 
2384.000000	64.762210 
2383.000000	64.767885 
2382.000000	64.772558 
2381.000000	64.776444 
2380.000000	64.780139 
2379.000000	64.784359 
2378.000000	64.789891 
2377.000000	64.796900 
2376.000000	64.804816 
2375.000000	64.812397 
2374.000000	64.818191 
2373.000000	64.820575 
2372.000000	64.818596 
2371.000000	64.812207 
2370.000000	64.802575 
2369.000000	64.791607 
2368.000000	64.781880 
2367.000000	64.775609 
2366.000000	64.774298 
2365.000000	64.778113 
2364.000000	64.785766 
2363.000000	64.794754 
2362.000000	64.802169 
2361.000000	64.805197 
2360.000000	64.802241 
2359.000000	64.793229 
2358.000000	64.779853 
2357.000000	64.765191 
2356.000000	64.752984 
2355.000000	64.746856 
2354.000000	64.749288 
2353.000000	64.761257 
2352.000000	64.781641 
2351.000000	64.807844 
2350.000000	64.836025 
2349.000000	64.862298 
2348.000000	64.883303 
2347.000000	64.896750 
2346.000000	64.902067 
2345.000000	64.899992 
2344.000000	64.892411 
2343.000000	64.881706 
2342.000000	64.870429 
2341.000000	64.860630 
2340.000000	64.853572 
2339.000000	64.849925 
2338.000000	64.849567 
2337.000000	64.852094 
2336.000000	64.856910 
2335.000000	64.863371 
2334.000000	64.871048 
2333.000000	64.879441 
2332.000000	64.888238 
2331.000000	64.896893 
2330.000000	64.904904 
2329.000000	64.911651 
2328.000000	64.916419 
2327.000000	64.918518 
2326.000000	64.917492 
2325.000000	64.913225 
2324.000000	64.905858 
2323.000000	64.896130 
2322.000000	64.885258 
2321.000000	64.874792 
2320.000000	64.866447 
2319.000000	64.861559 
2318.000000	64.861369 
2317.000000	64.866065 
2316.000000	64.874863 
2315.000000	64.886116 
2314.000000	64.897394 
2313.000000	64.906001 
2312.000000	64.909577 
2311.000000	64.906668 
2310.000000	64.897060 
2309.000000	64.882087 
2308.000000	64.864230 
2307.000000	64.846873 
2306.000000	64.833259 
2305.000000	64.826035 
2304.000000	64.826464 
2303.000000	64.834237 
2302.000000	64.847469 
2301.000000	64.863181 
2300.000000	64.877963 
2299.000000	64.888525 
2298.000000	64.892578 
2297.000000	64.888954 
2296.000000	64.877796 
2295.000000	64.860153 
2294.000000	64.837884 
2293.000000	64.813113 
2292.000000	64.788222 
2291.000000	64.765238 
2290.000000	64.745998 
2289.000000	64.732241 
2288.000000	64.724898 
2287.000000	64.724421 
2286.000000	64.730334 
2285.000000	64.741373 
2284.000000	64.755654 
2283.000000	64.770960 
2282.000000	64.785075 
2281.000000	64.795970 
2280.000000	64.802670 
2279.000000	64.804911 
2278.000000	64.803361 
2277.000000	64.799284 
2276.000000	64.793992 
2275.000000	64.788866 
2274.000000	64.784741 
2273.000000	64.782238 
2272.000000	64.781546 
2271.000000	64.782881 
2270.000000	64.786434 
2269.000000	64.792490 
2268.000000	64.801549 
2267.000000	64.813971 
2266.000000	64.829778 
2265.000000	64.848661 
2264.000000	64.869785 
2263.000000	64.891815 
2262.000000	64.913344 
2261.000000	64.932537 
2260.000000	64.947676 
2259.000000	64.957022 
2258.000000	64.959239 
2257.000000	64.953470 
2256.000000	64.939427 
2255.000000	64.917683 
2254.000000	64.889550 
2253.000000	64.857172 
2252.000000	64.823269 
2251.000000	64.790725 
2250.000000	64.762306 
2249.000000	64.740204 
2248.000000	64.725732 
2247.000000	64.718937 
2246.000000	64.718937 
2245.000000	64.723849 
2244.000000	64.731502 
2243.000000	64.739751 
2242.000000	64.746999 
2241.000000	64.752316 
2240.000000	64.755678 
2239.000000	64.757561 
2238.000000	64.758872 
2237.000000	64.760446 
2236.000000	64.762759 
2235.000000	64.765834 
2234.000000	64.769196 
2233.000000	64.772033 
2232.000000	64.773607 
2231.000000	64.773368 
2230.000000	64.771366 
2229.000000	64.768218 
2228.000000	64.765071 
2227.000000	64.763069 
2226.000000	64.763069 
2225.000000	64.765357 
2224.000000	64.769601 
2223.000000	64.774799 
2222.000000	64.779615 
2221.000000	64.782738 
2220.000000	64.783406 
2219.000000	64.781546 
2218.000000	64.777803 
2217.000000	64.773559 
2216.000000	64.770197 
2215.000000	64.769172 
2214.000000	64.771366 
2213.000000	64.776968 
2212.000000	64.785528 
2211.000000	64.795970 
2210.000000	64.807081 
2209.000000	64.817619 
2208.000000	64.826583 
2207.000000	64.833378 
2206.000000	64.837694 
2205.000000	64.839506 
2204.000000	64.838862 
2203.000000	64.835953 
2202.000000	64.830994 
2201.000000	64.824318 
2200.000000	64.816355 
2199.000000	64.807724 
2198.000000	64.798855 
2197.000000	64.790415 
2196.000000	64.782738 
2195.000000	64.775753 
2194.000000	64.768791 
2193.000000	64.760851 
2192.000000	64.750742 
2191.000000	64.737391 
2190.000000	64.720201 
2189.000000	64.699268 
2188.000000	64.675474 
2187.000000	64.650201 
2186.000000	64.625406 
2185.000000	64.602923 
2184.000000	64.584398 
2183.000000	64.571261 
2182.000000	64.564013 
2181.000000	64.562678 
2180.000000	64.566469 
2179.000000	64.573955 
2178.000000	64.583158 
2177.000000	64.592051 
2176.000000	64.599108 
2175.000000	64.603734 
2174.000000	64.606380 
2173.000000	64.608430 
2172.000000	64.611959 
2171.000000	64.618968 
2170.000000	64.630913 
2169.000000	64.648270 
2168.000000	64.670467 
2167.000000	64.695978 
2166.000000	64.722871 
2165.000000	64.749050 
2164.000000	64.772701 
2163.000000	64.792323 
2162.000000	64.807176 
2161.000000	64.816927 
2160.000000	64.821696 
2159.000000	64.821720 
2158.000000	64.817595 
2157.000000	64.809775 
2156.000000	64.798903 
2155.000000	64.785599 
2154.000000	64.770817 
2153.000000	64.755725 
2152.000000	64.741659 
2151.000000	64.729952 
2150.000000	64.721775 
2149.000000	64.717721 
2148.000000	64.717721 
2147.000000	64.720869 
2146.000000	64.725804 
2145.000000	64.731097 
2144.000000	64.735555 
2143.000000	64.738440 
2142.000000	64.739680 
2141.000000	64.739727 
2140.000000	64.739465 
2139.000000	64.739727 
2138.000000	64.741063 
2137.000000	64.743804 
2136.000000	64.747667 
2135.000000	64.752221 
2134.000000	64.756679 
2133.000000	64.760351 
2132.000000	64.762568 
2131.000000	64.762639 
2130.000000	64.760160 
2129.000000	64.754843 
2128.000000	64.746809 
2127.000000	64.736461 
2126.000000	64.724850 
2125.000000	64.713478 
2124.000000	64.704203 
2123.000000	64.698934 
2122.000000	64.699172 
2121.000000	64.705610 
2120.000000	64.717721 
2119.000000	64.733934 
2118.000000	64.751601 
2117.000000	64.767789 
2116.000000	64.779829 
2115.000000	64.785957 
2114.000000	64.785695 
2113.000000	64.779973 
2112.000000	64.770746 
2111.000000	64.760637 
2110.000000	64.752030 
2109.000000	64.746522 
2108.000000	64.744758 
2107.000000	64.746212 
2106.000000	64.749717 
2105.000000	64.753746 
2104.000000	64.756917 
2103.000000	64.758610 
2102.000000	64.758729 
2101.000000	64.757919 
2100.000000	64.756989 
2099.000000	64.756703 
2098.000000	64.757418 
2097.000000	64.758920 
2096.000000	64.760637 
2095.000000	64.761590 
2094.000000	64.760875 
2093.000000	64.757990 
2092.000000	64.752793 
2091.000000	64.745736 
2090.000000	64.737772 
2089.000000	64.729928 
2088.000000	64.723253 
2087.000000	64.718627 
2086.000000	64.716362 
2085.000000	64.716601 
2084.000000	64.718842 
2083.000000	64.722466 
2082.000000	64.726591 
2081.000000	64.730334 
2080.000000	64.732980 
2079.000000	64.734125 
2078.000000	64.733672 
2077.000000	64.731931 
2076.000000	64.729452 
2075.000000	64.727139 
2074.000000	64.725589 
2073.000000	64.725303 
2072.000000	64.726471 
2071.000000	64.729118 
2070.000000	64.732909 
2069.000000	64.737391 
2068.000000	64.741778 
2067.000000	64.745306 
2066.000000	64.747118 
2065.000000	64.746451 
2064.000000	64.743018 
2063.000000	64.736771 
2062.000000	64.728260 
2061.000000	64.718556 
2060.000000	64.708971 
2059.000000	64.701008 
2058.000000	64.695882 
2057.000000	64.694476 
2056.000000	64.696955 
2055.000000	64.702773 
2054.000000	64.710617 
2053.000000	64.718818 
2052.000000	64.725351 
2051.000000	64.728331 
2050.000000	64.726424 
2049.000000	64.719057 
2048.000000	64.706444 
2047.000000	64.689850 
2046.000000	64.670991 
2045.000000	64.652276 
2044.000000	64.636015 
2043.000000	64.624261 
2042.000000	64.618325 
2041.000000	64.618635 
2040.000000	64.624619 
2039.000000	64.634895 
2038.000000	64.647507 
2037.000000	64.660453 
2036.000000	64.671874 
2035.000000	64.680480 
2034.000000	64.685606 
2033.000000	64.687252 
2032.000000	64.685797 
2031.000000	64.681863 
2030.000000	64.676332 
2029.000000	64.670157 
2028.000000	64.664340 
2027.000000	64.659881 
2026.000000	64.657926 
2025.000000	64.659452 
2024.000000	64.665055 
2023.000000	64.675045 
2022.000000	64.688873 
2021.000000	64.705443 
2020.000000	64.722943 
2019.000000	64.739227 
2018.000000	64.752078 
2017.000000	64.759778 
2016.000000	64.761233 
2015.000000	64.756464 
2014.000000	64.746189 
2013.000000	64.731955 
2012.000000	64.715719 
2011.000000	64.699578 
2010.000000	64.685416 
2009.000000	64.674663 
2008.000000	64.668130 
2007.000000	64.666056 
2006.000000	64.668083 
2005.000000	64.673471 
2004.000000	64.680957 
2003.000000	64.689207 
2002.000000	64.697003 
2001.000000	64.703512 
2000.000000	64.708137 
1999.000000	64.710998 
1998.000000	64.712572 
1997.000000	64.713764 
1996.000000	64.715623 
1995.000000	64.718866 
1994.000000	64.723920 
1993.000000	64.730739 
1992.000000	64.738631 
1991.000000	64.746594 
1990.000000	64.753437 
1989.000000	64.758253 
1988.000000	64.760518 
1987.000000	64.760470 
1986.000000	64.758992 
1985.000000	64.757466 
1984.000000	64.757275 
1983.000000	64.759302 
1982.000000	64.763641 
1981.000000	64.769458 
1980.000000	64.775228 
1979.000000	64.778757 
1978.000000	64.777994 
1977.000000	64.771533 
1976.000000	64.759159 
1975.000000	64.741802 
1974.000000	64.721584 
1973.000000	64.701104 
1972.000000	64.682984 
1971.000000	64.669203 
1970.000000	64.660644 
1969.000000	64.657020 
1968.000000	64.656805 
1967.000000	64.657974 
1966.000000	64.658164 
1965.000000	64.655709 
1964.000000	64.649438 
1963.000000	64.639234 
1962.000000	64.625573 
1961.000000	64.609527 
1960.000000	64.592504 
1959.000000	64.575886 
1958.000000	64.561152 
1957.000000	64.549684 
1956.000000	64.542579 
1955.000000	64.540743 
1954.000000	64.544773 
1953.000000	64.554572 
1952.000000	64.569377 
1951.000000	64.587450 
1950.000000	64.606332 
1949.000000	64.623117 
1948.000000	64.635038 
1947.000000	64.639878 
1946.000000	64.636707 
1945.000000	64.625930 
1944.000000	64.609456 
1943.000000	64.590215 
1942.000000	64.571714 
1941.000000	64.557170 
1940.000000	64.548921 
1939.000000	64.548015 
1938.000000	64.554190 
1937.000000	64.565920 
1936.000000	64.580893 
1935.000000	64.596533 
1934.000000	64.610624 
1933.000000	64.621543 
1932.000000	64.628386 
1931.000000	64.631032 
1930.000000	64.629864 
1929.000000	64.625597 
1928.000000	64.619088 
1927.000000	64.611196 
1926.000000	64.602875 
1925.000000	64.594936 
1924.000000	64.588141 
1923.000000	64.583134 
1922.000000	64.580273 
1921.000000	64.579701 
1920.000000	64.581131 
1919.000000	64.583921 
1918.000000	64.587187 
1917.000000	64.590072 
1916.000000	64.591884 
1915.000000	64.592409 
1914.000000	64.591908 
1913.000000	64.591073 
1912.000000	64.590811 
1911.000000	64.592051 
1910.000000	64.595365 
1909.000000	64.600801 
1908.000000	64.607715 
1907.000000	64.615106 
1906.000000	64.621710 
1905.000000	64.626359 
1904.000000	64.628291 
1903.000000	64.627194 
1902.000000	64.623403 
1901.000000	64.617705 
1900.000000	64.610981 
1899.000000	64.604163 
1898.000000	64.597845 
1897.000000	64.592337 
1896.000000	64.587640 
1895.000000	64.583468 
1894.000000	64.579653 
1893.000000	64.575982 
1892.000000	64.572501 
1891.000000	64.569473 
1890.000000	64.567136 
1889.000000	64.565849 
1888.000000	64.565801 
1887.000000	64.567136 
1886.000000	64.569783 
1885.000000	64.573597 
1884.000000	64.578342 
1883.000000	64.583563 
1882.000000	64.588618 
1881.000000	64.592766 
1880.000000	64.595103 
1879.000000	64.594817 
1878.000000	64.591503 
1877.000000	64.585304 
1876.000000	64.576983 
1875.000000	64.567899 
1874.000000	64.559936 
1873.000000	64.554882 
1872.000000	64.554095 
1871.000000	64.558172 
1870.000000	64.566588 
1869.000000	64.577770 
1868.000000	64.589452 
1867.000000	64.599180 
1866.000000	64.604878 
1865.000000	64.605236 
1864.000000	64.600324 
1863.000000	64.591288 
1862.000000	64.580178 
1861.000000	64.569520 
1860.000000	64.561390 
1859.000000	64.557456 
1858.000000	64.558172 
1857.000000	64.563012 
1856.000000	64.570426 
1855.000000	64.578366 
1854.000000	64.584589 
1853.000000	64.587402 
1852.000000	64.586019 
1851.000000	64.580821 
1850.000000	64.573049 
1849.000000	64.564657 
1848.000000	64.557647 
1847.000000	64.553761 
1846.000000	64.553976 
1845.000000	64.558315 
1844.000000	64.565944 
1843.000000	64.575457 
1842.000000	64.585375 
1841.000000	64.594149 
1840.000000	64.600801 
1839.000000	64.604687 
1838.000000	64.605712 
1837.000000	64.603996 
1836.000000	64.599800 
1835.000000	64.593386 
1834.000000	64.584970 
1833.000000	64.574980 
1832.000000	64.563918 
1831.000000	64.552521 
1830.000000	64.541888 
1829.000000	64.532971 
1828.000000	64.526605 
1827.000000	64.523196 
1826.000000	64.522576 
1825.000000	64.524197 
1824.000000	64.527153 
1823.000000	64.530515 
1822.000000	64.533519 
1821.000000	64.535570 
1820.000000	64.536595 
1819.000000	64.536595 
1818.000000	64.535856 
1817.000000	64.534592 
1816.000000	64.532899 
1815.000000	64.530944 
1814.000000	64.528822 
1813.000000	64.526724 
1812.000000	64.525008 
1811.000000	64.524102 
1810.000000	64.524602 
1809.000000	64.526987 
1808.000000	64.531517 
1807.000000	64.538049 
1806.000000	64.546155 
1805.000000	64.555120 
1804.000000	64.564061 
1803.000000	64.572095 
1802.000000	64.578509 
1801.000000	64.582753 
1800.000000	64.584636 
1799.000000	64.584231 
1798.000000	64.581871 
1797.000000	64.578127 
1796.000000	64.573788 
1795.000000	64.569616 
1794.000000	64.566302 
1793.000000	64.564299 
1792.000000	64.563775 
1791.000000	64.564442 
1790.000000	64.565968 
1789.000000	64.567780 
1788.000000	64.569473 
1787.000000	64.570808 
1786.000000	64.571666 
1785.000000	64.572095 
1784.000000	64.572381 
1783.000000	64.572811 
1782.000000	64.573454 
1781.000000	64.574003 
1780.000000	64.574074 
1779.000000	64.572930 
1778.000000	64.569854 
1777.000000	64.564228 
1776.000000	64.555740 
1775.000000	64.544510 
1774.000000	64.531064 
1773.000000	64.516377 
1772.000000	64.501380 
1771.000000	64.486980 
1770.000000	64.473915 
1769.000000	64.462471 
1768.000000	64.452624 
1767.000000	64.443898 
1766.000000	64.436006 
1765.000000	64.428663 
1764.000000	64.422011 
1763.000000	64.416575 
1762.000000	64.413452 
1761.000000	64.413833 
1760.000000	64.418959 
1759.000000	64.429640 
1758.000000	64.446067 
1757.000000	64.467597 
1756.000000	64.492607 
1755.000000	64.518642 
1754.000000	64.542865 
1753.000000	64.562392 
1752.000000	64.574742 
1751.000000	64.578533 
1750.000000	64.573407 
1749.000000	64.560413 
1748.000000	64.541363 
1747.000000	64.518785 
1746.000000	64.495372 
1745.000000	64.473533 
1744.000000	64.454984 
1743.000000	64.440488 
1742.000000	64.430141 
1741.000000	64.423322 
1740.000000	64.418935 
1739.000000	64.415717 
1738.000000	64.412450 
1737.000000	64.408183 
1736.000000	64.402270 
1735.000000	64.394617 
1734.000000	64.385414 
1733.000000	64.375329 
1732.000000	64.365124 
1731.000000	64.355826 
1730.000000	64.348292 
1729.000000	64.343166 
1728.000000	64.340615 
1727.000000	64.340448 
1726.000000	64.341807 
1725.000000	64.343786 
1724.000000	64.345407 
1723.000000	64.346075 
1722.000000	64.345550 
1721.000000	64.344263 
1720.000000	64.343047 
1719.000000	64.343094 
1718.000000	64.345598 
1717.000000	64.351296 
1716.000000	64.360117 
1715.000000	64.371323 
1714.000000	64.383506 
1713.000000	64.394783 
1712.000000	64.403295 
1711.000000	64.407658 
1710.000000	64.407277 
1709.000000	64.402270 
1708.000000	64.393734 
1707.000000	64.383196 
1706.000000	64.372706 
1705.000000	64.364194 
1704.000000	64.359140 
1703.000000	64.358472 
1702.000000	64.362072 
1701.000000	64.369082 
1700.000000	64.377784 
1699.000000	64.386105 
1698.000000	64.392113 
1697.000000	64.394474 
1696.000000	64.392828 
1695.000000	64.387845 
1694.000000	64.381289 
1693.000000	64.375448 
1692.000000	64.372611 
1691.000000	64.374399 
1690.000000	64.381265 
1689.000000	64.392447 
1688.000000	64.405894 
1687.000000	64.419102 
1686.000000	64.429640 
1685.000000	64.436054 
1684.000000	64.438033 
1683.000000	64.436459 
1682.000000	64.433217 
1681.000000	64.430427 
1680.000000	64.429712 
1679.000000	64.431834 
1678.000000	64.436364 
1677.000000	64.442086 
1676.000000	64.447402 
1675.000000	64.450764 
1674.000000	64.451217 
1673.000000	64.448451 
1672.000000	64.443111 
1671.000000	64.436388 
1670.000000	64.429569 
1669.000000	64.423727 
1668.000000	64.419341 
1667.000000	64.416527 
1666.000000	64.414954 
1665.000000	64.414024 
1664.000000	64.413237 
1663.000000	64.412045 
1662.000000	64.410090 
1661.000000	64.407038 
1660.000000	64.402413 
1659.000000	64.395618 
1658.000000	64.386129 
1657.000000	64.373564 
1656.000000	64.358067 
1655.000000	64.340591 
1654.000000	64.322996 
1653.000000	64.307737 
1652.000000	64.297604 
1651.000000	64.295339 
1650.000000	64.303207 
1649.000000	64.322161 
1648.000000	64.351487 
1647.000000	64.388918 
1646.000000	64.430713 
1645.000000	64.472413 
1644.000000	64.509248 
1643.000000	64.537167 
1642.000000	64.553236 
1641.000000	64.556193 
1640.000000	64.546537 
1639.000000	64.526200 
1638.000000	64.498281 
1637.000000	64.466547 
1636.000000	64.434599 
1635.000000	64.405536 
1634.000000	64.381623 
1633.000000	64.364004 
1632.000000	64.352703 
1631.000000	64.346599 
1630.000000	64.343857 
1629.000000	64.342021 
1628.000000	64.338421 
1627.000000	64.330697 
1626.000000	64.317059 
1625.000000	64.296913 
1624.000000	64.270853 
1623.000000	64.241218 
1622.000000	64.211058 
1621.000000	64.184379 
1620.000000	64.164829 
1619.000000	64.155316 
1618.000000	64.157295 
1617.000000	64.170336 
1616.000000	64.192390 
1615.000000	64.220213 
1614.000000	64.249825 
1613.000000	64.277553 
1612.000000	64.300775 
1611.000000	64.318060 
1610.000000	64.329266 
1609.000000	64.335298 
1608.000000	64.337468 
1607.000000	64.337325 
1606.000000	64.335942 
1605.000000	64.333891 
1604.000000	64.331197 
1603.000000	64.327836 
1602.000000	64.323854 
1601.000000	64.319348 
1600.000000	64.314508 
1599.000000	64.309692 
1598.000000	64.305210 
1597.000000	64.301109 
1596.000000	64.297246 
1595.000000	64.293313 
1594.000000	64.289236 
1593.000000	64.285182 
1592.000000	64.281535 
1591.000000	64.279127 
1590.000000	64.278817 
1589.000000	64.281105 
1588.000000	64.285898 
1587.000000	64.292359 
1586.000000	64.298820 
1585.000000	64.303302 
1584.000000	64.303851 
1583.000000	64.299082 
1582.000000	64.288783 
1581.000000	64.274024 
1580.000000	64.257001 
1579.000000	64.240384 
1578.000000	64.227008 
1577.000000	64.218997 
1576.000000	64.217352 
1575.000000	64.221835 
1574.000000	64.230918 
1573.000000	64.242434 
1572.000000	64.254117 
1571.000000	64.264082 
1570.000000	64.271330 
1569.000000	64.275860 
1568.000000	64.278435 
1567.000000	64.280271 
1566.000000	64.282679 
1565.000000	64.286541 
1564.000000	64.292216 
1563.000000	64.299392 
1562.000000	64.307308 
1561.000000	64.314794 
1560.000000	64.320826 
1559.000000	64.324593 
1558.000000	64.325714 
1557.000000	64.324069 
1556.000000	64.319920 
1555.000000	64.313721 
1554.000000	64.306068 
1553.000000	64.297628 
1552.000000	64.289069 
1551.000000	64.281177 
1550.000000	64.274764 
1549.000000	64.270496 
1548.000000	64.268803 
1547.000000	64.269447 
1546.000000	64.271640 
1545.000000	64.273858 
1544.000000	64.274430 
1543.000000	64.271855 
1542.000000	64.265203 
1541.000000	64.254403 
1540.000000	64.240646 
1539.000000	64.225983 
1538.000000	64.213013 
1537.000000	64.204096 
1536.000000	64.200925 
1535.000000	64.204025 
1534.000000	64.212584 
1533.000000	64.224767 
1532.000000	64.237999 
1531.000000	64.249515 
1530.000000	64.257121 
1529.000000	64.259576 
1528.000000	64.256834 
1527.000000	64.249944 
1526.000000	64.240837 
1525.000000	64.231634 
1524.000000	64.224290 
1523.000000	64.220190 
1522.000000	64.219808 
1521.000000	64.223027 
1520.000000	64.229083 
1519.000000	64.236903 
1518.000000	64.245510 
1517.000000	64.253878 
1516.000000	64.261269 
1515.000000	64.267063 
1514.000000	64.270710 
1513.000000	64.271974 
1512.000000	64.270639 
1511.000000	64.267086 
1510.000000	64.261937 
1509.000000	64.256310 
1508.000000	64.251637 
1507.000000	64.249515 
1506.000000	64.251184 
1505.000000	64.257335 
1504.000000	64.268064 
1503.000000	64.282488 
1502.000000	64.299058 
1501.000000	64.315772 
1500.000000	64.330625 
1499.000000	64.341783 
1498.000000	64.348030 
1497.000000	64.348745 
1496.000000	64.344120 
1495.000000	64.334893 
1494.000000	64.322328 
1493.000000	64.307713 
1492.000000	64.292526 
1491.000000	64.278054 
1490.000000	64.265418 
1489.000000	64.255571 
1488.000000	64.248991 
1487.000000	64.245891 
1486.000000	64.246034 
1485.000000	64.248847 
1484.000000	64.253425 
1483.000000	64.258623 
1482.000000	64.263272 
1481.000000	64.266324 
1480.000000	64.267063 
1479.000000	64.264965 
1478.000000	64.260101 
1477.000000	64.252996 
1476.000000	64.244532 
1475.000000	64.235711 
1474.000000	64.227581 
1473.000000	64.220952 
1472.000000	64.216375 
1471.000000	64.213895 
1470.000000	64.213109 
1469.000000	64.213228 
1468.000000	64.213109 
1467.000000	64.211487 
1466.000000	64.207267 
1465.000000	64.199709 
1464.000000	64.188718 
1463.000000	64.175009 
1462.000000	64.160060 
1461.000000	64.146089 
1460.000000	64.135646 
1459.000000	64.130973 
1458.000000	64.133358 
1457.000000	64.142680 
1456.000000	64.157533 
1455.000000	64.175033 
1454.000000	64.191651 
1453.000000	64.203834 
1452.000000	64.208889 
1451.000000	64.205718 
1450.000000	64.194989 
1449.000000	64.179062 
1448.000000	64.161229 
1447.000000	64.145088 
1446.000000	64.133429 
1445.000000	64.127802 
1444.000000	64.128017 
1443.000000	64.132428 
1442.000000	64.138388 
1441.000000	64.143133 
1440.000000	64.144635 
1439.000000	64.141869 
1438.000000	64.135026 
1437.000000	64.125418 
1436.000000	64.115190 
1435.000000	64.106559 
1434.000000	64.101672 
1433.000000	64.101767 
1432.000000	64.107394 
1431.000000	64.118218 
1430.000000	64.133286 
1429.000000	64.151310 
1428.000000	64.170765 
1427.000000	64.190316 
1426.000000	64.208579 
1425.000000	64.224481 
1424.000000	64.236855 
1423.000000	64.244771 
1422.000000	64.247274 
1421.000000	64.243698 
1420.000000	64.234137 
1419.000000	64.219570 
1418.000000	64.201974 
1417.000000	64.184069 
1416.000000	64.169073 
1415.000000	64.160132 
1414.000000	64.159631 
1413.000000	64.168572 
1412.000000	64.186215 
1411.000000	64.210176 
1410.000000	64.236760 
1409.000000	64.261698 
1408.000000	64.281034 
1407.000000	64.291930 
1406.000000	64.293217 
1405.000000	64.285373 
1404.000000	64.270401 
1403.000000	64.251303 
1402.000000	64.231467 
1401.000000	64.213943 
1400.000000	64.201021 
1399.000000	64.193677 
1398.000000	64.191985 
1397.000000	64.194798 
1396.000000	64.200496 
1395.000000	64.206862 
1394.000000	64.211678 
1393.000000	64.212989 
1392.000000	64.209246 
1391.000000	64.199638 
1390.000000	64.184165 
1389.000000	64.163994 
1388.000000	64.141130 
1387.000000	64.118289 
1386.000000	64.098286 
1385.000000	64.083623 
1384.000000	64.075875 
1383.000000	64.075398 
1382.000000	64.081406 
1381.000000	64.092230 
1380.000000	64.105963 
1379.000000	64.120721 
1378.000000	64.135146 
1377.000000	64.148545 
1376.000000	64.160847 
1375.000000	64.172220 
1374.000000	64.182829 
1373.000000	64.192461 
1372.000000	64.200758 
1371.000000	64.207100 
1370.000000	64.211034 
1369.000000	64.212346 
1368.000000	64.211368 
1367.000000	64.208912 
1366.000000	64.205932 
1365.000000	64.203310 
1364.000000	64.201235 
1363.000000	64.199256 
1362.000000	64.196372 
1361.000000	64.191269 
1360.000000	64.182710 
1359.000000	64.169907 
1358.000000	64.152860 
1357.000000	64.132237 
1356.000000	64.109373 
1355.000000	64.085912 
1354.000000	64.063310 
1353.000000	64.042949 
1352.000000	64.025855 
1351.000000	64.012742 
1350.000000	64.004015 
1349.000000	63.999938 
1348.000000	64.000558 
1347.000000	64.005708 
1346.000000	64.014816 
1345.000000	64.026856 
1344.000000	64.040279 
1343.000000	64.053106 
1342.000000	64.063572 
1341.000000	64.070105 
1340.000000	64.071798 
1339.000000	64.068460 
1338.000000	64.060711 
1337.000000	64.049625 
1336.000000	64.036464 
1335.000000	64.022493 
1334.000000	64.008569 
1333.000000	63.995242 
1332.000000	63.982748 
1331.000000	63.971114 
1330.000000	63.960504 
1329.000000	63.951230 
1328.000000	63.944005 
1327.000000	63.939666 
1326.000000	63.939237 
1325.000000	63.943481 
1324.000000	63.953018 
1323.000000	63.968014 
1322.000000	63.988113 
1321.000000	64.012408 
1320.000000	64.039492 
1319.000000	64.067506 
1318.000000	64.094209 
1317.000000	64.117336 
1316.000000	64.135026 
1315.000000	64.146041 
1314.000000	64.150071 
1313.000000	64.147782 
1312.000000	64.140605 
1311.000000	64.130520 
1310.000000	64.119577 
1309.000000	64.109516 
1308.000000	64.101743 
1307.000000	64.096951 
1306.000000	64.095544 
1305.000000	64.097404 
1304.000000	64.102339 
1303.000000	64.110088 
1302.000000	64.120364 
1301.000000	64.132642 
1300.000000	64.146137 
1299.000000	64.159870 
1298.000000	64.172458 
1297.000000	64.182472 
1296.000000	64.188671 
1295.000000	64.190077 
1294.000000	64.186429 
1293.000000	64.178204 
1292.000000	64.166331 
1291.000000	64.152050 
1290.000000	64.136743 
1289.000000	64.121460 
1288.000000	64.107203 
1287.000000	64.094519 
1286.000000	64.083647 
1285.000000	64.074754 
1284.000000	64.068078 
1283.000000	64.063811 
1282.000000	64.062047 
1281.000000	64.062619 
1280.000000	64.065194 
1279.000000	64.068865 
1278.000000	64.072513 
1277.000000	64.074969 
1276.000000	64.075279 
1275.000000	64.072966 
1274.000000	64.068436 
1273.000000	64.062762 
1272.000000	64.057779 
1271.000000	64.055466 
1270.000000	64.057660 
1269.000000	64.065790 
1268.000000	64.080286 
1267.000000	64.100575 
1266.000000	64.124822 
1265.000000	64.150452 
1264.000000	64.174079 
1263.000000	64.192533 
1262.000000	64.203166 
1261.000000	64.204525 
1260.000000	64.196610 
1259.000000	64.180874 
1258.000000	64.159727 
1257.000000	64.136219 
1256.000000	64.113235 
1255.000000	64.093232 
1254.000000	64.077711 
1253.000000	64.067196 
1252.000000	64.061474 
1251.000000	64.059591 
1250.000000	64.060425 
1249.000000	64.062833 
1248.000000	64.065694 
1247.000000	64.068222 
1246.000000	64.069795 
1245.000000	64.070034 
1244.000000	64.068675 
1243.000000	64.065599 
1242.000000	64.060974 
1241.000000	64.055085 
1240.000000	64.048600 
1239.000000	64.042186 
1238.000000	64.036512 
1237.000000	64.031910 
1236.000000	64.028549 
1235.000000	64.025998 
1234.000000	64.023566 
1233.000000	64.020299 
1232.000000	64.015316 
1231.000000	64.007997 
1230.000000	63.998365 
1229.000000	63.986849 
1228.000000	63.974499 
1227.000000	63.962721 
1226.000000	63.953018 
1225.000000	63.946676 
1224.000000	63.944363 
1223.000000	63.946056 
1222.000000	63.951110 
1221.000000	63.958120 
1220.000000	63.965725 
1219.000000	63.972687 
1218.000000	63.978385 
1217.000000	63.982915 
1216.000000	63.987231 
1215.000000	63.992571 
1214.000000	64.000463 
1213.000000	64.012145 
1212.000000	64.028167 
1211.000000	64.048218 
1210.000000	64.070916 
1209.000000	64.094471 
1208.000000	64.116597 
1207.000000	64.135146 
1206.000000	64.148139 
1205.000000	64.154458 
1204.000000	64.153480 
1203.000000	64.145112 
1202.000000	64.129590 
1201.000000	64.107680 
1200.000000	64.080619 
1199.000000	64.050054 
1198.000000	64.018130 
1197.000000	63.987159 
1196.000000	63.959527 
1195.000000	63.937354 
1194.000000	63.921904 
1193.000000	63.913750 
1192.000000	63.912534 
1191.000000	63.917446 
1190.000000	63.926911 
1189.000000	63.939571 
1188.000000	63.954186 
1187.000000	63.970184 
1186.000000	63.987183 
1185.000000	64.005208 
1184.000000	64.024209 
1183.000000	64.044260 
1182.000000	64.064931 
1181.000000	64.085555 
1180.000000	64.105510 
1179.000000	64.124011 
1178.000000	64.140486 
1177.000000	64.154148 
1176.000000	64.164209 
1175.000000	64.169597 
1174.000000	64.169168 
1173.000000	64.161825 
1172.000000	64.146828 
1171.000000	64.124321 
1170.000000	64.095282 
1169.000000	64.061307 
1168.000000	64.024496 
1167.000000	63.987326 
1166.000000	63.952398 
1165.000000	63.922071 
1164.000000	63.898420 
1163.000000	63.882923 
1162.000000	63.876533 
1161.000000	63.878989 
1160.000000	63.889122 
1159.000000	63.904547 
1158.000000	63.922643 
1157.000000	63.940787 
1156.000000	63.956952 
1155.000000	63.969779 
1154.000000	63.978624 
1153.000000	63.983368 
1152.000000	63.984107 
1151.000000	63.980865 
1150.000000	63.973903 
1149.000000	63.963532 
1148.000000	63.950371 
1147.000000	63.935446 
1146.000000	63.919758 
1145.000000	63.904309 
1144.000000	63.889789 
1143.000000	63.876581 
1142.000000	63.864850 
1141.000000	63.854694 
1140.000000	63.846492 
1139.000000	63.840532 
1138.000000	63.836860 
1137.000000	63.835191 
1136.000000	63.834786 
1135.000000	63.834571 
1134.000000	63.833165 
1133.000000	63.829445 
1132.000000	63.822865 
1131.000000	63.813900 
1130.000000	63.803791 
1129.000000	63.794612 
1128.000000	63.788676 
1127.000000	63.788032 
1126.000000	63.794016 
1125.000000	63.806724 
1124.000000	63.824725 
1123.000000	63.845372 
1122.000000	63.865327 
1121.000000	63.881063 
1120.000000	63.889837 
1119.000000	63.890337 
1118.000000	63.883066 
1117.000000	63.870239 
1116.000000	63.855075 
1115.000000	63.841199 
1114.000000	63.831424 
1113.000000	63.827490 
1112.000000	63.829302 
1111.000000	63.835430 
1110.000000	63.843417 
1109.000000	63.850593 
1108.000000	63.854742 
1107.000000	63.854789 
1106.000000	63.850831 
1105.000000	63.844156 
1104.000000	63.836598 
1103.000000	63.830280 
1102.000000	63.826799 
1101.000000	63.826894 
1100.000000	63.830280 
1099.000000	63.835620 
1098.000000	63.841032 
1097.000000	63.844633 
1096.000000	63.844895 
1095.000000	63.841271 
1094.000000	63.834095 
1093.000000	63.824677 
1092.000000	63.814783 
1091.000000	63.806247 
1090.000000	63.800406 
1089.000000	63.798069 
1088.000000	63.799309 
1087.000000	63.803505 
1086.000000	63.809823 
1085.000000	63.817167 
1084.000000	63.824748 
1083.000000	63.831949 
1082.000000	63.838458 
1081.000000	63.844227 
1080.000000	63.849067 
1079.000000	63.852715 
1078.000000	63.854694 
1077.000000	63.854527 
1076.000000	63.851976 
1075.000000	63.847112 
1074.000000	63.840484 
1073.000000	63.832926 
1072.000000	63.825416 
1071.000000	63.819026 
1070.000000	63.814616 
1069.000000	63.812828 
1068.000000	63.813757 
1067.000000	63.817286 
1066.000000	63.822889 
1065.000000	63.829588 
1064.000000	63.836264 
1063.000000	63.841462 
1062.000000	63.843965 
1061.000000	63.842821 
1060.000000	63.837695 
1059.000000	63.829159 
1058.000000	63.818478 
1057.000000	63.807606 
1056.000000	63.798356 
1055.000000	63.792467 
1054.000000	63.790392 
1053.000000	63.791441 
1052.000000	63.793826 
1051.000000	63.794827 
1050.000000	63.791894 
1049.000000	63.783288 
1048.000000	63.768839 
1047.000000	63.750267 
1046.000000	63.730525 
1045.000000	63.713216 
1044.000000	63.701558 
1043.000000	63.697576 
1042.000000	63.701462 
1041.000000	63.711833 
1040.000000	63.726067 
1039.000000	63.741278 
1038.000000	63.754796 
1037.000000	63.765072 
1036.000000	63.771867 
1035.000000	63.776230 
1034.000000	63.780283 
1033.000000	63.786530 
1032.000000	63.797020 
1031.000000	63.812637 
1030.000000	63.833165 
1029.000000	63.856983 
1028.000000	63.881468 
1027.000000	63.903522 
1026.000000	63.920474 
1025.000000	63.930416 
1024.000000	63.932847 
1023.000000	63.928389 
1022.000000	63.918495 
1021.000000	63.905215 
1020.000000	63.890671 
1019.000000	63.876748 
1018.000000	63.864779 
1017.000000	63.855671 
1016.000000	63.850116 
1015.000000	63.848567 
1014.000000	63.851380 
1013.000000	63.858890 
1012.000000	63.871049 
1011.000000	63.887357 
1010.000000	63.906502 
1009.000000	63.926243 
1008.000000	63.943791 
1007.000000	63.956236 
1006.000000	63.961005 
1005.000000	63.956427 
1004.000000	63.942193 
1003.000000	63.919448 
1002.000000	63.890767 
1001.000000	63.859462 
1000.000000	63.829374 
999.000000	 63.804197 
998.000000	 63.786864 
997.000000	 63.779044 
996.000000	 63.781332 
995.000000	 63.792967 
994.000000	 63.812279 
993.000000	 63.836860 
992.000000	 63.864135 
991.000000	 63.891768 
990.000000	 63.917994 
989.000000	 63.941597 
988.000000	 63.962125 
987.000000	 63.979554 
986.000000	 63.994312 
985.000000	 64.006638 
984.000000	 64.016556 
983.000000	 64.023637 
982.000000	 64.027333 
981.000000	 64.026927 
980.000000	 64.022159 
979.000000	 64.013099 
978.000000	 64.000630 
977.000000	 63.985681 
976.000000	 63.969421 
975.000000	 63.952612 
974.000000	 63.935422 
973.000000	 63.917541 
972.000000	 63.898277 
971.000000	 63.877153 
970.000000	 63.854384 
969.000000	 63.831019 
968.000000	 63.808798 
967.000000	 63.789916 
966.000000	 63.776540 
965.000000	 63.770079 
964.000000	 63.770627 
963.000000	 63.776969 
962.000000	 63.786649 
961.000000	 63.796758 
960.000000	 63.804721 
959.000000	 63.808822 
958.000000	 63.808369 
957.000000	 63.803863 
956.000000	 63.796567 
955.000000	 63.787770 
954.000000	 63.778328 
953.000000	 63.768577 
952.000000	 63.758254 
951.000000	 63.746857 
950.000000	 63.734221 
949.000000	 63.720369 
948.000000	 63.706064 
947.000000	 63.692641 
946.000000	 63.681888 
945.000000	 63.675379 
944.000000	 63.674426 
943.000000	 63.679409 
942.000000	 63.689947 
941.000000	 63.704681 
940.000000	 63.721704 
939.000000	 63.739085 
938.000000	 63.755035 
937.000000	 63.768243 
936.000000	 63.778042 
935.000000	 63.784432 
934.000000	 63.787841 
933.000000	 63.788771 
932.000000	 63.787674 
931.000000	 63.784861 
930.000000	 63.780450 
929.000000	 63.774919 
928.000000	 63.768935 
927.000000	 63.763713 
926.000000	 63.761401 
925.000000	 63.764739 
924.000000	 63.776588 
923.000000	 63.798785 
922.000000	 63.831686 
921.000000	 63.873291 
920.000000	 63.919544 
919.000000	 63.964867 
918.000000	 64.003062 
917.000000	 64.029216 
916.000000	 64.040470 
915.000000	 64.037108 
914.000000	 64.022064 
913.000000	 64.000344 
912.000000	 63.977909 
911.000000	 63.959836 
910.000000	 63.949537 
909.000000	 63.947534 
908.000000	 63.951969 
907.000000	 63.959026 
906.000000	 63.964247 
905.000000	 63.963532 
904.000000	 63.954544 
903.000000	 63.936758 
902.000000	 63.911604 
901.000000	 63.881683 
900.000000	 63.849949 
899.000000	 63.818931 
898.000000	 63.790535 
897.000000	 63.765549 
896.000000	 63.744211 
895.000000	 63.726663 
894.000000	 63.713383 
893.000000	 63.705468 
892.000000	 63.704586 
891.000000	 63.712382 
890.000000	 63.729858 
889.000000	 63.756728 
888.000000	 63.790655 
887.000000	 63.827490 
886.000000	 63.861703 
885.000000	 63.887357 
884.000000	 63.899588 
883.000000	 63.895940 
882.000000	 63.876795 
881.000000	 63.845777 
880.000000	 63.808584 
879.000000	 63.771748 
878.000000	 63.741302 
877.000000	 63.721418 
876.000000	 63.713502 
875.000000	 63.716340 
874.000000	 63.726568 
873.000000	 63.739800 
872.000000	 63.751959 
871.000000	 63.760328 
870.000000	 63.763928 
869.000000	 63.763809 
868.000000	 63.762474 
867.000000	 63.763213 
866.000000	 63.768815 
865.000000	 63.781285 
864.000000	 63.801026 
863.000000	 63.826799 
862.000000	 63.856267 
861.000000	 63.885974 
860.000000	 63.912343 
859.000000	 63.932156 
858.000000	 63.943123 
857.000000	 63.944482 
856.000000	 63.936972 
855.000000	 63.922810 
854.000000	 63.905191 
853.000000	 63.887715 
852.000000	 63.873624 
851.000000	 63.865137 
850.000000	 63.863158 
849.000000	 63.867068 
848.000000	 63.874936 
847.000000	 63.884067 
846.000000	 63.891530 
845.000000	 63.894557 
844.000000	 63.891100 
843.000000	 63.879942 
842.000000	 63.861131 
841.000000	 63.835978 
840.000000	 63.806962 
839.000000	 63.776969 
838.000000	 63.749480 
837.000000	 63.727784 
836.000000	 63.714671 
835.000000	 63.711905 
834.000000	 63.720393 
833.000000	 63.739824 
832.000000	 63.768839 
831.000000	 63.805127 
830.000000	 63.845586 
829.000000	 63.886475 
828.000000	 63.924002 
827.000000	 63.954639 
826.000000	 63.975906 
825.000000	 63.986468 
824.000000	 63.986587 
823.000000	 63.977766 
822.000000	 63.962149 
821.000000	 63.941955 
820.000000	 63.918972 
819.000000	 63.894176 
818.000000	 63.867926 
817.000000	 63.840031 
816.000000	 63.810467 
815.000000	 63.779473 
814.000000	 63.747930 
813.000000	 63.717460 
812.000000	 63.689875 
811.000000	 63.667130 
810.000000	 63.650417 
809.000000	 63.640260 
808.000000	 63.636350 
807.000000	 63.637971 
806.000000	 63.644027 
805.000000	 63.653731 
804.000000	 63.666629 
803.000000	 63.682365 
802.000000	 63.700485 
801.000000	 63.720178 
800.000000	 63.739943 
799.000000	 63.757610 
798.000000	 63.770747 
797.000000	 63.776898 
796.000000	 63.774180 
795.000000	 63.761568 
794.000000	 63.739323 
793.000000	 63.708710 
792.000000	 63.671970 
791.000000	 63.632321 
790.000000	 63.593673 
789.000000	 63.559937 
788.000000	 63.534879 
787.000000	 63.521575 
786.000000	 63.521933 
785.000000	 63.536548 
784.000000	 63.564419 
783.000000	 63.602471 
782.000000	 63.646411 
781.000000	 63.691067 
780.000000	 63.731408 
779.000000	 63.763236 
778.000000	 63.784217 
777.000000	 63.794159 
776.000000	 63.794922 
775.000000	 63.789653 
774.000000	 63.781881 
773.000000	 63.774776 
772.000000	 63.769984 
771.000000	 63.767457 
770.000000	 63.765215 
769.000000	 63.760185 
768.000000	 63.748621 
767.000000	 63.727283 
766.000000	 63.693976 
765.000000	 63.648796 
764.000000	 63.593959 
763.000000	 63.534426 
762.000000	 63.476347 
761.000000	 63.426804 
760.000000	 63.392186 
759.000000	 63.377237 
758.000000	 63.384151 
757.000000	 63.412165 
756.000000	 63.457250 
755.000000	 63.513302 
754.000000	 63.572835 
753.000000	 63.628792 
752.000000	 63.675451 
751.000000	 63.709545 
750.000000	 63.730096 
749.000000	 63.738560 
748.000000	 63.737869 
747.000000	 63.731575 
746.000000	 63.722896 
745.000000	 63.713836 
744.000000	 63.705205 
743.000000	 63.696646 
742.000000	 63.687086 
741.000000	 63.675045 
740.000000	 63.658976 
739.000000	 63.637566 
738.000000	 63.610291 
737.000000	 63.577103 
736.000000	 63.539171 
735.000000	 63.498234 
734.000000	 63.457393 
733.000000	 63.420534 
732.000000	 63.392353 
731.000000	 63.377428 
730.000000	 63.379025 
729.000000	 63.398003 
728.000000	 63.432383 
727.000000	 63.476991 
726.000000	 63.524651 
725.000000	 63.567233 
724.000000	 63.597917 
723.000000	 63.612103 
722.000000	 63.609290 
721.000000	 63.592624 
720.000000	 63.568520 
719.000000	 63.544845 
718.000000	 63.529086 
717.000000	 63.526391 
716.000000	 63.538360 
715.000000	 63.562726 
714.000000	 63.593864 
713.000000	 63.624215 
712.000000	 63.646078 
711.000000	 63.653278 
710.000000	 63.642096 
709.000000	 63.612174 
708.000000	 63.566279 
707.000000	 63.510155 
706.000000	 63.451099 
705.000000	 63.396954 
704.000000	 63.354659 
703.000000	 63.328695 
702.000000	 63.320565 
701.000000	 63.328599 
700.000000	 63.348364 
699.000000	 63.374376 
698.000000	 63.401508 
697.000000	 63.426661 
696.000000	 63.448715 
695.000000	 63.469433 
694.000000	 63.492417 
693.000000	 63.521170 
692.000000	 63.557386 
691.000000	 63.599634 
690.000000	 63.643121 
689.000000	 63.680863 
688.000000	 63.705229 
687.000000	 63.710570 
686.000000	 63.695335 
685.000000	 63.662886 
684.000000	 63.620948 
683.000000	 63.579273 
682.000000	 63.546848 
681.000000	 63.529515 
680.000000	 63.528370 
679.000000	 63.539838 
678.000000	 63.556909 
677.000000	 63.572239 
676.000000	 63.579368 
675.000000	 63.575243 
674.000000	 63.559746 
673.000000	 63.535451 
672.000000	 63.505697 
671.000000	 63.472914 
670.000000	 63.437628 
669.000000	 63.398003 
668.000000	 63.351392 
667.000000	 63.295555 
666.000000	 63.230752 
665.000000	 63.160467 
664.000000	 63.091540 
663.000000	 63.032960 
662.000000	 62.992858 
661.000000	 62.976455 
660.000000	 62.984895 
659.000000	 63.015031 
658.000000	 63.060116 
657.000000	 63.112092 
656.000000	 63.163876 
655.000000	 63.211202 
654.000000	 63.254213 
653.000000	 63.296055 
652.000000	 63.340187 
651.000000	 63.388323 
650.000000	 63.439249 
649.000000	 63.488006 
648.000000	 63.526868 
647.000000	 63.547611 
646.000000	 63.543725 
645.000000	 63.513350 
644.000000	 63.460969 
643.000000	 63.396143 
642.000000	 63.331723 
641.000000	 63.280153 
640.000000	 63.251042 
639.000000	 63.247489 
638.000000	 63.265728 
637.000000	 63.294887 
636.000000	 63.320469 
635.000000	 63.327574 
634.000000	 63.305830 
633.000000	 63.251948 
632.000000	 63.172435 
631.000000	 63.082265 
630.000000	 63.003039 
629.000000	 62.959647 
628.000000	 62.974476 
627.000000	 63.062882 
626.000000	 63.227128 
625.000000	 63.456106 
624.000000	 63.724112 
623.000000	 63.996219 
622.000000	 64.233040 
621.000000	 64.399743 
620.000000	 64.471197 
619.000000	 64.437198 
618.000000	 64.303350 
617.000000	 64.089226 
616.000000	 63.824033 
615.000000	 63.540816 
614.000000	 63.270688 
613.000000	 63.038229 
612.000000	 62.859511 
611.000000	 62.742614 
610.000000	 62.687182 
609.000000	 62.687134 
608.000000	 62.731504 
607.000000	 62.806892 
606.000000	 62.896919 
605.000000	 62.984991 
604.000000	 63.053846 
603.000000	 63.089656 
602.000000	 63.084650 
601.000000	 63.039517 
600.000000	 62.964177 
599.000000	 62.874841 
598.000000	 62.790608 
597.000000	 62.727522 
596.000000	 62.694978 
595.000000	 62.692880 
594.000000	 62.712430 
593.000000	 62.739348 
592.000000	 62.757682 
591.000000	 62.756299 
590.000000	 62.732195 
589.000000	 62.692666 
588.000000	 62.652540 
587.000000	 62.630820 
586.000000	 62.644004 
585.000000	 62.701964 
584.000000	 62.804436 
583.000000	 62.939572 
582.000000	 63.085961 
581.000000	 63.218498 
580.000000	 63.314747 
579.000000	 63.358592 
578.000000	 63.344454 
577.000000	 63.277792 
576.000000	 63.173913 
575.000000	 63.054871 
574.000000	 62.943887 
573.000000	 62.861108 
572.000000	 62.818145 
571.000000	 62.816977 
570.000000	 62.849116 
569.000000	 62.898898 
568.000000	 62.948369 
567.000000	 62.981986 
566.000000	 62.992024 
565.000000	 62.979269 
564.000000	 62.954092 
563.000000	 62.931585 
562.000000	 62.928652 
561.000000	 62.957811 
560.000000	 63.024663 
559.000000	 63.125848 
558.000000	 63.250064 
557.000000	 63.381385 
556.000000	 63.502287 
555.000000	 63.597822 
554.000000	 63.658356 
553.000000	 63.681197 
552.000000	 63.669514 
551.000000	 63.630890 
550.000000	 63.574337 
549.000000	 63.508272 
548.000000	 63.440322 
547.000000	 63.375782 
546.000000	 63.318991 
545.000000	 63.272142 
544.000000	 63.236212 
543.000000	 63.210725 
542.000000	 63.193964 
541.000000	 63.183665 
540.000000	 63.176941 
539.000000	 63.171672 
538.000000	 63.165903 
537.000000	 63.160061 
536.000000	 63.155627 
535.000000	 63.156270 
534.000000	 63.165140 
533.000000	 63.186645 
532.000000	 63.224911 
531.000000	 63.282680 
530.000000	 63.360404 
529.000000	 63.454484 
528.000000	 63.557386 
527.000000	 63.657951 
526.000000	 63.743376 
525.000000	 63.801765 
524.000000	 63.824844 
523.000000	 63.809704 
522.000000	 63.759517 
521.000000	 63.683223 
520.000000	 63.593244 
519.000000	 63.503384 
518.000000	 63.425397 
517.000000	 63.367557 
516.000000	 63.332557 
515.000000	 63.318967 
514.000000	 63.320899 
513.000000	 63.330626 
512.000000	 63.339328 
511.000000	 63.339495 
510.000000	 63.325524 
509.000000	 63.293361 
508.000000	 63.242435 
507.000000	 63.174009 
506.000000	 63.093471 
505.000000	 63.008618 
504.000000	 62.930417 
503.000000	 62.871122 
502.000000	 62.841224 
501.000000	 62.847065 
500.000000	 62.889027 
499.000000	 62.961220 
498.000000	 63.052272 
497.000000	 63.147664 
496.000000	 63.232731 
495.000000	 63.295650 
494.000000	 63.329291 
493.000000	 63.332366 
492.000000	 63.308358 
491.000000	 63.264799 
490.000000	 63.210821 
489.000000	 63.155555 
488.000000	 63.106966 
487.000000	 63.070154 
486.000000	 63.046908 
485.000000	 63.036274 
484.000000	 63.036441 
483.000000	 63.045644 
482.000000	 63.062381 
481.000000	 63.087606 
480.000000	 63.123011 
479.000000	 63.173127 
478.000000	 63.243031 
477.000000	 63.337850 
476.000000	 63.459992 
475.000000	 63.608622 
474.000000	 63.778567 
473.000000	 63.960170 
472.000000	 64.140224 
471.000000	 64.304614 
470.000000	 64.440274 
469.000000	 64.537525 
468.000000	 64.591193 
467.000000	 64.601349 
466.000000	 64.572978 
465.000000	 64.513564 
464.000000	 64.433050 
463.000000	 64.343714 
462.000000	 64.258503 
461.000000	 64.190316 
460.000000	 64.149904 
459.000000	 64.145779 
458.000000	 64.181256 
457.000000	 64.254784 
456.000000	 64.358282 
455.000000	 64.478993 
454.000000	 64.599943 
453.000000	 64.703774 
452.000000	 64.773583 
451.000000	 64.795756 
450.000000	 64.762544 
449.000000	 64.673876 
448.000000	 64.537000 
447.000000	 64.365696 
446.000000	 64.176726 
445.000000	 63.986730 
444.000000	 63.810443 
443.000000	 63.658070 
442.000000	 63.532066 
441.000000	 63.427400 
440.000000	 63.334918 
439.000000	 63.244271 
438.000000	 63.143801 
437.000000	 63.026165 
436.000000	 62.892031 
435.000000	 62.749481 
434.000000	 62.609505 
433.000000	 62.485146 
432.000000	 62.384700 
431.000000	 62.314152 
430.000000	 62.272357 
429.000000	 62.258386 
428.000000	 62.271332 
427.000000	 62.314772 
426.000000	 62.395048 
425.000000	 62.520074 
424.000000	 62.697172 
423.000000	 62.923026 
422.000000	 63.180470 
421.000000	 63.437294 
420.000000	 63.650989 
419.000000	 63.777828 
418.000000	 63.783288 
417.000000	 63.647913 
416.000000	 63.370823 
415.000000	 62.978816 
414.000000	 62.515878 
413.000000	 62.024378 
412.000000	 61.536812 
411.000000	 61.067938 
410.000000	 60.619068 
409.000000	 60.187506 
408.000000	 59.775137 
407.000000	 59.393334 
406.000000	 59.065771 
405.000000	 58.830499 
404.000000	 58.722305 
403.000000	 58.752202 
402.000000	 58.905363 
401.000000	 59.146308 
400.000000	 59.411525 
399.000000	 59.616923 
398.000000	 59.680390 
397.000000	 59.540772 
396.000000	 59.174442 
395.000000	 58.594799 
394.000000	 57.880568 
393.000000	 57.161688 
392.000000	 56.603002 
391.000000	 56.366658 
390.000000	 56.589651 
389.000000	 57.344269 
388.000000	 58.618855 
387.000000	 60.304665 
386.000000	 62.206339 
385.000000	 64.066314 
384.000000	 65.634918 
383.000000	 66.693568 
382.000000	 67.081975 
381.000000	 66.718101 
380.000000	 65.633773 
379.000000	 63.931918 
378.000000	 61.773967 
377.000000	 59.325218 
376.000000	 56.759881 
375.000000	 54.200911 
374.000000	 51.719355 
373.000000	 49.341654 
372.000000	 47.104573 
371.000000	 45.025992 
370.000000	 43.118643 

