PE IR       SPECTRUM    SPECTRUM    ASCII       PEDS        1.60        
  -1
BZ4C7A~1.ASC
17/04/07
22:39:07.00
17/04/07
22:39:07.00
tln
$BZ1503107-1_t0114$<tbV0>[5.2,13.0,8.0,0.0,27,1,0]
370.000000
64









2002,4.07    
MIRTGS : RIGHTBACK : INTERNAL 2
MIR : ON : INTERNAL 2
OPTKBR

0.200000
8
8.000000
FILLER
RATIO
SPECTRUM
UNLOCKED 256

DOUBLE
64
COMBINED
1
0
0


1.000000
RATIO


1
0
TRUE
51149
0
LEFT NOT FITTED RIGHT NOT FITTED 0
NONE
NONE
15600
12.000000
4.427000
51148
TRUE
1 0 8 72 0 0 0 0 

15798.010000






#HDR
-1
-1
#GR
CM-1
%T
0.00002384185791015625
0.0
5000.000000
-1.000000
4631
8
80.765438
51.899600
#DATA
5000.000000	65.793704 
4999.000000	65.730166 
4998.000000	65.570783 
4997.000000	65.342044 
4996.000000	65.081858 
4995.000000	64.834761 
4994.000000	64.642906 
4993.000000	64.539790 
4992.000000	64.542365 
4991.000000	64.650774 
4990.000000	64.845728 
4989.000000	65.095376 
4988.000000	65.357851 
4987.000000	65.590310 
4986.000000	65.755796 
4985.000000	65.829682 
4984.000000	65.802669 
4983.000000	65.680789 
4982.000000	65.484118 
4981.000000	65.241599 
4980.000000	64.985060 
4979.000000	64.743232 
4978.000000	64.537811 
4977.000000	64.380526 
4976.000000	64.275479 
4975.000000	64.219594 
4974.000000	64.204096 
4973.000000	64.219021 
4972.000000	64.254665 
4971.000000	64.305424 
4970.000000	64.365220 
4969.000000	64.433240 
4968.000000	64.509630 
4967.000000	64.598202 
4966.000000	64.702391 
4965.000000	64.825415 
4964.000000	64.967703 
4963.000000	65.126085 
4962.000000	65.294313 
4961.000000	65.461134 
4960.000000	65.611886 
4959.000000	65.730905 
4958.000000	65.805077 
4957.000000	65.827846 
4956.000000	65.801048 
4955.000000	65.735030 
4954.000000	65.645718 
4953.000000	65.550804 
4952.000000	65.464544 
4951.000000	65.394854 
4950.000000	65.341544 
4949.000000	65.297293 
4948.000000	65.251016 
4947.000000	65.193629 
4946.000000	65.120768 
4945.000000	65.034031 
4944.000000	64.942073 
4943.000000	64.856672 
4942.000000	64.791941 
4941.000000	64.758634 
4940.000000	64.763712 
4939.000000	64.806985 
4938.000000	64.883232 
4937.000000	64.983844 
4936.000000	65.097928 
4935.000000	65.214753 
4934.000000	65.323710 
4933.000000	65.415740 
4932.000000	65.482783 
4931.000000	65.517997 
4930.000000	65.518426 
4929.000000	65.485715 
4928.000000	65.426611 
4927.000000	65.351676 
4926.000000	65.273761 
4925.000000	65.205144 
4924.000000	65.154743 
4923.000000	65.126562 
4922.000000	65.119242 
4921.000000	65.127396 
4920.000000	65.143942 
4919.000000	65.162110 
4918.000000	65.176963 
4917.000000	65.186381 
4916.000000	65.190887 
4915.000000	65.193057 
4914.000000	65.195107 
4913.000000	65.198874 
4912.000000	65.204477 
4911.000000	65.210938 
4910.000000	65.217113 
4909.000000	65.221667 
4908.000000	65.224528 
4907.000000	65.225195 
4906.000000	65.223073 
4905.000000	65.216207 
4904.000000	65.201473 
4903.000000	65.176200 
4902.000000	65.139079 
4901.000000	65.091323 
4900.000000	65.036654 
4899.000000	64.980554 
4898.000000	64.928722 
4897.000000	64.885187 
4896.000000	64.851760 
4895.000000	64.827084 
4894.000000	64.808034 
4893.000000	64.791178 
4892.000000	64.774155 
4891.000000	64.756512 
4890.000000	64.740157 
4889.000000	64.728403 
4888.000000	64.724898 
4887.000000	64.731574 
4886.000000	64.747881 
4885.000000	64.769601 
4884.000000	64.790439 
4883.000000	64.803218 
4882.000000	64.802336 
4881.000000	64.785361 
4880.000000	64.753699 
4879.000000	64.712405 
4878.000000	64.668416 
4877.000000	64.628863 
4876.000000	64.599609 
4875.000000	64.583921 
4874.000000	64.582133 
4873.000000	64.591908 
4872.000000	64.608931 
4871.000000	64.628291 
4870.000000	64.646029 
4869.000000	64.660215 
4868.000000	64.671182 
4867.000000	64.681243 
4866.000000	64.693975 
4865.000000	64.712476 
4864.000000	64.737367 
4863.000000	64.766740 
4862.000000	64.796066 
4861.000000	64.819812 
4860.000000	64.832901 
4859.000000	64.832472 
4858.000000	64.819264 
4857.000000	64.796662 
4856.000000	64.770078 
4855.000000	64.744567 
4854.000000	64.723443 
4853.000000	64.706945 
4852.000000	64.692330 
4851.000000	64.674806 
4850.000000	64.649176 
4849.000000	64.612698 
4848.000000	64.566636 
4847.000000	64.516282 
4846.000000	64.470076 
4845.000000	64.437341 
4844.000000	64.425921 
4843.000000	64.439606 
4842.000000	64.477396 
4841.000000	64.534020 
4840.000000	64.601087 
4839.000000	64.669799 
4838.000000	64.732313 
4837.000000	64.783143 
4836.000000	64.819788 
4835.000000	64.842176 
4834.000000	64.852404 
4833.000000	64.853167 
4832.000000	64.847087 
4831.000000	64.837050 
4830.000000	64.824414 
4829.000000	64.809656 
4828.000000	64.791512 
4827.000000	64.768743 
4826.000000	64.739108 
4825.000000	64.700508 
4824.000000	64.651322 
4823.000000	64.591193 
4822.000000	64.521121 
4821.000000	64.443993 
4820.000000	64.364123 
4819.000000	64.286994 
4818.000000	64.218401 
4817.000000	64.163970 
4816.000000	64.127540 
4815.000000	64.111447 
4814.000000	64.115834 
4813.000000	64.139914 
4812.000000	64.181041 
4811.000000	64.237046 
4810.000000	64.305496 
4809.000000	64.385104 
4808.000000	64.473962 
4807.000000	64.570760 
4806.000000	64.673662 
4805.000000	64.780521 
4804.000000	64.887833 
4803.000000	64.991331 
4802.000000	65.086507 
4801.000000	65.168666 
4800.000000	65.234446 
4799.000000	65.281057 
4798.000000	65.307283 
4797.000000	65.313196 
4796.000000	65.300822 
4795.000000	65.272212 
4794.000000	65.229511 
4793.000000	65.175271 
4792.000000	65.112352 
4791.000000	65.043759 
4790.000000	64.972567 
4789.000000	64.902567 
4788.000000	64.837718 
4787.000000	64.781045 
4786.000000	64.734625 
4785.000000	64.698910 
4784.000000	64.673137 
4783.000000	64.655661 
4782.000000	64.644384 
4781.000000	64.637064 
4780.000000	64.631605 
4779.000000	64.626121 
4778.000000	64.619016 
4777.000000	64.607882 
4776.000000	64.591336 
4775.000000	64.568734 
4774.000000	64.541363 
4773.000000	64.511442 
4772.000000	64.483976 
4771.000000	64.465832 
4770.000000	64.464449 
4769.000000	64.485740 
4768.000000	64.532923 
4767.000000	64.605236 
4766.000000	64.697408 
4765.000000	64.800262 
4764.000000	64.902567 
4763.000000	64.992928 
4762.000000	65.062522 
4761.000000	65.106415 
4760.000000	65.123248 
4759.000000	65.115499 
4758.000000	65.088725 
4757.000000	65.050268 
4756.000000	65.007781 
4755.000000	64.967679 
4754.000000	64.936232 
4753.000000	64.916658 
4752.000000	64.910268 
4751.000000	64.914751 
4750.000000	64.926099 
4749.000000	64.938163 
4748.000000	64.943885 
4747.000000	64.937114 
4746.000000	64.913415 
4745.000000	64.871978 
4744.000000	64.815759 
4743.000000	64.751410 
4742.000000	64.687633 
4741.000000	64.633584 
4740.000000	64.596962 
4739.000000	64.582109 
4738.000000	64.589357 
4737.000000	64.615869 
4736.000000	64.656686 
4735.000000	64.706039 
4734.000000	64.758872 
4733.000000	64.812064 
4732.000000	64.864754 
4731.000000	64.916944 
4730.000000	64.969158 
4729.000000	65.021324 
4728.000000	65.072226 
4727.000000	65.119552 
4726.000000	65.160107 
4725.000000	65.191316 
4724.000000	65.210986 
4723.000000	65.219235 
4722.000000	65.216803 
4721.000000	65.205669 
4720.000000	65.187716 
4719.000000	65.164494 
4718.000000	65.136909 
4717.000000	65.105772 
4716.000000	65.071940 
4715.000000	65.036749 
4714.000000	65.001511 
4713.000000	64.967632 
4712.000000	64.936041 
4711.000000	64.907169 
4710.000000	64.880800 
4709.000000	64.856648 
4708.000000	64.834666 
4707.000000	64.815449 
4706.000000	64.800596 
4705.000000	64.792394 
4704.000000	64.793348 
4703.000000	64.804935 
4702.000000	64.826965 
4701.000000	64.856815 
4700.000000	64.889669 
4699.000000	64.919304 
4698.000000	64.939546 
4697.000000	64.945578 
4696.000000	64.935135 
4695.000000	64.908909 
4694.000000	64.869832 
4693.000000	64.822864 
4692.000000	64.773535 
4691.000000	64.727449 
4690.000000	64.689421 
4689.000000	64.663004 
4688.000000	64.650273 
4687.000000	64.650726 
4686.000000	64.661884 
4685.000000	64.678955 
4684.000000	64.696073 
4683.000000	64.707231 
4682.000000	64.708018 
4681.000000	64.696526 
4680.000000	64.674496 
4679.000000	64.646768 
4678.000000	64.620947 
4677.000000	64.605450 
4676.000000	64.607715 
4675.000000	64.632058 
4674.000000	64.678907 
4673.000000	64.744186 
4672.000000	64.820837 
4671.000000	64.900445 
4670.000000	64.974975 
4669.000000	65.038681 
4668.000000	65.088772 
4667.000000	65.125083 
4666.000000	65.149474 
4665.000000	65.164494 
4664.000000	65.172314 
4663.000000	65.174460 
4662.000000	65.171217 
4661.000000	65.162491 
4660.000000	65.147423 
4659.000000	65.125274 
4658.000000	65.095853 
4657.000000	65.060353 
4656.000000	65.020918 
4655.000000	64.980816 
4654.000000	64.944005 
4653.000000	64.914464 
4652.000000	64.895486 
4651.000000	64.888906 
4650.000000	64.894771 
4649.000000	64.911365 
4648.000000	64.935135 
4647.000000	64.961838 
4646.000000	64.986753 
4645.000000	65.006065 
4644.000000	65.017533 
4643.000000	65.020751 
4642.000000	65.016579 
4641.000000	65.007162 
4640.000000	64.995408 
4639.000000	64.983844 
4638.000000	64.973688 
4637.000000	64.965629 
4636.000000	64.960169 
4635.000000	64.957618 
4634.000000	64.958524 
4633.000000	64.963603 
4632.000000	64.973616 
4631.000000	64.988923 
4630.000000	65.009403 
4629.000000	65.034103 
4628.000000	65.061497 
4627.000000	65.089821 
4626.000000	65.117430 
4625.000000	65.143299 
4624.000000	65.166997 
4623.000000	65.189099 
4622.000000	65.210151 
4621.000000	65.230703 
4620.000000	65.249824 
4619.000000	65.266227 
4618.000000	65.276813 
4617.000000	65.277719 
4616.000000	65.264201 
4615.000000	65.232372 
4614.000000	65.179753 
4613.000000	65.106511 
4612.000000	65.015602 
4611.000000	64.912700 
4610.000000	64.805865 
4609.000000	64.704585 
4608.000000	64.618325 
4607.000000	64.555120 
4606.000000	64.520311 
4605.000000	64.515519 
4604.000000	64.538431 
4603.000000	64.583158 
4602.000000	64.640665 
4601.000000	64.700746 
4600.000000	64.753174 
4599.000000	64.790463 
4598.000000	64.808726 
4597.000000	64.809250 
4596.000000	64.797568 
4595.000000	64.782571 
4594.000000	64.774417 
4593.000000	64.781546 
4592.000000	64.809179 
4591.000000	64.856910 
4590.000000	64.919686 
4589.000000	64.987301 
4588.000000	65.047740 
4587.000000	65.089035 
4586.000000	65.102481 
4585.000000	65.084671 
4584.000000	65.037918 
4583.000000	64.970517 
4582.000000	64.894413 
4581.000000	64.823436 
4580.000000	64.770340 
4579.000000	64.744305 
4578.000000	64.749193 
4577.000000	64.783763 
4576.000000	64.842319 
4575.000000	64.915466 
4574.000000	64.992570 
4573.000000	65.063571 
4572.000000	65.121054 
4571.000000	65.161156 
4570.000000	65.183901 
4569.000000	65.192151 
4568.000000	65.190076 
4567.000000	65.182447 
4566.000000	65.172433 
4565.000000	65.161347 
4564.000000	65.147995 
4563.000000	65.130019 
4562.000000	65.104126 
4561.000000	65.068221 
4560.000000	65.021824 
4559.000000	64.966940 
4558.000000	64.907979 
4557.000000	64.850449 
4556.000000	64.800858 
4555.000000	64.765381 
4554.000000	64.748787 
4553.000000	64.753293 
4552.000000	64.779019 
4551.000000	64.823794 
4550.000000	64.883613 
4549.000000	64.952898 
4548.000000	65.025019 
4547.000000	65.093016 
4546.000000	65.150141 
4545.000000	65.190577 
4544.000000	65.210413 
4543.000000	65.208196 
4542.000000	65.185189 
4541.000000	65.145015 
4540.000000	65.093731 
4539.000000	65.038013 
4538.000000	64.984726 
4537.000000	64.938950 
4536.000000	64.904117 
4535.000000	64.880800 
4534.000000	64.867877 
4533.000000	64.862322 
4532.000000	64.860177 
4531.000000	64.857506 
4530.000000	64.851522 
4529.000000	64.840316 
4528.000000	64.823222 
4527.000000	64.800310 
4526.000000	64.771962 
4525.000000	64.738678 
4524.000000	64.700913 
4523.000000	64.659285 
4522.000000	64.614915 
4521.000000	64.569664 
4520.000000	64.526271 
4519.000000	64.488244 
4518.000000	64.459228 
4517.000000	64.442753 
4516.000000	64.440870 
4515.000000	64.453268 
4514.000000	64.477109 
4513.000000	64.506721 
4512.000000	64.535617 
4511.000000	64.556884 
4510.000000	64.566469 
4509.000000	64.563560 
4508.000000	64.551973 
4507.000000	64.539051 
4506.000000	64.533662 
4505.000000	64.543628 
4504.000000	64.573097 
4503.000000	64.621424 
4502.000000	64.682054 
4501.000000	64.743781 
4500.000000	64.793896 
4499.000000	64.821743 
4498.000000	64.821553 
4497.000000	64.794158 
4496.000000	64.746999 
4495.000000	64.692187 
4494.000000	64.641737 
4493.000000	64.604759 
4492.000000	64.585494 
4491.000000	64.582943 
4490.000000	64.592266 
4489.000000	64.606738 
4488.000000	64.622259 
4487.000000	64.636969 
4486.000000	64.651250 
4485.000000	64.666509 
4484.000000	64.682364 
4483.000000	64.697289 
4482.000000	64.707446 
4481.000000	64.709186 
4480.000000	64.699411 
4479.000000	64.678478 
4478.000000	64.651370 
4477.000000	64.626693 
4476.000000	64.614486 
4475.000000	64.624619 
4474.000000	64.665007 
4473.000000	64.737224 
4472.000000	64.834880 
4471.000000	64.948153 
4470.000000	65.066885 
4469.000000	65.179157 
4468.000000	65.274453 
4467.000000	65.352988 
4466.000000	65.424466 
4465.000000	65.499329 
4464.000000	65.586709 
4463.000000	65.694761 
4462.000000	65.824818 
4461.000000	65.972948 
4460.000000	66.126894 
4459.000000	66.263484 
4458.000000	66.356825 
4457.000000	66.395759 
4456.000000	66.376924 
4455.000000	66.299080 
4454.000000	66.168928 
4453.000000	66.009902 
4452.000000	65.842556 
4451.000000	65.678811 
4450.000000	65.519380 
4449.000000	65.357351 
4448.000000	65.176105 
4447.000000	64.959168 
4446.000000	64.685058 
4445.000000	64.334440 
4444.000000	63.883256 
4443.000000	63.307571 
4442.000000	62.576317 
4441.000000	61.660814 
4440.000000	60.538291 
4439.000000	59.213304 
4438.000000	57.714033 
4437.000000	56.121611 
4436.000000	54.558849 
4435.000000	53.207111 
4434.000000	52.253770 
4433.000000	51.899600 
4432.000000	52.302169 
4431.000000	53.569746 
4430.000000	55.709028 
4429.000000	58.635807 
4428.000000	62.173461 
4427.000000	66.066956 
4426.000000	70.015048 
4425.000000	73.696088 
4424.000000	76.811003 
4423.000000	79.114341 
4422.000000	80.449748 
4421.000000	80.765438 
4420.000000	80.122971 
4419.000000	78.687548 
4418.000000	76.710414 
4417.000000	74.473762 
4416.000000	72.251224 
4415.000000	70.268750 
4414.000000	68.677902 
4413.000000	67.537403 
4412.000000	66.820669 
4411.000000	66.440868 
4410.000000	66.283297 
4409.000000	66.229653 
4408.000000	66.192674 
4407.000000	66.115927 
4406.000000	65.990638 
4405.000000	65.826392 
4404.000000	65.655279 
4403.000000	65.497016 
4402.000000	65.365815 
4401.000000	65.260171 
4400.000000	65.168881 
4399.000000	65.075445 
4398.000000	64.966249 
4397.000000	64.843010 
4396.000000	64.713835 
4395.000000	64.583015 
4394.000000	64.464497 
4393.000000	64.380407 
4392.000000	64.348840 
4391.000000	64.376711 
4390.000000	64.465188 
4389.000000	64.608311 
4388.000000	64.792776 
4387.000000	65.000438 
4386.000000	65.207219 
4385.000000	65.387487 
4384.000000	65.526485 
4383.000000	65.619325 
4382.000000	65.662932 
4381.000000	65.658450 
4380.000000	65.614032 
4379.000000	65.541076 
4378.000000	65.451717 
4377.000000	65.357351 
4376.000000	65.269446 
4375.000000	65.196490 
4374.000000	65.144968 
4373.000000	65.117406 
4372.000000	65.114164 
4371.000000	65.131568 
4370.000000	65.162920 
4369.000000	65.199851 
4368.000000	65.233635 
4367.000000	65.257096 
4366.000000	65.265297 
4365.000000	65.256738 
4364.000000	65.233159 
4363.000000	65.198898 
4362.000000	65.159463 
4361.000000	65.120553 
4360.000000	65.086913 
4359.000000	65.062427 
4358.000000	65.049290 
4357.000000	65.048456 
4356.000000	65.059041 
4355.000000	65.079021 
4354.000000	65.105009 
4353.000000	65.131807 
4352.000000	65.153980 
4351.000000	65.166640 
4350.000000	65.166664 
4349.000000	65.153384 
4348.000000	65.128564 
4347.000000	65.095853 
4346.000000	65.059804 
4345.000000	65.025258 
4344.000000	64.995813 
4343.000000	64.973425 
4342.000000	64.958119 
4341.000000	64.948534 
4340.000000	64.941978 
4339.000000	64.935708 
4338.000000	64.927148 
4337.000000	64.914393 
4336.000000	64.896702 
4335.000000	64.874434 
4334.000000	64.848732 
4333.000000	64.821529 
4332.000000	64.795374 
4331.000000	64.773249 
4330.000000	64.758682 
4329.000000	64.755010 
4328.000000	64.764666 
4327.000000	64.788675 
4326.000000	64.826369 
4325.000000	64.875006 
4324.000000	64.930152 
4323.000000	64.985799 
4322.000000	65.035748 
4321.000000	65.073633 
4320.000000	65.094184 
4319.000000	65.093803 
4318.000000	65.071225 
4317.000000	65.027713 
4316.000000	64.966869 
4315.000000	64.894127 
4314.000000	64.816403 
4313.000000	64.740443 
4312.000000	64.672040 
4311.000000	64.614939 
4310.000000	64.570975 
4309.000000	64.539742 
4308.000000	64.519572 
4307.000000	64.508152 
4306.000000	64.503407 
4305.000000	64.504313 
4304.000000	64.511084 
4303.000000	64.524579 
4302.000000	64.545845 
4301.000000	64.574837 
4300.000000	64.610195 
4299.000000	64.648842 
4298.000000	64.686799 
4297.000000	64.720177 
4296.000000	64.746570 
4295.000000	64.765381 
4294.000000	64.778780 
4293.000000	64.790797 
4292.000000	64.806246 
4291.000000	64.829158 
4290.000000	64.861297 
4289.000000	64.901804 
4288.000000	64.946508 
4287.000000	64.989590 
4286.000000	65.024089 
4285.000000	65.044045 
4284.000000	65.045905 
4283.000000	65.029621 
4282.000000	64.998292 
4281.000000	64.957380 
4280.000000	64.913630 
4279.000000	64.873552 
4278.000000	64.842009 
4277.000000	64.821171 
4276.000000	64.810991 
4275.000000	64.809346 
4274.000000	64.813089 
4273.000000	64.818954 
4272.000000	64.824247 
4271.000000	64.827179 
4270.000000	64.827060 
4269.000000	64.823937 
4268.000000	64.817619 
4267.000000	64.808011 
4266.000000	64.794397 
4265.000000	64.776492 
4264.000000	64.753985 
4263.000000	64.727926 
4262.000000	64.700794 
4261.000000	64.676403 
4260.000000	64.659237 
4259.000000	64.653205 
4258.000000	64.660549 
4257.000000	64.680981 
4256.000000	64.711499 
4255.000000	64.746999 
4254.000000	64.781475 
4253.000000	64.809370 
4252.000000	64.826989 
4251.000000	64.832806 
4250.000000	64.827966 
4249.000000	64.815473 
4248.000000	64.799380 
4247.000000	64.783072 
4246.000000	64.768671 
4245.000000	64.756989 
4244.000000	64.747381 
4243.000000	64.738607 
4242.000000	64.729523 
4241.000000	64.719891 
4240.000000	64.710402 
4239.000000	64.702677 
4238.000000	64.698934 
4237.000000	64.700889 
4236.000000	64.709806 
4235.000000	64.725828 
4234.000000	64.748239 
4233.000000	64.775609 
4232.000000	64.806008 
4231.000000	64.837217 
4230.000000	64.867210 
4229.000000	64.894223 
4228.000000	64.917039 
4227.000000	64.935135 
4226.000000	64.948797 
4225.000000	64.959120 
4224.000000	64.968061 
4223.000000	64.978027 
4222.000000	64.991450 
4221.000000	65.009975 
4220.000000	65.034508 
4219.000000	65.064215 
4218.000000	65.096950 
4217.000000	65.129303 
4216.000000	65.157127 
4215.000000	65.176582 
4214.000000	65.185117 
4213.000000	65.181899 
4212.000000	65.168190 
4211.000000	65.146970 
4210.000000	65.122485 
4209.000000	65.099096 
4208.000000	65.080857 
4207.000000	65.070319 
4206.000000	65.068364 
4205.000000	65.073966 
4204.000000	65.084862 
4203.000000	65.097808 
4202.000000	65.109491 
4201.000000	65.117025 
4200.000000	65.118432 
4199.000000	65.112614 
4198.000000	65.099239 
4197.000000	65.079092 
4196.000000	65.053796 
4195.000000	65.025472 
4194.000000	64.996719 
4193.000000	64.970731 
4192.000000	64.950942 
4191.000000	64.940476 
4190.000000	64.941644 
4189.000000	64.955592 
4188.000000	64.981794 
4187.000000	65.017580 
4186.000000	65.058755 
4185.000000	65.099859 
4184.000000	65.135312 
4183.000000	65.160250 
4182.000000	65.171861 
4181.000000	65.170097 
4180.000000	65.157318 
4179.000000	65.138220 
4178.000000	65.118074 
4177.000000	65.101790 
4176.000000	65.092396 
4175.000000	65.090560 
4174.000000	65.094280 
4173.000000	65.099716 
4172.000000	65.102148 
4171.000000	65.097498 
4170.000000	65.083003 
4169.000000	65.058183 
4168.000000	65.024518 
4167.000000	64.985322 
4166.000000	64.944553 
4165.000000	64.906096 
4164.000000	64.873170 
4163.000000	64.847803 
4162.000000	64.830851 
4161.000000	64.822077 
4160.000000	64.820837 
4159.000000	64.826178 
4158.000000	64.837026 
4157.000000	64.852428 
4156.000000	64.871001 
4155.000000	64.891099 
4154.000000	64.910364 
4153.000000	64.926314 
4152.000000	64.936304 
4151.000000	64.938068 
4150.000000	64.930438 
4149.000000	64.913415 
4148.000000	64.888501 
4147.000000	64.858365 
4146.000000	64.826607 
4145.000000	64.797019 
4144.000000	64.773130 
4143.000000	64.757394 
4142.000000	64.751100 
4141.000000	64.754295 
4140.000000	64.765977 
4139.000000	64.784145 
4138.000000	64.806509 
4137.000000	64.830636 
4136.000000	64.854431 
4135.000000	64.875912 
4134.000000	64.893794 
4133.000000	64.907121 
4132.000000	64.915990 
4131.000000	64.920949 
4130.000000	64.923143 
4129.000000	64.924311 
4128.000000	64.926171 
4127.000000	64.930248 
4126.000000	64.937329 
4125.000000	64.947128 
4124.000000	64.958310 
4123.000000	64.968705 
4122.000000	64.975666 
4121.000000	64.976835 
4120.000000	64.970922 
4119.000000	64.958047 
4118.000000	64.939951 
4117.000000	64.919853 
4116.000000	64.901947 
4115.000000	64.890646 
4114.000000	64.889693 
4113.000000	64.901232 
4112.000000	64.925503 
4111.000000	64.960575 
4110.000000	65.003085 
4109.000000	65.048646 
4108.000000	65.092444 
4107.000000	65.130281 
4106.000000	65.159010 
4105.000000	65.176773 
4104.000000	65.182971 
4103.000000	65.178155 
4102.000000	65.163612 
4101.000000	65.141129 
4100.000000	65.113186 
4099.000000	65.082430 
4098.000000	65.051889 
4097.000000	65.024471 
4096.000000	65.003108 
4095.000000	64.989852 
4094.000000	64.985728 
4093.000000	64.989948 
4092.000000	65.000128 
4091.000000	65.012478 
4090.000000	65.022587 
4089.000000	65.026426 
4088.000000	65.021657 
4087.000000	65.008115 
4086.000000	64.988422 
4085.000000	64.967107 
4084.000000	64.950084 
4083.000000	64.943051 
4082.000000	64.950013 
4081.000000	64.972615 
4080.000000	65.009355 
4079.000000	65.056109 
4078.000000	65.106534 
4077.000000	65.153884 
4076.000000	65.191698 
4075.000000	65.215206 
4074.000000	65.221714 
4073.000000	65.211129 
4072.000000	65.185475 
4071.000000	65.148401 
4070.000000	65.104341 
4069.000000	65.057897 
4068.000000	65.013384 
4067.000000	64.974617 
4066.000000	64.944839 
4065.000000	64.926576 
4064.000000	64.921498 
4063.000000	64.930295 
4062.000000	64.952301 
4061.000000	64.985489 
4060.000000	65.026283 
4059.000000	65.070033 
4058.000000	65.111827 
4057.000000	65.147256 
4056.000000	65.172958 
4055.000000	65.187168 
4054.000000	65.189909 
4053.000000	65.182542 
4052.000000	65.167617 
4051.000000	65.147900 
4050.000000	65.126013 
4049.000000	65.104007 
4048.000000	65.083408 
4047.000000	65.065121 
4046.000000	65.050077 
4045.000000	65.038895 
4044.000000	65.032291 
4043.000000	65.030765 
4042.000000	65.034580 
4041.000000	65.043306 
4040.000000	65.055823 
4039.000000	65.070295 
4038.000000	65.084266 
4037.000000	65.095305 
4036.000000	65.101480 
4035.000000	65.101289 
4034.000000	65.093874 
4033.000000	65.079236 
4032.000000	65.058183 
4031.000000	65.032219 
4030.000000	65.003228 
4029.000000	64.973354 
4028.000000	64.944529 
4027.000000	64.918494 
4026.000000	64.896512 
4025.000000	64.879059 
4024.000000	64.866161 
4023.000000	64.857506 
4022.000000	64.852595 
4021.000000	64.850974 
4020.000000	64.852190 
4019.000000	64.855766 
4018.000000	64.861416 
4017.000000	64.868760 
4016.000000	64.877533 
4015.000000	64.887285 
4014.000000	64.897871 
4013.000000	64.909100 
4012.000000	64.921188 
4011.000000	64.934229 
4010.000000	64.948558 
4009.000000	64.964437 
4008.000000	64.981889 
4007.000000	65.000510 
4006.000000	65.019369 
4005.000000	65.036940 
4004.000000	65.051579 
4003.000000	65.061473 
4002.000000	65.065312 
4001.000000	65.062355 
4000.000000	65.052437 
3999.000000	65.036535 
3998.000000	65.016222 
3997.000000	64.993953 
3996.000000	64.972496 
3995.000000	64.954686 
3994.000000	64.942765 
3993.000000	64.938044 
3992.000000	64.940524 
3991.000000	64.949083 
3990.000000	64.961409 
3989.000000	64.974951 
3988.000000	64.987325 
3987.000000	64.996981 
3986.000000	65.003466 
3985.000000	65.007305 
3984.000000	65.009617 
3983.000000	65.011429 
3982.000000	65.013575 
3981.000000	65.015888 
3980.000000	65.017390 
3979.000000	65.016818 
3978.000000	65.013170 
3977.000000	65.006303 
3976.000000	64.997076 
3975.000000	64.987492 
3974.000000	64.979648 
3973.000000	64.975357 
3972.000000	64.974904 
3971.000000	64.976835 
3970.000000	64.978146 
3969.000000	64.975094 
3968.000000	64.964008 
3967.000000	64.942717 
3966.000000	64.910960 
3965.000000	64.870834 
3964.000000	64.826440 
3963.000000	64.782810 
3962.000000	64.745259 
3961.000000	64.718103 
3960.000000	64.704275 
3959.000000	64.704799 
3958.000000	64.719343 
3957.000000	64.746594 
3956.000000	64.784622 
3955.000000	64.831089 
3954.000000	64.883470 
3953.000000	64.938974 
3952.000000	64.994335 
3951.000000	65.046048 
3950.000000	65.090560 
3949.000000	65.124511 
3948.000000	65.145778 
3947.000000	65.153145 
3946.000000	65.146899 
3945.000000	65.128254 
3944.000000	65.099692 
3943.000000	65.064096 
3942.000000	65.024709 
3941.000000	64.984536 
3940.000000	64.946579 
3939.000000	64.913320 
3938.000000	64.886498 
3937.000000	64.867019 
3936.000000	64.855217 
3935.000000	64.850521 
3934.000000	64.851379 
3933.000000	64.855861 
3932.000000	64.861750 
3931.000000	64.866995 
3930.000000	64.870023 
3929.000000	64.870047 
3928.000000	64.867210 
3927.000000	64.862418 
3926.000000	64.857363 
3925.000000	64.853429 
3924.000000	64.851880 
3923.000000	64.853310 
3922.000000	64.857816 
3921.000000	64.864730 
3920.000000	64.872956 
3919.000000	64.881157 
3918.000000	64.888191 
3917.000000	64.893221 
3916.000000	64.896130 
3915.000000	64.897060 
3914.000000	64.897012 
3913.000000	64.897346 
3912.000000	64.899921 
3911.000000	64.906525 
3910.000000	64.918661 
3909.000000	64.937329 
3908.000000	64.962625 
3907.000000	64.993643 
3906.000000	65.028166 
3905.000000	65.063166 
3904.000000	65.094804 
3903.000000	65.119290 
3902.000000	65.133237 
3901.000000	65.134572 
3900.000000	65.122890 
3899.000000	65.099906 
3898.000000	65.069007 
3897.000000	65.034866 
3896.000000	65.002822 
3895.000000	64.977812 
3894.000000	64.963841 
3893.000000	64.963221 
3892.000000	64.976763 
3891.000000	65.003609 
3890.000000	65.041685 
3889.000000	65.087723 
3888.000000	65.138006 
3887.000000	65.188360 
3886.000000	65.234375 
3885.000000	65.271902 
3884.000000	65.297317 
3883.000000	65.307998 
3882.000000	65.302729 
3881.000000	65.281891 
3880.000000	65.247821 
3879.000000	65.204215 
3878.000000	65.156102 
3877.000000	65.108442 
3876.000000	65.065336 
3875.000000	65.029382 
3874.000000	65.001201 
3873.000000	64.979720 
3872.000000	64.962863 
3871.000000	64.948034 
3870.000000	64.933395 
3869.000000	64.918065 
3868.000000	64.902877 
3867.000000	64.889430 
3866.000000	64.880251 
3865.000000	64.877438 
3864.000000	64.882254 
3863.000000	64.894580 
3862.000000	64.912581 
3861.000000	64.933133 
3860.000000	64.952278 
3859.000000	64.966177 
3858.000000	64.972281 
3857.000000	64.970064 
3856.000000	64.961147 
3855.000000	64.948773 
3854.000000	64.937281 
3853.000000	64.930820 
3852.000000	64.932417 
3851.000000	64.942955 
3850.000000	64.961075 
3849.000000	64.983487 
3848.000000	65.005874 
3847.000000	65.024065 
3846.000000	65.034794 
3845.000000	65.036749 
3844.000000	65.030455 
3843.000000	65.018534 
3842.000000	65.004348 
3841.000000	64.991760 
3840.000000	64.984059 
3839.000000	64.983463 
3838.000000	64.990973 
3837.000000	65.005993 
3836.000000	65.027475 
3835.000000	65.053391 
3834.000000	65.081262 
3833.000000	65.108275 
3832.000000	65.131735 
3831.000000	65.149307 
3830.000000	65.159010 
3829.000000	65.159869 
3828.000000	65.152168 
3827.000000	65.137457 
3826.000000	65.118455 
3825.000000	65.098595 
3824.000000	65.081310 
3823.000000	65.068769 
3822.000000	65.061593 
3821.000000	65.058135 
3820.000000	65.055346 
3819.000000	65.049123 
3818.000000	65.035772 
3817.000000	65.012884 
3816.000000	64.980673 
3815.000000	64.942264 
3814.000000	64.903688 
3813.000000	64.871764 
3812.000000	64.853525 
3811.000000	64.854073 
3810.000000	64.876008 
3809.000000	64.918136 
3808.000000	64.976263 
3807.000000	65.043926 
3806.000000	65.113782 
3805.000000	65.179157 
3804.000000	65.235018 
3803.000000	65.278649 
3802.000000	65.309667 
3801.000000	65.329408 
3800.000000	65.340113 
3799.000000	65.344381 
3798.000000	65.344309 
3797.000000	65.341424 
3796.000000	65.336680 
3795.000000	65.330410 
3794.000000	65.322661 
3793.000000	65.313363 
3792.000000	65.302062 
3791.000000	65.287685 
3790.000000	65.268826 
3789.000000	65.243768 
3788.000000	65.211081 
3787.000000	65.170168 
3786.000000	65.121722 
3785.000000	65.068101 
3784.000000	65.013313 
3783.000000	64.962458 
3782.000000	64.920854 
3781.000000	64.893198 
3780.000000	64.882254 
3779.000000	64.888787 
3778.000000	64.910960 
3777.000000	64.945006 
3776.000000	64.985728 
3775.000000	65.027523 
3774.000000	65.065026 
3773.000000	65.094113 
3772.000000	65.112519 
3771.000000	65.119433 
3770.000000	65.115284 
3769.000000	65.101265 
3768.000000	65.078878 
3767.000000	65.049862 
3766.000000	65.015840 
3765.000000	64.978384 
3764.000000	64.939188 
3763.000000	64.900231 
3762.000000	64.863514 
3761.000000	64.831018 
3760.000000	64.804220 
3759.000000	64.783978 
3758.000000	64.770722 
3757.000000	64.764094 
3756.000000	64.763593 
3755.000000	64.768719 
3754.000000	64.779210 
3753.000000	64.794707 
3752.000000	64.814782 
3751.000000	64.838743 
3750.000000	64.865088 
3749.000000	64.891290 
3748.000000	64.914250 
3747.000000	64.930796 
3746.000000	64.938330 
3745.000000	64.935469 
3744.000000	64.922666 
3743.000000	64.902114 
3742.000000	64.877629 
3741.000000	64.853858 
3740.000000	64.835166 
3739.000000	64.824795 
3738.000000	64.824247 
3737.000000	64.833021 
3736.000000	64.849162 
3735.000000	64.869856 
3734.000000	64.892053 
3733.000000	64.913272 
3732.000000	64.932084 
3731.000000	64.948034 
3730.000000	64.961218 
3729.000000	64.972138 
3728.000000	64.981102 
3727.000000	64.988303 
3726.000000	64.993596 
3725.000000	64.997053 
3724.000000	64.999175 
3723.000000	65.000915 
3722.000000	65.003824 
3721.000000	65.009450 
3720.000000	65.018987 
3719.000000	65.032315 
3718.000000	65.048050 
3717.000000	65.063452 
3716.000000	65.075016 
3715.000000	65.079545 
3714.000000	65.075063 
3713.000000	65.061569 
3712.000000	65.041184 
3711.000000	65.017843 
3710.000000	64.996290 
3709.000000	64.980983 
3708.000000	64.974975 
3707.000000	64.979314 
3706.000000	64.992785 
3705.000000	65.012598 
3704.000000	65.034866 
3703.000000	65.055847 
3702.000000	65.072441 
3701.000000	65.082764 
3700.000000	65.086388 
3699.000000	65.083980 
3698.000000	65.077209 
3697.000000	65.067791 
3696.000000	65.057516 
3695.000000	65.047812 
3694.000000	65.039920 
3693.000000	65.034937 
3692.000000	65.033555 
3691.000000	65.036177 
3690.000000	65.042543 
3689.000000	65.051913 
3688.000000	65.062594 
3687.000000	65.072154 
3686.000000	65.077829 
3685.000000	65.077090 
3684.000000	65.068244 
3683.000000	65.051269 
3682.000000	65.027880 
3681.000000	65.001368 
3680.000000	64.976310 
3679.000000	64.957451 
3678.000000	64.948821 
3677.000000	64.952301 
3676.000000	64.967298 
3675.000000	64.990687 
3674.000000	65.017390 
3673.000000	65.041899 
3672.000000	65.059328 
3671.000000	65.066957 
3670.000000	65.064597 
3669.000000	65.054821 
3668.000000	65.041923 
3667.000000	65.030908 
3666.000000	65.025973 
3665.000000	65.029740 
3664.000000	65.042495 
3663.000000	65.062379 
3662.000000	65.086150 
3661.000000	65.109682 
3660.000000	65.129256 
3659.000000	65.141916 
3658.000000	65.146207 
3657.000000	65.141892 
3656.000000	65.129947 
3655.000000	65.111923 
3654.000000	65.089559 
3653.000000	65.064644 
3652.000000	65.038967 
3651.000000	65.014314 
3650.000000	64.992499 
3649.000000	64.975404 
3648.000000	64.964795 
3647.000000	64.962124 
3646.000000	64.968204 
3645.000000	64.983129 
3644.000000	65.005755 
3643.000000	65.033984 
3642.000000	65.064764 
3641.000000	65.094685 
3640.000000	65.120506 
3639.000000	65.139555 
3638.000000	65.150523 
3637.000000	65.153503 
3636.000000	65.149974 
3635.000000	65.142583 
3634.000000	65.134048 
3633.000000	65.126585 
3632.000000	65.121245 
3631.000000	65.117812 
3630.000000	65.114903 
3629.000000	65.110778 
3628.000000	65.103745 
3627.000000	65.092921 
3626.000000	65.078735 
3625.000000	65.062808 
3624.000000	65.047311 
3623.000000	65.034580 
3622.000000	65.026021 
3621.000000	65.022015 
3620.000000	65.021300 
3619.000000	65.021800 
3618.000000	65.021252 
3617.000000	65.018105 
3616.000000	65.012097 
3615.000000	65.004754 
3614.000000	64.998865 
3613.000000	64.997982 
3612.000000	65.005230 
3611.000000	65.022182 
3610.000000	65.048360 
3609.000000	65.081119 
3608.000000	65.115952 
3607.000000	65.147542 
3606.000000	65.170836 
3605.000000	65.182256 
3604.000000	65.180468 
3603.000000	65.166378 
3602.000000	65.142798 
3601.000000	65.113759 
3600.000000	65.083217 
3599.000000	65.054297 
3598.000000	65.028452 
3597.000000	65.005707 
3596.000000	64.984512 
3595.000000	64.962697 
3594.000000	64.938068 
3593.000000	64.909291 
3592.000000	64.876580 
3591.000000	64.841437 
3590.000000	64.806985 
3589.000000	64.776754 
3588.000000	64.754748 
3587.000000	64.743971 
3586.000000	64.746499 
3585.000000	64.762473 
3584.000000	64.790606 
3583.000000	64.828252 
3582.000000	64.871883 
3581.000000	64.917492 
3580.000000	64.961242 
3579.000000	64.999771 
3578.000000	65.030574 
3577.000000	65.052151 
3576.000000	65.064215 
3575.000000	65.067625 
3574.000000	65.064048 
3573.000000	65.055656 
3572.000000	65.044999 
3571.000000	65.034151 
3570.000000	65.024924 
3569.000000	65.018343 
3568.000000	65.014696 
3567.000000	65.013384 
3566.000000	65.013456 
3565.000000	65.013575 
3564.000000	65.012454 
3563.000000	65.008974 
3562.000000	65.002346 
3561.000000	64.992213 
3560.000000	64.978528 
3559.000000	64.961671 
3558.000000	64.942479 
3557.000000	64.922142 
3556.000000	64.902114 
3555.000000	64.883995 
3554.000000	64.869356 
3553.000000	64.859461 
3552.000000	64.854860 
3551.000000	64.855289 
3550.000000	64.859867 
3549.000000	64.867234 
3548.000000	64.876270 
3547.000000	64.886021 
3546.000000	64.895868 
3545.000000	64.905691 
3544.000000	64.915418 
3543.000000	64.924836 
3542.000000	64.933109 
3541.000000	64.938497 
3540.000000	64.938783 
3539.000000	64.931583 
3538.000000	64.915180 
3537.000000	64.889264 
3536.000000	64.855313 
3535.000000	64.816713 
3534.000000	64.778208 
3533.000000	64.744877 
3532.000000	64.721369 
3531.000000	64.710664 
3530.000000	64.713859 
3529.000000	64.730167 
3528.000000	64.757013 
3527.000000	64.790940 
3526.000000	64.827775 
3525.000000	64.863395 
3524.000000	64.894247 
3523.000000	64.917850 
3522.000000	64.933109 
3521.000000	64.940476 
3520.000000	64.941787 
3519.000000	64.939951 
3518.000000	64.938330 
3517.000000	64.939785 
3516.000000	64.946436 
3515.000000	64.958477 
3514.000000	64.974594 
3513.000000	64.991784 
3512.000000	65.006589 
3511.000000	65.015435 
3510.000000	65.015864 
3509.000000	65.006828 
3508.000000	64.989399 
3507.000000	64.966058 
3506.000000	64.940023 
3505.000000	64.914703 
3504.000000	64.892935 
3503.000000	64.876699 
3502.000000	64.866924 
3501.000000	64.863896 
3500.000000	64.867496 
3499.000000	64.877319 
3498.000000	64.892673 
3497.000000	64.912247 
3496.000000	64.934134 
3495.000000	64.955711 
3494.000000	64.974093 
3493.000000	64.986062 
3492.000000	64.989042 
3491.000000	64.981889 
3490.000000	64.965343 
3489.000000	64.941930 
3488.000000	64.915847 
3487.000000	64.891910 
3486.000000	64.875054 
3485.000000	64.868664 
3484.000000	64.874577 
3483.000000	64.892578 
3482.000000	64.920783 
3481.000000	64.956259 
3480.000000	64.995598 
3479.000000	65.035557 
3478.000000	65.073466 
3477.000000	65.107369 
3476.000000	65.135717 
3475.000000	65.157341 
3474.000000	65.171217 
3473.000000	65.176367 
3472.000000	65.172171 
3471.000000	65.158414 
3470.000000	65.135741 
3469.000000	65.105819 
3468.000000	65.071201 
3467.000000	65.034842 
3466.000000	64.999866 
3465.000000	64.968872 
3464.000000	64.943456 
3463.000000	64.924073 
3462.000000	64.909934 
3461.000000	64.899635 
3460.000000	64.891171 
3459.000000	64.882850 
3458.000000	64.873528 
3457.000000	64.863228 
3456.000000	64.852786 
3455.000000	64.844036 
3454.000000	64.838910 
3453.000000	64.839267 
3452.000000	64.846110 
3451.000000	64.859175 
3450.000000	64.876985 
3449.000000	64.896845 
3448.000000	64.915585 
3447.000000	64.929938 
3446.000000	64.937305 
3445.000000	64.936423 
3444.000000	64.927530 
3443.000000	64.912366 
3442.000000	64.893746 
3441.000000	64.875125 
3440.000000	64.860010 
3439.000000	64.851307 
3438.000000	64.850783 
3437.000000	64.859151 
3436.000000	64.875841 
3435.000000	64.899492 
3434.000000	64.927959 
3433.000000	64.958548 
3432.000000	64.988374 
3431.000000	65.014481 
3430.000000	65.034389 
3429.000000	65.045881 
3428.000000	65.048027 
3427.000000	65.040993 
3426.000000	65.026545 
3425.000000	65.007662 
3424.000000	64.988327 
3423.000000	64.972949 
3422.000000	64.965653 
3421.000000	64.969372 
3420.000000	64.984941 
3419.000000	65.010976 
3418.000000	65.043759 
3417.000000	65.077948 
3416.000000	65.107393 
3415.000000	65.126323 
3414.000000	65.130662 
3413.000000	65.118694 
3412.000000	65.091466 
3411.000000	65.052366 
3410.000000	65.006613 
3409.000000	64.960050 
3408.000000	64.918041 
3407.000000	64.884805 
3406.000000	64.862608 
3405.000000	64.852142 
3404.000000	64.852595 
3403.000000	64.862585 
3402.000000	64.880681 
3401.000000	64.905858 
3400.000000	64.937019 
3399.000000	64.973187 
3398.000000	65.012884 
3397.000000	65.053653 
3396.000000	65.092134 
3395.000000	65.124201 
3394.000000	65.145659 
3393.000000	65.153145 
3392.000000	65.145063 
3391.000000	65.121674 
3390.000000	65.085268 
3389.000000	65.039825 
3388.000000	64.990282 
3387.000000	64.941406 
3386.000000	64.897060 
3385.000000	64.859747 
3384.000000	64.830660 
3383.000000	64.809942 
3382.000000	64.797019 
3381.000000	64.791083 
3380.000000	64.791464 
3379.000000	64.797353 
3378.000000	64.807915 
3377.000000	64.821743 
3376.000000	64.837384 
3375.000000	64.852499 
3374.000000	64.865136 
3373.000000	64.873456 
3372.000000	64.876532 
3371.000000	64.874458 
3370.000000	64.868354 
3369.000000	64.860010 
3368.000000	64.851713 
3367.000000	64.845561 
3366.000000	64.843273 
3365.000000	64.845705 
3364.000000	64.853286 
3363.000000	64.866089 
3362.000000	64.883875 
3361.000000	64.906191 
3360.000000	64.932298 
3359.000000	64.961051 
3358.000000	64.990735 
3357.000000	65.019011 
3356.000000	65.043115 
3355.000000	65.060162 
3354.000000	65.068173 
3353.000000	65.066194 
3352.000000	65.054845 
3351.000000	65.035963 
3350.000000	65.012693 
3349.000000	64.988756 
3348.000000	64.967560 
3347.000000	64.951515 
3346.000000	64.941930 
3345.000000	64.938330 
3344.000000	64.939260 
3343.000000	64.942336 
3342.000000	64.945197 
3341.000000	64.945745 
3340.000000	64.942765 
3339.000000	64.935970 
3338.000000	64.925694 
3337.000000	64.912724 
3336.000000	64.897847 
3335.000000	64.881920 
3334.000000	64.865350 
3333.000000	64.848446 
3332.000000	64.831376 
3331.000000	64.814281 
3330.000000	64.797663 
3329.000000	64.782238 
3328.000000	64.768981 
3327.000000	64.758801 
3326.000000	64.752626 
3325.000000	64.750957 
3324.000000	64.754319 
3323.000000	64.762568 
3322.000000	64.775109 
3321.000000	64.790940 
3320.000000	64.808583 
3319.000000	64.826107 
3318.000000	64.841508 
3317.000000	64.852714 
3316.000000	64.858078 
3315.000000	64.856576 
3314.000000	64.847946 
3313.000000	64.832901 
3312.000000	64.813017 
3311.000000	64.790678 
3310.000000	64.768695 
3309.000000	64.749789 
3308.000000	64.736199 
3307.000000	64.729499 
3306.000000	64.730143 
3305.000000	64.737749 
3304.000000	64.751005 
3303.000000	64.768147 
3302.000000	64.786934 
3301.000000	64.805483 
3300.000000	64.822292 
3299.000000	64.836692 
3298.000000	64.848589 
3297.000000	64.858508 
3296.000000	64.867305 
3295.000000	64.875411 
3294.000000	64.882540 
3293.000000	64.887595 
3292.000000	64.888811 
3291.000000	64.884352 
3290.000000	64.873051 
3289.000000	64.854907 
3288.000000	64.831566 
3287.000000	64.806199 
3286.000000	64.782810 
3285.000000	64.765405 
3284.000000	64.756774 
3283.000000	64.757847 
3282.000000	64.767336 
3281.000000	64.781951 
3280.000000	64.797282 
3279.000000	64.809012 
3278.000000	64.814114 
3277.000000	64.811515 
3276.000000	64.802479 
3275.000000	64.790010 
3274.000000	64.778065 
3273.000000	64.770221 
3272.000000	64.768981 
3271.000000	64.775228 
3270.000000	64.788174 
3269.000000	64.805841 
3268.000000	64.825391 
3267.000000	64.844369 
3266.000000	64.860868 
3265.000000	64.873933 
3264.000000	64.883708 
3263.000000	64.891004 
3262.000000	64.896965 
3261.000000	64.902520 
3260.000000	64.908170 
3259.000000	64.913749 
3258.000000	64.918375 
3257.000000	64.920902 
3256.000000	64.919972 
3255.000000	64.914393 
3254.000000	64.903545 
3253.000000	64.887595 
3252.000000	64.867377 
3251.000000	64.844226 
3250.000000	64.820003 
3249.000000	64.796495 
3248.000000	64.775204 
3247.000000	64.756965 
3246.000000	64.742016 
3245.000000	64.730191 
3244.000000	64.721131 
3243.000000	64.714741 
3242.000000	64.711308 
3241.000000	64.711427 
3240.000000	64.715743 
3239.000000	64.724564 
3238.000000	64.737272 
3237.000000	64.752578 
3236.000000	64.768195 
3235.000000	64.781451 
3234.000000	64.789581 
3233.000000	64.790749 
3232.000000	64.784431 
3231.000000	64.771890 
3230.000000	64.755749 
3229.000000	64.739513 
3228.000000	64.726781 
3227.000000	64.720535 
3226.000000	64.722394 
3225.000000	64.732456 
3224.000000	64.749288 
3223.000000	64.770555 
3222.000000	64.793610 
3221.000000	64.815855 
3220.000000	64.835596 
3219.000000	64.851927 
3218.000000	64.865064 
3217.000000	64.875888 
3216.000000	64.885759 
3215.000000	64.895987 
3214.000000	64.907360 
3213.000000	64.919996 
3212.000000	64.932990 
3211.000000	64.944744 
3210.000000	64.952969 
3209.000000	64.955449 
3208.000000	64.950180 
3207.000000	64.936089 
3206.000000	64.913487 
3205.000000	64.884138 
3204.000000	64.851140 
3203.000000	64.818358 
3202.000000	64.789962 
3201.000000	64.769673 
3200.000000	64.760088 
3199.000000	64.762139 
3198.000000	64.775228 
3197.000000	64.797306 
3196.000000	64.825320 
3195.000000	64.855718 
3194.000000	64.885091 
3193.000000	64.910650 
3192.000000	64.930248 
3191.000000	64.942550 
3190.000000	64.947080 
3189.000000	64.943933 
3188.000000	64.933776 
3187.000000	64.917755 
3186.000000	64.897441 
3185.000000	64.874577 
3184.000000	64.851403 
3183.000000	64.830017 
3182.000000	64.812302 
3181.000000	64.799523 
3180.000000	64.792227 
3179.000000	64.790153 
3178.000000	64.792251 
3177.000000	64.797091 
3176.000000	64.803099 
3175.000000	64.808845 
3174.000000	64.813208 
3173.000000	64.815616 
3172.000000	64.815878 
3171.000000	64.814114 
3170.000000	64.810347 
3169.000000	64.804697 
3168.000000	64.797401 
3167.000000	64.788675 
3166.000000	64.779138 
3165.000000	64.769721 
3164.000000	64.761996 
3163.000000	64.757895 
3162.000000	64.759373 
3161.000000	64.767956 
3160.000000	64.784169 
3159.000000	64.807701 
3158.000000	64.836835 
3157.000000	64.868807 
3156.000000	64.900064 
3155.000000	64.927124 
3154.000000	64.947223 
3153.000000	64.958715 
3152.000000	64.961361 
3151.000000	64.956212 
3150.000000	64.945340 
3149.000000	64.931583 
3148.000000	64.917731 
3147.000000	64.905858 
3146.000000	64.897465 
3145.000000	64.893126 
3144.000000	64.892792 
3143.000000	64.895796 
3142.000000	64.901304 
3141.000000	64.908409 
3140.000000	64.916276 
3139.000000	64.924192 
3138.000000	64.931249 
3137.000000	64.936232 
3136.000000	64.937877 
3135.000000	64.934515 
3134.000000	64.924669 
3133.000000	64.907169 
3132.000000	64.881563 
3131.000000	64.848589 
3130.000000	64.810132 
3129.000000	64.769482 
3128.000000	64.730811 
3127.000000	64.698624 
3126.000000	64.677047 
3125.000000	64.669275 
3124.000000	64.676856 
3123.000000	64.699363 
3122.000000	64.734363 
3121.000000	64.778065 
3120.000000	64.826011 
3119.000000	64.873647 
3118.000000	64.916825 
3117.000000	64.952039 
3116.000000	64.976549 
3115.000000	64.988565 
3114.000000	64.987134 
3113.000000	64.972209 
3112.000000	64.944577 
3111.000000	64.906263 
3110.000000	64.860415 
3109.000000	64.811182 
3108.000000	64.763450 
3107.000000	64.722228 
3106.000000	64.692020 
3105.000000	64.676117 
3104.000000	64.676022 
3103.000000	64.691233 
3102.000000	64.719176 
3101.000000	64.755368 
3100.000000	64.794373 
3099.000000	64.830541 
3098.000000	64.859032 
3097.000000	64.876151 
3096.000000	64.880442 
3095.000000	64.872431 
3094.000000	64.854788 
3093.000000	64.831352 
3092.000000	64.806699 
3091.000000	64.785218 
3090.000000	64.770460 
3089.000000	64.764356 
3088.000000	64.767050 
3087.000000	64.776921 
3086.000000	64.791202 
3085.000000	64.806556 
3084.000000	64.819645 
3083.000000	64.827871 
3082.000000	64.829707 
3081.000000	64.824986 
3080.000000	64.814734 
3079.000000	64.801025 
3078.000000	64.786052 
3077.000000	64.772272 
3076.000000	64.761662 
3075.000000	64.755749 
3074.000000	64.755058 
3073.000000	64.759659 
3072.000000	64.769029 
3071.000000	64.782524 
3070.000000	64.799380 
3069.000000	64.818763 
3068.000000	64.839696 
3067.000000	64.861106 
3066.000000	64.881777 
3065.000000	64.900422 
3064.000000	64.915609 
3063.000000	64.925956 
3062.000000	64.930248 
3061.000000	64.927959 
3060.000000	64.919257 
3059.000000	64.904880 
3058.000000	64.886260 
3057.000000	64.865326 
3056.000000	64.844131 
3055.000000	64.824628 
3054.000000	64.808416 
3053.000000	64.796352 
3052.000000	64.788651 
3051.000000	64.785051 
3050.000000	64.784836 
3049.000000	64.786887 
3048.000000	64.789938 
3047.000000	64.792799 
3046.000000	64.794564 
3045.000000	64.794516 
3044.000000	64.792490 
3043.000000	64.788699 
3042.000000	64.783811 
3041.000000	64.778780 
3040.000000	64.774847 
3039.000000	64.773297 
3038.000000	64.775228 
3037.000000	64.781260 
3036.000000	64.791536 
3035.000000	64.805555 
3034.000000	64.822316 
3033.000000	64.840102 
3032.000000	64.857053 
3031.000000	64.871072 
3030.000000	64.880537 
3029.000000	64.884042 
3028.000000	64.880895 
3027.000000	64.870953 
3026.000000	64.854884 
3025.000000	64.833998 
3024.000000	64.809823 
3023.000000	64.784049 
3022.000000	64.758515 
3021.000000	64.734768 
3020.000000	64.713907 
3019.000000	64.696645 
3018.000000	64.683175 
3017.000000	64.673590 
3016.000000	64.667749 
3015.000000	64.665579 
3014.000000	64.666891 
3013.000000	64.671468 
3012.000000	64.679098 
3011.000000	64.689302 
3010.000000	64.701271 
3009.000000	64.714217 
3008.000000	64.727282 
3007.000000	64.739584 
3006.000000	64.750456 
3005.000000	64.759516 
3004.000000	64.766669 
3003.000000	64.772057 
3002.000000	64.775991 
3001.000000	64.779043 
3000.000000	64.781737 
2999.000000	64.784622 
2998.000000	64.788246 
2997.000000	64.793133 
2996.000000	64.799499 
2995.000000	64.807319 
2994.000000	64.815902 
2993.000000	64.824104 
2992.000000	64.830040 
2991.000000	64.831876 
2990.000000	64.827847 
2989.000000	64.816975 
2988.000000	64.799284 
2987.000000	64.776039 
2986.000000	64.749383 
2985.000000	64.722061 
2984.000000	64.696812 
2983.000000	64.675784 
2982.000000	64.660406 
2981.000000	64.651083 
2980.000000	64.647507 
2979.000000	64.648723 
2978.000000	64.653563 
2977.000000	64.660978 
2976.000000	64.669942 
2975.000000	64.679527 
2974.000000	64.688682 
2973.000000	64.696407 
2972.000000	64.701437 
2971.000000	64.702844 
2970.000000	64.700174 
2969.000000	64.693880 
2968.000000	64.685440 
2967.000000	64.676928 
2966.000000	64.670753 
2965.000000	64.668941 
2964.000000	64.672660 
2963.000000	64.681744 
2962.000000	64.694714 
2961.000000	64.708805 
2960.000000	64.720773 
2959.000000	64.727282 
2958.000000	64.725780 
2957.000000	64.714884 
2956.000000	64.694619 
2955.000000	64.666366 
2954.000000	64.632678 
2953.000000	64.596843 
2952.000000	64.562344 
2951.000000	64.532184 
2950.000000	64.508581 
2949.000000	64.492774 
2948.000000	64.484810 
2947.000000	64.483618 
2946.000000	64.487481 
2945.000000	64.494037 
2944.000000	64.501118 
2943.000000	64.507150 
2942.000000	64.511394 
2941.000000	64.513778 
2940.000000	64.515066 
2939.000000	64.516162 
2938.000000	64.517807 
2937.000000	64.520263 
2936.000000	64.522957 
2935.000000	64.524674 
2934.000000	64.523839 
2933.000000	64.519095 
2932.000000	64.509582 
2931.000000	64.495325 
2930.000000	64.477396 
2929.000000	64.457798 
2928.000000	64.439201 
2927.000000	64.424252 
2926.000000	64.415168 
2925.000000	64.413261 
2924.000000	64.418458 
2923.000000	64.429235 
2922.000000	64.443230 
2921.000000	64.457535 
2920.000000	64.468979 
2919.000000	64.475154 
2918.000000	64.474606 
2917.000000	64.467358 
2916.000000	64.454579 
2915.000000	64.438629 
2914.000000	64.422130 
2913.000000	64.407730 
2912.000000	64.397501 
2911.000000	64.392423 
2910.000000	64.392280 
2909.000000	64.396047 
2908.000000	64.402270 
2907.000000	64.409375 
2906.000000	64.416146 
2905.000000	64.421916 
2904.000000	64.426732 
2903.000000	64.431190 
2902.000000	64.436292 
2901.000000	64.443469 
2900.000000	64.454293 
2899.000000	64.470291 
2898.000000	64.492416 
2897.000000	64.520978 
2896.000000	64.555358 
2895.000000	64.593911 
2894.000000	64.633989 
2893.000000	64.672541 
2892.000000	64.706206 
2891.000000	64.732265 
2890.000000	64.748787 
2889.000000	64.755105 
2888.000000	64.751672 
2887.000000	64.740133 
2886.000000	64.722824 
2885.000000	64.702200 
2884.000000	64.680528 
2883.000000	64.659810 
2882.000000	64.641332 
2881.000000	64.626002 
2880.000000	64.614081 
2879.000000	64.605879 
2878.000000	64.601063 
2877.000000	64.599084 
2876.000000	64.598798 
2875.000000	64.598751 
2874.000000	64.597129 
2873.000000	64.592266 
2872.000000	64.582800 
2871.000000	64.568114 
2870.000000	64.548611 
2869.000000	64.525866 
2868.000000	64.502072 
2867.000000	64.480137 
2866.000000	64.462757 
2865.000000	64.452433 
2864.000000	64.450526 
2863.000000	64.457368 
2862.000000	64.472627 
2861.000000	64.495229 
2860.000000	64.523410 
2859.000000	64.555120 
2858.000000	64.588022 
2857.000000	64.619803 
2856.000000	64.648127 
2855.000000	64.670920 
2854.000000	64.686512 
2853.000000	64.694142 
2852.000000	64.694023 
2851.000000	64.687156 
2850.000000	64.675331 
2849.000000	64.660835 
2848.000000	64.646005 
2847.000000	64.632916 
2846.000000	64.622974 
2845.000000	64.616799 
2844.000000	64.614367 
2843.000000	64.615011 
2842.000000	64.617562 
2841.000000	64.621043 
2840.000000	64.624428 
2839.000000	64.626669 
2838.000000	64.627122 
2837.000000	64.625024 
2836.000000	64.620089 
2835.000000	64.612174 
2834.000000	64.601659 
2833.000000	64.589381 
2832.000000	64.576506 
2831.000000	64.564561 
2830.000000	64.555144 
2829.000000	64.549422 
2828.000000	64.548110 
2827.000000	64.551186 
2826.000000	64.557838 
2825.000000	64.566588 
2824.000000	64.575481 
2823.000000	64.582681 
2822.000000	64.586687 
2821.000000	64.586877 
2820.000000	64.583587 
2819.000000	64.578270 
2818.000000	64.573049 
2817.000000	64.570355 
2816.000000	64.572286 
2815.000000	64.580059 
2814.000000	64.593791 
2813.000000	64.612174 
2812.000000	64.632534 
2811.000000	64.651417 
2810.000000	64.665222 
2809.000000	64.671134 
2808.000000	64.667439 
2807.000000	64.654445 
2806.000000	64.633989 
2805.000000	64.609408 
2804.000000	64.584589 
2803.000000	64.563465 
2802.000000	64.548945 
2801.000000	64.542770 
2800.000000	64.545083 
2799.000000	64.554715 
2798.000000	64.569497 
2797.000000	64.586687 
2796.000000	64.603543 
2795.000000	64.617609 
2794.000000	64.627265 
2793.000000	64.631843 
2792.000000	64.631628 
2791.000000	64.627790 
2790.000000	64.622020 
2789.000000	64.616584 
2788.000000	64.613628 
2787.000000	64.615058 
2786.000000	64.621853 
2785.000000	64.634203 
2784.000000	64.651083 
2783.000000	64.670491 
2782.000000	64.689755 
2781.000000	64.706134 
2780.000000	64.717173 
2779.000000	64.721155 
2778.000000	64.717435 
2777.000000	64.706587 
2776.000000	64.690184 
2775.000000	64.670515 
2774.000000	64.650082 
2773.000000	64.631199 
2772.000000	64.615774 
2771.000000	64.605116 
2770.000000	64.599895 
2769.000000	64.599967 
2768.000000	64.604735 
2767.000000	64.613127 
2766.000000	64.623880 
2765.000000	64.635562 
2764.000000	64.646792 
2763.000000	64.656114 
2762.000000	64.662480 
2761.000000	64.665102 
2760.000000	64.663863 
2759.000000	64.658880 
2758.000000	64.650845 
2757.000000	64.640402 
2756.000000	64.628505 
2755.000000	64.615797 
2754.000000	64.602780 
2753.000000	64.589834 
2752.000000	64.577102 
2751.000000	64.564847 
2750.000000	64.553666 
2749.000000	64.544653 
2748.000000	64.539027 
2747.000000	64.538359 
2746.000000	64.544010 
2745.000000	64.557099 
2744.000000	64.577722 
2743.000000	64.604902 
2742.000000	64.636588 
2741.000000	64.669799 
2740.000000	64.701271 
2739.000000	64.727950 
2738.000000	64.747571 
2737.000000	64.759063 
2736.000000	64.762663 
2735.000000	64.759588 
2734.000000	64.751696 
2733.000000	64.741086 
2732.000000	64.729380 
2731.000000	64.717817 
2730.000000	64.706587 
2729.000000	64.695549 
2728.000000	64.683961 
2727.000000	64.671158 
2726.000000	64.656519 
2725.000000	64.639782 
2724.000000	64.621138 
2723.000000	64.601016 
2722.000000	64.580535 
2721.000000	64.560747 
2720.000000	64.543104 
2719.000000	64.528846 
2718.000000	64.519190 
2717.000000	64.514923 
2716.000000	64.516115 
2715.000000	64.522027 
2714.000000	64.531183 
2713.000000	64.541649 
2712.000000	64.551424 
2711.000000	64.559125 
2710.000000	64.564156 
2709.000000	64.566850 
2708.000000	64.568281 
2707.000000	64.569878 
2706.000000	64.572858 
2705.000000	64.577651 
2704.000000	64.583730 
2703.000000	64.589524 
2702.000000	64.593005 
2701.000000	64.592027 
2700.000000	64.585041 
2699.000000	64.571642 
2698.000000	64.552640 
2697.000000	64.530158 
2696.000000	64.506959 
2695.000000	64.486098 
2694.000000	64.470219 
2693.000000	64.461016 
2692.000000	64.458942 
2691.000000	64.463520 
2690.000000	64.473295 
2689.000000	64.486455 
2688.000000	64.500975 
2687.000000	64.515185 
2686.000000	64.527964 
2685.000000	64.538788 
2684.000000	64.547872 
2683.000000	64.555811 
2682.000000	64.563393 
2681.000000	64.571404 
2680.000000	64.580059 
2679.000000	64.589214 
2678.000000	64.597868 
2677.000000	64.604640 
2676.000000	64.607930 
2675.000000	64.606308 
2674.000000	64.598870 
2673.000000	64.585518 
2672.000000	64.567422 
2671.000000	64.546656 
2670.000000	64.526104 
2669.000000	64.509201 
2668.000000	64.499020 
2667.000000	64.497756 
2666.000000	64.506244 
2665.000000	64.523339 
2664.000000	64.546227 
2663.000000	64.570903 
2662.000000	64.592957 
2661.000000	64.608526 
2660.000000	64.615130 
2659.000000	64.612197 
2658.000000	64.601087 
2657.000000	64.584708 
2656.000000	64.566731 
2655.000000	64.550828 
2654.000000	64.539885 
2653.000000	64.535427 
2652.000000	64.537715 
2651.000000	64.545249 
2650.000000	64.555931 
2649.000000	64.567017 
2648.000000	64.576101 
2647.000000	64.581465 
2646.000000	64.582395 
2645.000000	64.579224 
2644.000000	64.572978 
2643.000000	64.565348 
2642.000000	64.558053 
2641.000000	64.552450 
2640.000000	64.549398 
2639.000000	64.548850 
2638.000000	64.549970 
2637.000000	64.551448 
2636.000000	64.551877 
2635.000000	64.550185 
2634.000000	64.546203 
2633.000000	64.540576 
2632.000000	64.534711 
2631.000000	64.530372 
2630.000000	64.528989 
2629.000000	64.531397 
2628.000000	64.537477 
2627.000000	64.546275 
2626.000000	64.556145 
2625.000000	64.565420 
2624.000000	64.572668 
2623.000000	64.577150 
2622.000000	64.578700 
2621.000000	64.577770 
2620.000000	64.575195 
2619.000000	64.571857 
2618.000000	64.568424 
2617.000000	64.565157 
2616.000000	64.562058 
2615.000000	64.558911 
2614.000000	64.555430 
2613.000000	64.551568 
2612.000000	64.547181 
2611.000000	64.542174 
2610.000000	64.536452 
2609.000000	64.529895 
2608.000000	64.522504 
2607.000000	64.514589 
2606.000000	64.506864 
2605.000000	64.500451 
2604.000000	64.496636 
2603.000000	64.496493 
2602.000000	64.500617 
2601.000000	64.508795 
2600.000000	64.519953 
2599.000000	64.532232 
2598.000000	64.543318 
2597.000000	64.550685 
2596.000000	64.552235 
2595.000000	64.546680 
2594.000000	64.533519 
2593.000000	64.513421 
2592.000000	64.487743 
2591.000000	64.458775 
2590.000000	64.428973 
2589.000000	64.400935 
2588.000000	64.377021 
2587.000000	64.359045 
2586.000000	64.348220 
2585.000000	64.344954 
2584.000000	64.348959 
2583.000000	64.359283 
2582.000000	64.374375 
2581.000000	64.392542 
2580.000000	64.412069 
2579.000000	64.431548 
2578.000000	64.449882 
2577.000000	64.466285 
2576.000000	64.480113 
2575.000000	64.490771 
2574.000000	64.497590 
2573.000000	64.499759 
2572.000000	64.496469 
2571.000000	64.487433 
2570.000000	64.472937 
2569.000000	64.454221 
2568.000000	64.433431 
2567.000000	64.413452 
2566.000000	64.397406 
2565.000000	64.388108 
2564.000000	64.387392 
2563.000000	64.395642 
2562.000000	64.411520 
2561.000000	64.432168 
2560.000000	64.453935 
2559.000000	64.472913 
2558.000000	64.486074 
2557.000000	64.491558 
2556.000000	64.489340 
2555.000000	64.480876 
2554.000000	64.468550 
2553.000000	64.454936 
2552.000000	64.442372 
2551.000000	64.432263 
2550.000000	64.424967 
2549.000000	64.419984 
2548.000000	64.416289 
2547.000000	64.413022 
2546.000000	64.409756 
2545.000000	64.406657 
2544.000000	64.404273 
2543.000000	64.403414 
2542.000000	64.404654 
2541.000000	64.408135 
2540.000000	64.413332 
2539.000000	64.419221 
2538.000000	64.424753 
2537.000000	64.428710 
2536.000000	64.430379 
2535.000000	64.429259 
2534.000000	64.425158 
2533.000000	64.418220 
2532.000000	64.408636 
2531.000000	64.397168 
2530.000000	64.384794 
2529.000000	64.373302 
2528.000000	64.364814 
2527.000000	64.361929 
2526.000000	64.367008 
2525.000000	64.381670 
2524.000000	64.406132 
2523.000000	64.438915 
2522.000000	64.476919 
2521.000000	64.515638 
2520.000000	64.550232 
2519.000000	64.576315 
2518.000000	64.590954 
2517.000000	64.593315 
2516.000000	64.584469 
2515.000000	64.567065 
2514.000000	64.544749 
2513.000000	64.521002 
2512.000000	64.498734 
2511.000000	64.479899 
2510.000000	64.465212 
2509.000000	64.454793 
2508.000000	64.447999 
2507.000000	64.444017 
2506.000000	64.442038 
2505.000000	64.441490 
2504.000000	64.442157 
2503.000000	64.443898 
2502.000000	64.446759 
2501.000000	64.450907 
2500.000000	64.456319 
2499.000000	64.462780 
2498.000000	64.469838 
2497.000000	64.476728 
2496.000000	64.482283 
2495.000000	64.485192 
2494.000000	64.484262 
2493.000000	64.478588 
2492.000000	64.468026 
2491.000000	64.453387 
2490.000000	64.436292 
2489.000000	64.418864 
2488.000000	64.403271 
2487.000000	64.391255 
2486.000000	64.383506 
2485.000000	64.379692 
2484.000000	64.378738 
2483.000000	64.379358 
2482.000000	64.380264 
2481.000000	64.380860 
2480.000000	64.381146 
2479.000000	64.381885 
2478.000000	64.384174 
2477.000000	64.389061 
2476.000000	64.397025 
2475.000000	64.407920 
2474.000000	64.420700 
2473.000000	64.433836 
2472.000000	64.445424 
2471.000000	64.453744 
2470.000000	64.457702 
2469.000000	64.456915 
2468.000000	64.451718 
2467.000000	64.443206 
2466.000000	64.432787 
2465.000000	64.422202 
2464.000000	64.412975 
2463.000000	64.406418 
2462.000000	64.403057 
2461.000000	64.402723 
2460.000000	64.404535 
2459.000000	64.406967 
2458.000000	64.408349 
2457.000000	64.407181 
2456.000000	64.402627 
2455.000000	64.394688 
2454.000000	64.384198 
2453.000000	64.372682 
2452.000000	64.362120 
2451.000000	64.354181 
2450.000000	64.350056 
2449.000000	64.350199 
2448.000000	64.354300 
2447.000000	64.361190 
2446.000000	64.369440 
2445.000000	64.377641 
2444.000000	64.384603 
2443.000000	64.389514 
2442.000000	64.392042 
2441.000000	64.392066 
2440.000000	64.389681 
2439.000000	64.385199 
2438.000000	64.379000 
2437.000000	64.371585 
2436.000000	64.363980 
2435.000000	64.356946 
2434.000000	64.351105 
2433.000000	64.346647 
2432.000000	64.343428 
2431.000000	64.340877 
2430.000000	64.338159 
2429.000000	64.334607 
2428.000000	64.329981 
2427.000000	64.324593 
2426.000000	64.319300 
2425.000000	64.315152 
2424.000000	64.313173 
2423.000000	64.313554 
2422.000000	64.315772 
2421.000000	64.318370 
2420.000000	64.319300 
2419.000000	64.316654 
2418.000000	64.309215 
2417.000000	64.296865 
2416.000000	64.280891 
2415.000000	64.263606 
2414.000000	64.248037 
2413.000000	64.236927 
2412.000000	64.232420 
2411.000000	64.235639 
2410.000000	64.246726 
2409.000000	64.264798 
2408.000000	64.288449 
2407.000000	64.315986 
2406.000000	64.345669 
2405.000000	64.375901 
2404.000000	64.405083 
2403.000000	64.431667 
2402.000000	64.454197 
2401.000000	64.471435 
2400.000000	64.482402 
2399.000000	64.486646 
2398.000000	64.484381 
2397.000000	64.476490 
2396.000000	64.464402 
2395.000000	64.449572 
2394.000000	64.433503 
2393.000000	64.417386 
2392.000000	64.402079 
2391.000000	64.388179 
2390.000000	64.376187 
2389.000000	64.366650 
2388.000000	64.360165 
2387.000000	64.357519 
2386.000000	64.359068 
2385.000000	64.364910 
2384.000000	64.374327 
2383.000000	64.386129 
2382.000000	64.398574 
2381.000000	64.409708 
2380.000000	64.417934 
2379.000000	64.422297 
2378.000000	64.422535 
2377.000000	64.419054 
2376.000000	64.412879 
2375.000000	64.405083 
2374.000000	64.396476 
2373.000000	64.387559 
2372.000000	64.378428 
2371.000000	64.369249 
2370.000000	64.360165 
2369.000000	64.351868 
2368.000000	64.345526 
2367.000000	64.342689 
2366.000000	64.344716 
2365.000000	64.352297 
2364.000000	64.365196 
2363.000000	64.381861 
2362.000000	64.399838 
2361.000000	64.416146 
2360.000000	64.428019 
2359.000000	64.433693 
2358.000000	64.432549 
2357.000000	64.425492 
2356.000000	64.414572 
2355.000000	64.402055 
2354.000000	64.390134 
2353.000000	64.380359 
2352.000000	64.373111 
2351.000000	64.367985 
2350.000000	64.363718 
2349.000000	64.359045 
2348.000000	64.352941 
2347.000000	64.345002 
2346.000000	64.335417 
2345.000000	64.325261 
2344.000000	64.315867 
2343.000000	64.308357 
2342.000000	64.303731 
2341.000000	64.302468 
2340.000000	64.304590 
2339.000000	64.309859 
2338.000000	64.317941 
2337.000000	64.328503 
2336.000000	64.341259 
2335.000000	64.355802 
2334.000000	64.371490 
2333.000000	64.387321 
2332.000000	64.401745 
2331.000000	64.412808 
2330.000000	64.418601 
2329.000000	64.417505 
2328.000000	64.408802 
2327.000000	64.392614 
2326.000000	64.370608 
2325.000000	64.345097 
2324.000000	64.319157 
2323.000000	64.295673 
2322.000000	64.276671 
2321.000000	64.262986 
2320.000000	64.254045 
2319.000000	64.248490 
2318.000000	64.244389 
2317.000000	64.240241 
2316.000000	64.235186 
2315.000000	64.229416 
2314.000000	64.224004 
2313.000000	64.220595 
2312.000000	64.220547 
2311.000000	64.224696 
2310.000000	64.232826 
2309.000000	64.243507 
2308.000000	64.254641 
2307.000000	64.263844 
2306.000000	64.269042 
2305.000000	64.269065 
2304.000000	64.263844 
2303.000000	64.254522 
2302.000000	64.243102 
2301.000000	64.232015 
2300.000000	64.223265 
2299.000000	64.218330 
2298.000000	64.217424 
2297.000000	64.219975 
2296.000000	64.224410 
2295.000000	64.228725 
2294.000000	64.231157 
2293.000000	64.230418 
2292.000000	64.226531 
2291.000000	64.220356 
2290.000000	64.213943 
2289.000000	64.209580 
2288.000000	64.209485 
2287.000000	64.214920 
2286.000000	64.225935 
2285.000000	64.241218 
2284.000000	64.258432 
2283.000000	64.274740 
2282.000000	64.287424 
2281.000000	64.294600 
2280.000000	64.295530 
2279.000000	64.290881 
2278.000000	64.282250 
2277.000000	64.271855 
2276.000000	64.262032 
2275.000000	64.254808 
2274.000000	64.251494 
2273.000000	64.252638 
2272.000000	64.258098 
2271.000000	64.267253 
2270.000000	64.279270 
2269.000000	64.293217 
2268.000000	64.308166 
2267.000000	64.323139 
2266.000000	64.337134 
2265.000000	64.349102 
2264.000000	64.357995 
2263.000000	64.363026 
2262.000000	64.363598 
2261.000000	64.359712 
2260.000000	64.351844 
2259.000000	64.340782 
2258.000000	64.327836 
2257.000000	64.314198 
2256.000000	64.300894 
2255.000000	64.288496 
2254.000000	64.277172 
2253.000000	64.266610 
2252.000000	64.256286 
2251.000000	64.245533 
2250.000000	64.234066 
2249.000000	64.222002 
2248.000000	64.210009 
2247.000000	64.199066 
2246.000000	64.190316 
2245.000000	64.184689 
2244.000000	64.182949 
2243.000000	64.185047 
2242.000000	64.190578 
2241.000000	64.198660 
2240.000000	64.208126 
2239.000000	64.217853 
2238.000000	64.226984 
2237.000000	64.235115 
2236.000000	64.242148 
2235.000000	64.248251 
2234.000000	64.253640 
2233.000000	64.258337 
2232.000000	64.262366 
2231.000000	64.265465 
2230.000000	64.267325 
2229.000000	64.267683 
2228.000000	64.266681 
2227.000000	64.264726 
2226.000000	64.262437 
2225.000000	64.260435 
2224.000000	64.259290 
2223.000000	64.259147 
2222.000000	64.259719 
2221.000000	64.260315 
2220.000000	64.260005 
2219.000000	64.258074 
2218.000000	64.254212 
2217.000000	64.248585 
2216.000000	64.242076 
2215.000000	64.235734 
2214.000000	64.230704 
2213.000000	64.227604 
2212.000000	64.226484 
2211.000000	64.226889 
2210.000000	64.227652 
2209.000000	64.227700 
2208.000000	64.226150 
2207.000000	64.222884 
2206.000000	64.218521 
2205.000000	64.214253 
2204.000000	64.211583 
2203.000000	64.211678 
2202.000000	64.215087 
2201.000000	64.221310 
2200.000000	64.228820 
2199.000000	64.235544 
2198.000000	64.239335 
2197.000000	64.238309 
2196.000000	64.231610 
2195.000000	64.219236 
2194.000000	64.202427 
2193.000000	64.183092 
2192.000000	64.163708 
2191.000000	64.146995 
2190.000000	64.135432 
2189.000000	64.130878 
2188.000000	64.134669 
2187.000000	64.147162 
2186.000000	64.167737 
2185.000000	64.194893 
2184.000000	64.226198 
2183.000000	64.258885 
2182.000000	64.289784 
2181.000000	64.315986 
2180.000000	64.335107 
2179.000000	64.345598 
2178.000000	64.346957 
2177.000000	64.339780 
2176.000000	64.325451 
2175.000000	64.305949 
2174.000000	64.283561 
2173.000000	64.260530 
2172.000000	64.238715 
2171.000000	64.219331 
2170.000000	64.203190 
2169.000000	64.190578 
2168.000000	64.181256 
2167.000000	64.174747 
2166.000000	64.170479 
2165.000000	64.167952 
2164.000000	64.166903 
2163.000000	64.167499 
2162.000000	64.169883 
2161.000000	64.174222 
2160.000000	64.180326 
2159.000000	64.187526 
2158.000000	64.194679 
2157.000000	64.200258 
2156.000000	64.202618 
2155.000000	64.200472 
2154.000000	64.193081 
2153.000000	64.180660 
2152.000000	64.164376 
2151.000000	64.146041 
2150.000000	64.127779 
2149.000000	64.111781 
2148.000000	64.099812 
2147.000000	64.093303 
2146.000000	64.092898 
2145.000000	64.098882 
2144.000000	64.110827 
2143.000000	64.128088 
2142.000000	64.149570 
2141.000000	64.173579 
2140.000000	64.197874 
2139.000000	64.219617 
2138.000000	64.236021 
2137.000000	64.244723 
2136.000000	64.244341 
2135.000000	64.234948 
2134.000000	64.218330 
2133.000000	64.197587 
2132.000000	64.176535 
2131.000000	64.159059 
2130.000000	64.148116 
2129.000000	64.145183 
2128.000000	64.149951 
2127.000000	64.160513 
2126.000000	64.173865 
2125.000000	64.187049 
2124.000000	64.197635 
2123.000000	64.204454 
2122.000000	64.207696 
2121.000000	64.208650 
2120.000000	64.209175 
2119.000000	64.211058 
2118.000000	64.215350 
2117.000000	64.221882 
2116.000000	64.229512 
2115.000000	64.236235 
2114.000000	64.239692 
2113.000000	64.237618 
2112.000000	64.228630 
2111.000000	64.212393 
2110.000000	64.190125 
2109.000000	64.164161 
2108.000000	64.137458 
2107.000000	64.113211 
2106.000000	64.094042 
2105.000000	64.081573 
2104.000000	64.076066 
2103.000000	64.076423 
2102.000000	64.080572 
2101.000000	64.085960 
2100.000000	64.090180 
2099.000000	64.091634 
2098.000000	64.089870 
2097.000000	64.085841 
2096.000000	64.081430 
2095.000000	64.078998 
2094.000000	64.080762 
2093.000000	64.088225 
2092.000000	64.101743 
2091.000000	64.120697 
2090.000000	64.143466 
2089.000000	64.167952 
2088.000000	64.191722 
2087.000000	64.212346 
2086.000000	64.227485 
2085.000000	64.235210 
2084.000000	64.234256 
2083.000000	64.224290 
2082.000000	64.205813 
2081.000000	64.180588 
2080.000000	64.150977 
2079.000000	64.119887 
2078.000000	64.090132 
2077.000000	64.064145 
2076.000000	64.043521 
2075.000000	64.028811 
2074.000000	64.019727 
2073.000000	64.015364 
2072.000000	64.014601 
2071.000000	64.016199 
2070.000000	64.019370 
2069.000000	64.023590 
2068.000000	64.028930 
2067.000000	64.035701 
2066.000000	64.044165 
2065.000000	64.054346 
2064.000000	64.066100 
2063.000000	64.078855 
2062.000000	64.091753 
2061.000000	64.103698 
2060.000000	64.113569 
2059.000000	64.120268 
2058.000000	64.122819 
2057.000000	64.120507 
2056.000000	64.113044 
2055.000000	64.100527 
2054.000000	64.083600 
2053.000000	64.063143 
2052.000000	64.040517 
2051.000000	64.017200 
2050.000000	63.994836 
2049.000000	63.974881 
2048.000000	63.958430 
2047.000000	63.946461 
2046.000000	63.939595 
2045.000000	63.938045 
2044.000000	63.941717 
2043.000000	63.950204 
2042.000000	63.962721 
2041.000000	63.978123 
2040.000000	63.994979 
2039.000000	64.011573 
2038.000000	64.026093 
2037.000000	64.037084 
2036.000000	64.043426 
2035.000000	64.044761 
2034.000000	64.041423 
2033.000000	64.034438 
2032.000000	64.025139 
2031.000000	64.014935 
2030.000000	64.004945 
2029.000000	63.995742 
2028.000000	63.987398 
2027.000000	63.979578 
2026.000000	63.971710 
2025.000000	63.963341 
2024.000000	63.954234 
2023.000000	63.944721 
2022.000000	63.935446 
2021.000000	63.927173 
2020.000000	63.920617 
2019.000000	63.916015 
2018.000000	63.913321 
2017.000000	63.911938 
2016.000000	63.911151 
2015.000000	63.910317 
2014.000000	63.909292 
2013.000000	63.908529 
2012.000000	63.908910 
2011.000000	63.911557 
2010.000000	63.917374 
2009.000000	63.926672 
2008.000000	63.938808 
2007.000000	63.952064 
2006.000000	63.964128 
2005.000000	63.972520 
2004.000000	63.975214 
2003.000000	63.971400 
2002.000000	63.961434 
2001.000000	63.947033 
2000.000000	63.930797 
1999.000000	63.915777 
1998.000000	63.904309 
1997.000000	63.897705 
1996.000000	63.895964 
1995.000000	63.897871 
1994.000000	63.901305 
1993.000000	63.903927 
1992.000000	63.903903 
1991.000000	63.900232 
1990.000000	63.892912 
1989.000000	63.882851 
1988.000000	63.871502 
1987.000000	63.860368 
1986.000000	63.850641 
1985.000000	63.842988 
1984.000000	63.837528 
1983.000000	63.833999 
1982.000000	63.832068 
1981.000000	63.831448 
1980.000000	63.832163 
1979.000000	63.834357 
1978.000000	63.838148 
1977.000000	63.843560 
1976.000000	63.850116 
1975.000000	63.857293 
1974.000000	63.864254 
1973.000000	63.870167 
1972.000000	63.874554 
1971.000000	63.877248 
1970.000000	63.878369 
1969.000000	63.878512 
1968.000000	63.878130 
1967.000000	63.877463 
1966.000000	63.876366 
1965.000000	63.874506 
1964.000000	63.871502 
1963.000000	63.867044 
1962.000000	63.861465 
1961.000000	63.855481 
1960.000000	63.850569 
1959.000000	63.848280 
1958.000000	63.850164 
1957.000000	63.857126 
1956.000000	63.869118 
1955.000000	63.885331 
1954.000000	63.904118 
1953.000000	63.923525 
1952.000000	63.941502 
1951.000000	63.956499 
1950.000000	63.967561 
1949.000000	63.974499 
1948.000000	63.977670 
1947.000000	63.977885 
1946.000000	63.976073 
1945.000000	63.973140 
1944.000000	63.970279 
1943.000000	63.968348 
1942.000000	63.968396 
1941.000000	63.970994 
1940.000000	63.976573 
1939.000000	63.984823 
1938.000000	63.994836 
1937.000000	64.004850 
1936.000000	64.012742 
1935.000000	64.016294 
1934.000000	64.013743 
1933.000000	64.004397 
1932.000000	63.988971 
1931.000000	63.969445 
1930.000000	63.948726 
1929.000000	63.930106 
1928.000000	63.916420 
1927.000000	63.909506 
1926.000000	63.909530 
1925.000000	63.915443 
1924.000000	63.924956 
1923.000000	63.935327 
1922.000000	63.943743 
1921.000000	63.948059 
1920.000000	63.947153 
1919.000000	63.940691 
1918.000000	63.929462 
1917.000000	63.914775 
1916.000000	63.898444 
1915.000000	63.882327 
1914.000000	63.868355 
1913.000000	63.858127 
1912.000000	63.852787 
1911.000000	63.852953 
1910.000000	63.858294 
1909.000000	63.867783 
1908.000000	63.879585 
1907.000000	63.891220 
1906.000000	63.900279 
1905.000000	63.904738 
1904.000000	63.903474 
1903.000000	63.896489 
1902.000000	63.884735 
1901.000000	63.870072 
1900.000000	63.854718 
1899.000000	63.840842 
1898.000000	63.830113 
1897.000000	63.823366 
1896.000000	63.820910 
1895.000000	63.822460 
1894.000000	63.827347 
1893.000000	63.834619 
1892.000000	63.843321 
1891.000000	63.852429 
1890.000000	63.861036 
1889.000000	63.868308 
1888.000000	63.873314 
1887.000000	63.875508 
1886.000000	63.874912 
1885.000000	63.871884 
1884.000000	63.867497 
1883.000000	63.863134 
1882.000000	63.859987 
1881.000000	63.858866 
1880.000000	63.859963 
1879.000000	63.862729 
1878.000000	63.866043 
1877.000000	63.868618 
1876.000000	63.869357 
1875.000000	63.867616 
1874.000000	63.863658 
1873.000000	63.858437 
1872.000000	63.853168 
1871.000000	63.849234 
1870.000000	63.847541 
1869.000000	63.848471 
1868.000000	63.851761 
1867.000000	63.856482 
1866.000000	63.861489 
1865.000000	63.865756 
1864.000000	63.868403 
1863.000000	63.868904 
1862.000000	63.866925 
1861.000000	63.862442 
1860.000000	63.855600 
1859.000000	63.846802 
1858.000000	63.836622 
1857.000000	63.825750 
1856.000000	63.814949 
1855.000000	63.804841 
1854.000000	63.795638 
1853.000000	63.787198 
1852.000000	63.778877 
1851.000000	63.769841 
1850.000000	63.759112 
1849.000000	63.746070 
1848.000000	63.730835 
1847.000000	63.714385 
1846.000000	63.698410 
1845.000000	63.685131 
1844.000000	63.676738 
1843.000000	63.675141 
1842.000000	63.681244 
1841.000000	63.694953 
1840.000000	63.715147 
1839.000000	63.740134 
1838.000000	63.767790 
1837.000000	63.795995 
1836.000000	63.822865 
1835.000000	63.846683 
1834.000000	63.866162 
1833.000000	63.880324 
1832.000000	63.888573 
1831.000000	63.890719 
1830.000000	63.887119 
1829.000000	63.878464 
1828.000000	63.865971 
1827.000000	63.851094 
1826.000000	63.835430 
1825.000000	63.820147 
1824.000000	63.805961 
1823.000000	63.792943 
1822.000000	63.780689 
1821.000000	63.768696 
1820.000000	63.756513 
1819.000000	63.744282 
1818.000000	63.732743 
1817.000000	63.723111 
1816.000000	63.717007 
1815.000000	63.715863 
1814.000000	63.720560 
1813.000000	63.731288 
1812.000000	63.747382 
1811.000000	63.767290 
1810.000000	63.788986 
1809.000000	63.810157 
1808.000000	63.828635 
1807.000000	63.842439 
1806.000000	63.850283 
1805.000000	63.851666 
1804.000000	63.846898 
1803.000000	63.836884 
1802.000000	63.822984 
1801.000000	63.807010 
1800.000000	63.790750 
1799.000000	63.775753 
1798.000000	63.763046 
1797.000000	63.753175 
1796.000000	63.745975 
1795.000000	63.741040 
1794.000000	63.737630 
1793.000000	63.735175 
1792.000000	63.733386 
1791.000000	63.732457 
1790.000000	63.732838 
1789.000000	63.735079 
1788.000000	63.739633 
1787.000000	63.746595 
1786.000000	63.755416 
1785.000000	63.764953 
1784.000000	63.773679 
1783.000000	63.779902 
1782.000000	63.782048 
1781.000000	63.778972 
1780.000000	63.770294 
1779.000000	63.756418 
1778.000000	63.738703 
1777.000000	63.718914 
1776.000000	63.699078 
1775.000000	63.681149 
1774.000000	63.666605 
1773.000000	63.656234 
1772.000000	63.650059 
1771.000000	63.647413 
1770.000000	63.647413 
1769.000000	63.649129 
1768.000000	63.651823 
1767.000000	63.655114 
1766.000000	63.659238 
1765.000000	63.664412 
1764.000000	63.670921 
1763.000000	63.678765 
1762.000000	63.687539 
1761.000000	63.696241 
1760.000000	63.703489 
1759.000000	63.707971 
1758.000000	63.708400 
1757.000000	63.704323 
1756.000000	63.695716 
1755.000000	63.683366 
1754.000000	63.668513 
1753.000000	63.652682 
1752.000000	63.637208 
1751.000000	63.623118 
1750.000000	63.610792 
1749.000000	63.600087 
1748.000000	63.590407 
1747.000000	63.580942 
1746.000000	63.570833 
1745.000000	63.559556 
1744.000000	63.546919 
1743.000000	63.532948 
1742.000000	63.518071 
1741.000000	63.503074 
1740.000000	63.488745 
1739.000000	63.475751 
1738.000000	63.464665 
1737.000000	63.455700 
1736.000000	63.448786 
1735.000000	63.443636 
1734.000000	63.439726 
1733.000000	63.436603 
1732.000000	63.434004 
1731.000000	63.432049 
1730.000000	63.431215 
1729.000000	63.432240 
1728.000000	63.435864 
1727.000000	63.442778 
1726.000000	63.453054 
1725.000000	63.466262 
1724.000000	63.481116 
1723.000000	63.496017 
1722.000000	63.509154 
1721.000000	63.519167 
1720.000000	63.525390 
1719.000000	63.528251 
1718.000000	63.529253 
1717.000000	63.530302 
1716.000000	63.533449 
1715.000000	63.540244 
1714.000000	63.551282 
1713.000000	63.565969 
1712.000000	63.582658 
1711.000000	63.599157 
1710.000000	63.613176 
1709.000000	63.622856 
1708.000000	63.627195 
1707.000000	63.626241 
1706.000000	63.621044 
1705.000000	63.613295 
1704.000000	63.604879 
1703.000000	63.597607 
1702.000000	63.592576 
1701.000000	63.590288 
1700.000000	63.590526 
1699.000000	63.592553 
1698.000000	63.595390 
1697.000000	63.597917 
1696.000000	63.599443 
1695.000000	63.599634 
1694.000000	63.598823 
1693.000000	63.597965 
1692.000000	63.598275 
1691.000000	63.600993 
1690.000000	63.606786 
1689.000000	63.615679 
1688.000000	63.626503 
1687.000000	63.637280 
1686.000000	63.645529 
1685.000000	63.649201 
1684.000000	63.646817 
1683.000000	63.638186 
1682.000000	63.624429 
1681.000000	63.607907 
1680.000000	63.591361 
1679.000000	63.577532 
1678.000000	63.568568 
1677.000000	63.565564 
1676.000000	63.568305 
1675.000000	63.575530 
1674.000000	63.585400 
1673.000000	63.595938 
1672.000000	63.605570 
1671.000000	63.613367 
1670.000000	63.619065 
1669.000000	63.623094 
1668.000000	63.626027 
1667.000000	63.628482 
1666.000000	63.630890 
1665.000000	63.633131 
1664.000000	63.634896 
1663.000000	63.635563 
1662.000000	63.634681 
1661.000000	63.631725 
1660.000000	63.626480 
1659.000000	63.618922 
1658.000000	63.609194 
1657.000000	63.597440 
1656.000000	63.583755 
1655.000000	63.568401 
1654.000000	63.551616 
1653.000000	63.533926 
1652.000000	63.516068 
1651.000000	63.498806 
1650.000000	63.483381 
1649.000000	63.470649 
1648.000000	63.461494 
1647.000000	63.456368 
1646.000000	63.455176 
1645.000000	63.457441 
1644.000000	63.462448 
1643.000000	63.469409 
1642.000000	63.477540 
1641.000000	63.486075 
1640.000000	63.494420 
1639.000000	63.502120 
1638.000000	63.508772 
1637.000000	63.513851 
1636.000000	63.516926 
1635.000000	63.517546 
1634.000000	63.515472 
1633.000000	63.510823 
1632.000000	63.503813 
1631.000000	63.494801 
1630.000000	63.484358 
1629.000000	63.473033 
1628.000000	63.461422 
1627.000000	63.450074 
1626.000000	63.439607 
1625.000000	63.430714 
1624.000000	63.424062 
1623.000000	63.420200 
1622.000000	63.419771 
1621.000000	63.422775 
1620.000000	63.428831 
1619.000000	63.436770 
1618.000000	63.444900 
1617.000000	63.451027 
1616.000000	63.452982 
1615.000000	63.449120 
1614.000000	63.438367 
1613.000000	63.420867 
1612.000000	63.397955 
1611.000000	63.371896 
1610.000000	63.345551 
1609.000000	63.322114 
1608.000000	63.304352 
1607.000000	63.294291 
1606.000000	63.292789 
1605.000000	63.299536 
1604.000000	63.313102 
1603.000000	63.331103 
1602.000000	63.350892 
1601.000000	63.369774 
1600.000000	63.385891 
1599.000000	63.397979 
1598.000000	63.406014 
1597.000000	63.410663 
1596.000000	63.413071 
1595.000000	63.414645 
1594.000000	63.416481 
1593.000000	63.419151 
1592.000000	63.422560 
1591.000000	63.426232 
1590.000000	63.429188 
1589.000000	63.430714 
1588.000000	63.430237 
1587.000000	63.427782 
1586.000000	63.423776 
1585.000000	63.418984 
1584.000000	63.414096 
1583.000000	63.409733 
1582.000000	63.406181 
1581.000000	63.403344 
1580.000000	63.400793 
1579.000000	63.398122 
1578.000000	63.395071 
1577.000000	63.391566 
1576.000000	63.388156 
1575.000000	63.385581 
1574.000000	63.384866 
1573.000000	63.386869 
1572.000000	63.392210 
1571.000000	63.400793 
1570.000000	63.411927 
1569.000000	63.424277 
1568.000000	63.435888 
1567.000000	63.444828 
1566.000000	63.449501 
1565.000000	63.449120 
1564.000000	63.443565 
1563.000000	63.433909 
1562.000000	63.421845 
1561.000000	63.409566 
1560.000000	63.399147 
1559.000000	63.391876 
1558.000000	63.388133 
1557.000000	63.387084 
1556.000000	63.387012 
1555.000000	63.385677 
1554.000000	63.380980 
1553.000000	63.371539 
1552.000000	63.357210 
1551.000000	63.339042 
1550.000000	63.319110 
1549.000000	63.300347 
1548.000000	63.285660 
1547.000000	63.277339 
1546.000000	63.276696 
1545.000000	63.283634 
1544.000000	63.296866 
1543.000000	63.313961 
1542.000000	63.331890 
1541.000000	63.347625 
1540.000000	63.358473 
1539.000000	63.362812 
1538.000000	63.359904 
1537.000000	63.350248 
1536.000000	63.335180 
1535.000000	63.316774 
1534.000000	63.297224 
1533.000000	63.278818 
1532.000000	63.263344 
1531.000000	63.252115 
1530.000000	63.245940 
1529.000000	63.245105 
1528.000000	63.249492 
1527.000000	63.258790 
1526.000000	63.272500 
1525.000000	63.290047 
1524.000000	63.310837 
1523.000000	63.334083 
1522.000000	63.358831 
1521.000000	63.383841 
1520.000000	63.407635 
1519.000000	63.428640 
1518.000000	63.445281 
1517.000000	63.456439 
1516.000000	63.461756 
1515.000000	63.461685 
1514.000000	63.457798 
1513.000000	63.452148 
1512.000000	63.447284 
1511.000000	63.445425 
1510.000000	63.448047 
1509.000000	63.455700 
1508.000000	63.467884 
1507.000000	63.482975 
1506.000000	63.498878 
1505.000000	63.512969 
1504.000000	63.522768 
1503.000000	63.526296 
1502.000000	63.522505 
1501.000000	63.511562 
1500.000000	63.494849 
1499.000000	63.474702 
1498.000000	63.453936 
1497.000000	63.435482 
1496.000000	63.421416 
1495.000000	63.412737 
1494.000000	63.408946 
1493.000000	63.408446 
1492.000000	63.408851 
1491.000000	63.407349 
1490.000000	63.401627 
1489.000000	63.390541 
1488.000000	63.374352 
1487.000000	63.354396 
1486.000000	63.332891 
1485.000000	63.312339 
1484.000000	63.295102 
1483.000000	63.282704 
1482.000000	63.275814 
1481.000000	63.274192 
1480.000000	63.277029 
1479.000000	63.283181 
1478.000000	63.291215 
1477.000000	63.299798 
1476.000000	63.307452 
1475.000000	63.312864 
1474.000000	63.314938 
1473.000000	63.312959 
1472.000000	63.306856 
1471.000000	63.297080 
1470.000000	63.284873 
1469.000000	63.271737 
1468.000000	63.259410 
1467.000000	63.249230 
1466.000000	63.241767 
1465.000000	63.236737 
1464.000000	63.233041 
1463.000000	63.229250 
1462.000000	63.224005 
1461.000000	63.216400 
1460.000000	63.206648 
1459.000000	63.195753 
1458.000000	63.185453 
1457.000000	63.177609 
1456.000000	63.173532 
1455.000000	63.173675 
1454.000000	63.177537 
1453.000000	63.183832 
1452.000000	63.190793 
1451.000000	63.196825 
1450.000000	63.200974 
1449.000000	63.203048 
1448.000000	63.203692 
1447.000000	63.203859 
1446.000000	63.204383 
1445.000000	63.205528 
1444.000000	63.206911 
1443.000000	63.207435 
1442.000000	63.205742 
1441.000000	63.200879 
1440.000000	63.192796 
1439.000000	63.182449 
1438.000000	63.171720 
1437.000000	63.163208 
1436.000000	63.159394 
1435.000000	63.161969 
1434.000000	63.171267 
1433.000000	63.186025 
1432.000000	63.203310 
1431.000000	63.219404 
1430.000000	63.230252 
1429.000000	63.232445 
1428.000000	63.224172 
1427.000000	63.205575 
1426.000000	63.179063 
1425.000000	63.148665 
1424.000000	63.119292 
1423.000000	63.095712 
1422.000000	63.081765 
1421.000000	63.079404 
1420.000000	63.088464 
1419.000000	63.106703 
1418.000000	63.130402 
1417.000000	63.155102 
1416.000000	63.176655 
1415.000000	63.192081 
1414.000000	63.199782 
1413.000000	63.199830 
1412.000000	63.193869 
1411.000000	63.184523 
1410.000000	63.174581 
1409.000000	63.166236 
1408.000000	63.160848 
1407.000000	63.158440 
1406.000000	63.158035 
1405.000000	63.157796 
1404.000000	63.155889 
1403.000000	63.150620 
1402.000000	63.141226 
1401.000000	63.127994 
1400.000000	63.112115 
1399.000000	63.095593 
1398.000000	63.080453 
1397.000000	63.068652 
1396.000000	63.061380 
1395.000000	63.058948 
1394.000000	63.060832 
1393.000000	63.065743 
1392.000000	63.071775 
1391.000000	63.076996 
1390.000000	63.079738 
1389.000000	63.078856 
1388.000000	63.073992 
1387.000000	63.065361 
1386.000000	63.053917 
1385.000000	63.041043 
1384.000000	63.028192 
1383.000000	63.016843 
1382.000000	63.007831 
1381.000000	63.001656 
1380.000000	62.997937 
1379.000000	62.995910 
1378.000000	62.994623 
1377.000000	62.992906 
1376.000000	62.989997 
1375.000000	62.985467 
1374.000000	62.979578 
1373.000000	62.973093 
1372.000000	62.967395 
1371.000000	62.963914 
1370.000000	62.964057 
1369.000000	62.968826 
1368.000000	62.978553 
1367.000000	62.993025 
1366.000000	63.011050 
1365.000000	63.030815 
1364.000000	63.050174 
1363.000000	63.067102 
1362.000000	63.079881 
1361.000000	63.087630 
1360.000000	63.090324 
1359.000000	63.089036 
1358.000000	63.085627 
1357.000000	63.082385 
1356.000000	63.081526 
1355.000000	63.084769 
1354.000000	63.092827 
1353.000000	63.105344 
1352.000000	63.120865 
1351.000000	63.137102 
1350.000000	63.151621 
1349.000000	63.161945 
1348.000000	63.166451 
1347.000000	63.164329 
1346.000000	63.155889 
1345.000000	63.142347 
1344.000000	63.125395 
1343.000000	63.107228 
1342.000000	63.089919 
1341.000000	63.075256 
1340.000000	63.064622 
1339.000000	63.058972 
1338.000000	63.058924 
1337.000000	63.064622 
1336.000000	63.075637 
1335.000000	63.091135 
1334.000000	63.109683 
1333.000000	63.129472 
1332.000000	63.148355 
1331.000000	63.164210 
1330.000000	63.175058 
1329.000000	63.179707 
1328.000000	63.177466 
1327.000000	63.168239 
1326.000000	63.152527 
1325.000000	63.131403 
1324.000000	63.106250 
1323.000000	63.078856 
1322.000000	63.051342 
1321.000000	63.025856 
1320.000000	63.004469 
1319.000000	62.988829 
1318.000000	62.979936 
1317.000000	62.977719 
1316.000000	62.980985 
1315.000000	62.987303 
1314.000000	62.993669 
1313.000000	62.996864 
1312.000000	62.994194 
1311.000000	62.984204 
1310.000000	62.967038 
1309.000000	62.944507 
1308.000000	62.919878 
1307.000000	62.897253 
1306.000000	62.880539 
1305.000000	62.872910 
1304.000000	62.876248 
1303.000000	62.890696 
1302.000000	62.914800 
1301.000000	62.945437 
1300.000000	62.978601 
1299.000000	63.009905 
1298.000000	63.035106 
1297.000000	63.051080 
1296.000000	63.056159 
1295.000000	63.050484 
1294.000000	63.035893 
1293.000000	63.015556 
1292.000000	62.993288 
1291.000000	62.972974 
1290.000000	62.957882 
1289.000000	62.949776 
1288.000000	62.948870 
1287.000000	62.953829 
1286.000000	62.962269 
1285.000000	62.971353 
1284.000000	62.978434 
1283.000000	62.981700 
1282.000000	62.980341 
1281.000000	62.974739 
1280.000000	62.966084 
1279.000000	62.955975 
1278.000000	62.946057 
1277.000000	62.937736 
1276.000000	62.931728 
1275.000000	62.928509 
1274.000000	62.927746 
1273.000000	62.928652 
1272.000000	62.929940 
1271.000000	62.930059 
1270.000000	62.927365 
1269.000000	62.920665 
1268.000000	62.909412 
1267.000000	62.893724 
1266.000000	62.874579 
1265.000000	62.853765 
1264.000000	62.833523 
1263.000000	62.816166 
1262.000000	62.803387 
1261.000000	62.795853 
1260.000000	62.793231 
1259.000000	62.794041 
1258.000000	62.796282 
1257.000000	62.797760 
1256.000000	62.796783 
1255.000000	62.792587 
1254.000000	62.785410 
1253.000000	62.776470 
1252.000000	62.767529 
1251.000000	62.760353 
1250.000000	62.756299 
1249.000000	62.756037 
1248.000000	62.759304 
1247.000000	62.765097 
1246.000000	62.771415 
1245.000000	62.776064 
1244.000000	62.776947 
1243.000000	62.772893 
1242.000000	62.763476 
1241.000000	62.749886 
1240.000000	62.734103 
1239.000000	62.719011 
1238.000000	62.707543 
1237.000000	62.702178 
1236.000000	62.704277 
1235.000000	62.713885 
1234.000000	62.729597 
1233.000000	62.748932 
1232.000000	62.768959 
1231.000000	62.786889 
1230.000000	62.800478 
1229.000000	62.808489 
1228.000000	62.810802 
1227.000000	62.808442 
1226.000000	62.803053 
1225.000000	62.796545 
1224.000000	62.790751 
1223.000000	62.787151 
1222.000000	62.786555 
1221.000000	62.789487 
1220.000000	62.795877 
1219.000000	62.805438 
1218.000000	62.817573 
1217.000000	62.831497 
1216.000000	62.846040 
1215.000000	62.859749 
1214.000000	62.870764 
1213.000000	62.877035 
1212.000000	62.876868 
1211.000000	62.869143 
1210.000000	62.853765 
1209.000000	62.831902 
1208.000000	62.805795 
1207.000000	62.778234 
1206.000000	62.752199 
1205.000000	62.730336 
1204.000000	62.714290 
1203.000000	62.704753 
1202.000000	62.701272 
1201.000000	62.702441 
1200.000000	62.706494 
1199.000000	62.711811 
1198.000000	62.716817 
1197.000000	62.720656 
1196.000000	62.722992 
1195.000000	62.724113 
1194.000000	62.724566 
1193.000000	62.725019 
1192.000000	62.725877 
1191.000000	62.727308 
1190.000000	62.729239 
1189.000000	62.731337 
1188.000000	62.733101 
1187.000000	62.734246 
1186.000000	62.734413 
1185.000000	62.733626 
1184.000000	62.732291 
1183.000000	62.730932 
1182.000000	62.730145 
1181.000000	62.730264 
1180.000000	62.731313 
1179.000000	62.732696 
1178.000000	62.733530 
1177.000000	62.732696 
1176.000000	62.729001 
1175.000000	62.721753 
1174.000000	62.710881 
1173.000000	62.697005 
1172.000000	62.681388 
1171.000000	62.665772 
1170.000000	62.652134 
1169.000000	62.642312 
1168.000000	62.637805 
1167.000000	62.639570 
1166.000000	62.647724 
1165.000000	62.661838 
1164.000000	62.680649 
1163.000000	62.702274 
1162.000000	62.724375 
1161.000000	62.744069 
1160.000000	62.758421 
1159.000000	62.764787 
1158.000000	62.761235 
1157.000000	62.746906 
1156.000000	62.722682 
1155.000000	62.690711 
1154.000000	62.654709 
1153.000000	62.619161 
1152.000000	62.588596 
1151.000000	62.566924 
1150.000000	62.556838 
1149.000000	62.559461 
1148.000000	62.574076 
1147.000000	62.598490 
1146.000000	62.629389 
1145.000000	62.662935 
1144.000000	62.695193 
1143.000000	62.723112 
1142.000000	62.744140 
1141.000000	62.757253 
1140.000000	62.762308 
1139.000000	62.760472 
1138.000000	62.753629 
1137.000000	62.744069 
1136.000000	62.734580 
1135.000000	62.727308 
1134.000000	62.723994 
1133.000000	62.725162 
1132.000000	62.730598 
1131.000000	62.738990 
1130.000000	62.748503 
1129.000000	62.756872 
1128.000000	62.762022 
1127.000000	62.762260 
1126.000000	62.756633 
1125.000000	62.744998 
1124.000000	62.728023 
1123.000000	62.707185 
1122.000000	62.684464 
1121.000000	62.662100 
1120.000000	62.642455 
1119.000000	62.627506 
1118.000000	62.618684 
1117.000000	62.616515 
1116.000000	62.620592 
1115.000000	62.629485 
1114.000000	62.640953 
1113.000000	62.652301 
1112.000000	62.661099 
1111.000000	62.665867 
1110.000000	62.666344 
1109.000000	62.663483 
1108.000000	62.659358 
1107.000000	62.656307 
1106.000000	62.656474 
1105.000000	62.661075 
1104.000000	62.670087 
1103.000000	62.682342 
1102.000000	62.695789 
1101.000000	62.708282 
1100.000000	62.717604 
1099.000000	62.722063 
1098.000000	62.720584 
1097.000000	62.712979 
1096.000000	62.699627 
1095.000000	62.681412 
1094.000000	62.659740 
1093.000000	62.636470 
1092.000000	62.613701 
1091.000000	62.593674 
1090.000000	62.578678 
1089.000000	62.570714 
1088.000000	62.571144 
1087.000000	62.580227 
1086.000000	62.597060 
1085.000000	62.619495 
1084.000000	62.644147 
1083.000000	62.667059 
1082.000000	62.684249 
1081.000000	62.692761 
1080.000000	62.690830 
1079.000000	62.678766 
1078.000000	62.658619 
1077.000000	62.634062 
1076.000000	62.609386 
1075.000000	62.589120 
1074.000000	62.576770 
1073.000000	62.574481 
1072.000000	62.582635 
1071.000000	62.599897 
1070.000000	62.623429 
1069.000000	62.649703 
1068.000000	62.675189 
1067.000000	62.696766 
1066.000000	62.712240 
1065.000000	62.720799 
1064.000000	62.722826 
1063.000000	62.719869 
1062.000000	62.714099 
1061.000000	62.708020 
1060.000000	62.703657 
1059.000000	62.702560 
1058.000000	62.705254 
1057.000000	62.711548 
1056.000000	62.720513 
1055.000000	62.730646 
1054.000000	62.740731 
1053.000000	62.750148 
1052.000000	62.758779 
1051.000000	62.767171 
1050.000000	62.776088 
1049.000000	62.786388 
1048.000000	62.798118 
1047.000000	62.810468 
1046.000000	62.821388 
1045.000000	62.827944 
1044.000000	62.827110 
1043.000000	62.816572 
1042.000000	62.795352 
1041.000000	62.764310 
1040.000000	62.726306 
1039.000000	62.685799 
1038.000000	62.647986 
1037.000000	62.617540 
1036.000000	62.597703 
1035.000000	62.589597 
1034.000000	62.591981 
1033.000000	62.601685 
1032.000000	62.614393 
1031.000000	62.625694 
1030.000000	62.632060 
1029.000000	62.631630 
1028.000000	62.624049 
1027.000000	62.610507 
1026.000000	62.592983 
1025.000000	62.573695 
1024.000000	62.554049 
1023.000000	62.534976 
1022.000000	62.516736 
1021.000000	62.499618 
1020.000000	62.483835 
1019.000000	62.470316 
1018.000000	62.460541 
1017.000000	62.456369 
1016.000000	62.459397 
1015.000000	62.470889 
1014.000000	62.490940 
1013.000000	62.518596 
1012.000000	62.551736 
1011.000000	62.587571 
1010.000000	62.622928 
1009.000000	62.655043 
1008.000000	62.681770 
1007.000000	62.701916 
1006.000000	62.714910 
1005.000000	62.721109 
1004.000000	62.721085 
1003.000000	62.715601 
1002.000000	62.704825 
1001.000000	62.689185 
1000.000000	62.668752 
999.000000	 62.643885 
998.000000	 62.615227 
997.000000	 62.584114 
996.000000	 62.552332 
995.000000	 62.522077 
994.000000	 62.495851 
993.000000	 62.475657 
992.000000	 62.463235 
991.000000	 62.459373 
990.000000	 62.464046 
989.000000	 62.476158 
988.000000	 62.494015 
987.000000	 62.515354 
986.000000	 62.537908 
985.000000	 62.559318 
984.000000	 62.577581 
983.000000	 62.591195 
982.000000	 62.599110 
981.000000	 62.601113 
980.000000	 62.597727 
979.000000	 62.590241 
978.000000	 62.580418 
977.000000	 62.570357 
976.000000	 62.562227 
975.000000	 62.557697 
974.000000	 62.557935 
973.000000	 62.562918 
972.000000	 62.571763 
971.000000	 62.582397 
970.000000	 62.592315 
969.000000	 62.598848 
968.000000	 62.599563 
967.000000	 62.592935 
966.000000	 62.578511 
965.000000	 62.557220 
964.000000	 62.530827 
963.000000	 62.502145 
962.000000	 62.474298 
961.000000	 62.450504 
960.000000	 62.433314 
959.000000	 62.424468 
958.000000	 62.424635 
957.000000	 62.432980 
956.000000	 62.447428 
955.000000	 62.464880 
954.000000	 62.481904 
953.000000	 62.495374 
952.000000	 62.503361 
951.000000	 62.505292 
950.000000	 62.502217 
949.000000	 62.496328 
948.000000	 62.490391 
947.000000	 62.487173 
946.000000	 62.488627 
945.000000	 62.495422 
944.000000	 62.506818 
943.000000	 62.521052 
942.000000	 62.535738 
941.000000	 62.548565 
940.000000	 62.557983 
939.000000	 62.563347 
938.000000	 62.565469 
937.000000	 62.565827 
936.000000	 62.566590 
935.000000	 62.569737 
934.000000	 62.576723 
933.000000	 62.587928 
932.000000	 62.602615 
931.000000	 62.619113 
930.000000	 62.634992 
929.000000	 62.647795 
928.000000	 62.655353 
927.000000	 62.656760 
926.000000	 62.652635 
925.000000	 62.645316 
924.000000	 62.638378 
923.000000	 62.635588 
922.000000	 62.640166 
921.000000	 62.653541 
920.000000	 62.675118 
919.000000	 62.701797 
918.000000	 62.728619 
917.000000	 62.749981 
916.000000	 62.760853 
915.000000	 62.758088 
914.000000	 62.741136 
913.000000	 62.712359 
912.000000	 62.676167 
911.000000	 62.638187 
910.000000	 62.603926 
909.000000	 62.577366 
908.000000	 62.560224 
907.000000	 62.551784 
906.000000	 62.549638 
905.000000	 62.549996 
904.000000	 62.549114 
903.000000	 62.543773 
902.000000	 62.532210 
901.000000	 62.513804 
900.000000	 62.489652 
899.000000	 62.461662 
898.000000	 62.433075 
897.000000	 62.407469 
896.000000	 62.388730 
895.000000	 62.380623 
894.000000	 62.386178 
893.000000	 62.407302 
892.000000	 62.443637 
891.000000	 62.492942 
890.000000	 62.550258 
889.000000	 62.609124 
888.000000	 62.662076 
887.000000	 62.702107 
886.000000	 62.724065 
885.000000	 62.725758 
884.000000	 62.708210 
883.000000	 62.675356 
882.000000	 62.633037 
881.000000	 62.587881 
880.000000	 62.545657 
879.000000	 62.510299 
878.000000	 62.483525 
877.000000	 62.465023 
876.000000	 62.453317 
875.000000	 62.446641 
874.000000	 62.443661 
873.000000	 62.443804 
872.000000	 62.447118 
871.000000	 62.453937 
870.000000	 62.463712 
869.000000	 62.475228 
868.000000	 62.486028 
867.000000	 62.493419 
866.000000	 62.494874 
865.000000	 62.489199 
864.000000	 62.476634 
863.000000	 62.459588 
862.000000	 62.442064 
861.000000	 62.429189 
860.000000	 62.425899 
859.000000	 62.435770 
858.000000	 62.460088 
857.000000	 62.497091 
856.000000	 62.542510 
855.000000	 62.589597 
854.000000	 62.630677 
853.000000	 62.658429 
852.000000	 62.667608 
851.000000	 62.655854 
850.000000	 62.624239 
849.000000	 62.576818 
848.000000	 62.519359 
847.000000	 62.458896 
846.000000	 62.401890 
845.000000	 62.353253 
844.000000	 62.315607 
843.000000	 62.289428 
842.000000	 62.273597 
841.000000	 62.266016 
840.000000	 62.265110 
839.000000	 62.269568 
838.000000	 62.279462 
837.000000	 62.295746 
836.000000	 62.319850 
835.000000	 62.352514 
834.000000	 62.393164 
833.000000	 62.439775 
832.000000	 62.488460 
831.000000	 62.534165 
830.000000	 62.571334 
829.000000	 62.595081 
828.000000	 62.602329 
827.000000	 62.592530 
826.000000	 62.568211 
825.000000	 62.534403 
824.000000	 62.498164 
823.000000	 62.466764 
822.000000	 62.446379 
821.000000	 62.440752 
820.000000	 62.450313 
819.000000	 62.472343 
818.000000	 62.501597 
817.000000	 62.531661 
816.000000	 62.556385 
815.000000	 62.571191 
814.000000	 62.573480 
813.000000	 62.563061 
812.000000	 62.541556 
811.000000	 62.512016 
810.000000	 62.478089 
809.000000	 62.443208 
808.000000	 62.410068 
807.000000	 62.380337 
806.000000	 62.355256 
805.000000	 62.335443 
804.000000	 62.320899 
803.000000	 62.311768 
802.000000	 62.308263 
801.000000	 62.310624 
800.000000	 62.318849 
799.000000	 62.332749 
798.000000	 62.351703 
797.000000	 62.374520 
796.000000	 62.399506 
795.000000	 62.424659 
794.000000	 62.447881 
793.000000	 62.467432 
792.000000	 62.481975 
791.000000	 62.490749 
790.000000	 62.493348 
789.000000	 62.490153 
788.000000	 62.481570 
787.000000	 62.468099 
786.000000	 62.449598 
785.000000	 62.425708 
784.000000	 62.395358 
783.000000	 62.357759 
782.000000	 62.312269 
781.000000	 62.259268 
780.000000	 62.200427 
779.000000	 62.138485 
778.000000	 62.077641 
777.000000	 62.022638 
776.000000	 61.978530 
775.000000	 61.949229 
774.000000	 61.937284 
773.000000	 61.942744 
772.000000	 61.963725 
771.000000	 61.996507 
770.000000	 62.036275 
769.000000	 62.077951 
768.000000	 62.117338 
767.000000	 62.151598 
766.000000	 62.179589 
765.000000	 62.201547 
764.000000	 62.218737 
763.000000	 62.232398 
762.000000	 62.243318 
761.000000	 62.251210 
760.000000	 62.254786 
759.000000	 62.252211 
758.000000	 62.242174 
757.000000	 62.224578 
756.000000	 62.201213 
755.000000	 62.175679 
754.000000	 62.153005 
753.000000	 62.138271 
752.000000	 62.135529 
751.000000	 62.146115 
750.000000	 62.168431 
749.000000	 62.197589 
748.000000	 62.226700 
747.000000	 62.248253 
746.000000	 62.256336 
745.000000	 62.248134 
744.000000	 62.224626 
743.000000	 62.190723 
742.000000	 62.153625 
741.000000	 62.120914 
740.000000	 62.098574 
739.000000	 62.089300 
738.000000	 62.092018 
737.000000	 62.103462 
736.000000	 62.118887 
735.000000	 62.134051 
734.000000	 62.145972 
733.000000	 62.153959 
732.000000	 62.159013 
731.000000	 62.162518 
730.000000	 62.165665 
729.000000	 62.168169 
728.000000	 62.168359 
727.000000	 62.163615 
726.000000	 62.151026 
725.000000	 62.128686 
724.000000	 62.096428 
723.000000	 62.056732 
722.000000	 62.013792 
721.000000	 61.972808 
720.000000	 61.938953 
719.000000	 61.916136 
718.000000	 61.906290 
717.000000	 61.908864 
716.000000	 61.921167 
715.000000	 61.938810 
714.000000	 61.956667 
713.000000	 61.969733 
712.000000	 61.973929 
711.000000	 61.966562 
710.000000	 61.946344 
709.000000	 61.913681 
708.000000	 61.870527 
707.000000	 61.820316 
706.000000	 61.767220 
705.000000	 61.715936 
704.000000	 61.670780 
703.000000	 61.635470 
702.000000	 61.612081 
701.000000	 61.601734 
700.000000	 61.604070 
699.000000	 61.618614 
698.000000	 61.644911 
697.000000	 61.683011 
696.000000	 61.732864 
695.000000	 61.793804 
694.000000	 61.863851 
693.000000	 61.938619 
692.000000	 62.011146 
691.000000	 62.073206 
690.000000	 62.117004 
689.000000	 62.136983 
688.000000	 62.131237 
687.000000	 62.103104 
686.000000	 62.060570 
685.000000	 62.014746 
684.000000	 61.977267 
683.000000	 61.957335 
682.000000	 61.959791 
681.000000	 61.984086 
680.000000	 62.024927 
679.000000	 62.074160 
678.000000	 62.123036 
677.000000	 62.165212 
676.000000	 62.197780 
675.000000	 62.221050 
674.000000	 62.237644 
673.000000	 62.250971 
672.000000	 62.262988 
671.000000	 62.273263 
670.000000	 62.278151 
669.000000	 62.272787 
668.000000	 62.250971 
667.000000	 62.208223 
666.000000	 62.141609 
665.000000	 62.051939 
664.000000	 61.942124 
663.000000	 61.817431 
662.000000	 61.683511 
661.000000	 61.545920 
660.000000	 61.411142 
659.000000	 61.286783 
658.000000	 61.180281 
657.000000	 61.098885 
656.000000	 61.049771 
655.000000	 61.038732 
654.000000	 61.067414 
653.000000	 61.133766 
652.000000	 61.230611 
651.000000	 61.347556 
650.000000	 61.472058 
649.000000	 61.591911 
648.000000	 61.695790 
647.000000	 61.776232 
646.000000	 61.829614 
645.000000	 61.857151 
644.000000	 61.863589 
643.000000	 61.856245 
642.000000	 61.843490 
641.000000	 61.832523 
640.000000	 61.829042 
639.000000	 61.834716 
638.000000	 61.848330 
637.000000	 61.863398 
636.000000	 61.870360 
635.000000	 61.856698 
634.000000	 61.810111 
633.000000	 61.719179 
632.000000	 61.576890 
631.000000	 61.383080 
630.000000	 61.146831 
629.000000	 60.884952 
628.000000	 60.621881 
627.000000	 60.385727 
626.000000	 60.205125 
625.000000	 60.103821 
624.000000	 60.097050 
623.000000	 60.187697 
622.000000	 60.365843 
621.000000	 60.610008 
620.000000	 60.890555 
619.000000	 61.173343 
618.000000	 61.426043 
617.000000	 61.622643 
616.000000	 61.746954 
615.000000	 61.793303 
614.000000	 61.766052 
613.000000	 61.676692 
612.000000	 61.541604 
611.000000	 61.378955 
610.000000	 61.207747 
609.000000	 61.046314 
608.000000	 60.911393 
607.000000	 60.817027 
606.000000	 60.773134 
605.000000	 60.784173 
604.000000	 60.847496 
603.000000	 60.953545 
602.000000	 61.086750 
601.000000	 61.228156 
600.000000	 61.358690 
599.000000	 61.462378 
598.000000	 61.527180 
597.000000	 61.548042 
596.000000	 61.526942 
595.000000	 61.472916 
594.000000	 61.398363 
593.000000	 61.318230 
592.000000	 61.247777 
591.000000	 61.199617 
590.000000	 61.183166 
589.000000	 61.201524 
588.000000	 61.253046 
587.000000	 61.328983 
586.000000	 61.416792 
585.000000	 61.499571 
584.000000	 61.559247 
583.000000	 61.579346 
582.000000	 61.548399 
581.000000	 61.462163 
580.000000	 61.325001 
579.000000	 61.149263 
578.000000	 60.953927 
577.000000	 60.761952 
576.000000	 60.597014 
575.000000	 60.479998 
574.000000	 60.425972 
573.000000	 60.442423 
572.000000	 60.527873 
571.000000	 60.672092 
570.000000	 60.858225 
569.000000	 61.063814 
568.000000	 61.266589 
567.000000	 61.446785 
566.000000	 61.591815 
565.000000	 61.695170 
564.000000	 61.758708 
563.000000	 61.790394 
562.000000	 61.801743 
561.000000	 61.804771 
560.000000	 61.808228 
559.000000	 61.817026 
558.000000	 61.830210 
557.000000	 61.843323 
556.000000	 61.848878 
555.000000	 61.840248 
554.000000	 61.812376 
553.000000	 61.764216 
552.000000	 61.699438 
551.000000	 61.626172 
550.000000	 61.554789 
549.000000	 61.496353 
548.000000	 61.460351 
547.000000	 61.452817 
546.000000	 61.476111 
545.000000	 61.527705 
544.000000	 61.600756 
543.000000	 61.684417 
542.000000	 61.766958 
541.000000	 61.835575 
540.000000	 61.878418 
539.000000	 61.886048 
538.000000	 61.852145 
537.000000	 61.775445 
536.000000	 61.660933 
535.000000	 61.518239 
534.000000	 61.360788 
533.000000	 61.202430 
532.000000	 61.055970 
531.000000	 60.929799 
530.000000	 60.827469 
529.000000	 60.747194 
528.000000	 60.683321 
527.000000	 60.628557 
526.000000	 60.576391 
525.000000	 60.521960 
524.000000	 60.463714 
523.000000	 60.402727 
522.000000	 60.343313 
521.000000	 60.291099 
520.000000	 60.253167 
519.000000	 60.235762 
518.000000	 60.244441 
517.000000	 60.282921 
516.000000	 60.352301 
515.000000	 60.450625 
514.000000	 60.571908 
513.000000	 60.706353 
512.000000	 60.841274 
511.000000	 60.962057 
510.000000	 61.055803 
509.000000	 61.113929 
508.000000	 61.133933 
507.000000	 61.120295 
506.000000	 61.082649 
505.000000	 61.033177 
504.000000	 60.984230 
503.000000	 60.945749 
502.000000	 60.924339 
501.000000	 60.922765 
500.000000	 60.941338 
499.000000	 60.979127 
498.000000	 61.032986 
497.000000	 61.098623 
496.000000	 61.169910 
495.000000	 61.239790 
494.000000	 61.300659 
493.000000	 61.345577 
492.000000	 61.369490 
491.000000	 61.369800 
490.000000	 61.346769 
489.000000	 61.303234 
488.000000	 61.244344 
487.000000	 61.176538 
486.000000	 61.107349 
485.000000	 61.043334 
484.000000	 60.990071 
483.000000	 60.950374 
482.000000	 60.924601 
481.000000	 60.910511 
480.000000	 60.904121 
479.000000	 60.900878 
478.000000	 60.897207 
477.000000	 60.890507 
476.000000	 60.879135 
475.000000	 60.862755 
474.000000	 60.841965 
473.000000	 60.816931 
472.000000	 60.787200 
471.000000	 60.751628 
470.000000	 60.708999 
469.000000	 60.658979 
468.000000	 60.602998 
467.000000	 60.544991 
466.000000	 60.490274 
465.000000	 60.445427 
464.000000	 60.415577 
463.000000	 60.401296 
462.000000	 60.399484 
461.000000	 60.402536 
460.000000	 60.403013 
459.000000	 60.395145 
458.000000	 60.378813 
457.000000	 60.359573 
456.000000	 60.347485 
455.000000	 60.355019 
454.000000	 60.390949 
453.000000	 60.457420 
452.000000	 60.546112 
451.000000	 60.639286 
450.000000	 60.713505 
449.000000	 60.745668 
448.000000	 60.719108 
447.000000	 60.628819 
446.000000	 60.482811 
445.000000	 60.301089 
444.000000	 60.110664 
443.000000	 59.940457 
442.000000	 59.813499 
441.000000	 59.744405 
440.000000	 59.740138 
439.000000	 59.800386 
438.000000	 59.920430 
437.000000	 60.091185 
436.000000	 60.303092 
435.000000	 60.542559 
434.000000	 60.791134 
433.000000	 61.025285 
432.000000	 61.216568 
431.000000	 61.337637 
430.000000	 61.366939 
429.000000	 61.295318 
428.000000	 61.128020 
427.000000	 60.888195 
426.000000	 60.615658 
425.000000	 60.356163 
424.000000	 60.152959 
423.000000	 60.035419 
422.000000	 60.014748 
421.000000	 60.077810 
420.000000	 60.190868 
419.000000	 60.311508 
418.000000	 60.400629 
417.000000	 60.423088 
416.000000	 60.355424 
415.000000	 60.192751 
414.000000	 59.947299 
413.000000	 59.641599 
412.000000	 59.302020 
411.000000	 58.955264 
410.000000	 58.622837 
409.000000	 58.310389 
408.000000	 58.019471 
407.000000	 57.750797 
406.000000	 57.516193 
405.000000	 57.340550 
404.000000	 57.261133 
403.000000	 57.314991 
402.000000	 57.530951 
401.000000	 57.918477 
400.000000	 58.457446 
399.000000	 59.088444 
398.000000	 59.735369 
397.000000	 60.313796 
396.000000	 60.768461 
395.000000	 61.076831 
394.000000	 61.290717 
393.000000	 61.527776 
392.000000	 61.922144 
391.000000	 62.580990 
390.000000	 63.560152 
389.000000	 64.840388 
388.000000	 66.312813 
387.000000	 67.810583 
386.000000	 69.147348 
385.000000	 70.173501 
384.000000	 70.845031 
383.000000	 71.217966 
382.000000	 71.428132 
381.000000	 71.627688 
380.000000	 71.973276 
379.000000	 72.520017 
378.000000	 73.185014 
377.000000	 73.775696 
376.000000	 74.008083 
375.000000	 73.656463 
374.000000	 72.685647 
373.000000	 71.227002 
372.000000	 69.636034 
371.000000	 68.246626 
370.000000	 67.279863 

