PE IR       SPECTRUM    SPECTRUM    ASCII       PEDS        1.60        
  -1
BZ6E26~1.ASC
17/04/07
20:16:25.00
17/04/07
20:16:25.00
tln
$BZ1503107-1_t0086$<tbV0>[-7.8,5.2,8.0,0.0,27,1,0]
370.000000
64









2002,4.07    
MIRTGS : RIGHTBACK : INTERNAL 2
MIR : ON : INTERNAL 2
OPTKBR

0.200000
8
8.000000
FILLER
RATIO
SPECTRUM
UNLOCKED 256

DOUBLE
64
COMBINED
1
0
0


1.000000
RATIO


1
0
TRUE
51149
0
LEFT NOT FITTED RIGHT NOT FITTED 0
NONE
NONE
15600
12.000000
4.427000
51148
TRUE
1 0 8 72 0 0 0 0 

15798.010000






#HDR
-1
-1
#GR
CM-1
%T
0.00002384185791015625
0.0
5000.000000
-1.000000
4631
8
89.982700
56.176185
#DATA
5000.000000	65.019655 
4999.000000	65.064501 
4998.000000	65.084886 
4997.000000	65.073752 
4996.000000	65.025949 
4995.000000	64.941716 
4994.000000	64.824318 
4993.000000	64.680814 
4992.000000	64.519762 
4991.000000	64.351034 
4990.000000	64.183616 
4989.000000	64.024949 
4988.000000	63.881182 
4987.000000	63.756752 
4986.000000	63.657712 
4985.000000	63.591694 
4984.000000	63.567233 
4983.000000	63.592004 
4982.000000	63.671660 
4981.000000	63.807153 
4980.000000	63.993072 
4979.000000	64.216399 
4978.000000	64.457440 
4977.000000	64.691019 
4976.000000	64.890646 
4975.000000	65.030789 
4974.000000	65.092730 
4973.000000	65.065193 
4972.000000	64.947676 
4971.000000	64.747953 
4970.000000	64.482927 
4969.000000	64.173221 
4968.000000	63.840770 
4967.000000	63.506841 
4966.000000	63.189983 
4965.000000	62.908267 
4964.000000	62.678551 
4963.000000	62.518405 
4962.000000	62.443614 
4961.000000	62.467265 
4960.000000	62.595415 
4959.000000	62.824773 
4958.000000	63.139700 
4957.000000	63.512516 
4956.000000	63.905405 
4955.000000	64.276790 
4954.000000	64.587569 
4953.000000	64.807438 
4952.000000	64.919900 
4951.000000	64.925360 
4950.000000	64.839768 
4949.000000	64.690470 
4948.000000	64.510130 
4947.000000	64.331722 
4946.000000	64.181423 
4945.000000	64.078903 
4944.000000	64.031386 
4943.000000	64.039134 
4942.000000	64.091634 
4941.000000	64.172506 
4940.000000	64.261102 
4939.000000	64.335918 
4938.000000	64.379882 
4937.000000	64.381217 
4936.000000	64.338517 
4935.000000	64.259481 
4934.000000	64.160346 
4933.000000	64.060711 
4932.000000	63.981008 
4931.000000	63.937854 
4930.000000	63.941431 
4929.000000	63.993906 
4928.000000	64.089846 
4927.000000	64.218187 
4926.000000	64.365100 
4925.000000	64.517092 
4924.000000	64.661741 
4923.000000	64.790129 
4922.000000	64.897561 
4921.000000	64.983582 
4920.000000	65.049648 
4919.000000	65.099120 
4918.000000	65.137410 
4917.000000	65.169286 
4916.000000	65.200710 
4915.000000	65.234208 
4914.000000	65.269589 
4913.000000	65.302014 
4912.000000	65.324521 
4911.000000	65.328812 
4910.000000	65.308356 
4909.000000	65.260553 
4908.000000	65.188312 
4907.000000	65.100383 
4906.000000	65.009665 
4905.000000	64.931154 
4904.000000	64.878225 
4903.000000	64.861083 
4902.000000	64.884614 
4901.000000	64.948129 
4900.000000	65.045428 
4899.000000	65.166473 
4898.000000	65.298748 
4897.000000	65.428709 
4896.000000	65.543317 
4895.000000	65.631747 
4894.000000	65.686202 
4893.000000	65.701770 
4892.000000	65.677523 
4891.000000	65.617346 
4890.000000	65.528917 
4889.000000	65.423655 
4888.000000	65.313482 
4887.000000	65.210676 
4886.000000	65.124487 
4885.000000	65.060591 
4884.000000	65.020537 
4883.000000	65.002560 
4882.000000	65.002655 
4881.000000	65.015840 
4880.000000	65.037536 
4879.000000	65.063810 
4878.000000	65.091586 
4877.000000	65.118217 
4876.000000	65.140390 
4875.000000	65.153646 
4874.000000	65.153217 
4873.000000	65.134763 
4872.000000	65.095210 
4871.000000	65.033888 
4870.000000	64.953780 
4869.000000	64.861488 
4868.000000	64.766025 
4867.000000	64.677500 
4866.000000	64.604830 
4865.000000	64.554381 
4864.000000	64.529371 
4863.000000	64.528846 
4862.000000	64.548563 
4861.000000	64.581513 
4860.000000	64.619135 
4859.000000	64.653110 
4858.000000	64.675879 
4857.000000	64.683222 
4856.000000	64.673709 
4855.000000	64.650583 
4854.000000	64.620137 
4853.000000	64.591670 
4852.000000	64.575099 
4851.000000	64.579701 
4850.000000	64.611864 
4849.000000	64.673519 
4848.000000	64.761376 
4847.000000	64.867353 
4846.000000	64.980173 
4845.000000	65.087342 
4844.000000	65.177774 
4843.000000	65.243887 
4842.000000	65.283012 
4841.000000	65.297317 
4840.000000	65.292882 
4839.000000	65.278172 
4838.000000	65.261244 
4837.000000	65.248608 
4836.000000	65.242886 
4835.000000	65.244269 
4834.000000	65.248847 
4833.000000	65.251135 
4832.000000	65.244483 
4831.000000	65.223908 
4830.000000	65.186834 
4829.000000	65.133905 
4828.000000	65.069532 
4827.000000	65.000319 
4826.000000	64.935016 
4825.000000	64.882230 
4824.000000	64.849591 
4823.000000	64.842057 
4822.000000	64.861440 
4821.000000	64.906001 
4820.000000	64.970898 
4819.000000	65.048623 
4818.000000	65.130066 
4817.000000	65.205621 
4816.000000	65.266227 
4815.000000	65.304589 
4814.000000	65.316224 
4813.000000	65.300345 
4812.000000	65.259242 
4811.000000	65.198349 
4810.000000	65.125989 
4809.000000	65.051341 
4808.000000	64.983820 
4807.000000	64.930534 
4806.000000	64.896059 
4805.000000	64.881038 
4804.000000	64.882850 
4803.000000	64.896368 
4802.000000	64.915561 
4801.000000	64.934945 
4800.000000	64.950346 
4799.000000	64.960050 
4798.000000	64.964056 
4797.000000	64.964365 
4796.000000	64.963364 
4795.000000	64.963531 
4794.000000	64.966201 
4793.000000	64.971828 
4792.000000	64.979791 
4791.000000	64.988493 
4790.000000	64.995694 
4789.000000	64.999103 
4788.000000	64.996743 
4787.000000	64.987301 
4786.000000	64.970660 
4785.000000	64.947581 
4784.000000	64.919614 
4783.000000	64.889216 
4782.000000	64.858746 
4781.000000	64.830613 
4780.000000	64.805746 
4779.000000	64.783501 
4778.000000	64.761710 
4777.000000	64.737462 
4776.000000	64.708042 
4775.000000	64.671683 
4774.000000	64.629292 
4773.000000	64.584374 
4772.000000	64.542913 
4771.000000	64.512133 
4770.000000	64.498543 
4769.000000	64.506244 
4768.000000	64.535713 
4767.000000	64.583325 
4766.000000	64.641666 
4765.000000	64.701008 
4764.000000	64.751648 
4763.000000	64.785838 
4762.000000	64.799475 
4761.000000	64.792728 
4760.000000	64.769768 
4759.000000	64.737653 
4758.000000	64.704465 
4757.000000	64.677500 
4756.000000	64.661598 
4755.000000	64.658546 
4754.000000	64.667820 
4753.000000	64.686536 
4752.000000	64.710974 
4751.000000	64.737391 
4750.000000	64.763450 
4749.000000	64.787912 
4748.000000	64.810323 
4747.000000	64.830732 
4746.000000	64.849042 
4745.000000	64.864683 
4744.000000	64.876341 
4743.000000	64.882206 
4742.000000	64.880466 
4741.000000	64.869332 
4740.000000	64.847469 
4739.000000	64.814424 
4738.000000	64.770913 
4737.000000	64.718842 
4736.000000	64.661478 
4735.000000	64.602732 
4734.000000	64.547252 
4733.000000	64.500498 
4732.000000	64.467978 
4731.000000	64.453768 
4730.000000	64.460420 
4729.000000	64.488077 
4728.000000	64.535188 
4727.000000	64.597606 
4726.000000	64.670491 
4725.000000	64.748811 
4724.000000	64.828181 
4723.000000	64.905428 
4722.000000	64.977908 
4721.000000	65.042877 
4720.000000	65.097546 
4719.000000	65.138626 
4718.000000	65.163636 
4717.000000	65.171790 
4716.000000	65.164637 
4715.000000	65.146160 
4714.000000	65.121865 
4713.000000	65.097427 
4712.000000	65.076875 
4711.000000	65.061378 
4710.000000	65.048384 
4709.000000	65.032243 
4708.000000	65.005993 
4707.000000	64.963579 
4706.000000	64.901757 
4705.000000	64.821982 
4704.000000	64.730238 
4703.000000	64.636349 
4702.000000	64.551067 
4701.000000	64.484620 
4700.000000	64.443540 
4699.000000	64.430952 
4698.000000	64.445900 
4697.000000	64.484190 
4696.000000	64.539957 
4695.000000	64.606022 
4694.000000	64.675140 
4693.000000	64.739847 
4692.000000	64.792871 
4691.000000	64.828062 
4690.000000	64.840769 
4689.000000	64.829111 
4688.000000	64.794111 
4687.000000	64.740371 
4686.000000	64.675450 
4685.000000	64.608407 
4684.000000	64.548134 
4683.000000	64.501523 
4682.000000	64.471936 
4681.000000	64.458918 
4680.000000	64.458799 
4679.000000	64.465546 
4678.000000	64.473199 
4677.000000	64.477467 
4676.000000	64.477372 
4675.000000	64.474344 
4674.000000	64.472508 
4673.000000	64.476299 
4672.000000	64.489984 
4671.000000	64.515256 
4670.000000	64.551997 
4669.000000	64.597821 
4668.000000	64.649271 
4667.000000	64.702939 
4666.000000	64.755845 
4665.000000	64.806342 
4664.000000	64.853072 
4663.000000	64.894795 
4662.000000	64.929151 
4661.000000	64.952731 
4660.000000	64.961409 
4659.000000	64.951300 
4658.000000	64.920401 
4657.000000	64.869785 
4656.000000	64.804697 
4655.000000	64.734029 
4654.000000	64.669275 
4653.000000	64.622044 
4652.000000	64.601778 
4651.000000	64.613485 
4650.000000	64.656519 
4649.000000	64.724540 
4648.000000	64.807415 
4647.000000	64.892792 
4646.000000	64.968991 
4645.000000	65.026760 
4644.000000	65.060448 
4643.000000	65.068912 
4642.000000	65.054607 
4641.000000	65.023279 
4640.000000	64.982223 
4639.000000	64.939379 
4638.000000	64.901924 
4637.000000	64.875316 
4636.000000	64.863467 
4635.000000	64.867281 
4634.000000	64.885020 
4633.000000	64.912676 
4632.000000	64.945030 
4631.000000	64.975905 
4630.000000	64.999246 
4629.000000	65.010261 
4628.000000	65.006351 
4627.000000	64.987206 
4626.000000	64.954781 
4625.000000	64.912295 
4624.000000	64.864039 
4623.000000	64.814329 
4622.000000	64.767622 
4621.000000	64.727997 
4620.000000	64.699268 
4619.000000	64.684987 
4618.000000	64.687871 
4617.000000	64.709973 
4616.000000	64.751005 
4615.000000	64.808082 
4614.000000	64.875268 
4613.000000	64.944219 
4612.000000	65.004801 
4611.000000	65.047144 
4610.000000	65.062689 
4609.000000	65.045833 
4608.000000	64.995527 
4607.000000	64.915680 
4606.000000	64.814043 
4605.000000	64.700913 
4604.000000	64.587783 
4603.000000	64.485740 
4602.000000	64.404177 
4601.000000	64.349603 
4600.000000	64.325380 
4599.000000	64.331221 
4598.000000	64.363694 
4597.000000	64.416551 
4596.000000	64.480853 
4595.000000	64.546656 
4594.000000	64.603376 
4593.000000	64.642453 
4592.000000	64.657402 
4591.000000	64.646458 
4590.000000	64.611577 
4589.000000	64.559841 
4588.000000	64.501261 
4587.000000	64.448428 
4586.000000	64.413809 
4585.000000	64.407825 
4584.000000	64.436578 
4583.000000	64.501190 
4582.000000	64.597892 
4581.000000	64.718222 
4580.000000	64.850687 
4579.000000	64.982604 
4578.000000	65.102267 
4577.000000	65.200376 
4576.000000	65.271258 
4575.000000	65.312576 
4574.000000	65.324997 
4573.000000	65.312123 
4572.000000	65.279197 
4571.000000	65.232229 
4570.000000	65.176963 
4569.000000	65.119814 
4568.000000	65.066409 
4567.000000	65.022277 
4566.000000	64.991497 
4565.000000	64.977240 
4564.000000	64.979839 
4563.000000	64.997768 
4562.000000	65.026187 
4561.000000	65.057682 
4560.000000	65.083193 
4559.000000	65.093469 
4558.000000	65.081238 
4557.000000	65.042352 
4556.000000	64.977645 
4555.000000	64.892935 
4554.000000	64.798712 
4553.000000	64.707994 
4552.000000	64.634346 
4551.000000	64.589071 
4550.000000	64.578819 
4549.000000	64.604163 
4548.000000	64.660263 
4547.000000	64.737939 
4546.000000	64.824938 
4545.000000	64.908909 
4544.000000	64.979743 
4543.000000	65.031480 
4542.000000	65.062022 
4541.000000	65.073251 
4540.000000	65.069341 
4539.000000	65.055394 
4538.000000	65.035891 
4537.000000	65.013575 
4536.000000	64.989519 
4535.000000	64.963197 
4534.000000	64.933991 
4533.000000	64.901614 
4532.000000	64.867258 
4531.000000	64.833641 
4530.000000	64.804768 
4529.000000	64.784932 
4528.000000	64.777278 
4527.000000	64.783358 
4526.000000	64.802336 
4525.000000	64.830374 
4524.000000	64.861178 
4523.000000	64.887857 
4522.000000	64.904236 
4521.000000	64.905738 
4520.000000	64.890575 
4519.000000	64.860558 
4518.000000	64.820528 
4517.000000	64.777016 
4516.000000	64.736413 
4515.000000	64.703536 
4514.000000	64.680099 
4513.000000	64.665412 
4512.000000	64.655804 
4511.000000	64.645409 
4510.000000	64.628291 
4509.000000	64.599990 
4508.000000	64.559412 
4507.000000	64.508199 
4506.000000	64.452648 
4505.000000	64.401602 
4504.000000	64.365744 
4503.000000	64.353966 
4502.000000	64.373135 
4501.000000	64.426350 
4500.000000	64.512562 
4499.000000	64.626622 
4498.000000	64.760422 
4497.000000	64.903974 
4496.000000	65.047621 
4495.000000	65.183329 
4494.000000	65.306377 
4493.000000	65.414500 
4492.000000	65.508079 
4491.000000	65.587139 
4490.000000	65.649342 
4489.000000	65.689206 
4488.000000	65.699911 
4487.000000	65.674495 
4486.000000	65.611076 
4485.000000	65.512037 
4484.000000	65.387916 
4483.000000	65.251469 
4482.000000	65.118169 
4481.000000	64.998650 
4480.000000	64.894676 
4479.000000	64.801645 
4478.000000	64.711403 
4477.000000	64.616131 
4476.000000	64.512491 
4475.000000	64.402961 
4474.000000	64.294242 
4473.000000	64.199876 
4472.000000	64.137291 
4471.000000	64.117455 
4470.000000	64.140605 
4469.000000	64.198732 
4468.000000	64.277529 
4467.000000	64.359807 
4466.000000	64.430713 
4465.000000	64.484906 
4464.000000	64.526224 
4463.000000	64.563107 
4462.000000	64.604473 
4461.000000	64.660048 
4460.000000	64.729189 
4459.000000	64.805269 
4458.000000	64.865064 
4457.000000	64.874839 
4456.000000	64.792537 
4455.000000	64.582705 
4454.000000	64.223742 
4453.000000	63.706064 
4452.000000	63.058543 
4451.000000	62.339353 
4450.000000	61.649560 
4449.000000	61.109018 
4448.000000	60.850048 
4447.000000	60.986018 
4446.000000	61.586952 
4445.000000	62.658286 
4444.000000	64.122796 
4443.000000	65.830731 
4442.000000	67.582607 
4441.000000	69.173097 
4440.000000	70.442938 
4439.000000	71.313834 
4438.000000	71.810936 
4437.000000	72.040176 
4436.000000	72.164487 
4435.000000	72.329258 
4434.000000	72.632622 
4433.000000	73.062586 
4432.000000	73.510837 
4431.000000	73.780965 
4430.000000	73.661828 
4429.000000	72.981524 
4428.000000	71.676254 
4427.000000	69.817328 
4426.000000	67.610812 
4425.000000	65.355610 
4424.000000	63.368511 
4423.000000	61.922717 
4422.000000	61.175131 
4421.000000	61.158204 
4420.000000	61.781382 
4419.000000	62.866926 
4418.000000	64.201045 
4417.000000	65.567660 
4416.000000	66.789913 
4415.000000	67.738008 
4414.000000	68.339920 
4413.000000	68.583011 
4412.000000	68.501901 
4411.000000	68.163728 
4410.000000	67.646574 
4409.000000	67.033672 
4408.000000	66.392827 
4407.000000	65.775370 
4406.000000	65.209913 
4405.000000	64.720129 
4404.000000	64.318156 
4403.000000	64.019298 
4402.000000	63.831591 
4401.000000	63.750362 
4400.000000	63.761925 
4399.000000	63.835430 
4398.000000	63.938808 
4397.000000	64.038133 
4396.000000	64.112520 
4395.000000	64.156961 
4394.000000	64.178752 
4393.000000	64.188551 
4392.000000	64.201116 
4391.000000	64.228963 
4390.000000	64.276075 
4389.000000	64.335775 
4388.000000	64.396595 
4387.000000	64.444994 
4386.000000	64.472341 
4385.000000	64.476752 
4384.000000	64.458703 
4383.000000	64.422154 
4382.000000	64.374351 
4381.000000	64.324259 
4380.000000	64.279174 
4379.000000	64.245557 
4378.000000	64.226484 
4377.000000	64.224529 
4376.000000	64.244079 
4375.000000	64.289283 
4374.000000	64.361691 
4373.000000	64.460039 
4372.000000	64.579844 
4371.000000	64.712691 
4370.000000	64.845752 
4369.000000	64.965605 
4368.000000	65.060377 
4367.000000	65.122652 
4366.000000	65.151190 
4365.000000	65.150666 
4364.000000	65.130281 
4363.000000	65.101695 
4362.000000	65.076375 
4361.000000	65.062737 
4360.000000	65.064668 
4359.000000	65.081810 
4358.000000	65.110397 
4357.000000	65.145254 
4356.000000	65.181350 
4355.000000	65.215134 
4354.000000	65.244913 
4353.000000	65.270400 
4352.000000	65.292310 
4351.000000	65.311121 
4350.000000	65.326714 
4349.000000	65.338444 
4348.000000	65.344643 
4347.000000	65.343451 
4346.000000	65.333008 
4345.000000	65.312623 
4344.000000	65.282964 
4343.000000	65.246844 
4342.000000	65.208053 
4341.000000	65.170931 
4340.000000	65.138983 
4339.000000	65.114402 
4338.000000	65.096688 
4337.000000	65.082573 
4336.000000	65.067195 
4335.000000	65.045475 
4334.000000	65.013122 
4333.000000	64.968228 
4332.000000	64.912056 
4331.000000	64.849376 
4330.000000	64.787578 
4329.000000	64.735507 
4328.000000	64.701151 
4327.000000	64.690351 
4326.000000	64.704966 
4325.000000	64.742922 
4324.000000	64.798426 
4323.000000	64.863324 
4322.000000	64.928293 
4321.000000	64.985036 
4320.000000	65.027332 
4319.000000	65.052223 
4318.000000	65.059661 
4317.000000	65.052390 
4316.000000	65.034985 
4315.000000	65.012407 
4314.000000	64.989376 
4313.000000	64.968609 
4312.000000	64.950823 
4311.000000	64.934921 
4310.000000	64.919042 
4309.000000	64.901018 
4308.000000	64.879441 
4307.000000	64.854526 
4306.000000	64.828443 
4305.000000	64.804363 
4304.000000	64.785885 
4303.000000	64.776134 
4302.000000	64.776945 
4301.000000	64.788484 
4300.000000	64.809155 
4299.000000	64.836215 
4298.000000	64.866352 
4297.000000	64.896130 
4296.000000	64.922881 
4295.000000	64.944553 
4294.000000	64.960098 
4293.000000	64.968967 
4292.000000	64.971137 
4291.000000	64.966559 
4290.000000	64.955854 
4289.000000	64.940619 
4288.000000	64.923238 
4287.000000	64.906978 
4286.000000	64.895248 
4285.000000	64.891219 
4284.000000	64.897084 
4283.000000	64.913463 
4282.000000	64.939451 
4281.000000	64.972639 
4280.000000	65.009808 
4279.000000	65.047430 
4278.000000	65.082001 
4277.000000	65.110301 
4276.000000	65.129995 
4275.000000	65.139555 
4274.000000	65.138173 
4273.000000	65.125608 
4272.000000	65.102767 
4271.000000	65.071058 
4270.000000	65.032911 
4269.000000	64.990878 
4268.000000	64.947843 
4267.000000	64.906573 
4266.000000	64.869523 
4265.000000	64.838719 
4264.000000	64.815139 
4263.000000	64.799165 
4262.000000	64.790749 
4261.000000	64.789342 
4260.000000	64.793872 
4259.000000	64.802694 
4258.000000	64.813756 
4257.000000	64.824533 
4256.000000	64.832353 
4255.000000	64.835023 
4254.000000	64.831471 
4253.000000	64.822173 
4252.000000	64.809560 
4251.000000	64.797759 
4250.000000	64.791607 
4249.000000	64.795970 
4248.000000	64.813995 
4247.000000	64.846587 
4246.000000	64.891433 
4245.000000	64.943337 
4244.000000	64.994978 
4243.000000	65.038418 
4242.000000	65.066742 
4241.000000	65.075445 
4240.000000	65.063571 
4239.000000	65.033674 
4238.000000	64.991378 
4237.000000	64.944338 
4236.000000	64.900159 
4235.000000	64.864754 
4234.000000	64.841508 
4233.000000	64.831304 
4232.000000	64.832329 
4231.000000	64.841365 
4230.000000	64.854741 
4229.000000	64.869451 
4228.000000	64.883780 
4227.000000	64.897227 
4226.000000	64.910078 
4225.000000	64.922785 
4224.000000	64.935803 
4223.000000	64.949011 
4222.000000	64.961814 
4221.000000	64.972710 
4220.000000	64.980077 
4219.000000	64.982318 
4218.000000	64.977908 
4217.000000	64.966154 
4216.000000	64.947128 
4215.000000	64.922332 
4214.000000	64.893960 
4213.000000	64.865612 
4212.000000	64.841890 
4211.000000	64.827871 
4210.000000	64.828109 
4209.000000	64.845705 
4208.000000	64.881491 
4207.000000	64.933252 
4206.000000	64.995932 
4205.000000	65.062141 
4204.000000	65.123367 
4203.000000	65.171718 
4202.000000	65.201115 
4201.000000	65.208482 
4200.000000	65.193915 
4199.000000	65.160822 
4198.000000	65.114784 
4197.000000	65.062713 
4196.000000	65.011191 
4195.000000	64.965796 
4194.000000	64.929819 
4193.000000	64.904046 
4192.000000	64.886808 
4191.000000	64.874887 
4190.000000	64.864420 
4189.000000	64.852046 
4188.000000	64.836025 
4187.000000	64.816379 
4186.000000	64.795327 
4185.000000	64.776206 
4184.000000	64.762878 
4183.000000	64.758300 
4182.000000	64.763808 
4181.000000	64.778494 
4180.000000	64.799284 
4179.000000	64.821481 
4178.000000	64.840030 
4177.000000	64.850878 
4176.000000	64.851880 
4175.000000	64.843034 
4174.000000	64.827084 
4173.000000	64.808750 
4172.000000	64.793300 
4171.000000	64.785122 
4170.000000	64.786839 
4169.000000	64.798736 
4168.000000	64.818620 
4167.000000	64.842844 
4166.000000	64.867138 
4165.000000	64.887905 
4164.000000	64.903664 
4163.000000	64.914822 
4162.000000	64.923024 
4161.000000	64.930677 
4160.000000	64.940261 
4159.000000	64.952969 
4158.000000	64.968419 
4157.000000	64.984369 
4156.000000	64.998030 
4155.000000	65.005826 
4154.000000	65.004873 
4153.000000	64.992737 
4152.000000	64.968943 
4151.000000	64.933800 
4150.000000	64.888596 
4149.000000	64.835190 
4148.000000	64.775776 
4147.000000	64.712905 
4146.000000	64.649319 
4145.000000	64.588069 
4144.000000	64.532446 
4143.000000	64.485692 
4142.000000	64.450955 
4141.000000	64.430475 
4140.000000	64.425802 
4139.000000	64.437103 
4138.000000	64.463877 
4137.000000	64.504241 
4136.000000	64.556074 
4135.000000	64.616775 
4134.000000	64.683842 
4133.000000	64.754295 
4132.000000	64.825201 
4131.000000	64.893221 
4130.000000	64.954900 
4129.000000	65.006780 
4128.000000	65.046310 
4127.000000	65.072274 
4126.000000	65.085005 
4125.000000	65.086841 
4124.000000	65.081191 
4123.000000	65.072178 
4122.000000	65.063476 
4121.000000	65.058016 
4120.000000	65.057182 
4119.000000	65.060973 
4118.000000	65.068578 
4117.000000	65.078806 
4116.000000	65.090250 
4115.000000	65.101790 
4114.000000	65.112805 
4113.000000	65.123105 
4112.000000	65.132379 
4111.000000	65.140628 
4110.000000	65.147733 
4109.000000	65.153789 
4108.000000	65.159344 
4107.000000	65.165042 
4106.000000	65.172100 
4105.000000	65.180993 
4104.000000	65.192008 
4103.000000	65.203976 
4102.000000	65.214705 
4101.000000	65.220761 
4100.000000	65.218877 
4099.000000	65.206313 
4098.000000	65.181803 
4097.000000	65.146112 
4096.000000	65.102005 
4095.000000	65.053629 
4094.000000	65.005636 
4093.000000	64.962100 
4092.000000	64.925599 
4091.000000	64.896988 
4090.000000	64.875555 
4089.000000	64.859223 
4088.000000	64.845681 
4087.000000	64.832901 
4086.000000	64.819931 
4085.000000	64.806723 
4084.000000	64.794421 
4083.000000	64.784026 
4082.000000	64.776802 
4081.000000	64.773273 
4080.000000	64.773845 
4079.000000	64.778256 
4078.000000	64.786314 
4077.000000	64.798045 
4076.000000	64.813709 
4075.000000	64.833545 
4074.000000	64.857435 
4073.000000	64.884495 
4072.000000	64.913058 
4071.000000	64.940452 
4070.000000	64.964008 
4069.000000	64.981460 
4068.000000	64.991927 
4067.000000	64.996218 
4066.000000	64.996528 
4065.000000	64.995908 
4064.000000	64.997506 
4063.000000	65.003919 
4062.000000	65.016174 
4061.000000	65.033555 
4060.000000	65.053963 
4059.000000	65.074706 
4058.000000	65.093088 
4057.000000	65.107131 
4056.000000	65.116000 
4055.000000	65.119910 
4054.000000	65.119957 
4053.000000	65.117430 
4052.000000	65.113234 
4051.000000	65.107321 
4050.000000	65.099024 
4049.000000	65.086960 
4048.000000	65.069818 
4047.000000	65.046548 
4046.000000	65.017008 
4045.000000	64.982295 
4044.000000	64.944505 
4043.000000	64.907121 
4042.000000	64.874076 
4041.000000	64.849662 
4040.000000	64.837455 
4039.000000	64.839792 
4038.000000	64.857101 
4037.000000	64.887571 
4036.000000	64.927411 
4035.000000	64.971160 
4034.000000	65.012788 
4033.000000	65.046453 
4032.000000	65.067696 
4031.000000	65.074014 
4030.000000	65.065264 
4029.000000	65.043449 
4028.000000	65.011978 
4027.000000	64.975237 
4026.000000	64.937472 
4025.000000	64.902162 
4024.000000	64.871668 
4023.000000	64.847207 
4022.000000	64.829349 
4021.000000	64.818215 
4020.000000	64.814019 
4019.000000	64.816999 
4018.000000	64.827609 
4017.000000	64.845848 
4016.000000	64.871668 
4015.000000	64.904022 
4014.000000	64.941310 
4013.000000	64.981007 
4012.000000	65.020298 
4011.000000	65.056538 
4010.000000	65.087461 
4009.000000	65.111565 
4008.000000	65.128302 
4007.000000	65.137481 
4006.000000	65.139746 
4005.000000	65.135884 
4004.000000	65.126538 
4003.000000	65.112161 
4002.000000	65.093231 
4001.000000	65.070462 
4000.000000	65.045166 
3999.000000	65.019154 
3998.000000	64.995002 
3997.000000	64.975357 
3996.000000	64.962506 
3995.000000	64.957761 
3994.000000	64.961266 
3993.000000	64.971446 
3992.000000	64.985179 
3991.000000	64.998269 
3990.000000	65.006113 
3989.000000	65.004587 
3988.000000	64.990806 
3987.000000	64.963698 
3986.000000	64.924168 
3985.000000	64.875435 
3984.000000	64.822626 
3983.000000	64.772009 
3982.000000	64.730215 
3981.000000	64.703226 
3980.000000	64.695382 
3979.000000	64.708614 
3978.000000	64.741802 
3977.000000	64.790844 
3976.000000	64.849328 
3975.000000	64.909052 
3974.000000	64.962029 
3973.000000	65.001869 
3972.000000	65.025329 
3971.000000	65.032267 
3970.000000	65.025901 
3969.000000	65.011811 
3968.000000	64.996361 
3967.000000	64.985442 
3966.000000	64.982628 
3965.000000	64.989161 
3964.000000	65.003204 
3963.000000	65.021109 
3962.000000	65.037941 
3961.000000	65.049362 
3960.000000	65.052247 
3959.000000	65.045547 
3958.000000	65.030741 
3957.000000	65.011334 
3956.000000	64.992189 
3955.000000	64.978194 
3954.000000	64.973115 
3953.000000	64.978528 
3952.000000	64.994001 
3951.000000	65.016317 
3950.000000	65.040040 
3949.000000	65.058398 
3948.000000	65.064716 
3947.000000	65.054106 
3946.000000	65.024232 
3945.000000	64.976286 
3944.000000	64.914584 
3943.000000	64.845895 
3942.000000	64.777827 
3941.000000	64.717102 
3940.000000	64.668464 
3939.000000	64.633345 
3938.000000	64.610600 
3937.000000	64.596509 
3936.000000	64.586567 
3935.000000	64.576196 
3934.000000	64.561867 
3933.000000	64.542031 
3932.000000	64.517116 
3931.000000	64.489912 
3930.000000	64.464521 
3929.000000	64.445638 
3928.000000	64.437317 
3927.000000	64.442396 
3926.000000	64.461660 
3925.000000	64.493775 
3924.000000	64.535641 
3923.000000	64.582681 
3922.000000	64.630103 
3921.000000	64.673686 
3920.000000	64.710640 
3919.000000	64.739871 
3918.000000	64.762282 
3917.000000	64.780068 
3916.000000	64.796042 
3915.000000	64.812564 
3914.000000	64.831018 
3913.000000	64.851856 
3912.000000	64.874386 
3911.000000	64.897346 
3910.000000	64.919281 
3909.000000	64.939737 
3908.000000	64.958500 
3907.000000	64.975714 
3906.000000	64.991307 
3905.000000	65.004920 
3904.000000	65.015387 
3903.000000	65.021085 
3902.000000	65.020418 
3901.000000	65.012335 
3900.000000	64.996886 
3899.000000	64.975428 
3898.000000	64.950656 
3897.000000	64.926147 
3896.000000	64.905333 
3895.000000	64.891076 
3894.000000	64.884734 
3893.000000	64.886331 
3892.000000	64.894700 
3891.000000	64.908242 
3890.000000	64.925217 
3889.000000	64.944410 
3888.000000	64.965319 
3887.000000	64.987921 
3886.000000	65.012025 
3885.000000	65.037083 
3884.000000	65.061855 
3883.000000	65.084290 
3882.000000	65.101766 
3881.000000	65.111875 
3880.000000	65.113115 
3879.000000	65.105390 
3878.000000	65.090370 
3877.000000	65.071415 
3876.000000	65.053105 
3875.000000	65.039992 
3874.000000	65.035700 
3873.000000	65.041875 
3872.000000	65.057659 
3871.000000	65.079760 
3870.000000	65.103268 
3869.000000	65.123009 
3868.000000	65.134859 
3867.000000	65.136647 
3866.000000	65.128850 
3865.000000	65.114498 
3864.000000	65.098285 
3863.000000	65.085387 
3862.000000	65.079975 
3861.000000	65.084266 
3860.000000	65.097713 
3859.000000	65.117573 
3858.000000	65.139222 
3857.000000	65.157556 
3856.000000	65.168046 
3855.000000	65.167832 
3854.000000	65.156388 
3853.000000	65.135407 
3852.000000	65.108323 
3851.000000	65.079307 
3850.000000	65.052390 
3849.000000	65.030527 
3848.000000	65.015268 
3847.000000	65.006446 
3846.000000	65.002584 
3845.000000	65.001153 
3844.000000	64.999437 
3843.000000	64.995002 
3842.000000	64.985990 
3841.000000	64.971518 
3840.000000	64.951491 
3839.000000	64.926958 
3838.000000	64.899802 
3837.000000	64.872789 
3836.000000	64.848947 
3835.000000	64.831185 
3834.000000	64.821934 
3833.000000	64.822530 
3832.000000	64.832973 
3831.000000	64.851784 
3830.000000	64.875960 
3829.000000	64.901804 
3828.000000	64.925432 
3827.000000	64.943623 
3826.000000	64.954161 
3825.000000	64.956593 
3824.000000	64.952039 
3823.000000	64.943122 
3822.000000	64.933133 
3821.000000	64.925503 
3820.000000	64.922904 
3819.000000	64.926600 
3818.000000	64.936232 
3817.000000	64.950037 
3816.000000	64.965486 
3815.000000	64.979887 
3814.000000	64.991235 
3813.000000	64.998555 
3812.000000	65.002346 
3811.000000	65.003991 
3810.000000	65.005540 
3809.000000	65.008926 
3808.000000	65.015697 
3807.000000	65.026283 
3806.000000	65.040516 
3805.000000	65.057563 
3804.000000	65.076446 
3803.000000	65.096497 
3802.000000	65.117383 
3801.000000	65.139126 
3800.000000	65.161728 
3799.000000	65.185070 
3798.000000	65.208220 
3797.000000	65.229344 
3796.000000	65.246105 
3795.000000	65.256166 
3794.000000	65.257620 
3793.000000	65.249300 
3792.000000	65.231347 
3791.000000	65.205216 
3790.000000	65.173363 
3789.000000	65.139198 
3788.000000	65.106391 
3787.000000	65.078711 
3786.000000	65.059447 
3785.000000	65.050697 
3784.000000	65.053510 
3783.000000	65.067386 
3782.000000	65.090250 
3781.000000	65.118718 
3780.000000	65.148377 
3779.000000	65.174484 
3778.000000	65.192699 
3777.000000	65.199708 
3776.000000	65.193867 
3775.000000	65.175461 
3774.000000	65.146493 
3773.000000	65.110158 
3772.000000	65.070104 
3771.000000	65.029740 
3770.000000	64.991712 
3769.000000	64.957618 
3768.000000	64.928150 
3767.000000	64.903354 
3766.000000	64.883136 
3765.000000	64.867424 
3764.000000	64.856433 
3763.000000	64.850473 
3762.000000	64.849805 
3761.000000	64.854335 
3760.000000	64.863395 
3759.000000	64.875793 
3758.000000	64.890098 
3757.000000	64.904570 
3756.000000	64.917922 
3755.000000	64.929246 
3754.000000	64.938616 
3753.000000	64.946508 
3752.000000	64.954185 
3751.000000	64.962792 
3750.000000	64.973473 
3749.000000	64.986968 
3748.000000	65.003347 
3747.000000	65.022158 
3746.000000	65.042424 
3745.000000	65.063023 
3744.000000	65.082526 
3743.000000	65.099835 
3742.000000	65.113925 
3741.000000	65.123987 
3740.000000	65.129828 
3739.000000	65.131783 
3738.000000	65.130639 
3737.000000	65.127563 
3736.000000	65.124082 
3735.000000	65.121650 
3734.000000	65.121293 
3733.000000	65.123152 
3732.000000	65.126371 
3731.000000	65.129351 
3730.000000	65.129995 
3729.000000	65.126276 
3728.000000	65.116667 
3727.000000	65.100932 
3726.000000	65.079927 
3725.000000	65.055942 
3724.000000	65.031766 
3723.000000	65.010333 
3722.000000	64.993834 
3721.000000	64.983391 
3720.000000	64.978599 
3719.000000	64.977931 
3718.000000	64.979267 
3717.000000	64.980292 
3716.000000	64.979314 
3715.000000	64.975571 
3714.000000	64.969396 
3713.000000	64.961981 
3712.000000	64.954829 
3711.000000	64.949512 
3710.000000	64.947128 
3709.000000	64.948081 
3708.000000	64.951920 
3707.000000	64.957380 
3706.000000	64.962863 
3705.000000	64.966678 
3704.000000	64.967751 
3703.000000	64.965701 
3702.000000	64.961123 
3701.000000	64.955472 
3700.000000	64.950633 
3699.000000	64.948749 
3698.000000	64.951348 
3697.000000	64.959144 
3696.000000	64.971470 
3695.000000	64.986538 
3694.000000	65.001606 
3693.000000	65.013742 
3692.000000	65.020322 
3691.000000	65.019655 
3690.000000	65.011429 
3689.000000	64.996838 
3688.000000	64.978241 
3687.000000	64.958643 
3686.000000	64.941143 
3685.000000	64.928364 
3684.000000	64.922213 
3683.000000	64.923620 
3682.000000	64.932870 
3681.000000	64.949321 
3680.000000	64.971828 
3679.000000	64.998698 
3678.000000	65.027689 
3677.000000	65.056467 
3676.000000	65.082311 
3675.000000	65.102863 
3674.000000	65.116071 
3673.000000	65.120983 
3672.000000	65.117931 
3671.000000	65.108537 
3670.000000	65.095639 
3669.000000	65.082716 
3668.000000	65.073156 
3667.000000	65.069365 
3666.000000	65.072441 
3665.000000	65.081787 
3664.000000	65.095353 
3663.000000	65.110158 
3662.000000	65.123152 
3661.000000	65.132021 
3660.000000	65.135669 
3659.000000	65.134501 
3658.000000	65.130114 
3657.000000	65.124940 
3656.000000	65.121316 
3655.000000	65.120863 
3654.000000	65.124011 
3653.000000	65.129923 
3652.000000	65.136551 
3651.000000	65.141439 
3650.000000	65.142178 
3649.000000	65.137267 
3648.000000	65.126228 
3647.000000	65.109801 
3646.000000	65.089654 
3645.000000	65.068268 
3644.000000	65.048098 
3643.000000	65.031242 
3642.000000	65.018916 
3641.000000	65.011310 
3640.000000	65.007805 
3639.000000	65.007305 
3638.000000	65.008640 
3637.000000	65.010833 
3636.000000	65.013408 
3635.000000	65.016412 
3634.000000	65.019941 
3633.000000	65.024018 
3632.000000	65.028095 
3631.000000	65.031170 
3630.000000	65.031933 
3629.000000	65.029311 
3628.000000	65.022754 
3627.000000	65.012574 
3626.000000	65.000009 
3625.000000	64.987158 
3624.000000	64.976477 
3623.000000	64.970016 
3622.000000	64.969182 
3621.000000	64.974308 
3620.000000	64.984369 
3619.000000	64.997673 
3618.000000	65.012264 
3617.000000	65.026688 
3616.000000	65.040087 
3615.000000	65.052676 
3614.000000	65.065336 
3613.000000	65.079307 
3612.000000	65.095663 
3611.000000	65.114760 
3610.000000	65.135860 
3609.000000	65.157198 
3608.000000	65.176248 
3607.000000	65.190196 
3606.000000	65.196490 
3605.000000	65.193510 
3604.000000	65.180945 
3603.000000	65.159964 
3602.000000	65.132951 
3601.000000	65.103244 
3600.000000	65.074467 
3599.000000	65.049672 
3598.000000	65.030574 
3597.000000	65.017676 
3596.000000	65.009856 
3595.000000	65.004825 
3594.000000	64.999747 
3593.000000	64.991855 
3592.000000	64.979600 
3591.000000	64.962744 
3590.000000	64.942860 
3589.000000	64.922571 
3588.000000	64.905333 
3587.000000	64.894318 
3586.000000	64.891695 
3585.000000	64.897751 
3584.000000	64.910984 
3583.000000	64.928483 
3582.000000	64.946484 
3581.000000	64.961314 
3580.000000	64.970445 
3579.000000	64.973044 
3578.000000	64.970111 
3577.000000	64.964222 
3576.000000	64.958930 
3575.000000	64.957904 
3574.000000	64.964199 
3573.000000	64.979386 
3572.000000	65.003490 
3571.000000	65.034794 
3570.000000	65.070676 
3569.000000	65.107583 
3568.000000	65.141892 
3567.000000	65.170001 
3566.000000	65.189194 
3565.000000	65.197658 
3564.000000	65.194559 
3563.000000	65.180206 
3562.000000	65.155911 
3561.000000	65.124058 
3560.000000	65.087795 
3559.000000	65.050506 
3558.000000	65.015935 
3557.000000	64.987182 
3556.000000	64.966344 
3555.000000	64.954376 
3554.000000	64.950871 
3553.000000	64.954376 
3552.000000	64.962720 
3551.000000	64.973378 
3550.000000	64.984059 
3549.000000	64.993309 
3548.000000	65.000677 
3547.000000	65.006470 
3546.000000	65.011644 
3545.000000	65.017628 
3544.000000	65.025877 
3543.000000	65.037393 
3542.000000	65.052342 
3541.000000	65.070033 
3540.000000	65.088939 
3539.000000	65.106916 
3538.000000	65.121769 
3537.000000	65.131974 
3536.000000	65.137076 
3535.000000	65.137672 
3534.000000	65.135574 
3533.000000	65.133118 
3532.000000	65.132761 
3531.000000	65.136456 
3530.000000	65.145111 
3529.000000	65.158438 
3528.000000	65.174889 
3527.000000	65.192198 
3526.000000	65.207409 
3525.000000	65.217566 
3524.000000	65.220308 
3523.000000	65.214371 
3522.000000	65.199732 
3521.000000	65.177488 
3520.000000	65.149807 
3519.000000	65.119194 
3518.000000	65.088105 
3517.000000	65.058445 
3516.000000	65.031242 
3515.000000	65.006947 
3514.000000	64.985489 
3513.000000	64.966869 
3512.000000	64.951229 
3511.000000	64.939236 
3510.000000	64.931702 
3509.000000	64.929437 
3508.000000	64.932560 
3507.000000	64.940404 
3506.000000	64.951324 
3505.000000	64.963054 
3504.000000	64.972877 
3503.000000	64.978599 
3502.000000	64.978957 
3501.000000	64.974093 
3500.000000	64.965271 
3499.000000	64.954590 
3498.000000	64.944314 
3497.000000	64.936161 
3496.000000	64.931011 
3495.000000	64.928865 
3494.000000	64.929103 
3493.000000	64.930844 
3492.000000	64.933514 
3491.000000	64.936971 
3490.000000	64.941692 
3489.000000	64.948368 
3488.000000	64.957618 
3487.000000	64.969468 
3486.000000	64.983463 
3485.000000	64.998507 
3484.000000	65.013122 
3483.000000	65.025854 
3482.000000	65.035533 
3481.000000	65.041923 
3480.000000	65.045285 
3479.000000	65.046310 
3478.000000	65.045714 
3477.000000	65.044140 
3476.000000	65.041756 
3475.000000	65.038418 
3474.000000	65.033674 
3473.000000	65.027236 
3472.000000	65.018987 
3471.000000	65.009260 
3470.000000	64.998579 
3469.000000	64.987492 
3468.000000	64.976358 
3467.000000	64.965343 
3466.000000	64.954066 
3465.000000	64.941787 
3464.000000	64.927697 
3463.000000	64.911532 
3462.000000	64.893531 
3461.000000	64.874935 
3460.000000	64.857935 
3459.000000	64.845418 
3458.000000	64.840006 
3457.000000	64.843940 
3456.000000	64.858293 
3455.000000	64.882826 
3454.000000	64.915561 
3453.000000	64.953446 
3452.000000	64.992570 
3451.000000	65.029287 
3450.000000	65.060472 
3449.000000	65.084242 
3448.000000	65.099787 
3447.000000	65.107464 
3446.000000	65.108346 
3445.000000	65.103411 
3444.000000	65.093326 
3443.000000	65.078234 
3442.000000	65.057873 
3441.000000	65.032076 
3440.000000	65.001082 
3439.000000	64.966154 
3438.000000	64.929604 
3437.000000	64.894533 
3436.000000	64.864325 
3435.000000	64.841866 
3434.000000	64.828729 
3433.000000	64.824628 
3432.000000	64.827656 
3431.000000	64.834475 
3430.000000	64.841413 
3429.000000	64.845252 
3428.000000	64.844346 
3427.000000	64.838838 
3426.000000	64.830875 
3425.000000	64.823651 
3424.000000	64.820814 
3423.000000	64.825177 
3422.000000	64.838051 
3421.000000	64.858913 
3420.000000	64.885354 
3419.000000	64.913702 
3418.000000	64.939880 
3417.000000	64.960408 
3416.000000	64.972949 
3415.000000	64.976811 
3414.000000	64.972925 
3413.000000	64.963603 
3412.000000	64.951920 
3411.000000	64.941072 
3410.000000	64.933538 
3409.000000	64.930653 
3408.000000	64.932918 
3407.000000	64.939665 
3406.000000	64.949464 
3405.000000	64.960312 
3404.000000	64.970493 
3403.000000	64.979028 
3402.000000	64.985537 
3401.000000	64.990568 
3400.000000	64.995193 
3399.000000	65.000677 
3398.000000	65.008139 
3397.000000	65.017843 
3396.000000	65.029144 
3395.000000	65.040397 
3394.000000	65.049505 
3393.000000	65.053915 
3392.000000	65.051579 
3391.000000	65.041065 
3390.000000	65.022230 
3389.000000	64.996314 
3388.000000	64.965844 
3387.000000	64.934325 
3386.000000	64.905881 
3385.000000	64.884543 
3384.000000	64.873719 
3383.000000	64.875531 
3382.000000	64.890599 
3381.000000	64.917683 
3380.000000	64.953851 
3379.000000	64.995026 
3378.000000	65.036511 
3377.000000	65.073466 
3376.000000	65.102028 
3375.000000	65.119862 
3374.000000	65.126132 
3373.000000	65.121746 
3372.000000	65.108394 
3371.000000	65.088391 
3370.000000	65.063810 
3369.000000	65.036416 
3368.000000	65.007328 
3367.000000	64.977550 
3366.000000	64.948058 
3365.000000	64.920401 
3364.000000	64.896702 
3363.000000	64.879536 
3362.000000	64.871287 
3361.000000	64.873623 
3360.000000	64.886879 
3359.000000	64.909815 
3358.000000	64.939498 
3357.000000	64.971733 
3356.000000	65.001821 
3355.000000	65.025377 
3354.000000	65.039134 
3353.000000	65.041375 
3352.000000	65.032196 
3351.000000	65.013241 
3350.000000	64.987158 
3349.000000	64.957618 
3348.000000	64.928507 
3347.000000	64.903426 
3346.000000	64.885520 
3345.000000	64.876890 
3344.000000	64.878797 
3343.000000	64.890980 
3342.000000	64.911842 
3341.000000	64.938592 
3340.000000	64.967560 
3339.000000	64.994668 
3338.000000	65.016269 
3337.000000	65.029597 
3336.000000	65.033292 
3335.000000	65.027713 
3334.000000	65.014648 
3333.000000	64.996623 
3332.000000	64.976286 
3331.000000	64.955878 
3330.000000	64.936661 
3329.000000	64.919018 
3328.000000	64.902472 
3327.000000	64.886188 
3326.000000	64.869427 
3325.000000	64.852094 
3324.000000	64.834833 
3323.000000	64.818620 
3322.000000	64.804720 
3321.000000	64.794230 
3320.000000	64.787817 
3319.000000	64.785361 
3318.000000	64.786100 
3317.000000	64.788651 
3316.000000	64.791464 
3315.000000	64.793229 
3314.000000	64.792990 
3313.000000	64.790129 
3312.000000	64.784741 
3311.000000	64.777255 
3310.000000	64.768862 
3309.000000	64.761042 
3308.000000	64.755487 
3307.000000	64.753937 
3306.000000	64.757776 
3305.000000	64.767503 
3304.000000	64.782762 
3303.000000	64.801836 
3302.000000	64.821934 
3301.000000	64.839506 
3300.000000	64.851117 
3299.000000	64.854073 
3298.000000	64.846944 
3297.000000	64.829993 
3296.000000	64.805412 
3295.000000	64.776825 
3294.000000	64.748334 
3293.000000	64.723896 
3292.000000	64.706444 
3291.000000	64.697456 
3290.000000	64.696955 
3289.000000	64.703607 
3288.000000	64.715385 
3287.000000	64.730143 
3286.000000	64.745974 
3285.000000	64.761614 
3284.000000	64.776563 
3283.000000	64.790987 
3282.000000	64.805412 
3281.000000	64.820480 
3280.000000	64.836573 
3279.000000	64.853644 
3278.000000	64.871168 
3277.000000	64.888191 
3276.000000	64.903593 
3275.000000	64.916515 
3274.000000	64.926362 
3273.000000	64.933085 
3272.000000	64.936876 
3271.000000	64.938449 
3270.000000	64.938306 
3269.000000	64.936995 
3268.000000	64.934611 
3267.000000	64.930868 
3266.000000	64.925265 
3265.000000	64.917540 
3264.000000	64.907765 
3263.000000	64.896774 
3262.000000	64.886093 
3261.000000	64.877939 
3260.000000	64.874505 
3259.000000	64.877486 
3258.000000	64.887523 
3257.000000	64.903998 
3256.000000	64.925074 
3255.000000	64.948058 
3254.000000	64.969921 
3253.000000	64.987802 
3252.000000	64.999461 
3251.000000	65.003633 
3250.000000	64.999866 
3249.000000	64.988422 
3248.000000	64.970302 
3247.000000	64.947056 
3246.000000	64.920330 
3245.000000	64.892053 
3244.000000	64.864444 
3243.000000	64.839601 
3242.000000	64.819860 
3241.000000	64.807152 
3240.000000	64.802908 
3239.000000	64.807939 
3238.000000	64.821958 
3237.000000	64.843654 
3236.000000	64.870691 
3235.000000	64.900231 
3234.000000	64.929199 
3233.000000	64.955043 
3232.000000	64.976191 
3231.000000	64.992141 
3230.000000	65.003395 
3229.000000	65.011143 
3228.000000	65.016674 
3227.000000	65.020799 
3226.000000	65.023565 
3225.000000	65.023779 
3224.000000	65.019583 
3223.000000	65.008902 
3222.000000	64.990305 
3221.000000	64.963626 
3220.000000	64.930391 
3219.000000	64.893960 
3218.000000	64.858937 
3217.000000	64.829993 
3216.000000	64.811134 
3215.000000	64.804840 
3214.000000	64.811420 
3213.000000	64.829182 
3212.000000	64.854645 
3211.000000	64.883542 
3210.000000	64.911317 
3209.000000	64.933896 
3208.000000	64.948272 
3207.000000	64.952468 
3206.000000	64.946079 
3205.000000	64.930009 
3204.000000	64.906167 
3203.000000	64.877295 
3202.000000	64.846658 
3201.000000	64.817714 
3200.000000	64.793658 
3199.000000	64.776945 
3198.000000	64.768910 
3197.000000	64.769864 
3196.000000	64.778780 
3195.000000	64.793920 
3194.000000	64.813065 
3193.000000	64.834237 
3192.000000	64.855861 
3191.000000	64.877367 
3190.000000	64.898538 
3189.000000	64.919543 
3188.000000	64.940404 
3187.000000	64.960718 
3186.000000	64.979481 
3185.000000	64.995241 
3184.000000	65.006494 
3183.000000	65.011954 
3182.000000	65.010976 
3181.000000	65.003633 
3180.000000	64.990997 
3179.000000	64.974713 
3178.000000	64.956712 
3177.000000	64.938712 
3176.000000	64.921998 
3175.000000	64.907264 
3174.000000	64.894652 
3173.000000	64.883971 
3172.000000	64.875006 
3171.000000	64.867711 
3170.000000	64.862465 
3169.000000	64.859914 
3168.000000	64.860868 
3167.000000	64.866232 
3166.000000	64.876651 
3165.000000	64.892005 
3164.000000	64.911365 
3163.000000	64.932990 
3162.000000	64.954185 
3161.000000	64.972019 
3160.000000	64.983654 
3159.000000	64.986968 
3158.000000	64.981102 
3157.000000	64.966630 
3156.000000	64.945650 
3155.000000	64.921069 
3154.000000	64.896297 
3153.000000	64.874529 
3152.000000	64.858245 
3151.000000	64.848709 
3150.000000	64.845895 
3149.000000	64.848709 
3148.000000	64.855170 
3147.000000	64.862656 
3146.000000	64.868569 
3145.000000	64.870786 
3144.000000	64.867663 
3143.000000	64.858341 
3142.000000	64.842844 
3141.000000	64.821934 
3140.000000	64.797115 
3139.000000	64.770650 
3138.000000	64.744853 
3137.000000	64.722323 
3136.000000	64.705348 
3135.000000	64.695978 
3134.000000	64.695334 
3133.000000	64.703607 
3132.000000	64.719820 
3131.000000	64.742231 
3130.000000	64.768218 
3129.000000	64.794874 
3128.000000	64.819240 
3127.000000	64.839100 
3126.000000	64.852976 
3125.000000	64.860677 
3124.000000	64.863061 
3123.000000	64.862084 
3122.000000	64.860177 
3121.000000	64.859724 
3120.000000	64.862728 
3119.000000	64.870119 
3118.000000	64.881658 
3117.000000	64.895844 
3116.000000	64.909982 
3115.000000	64.920806 
3114.000000	64.925122 
3113.000000	64.920234 
3112.000000	64.904880 
3111.000000	64.879179 
3110.000000	64.845275 
3109.000000	64.806604 
3108.000000	64.767789 
3107.000000	64.733648 
3106.000000	64.708900 
3105.000000	64.697122 
3104.000000	64.700150 
3103.000000	64.718174 
3102.000000	64.749073 
3101.000000	64.788985 
3100.000000	64.832901 
3099.000000	64.875149 
3098.000000	64.910602 
3097.000000	64.935088 
3096.000000	64.946293 
3095.000000	64.943814 
3094.000000	64.929318 
3093.000000	64.905858 
3092.000000	64.877462 
3091.000000	64.848136 
3090.000000	64.821362 
3089.000000	64.799308 
3088.000000	64.783048 
3087.000000	64.772486 
3086.000000	64.767026 
3085.000000	64.765691 
3084.000000	64.767622 
3083.000000	64.772152 
3082.000000	64.778637 
3081.000000	64.786529 
3080.000000	64.794731 
3079.000000	64.802432 
3078.000000	64.808392 
3077.000000	64.812088 
3076.000000	64.813494 
3075.000000	64.813542 
3074.000000	64.813971 
3073.000000	64.816904 
3072.000000	64.824366 
3071.000000	64.837813 
3070.000000	64.857625 
3069.000000	64.882755 
3068.000000	64.910936 
3067.000000	64.939165 
3066.000000	64.964509 
3065.000000	64.984297 
3064.000000	64.996862 
3063.000000	65.001654 
3062.000000	64.999151 
3061.000000	64.990568 
3060.000000	64.977622 
3059.000000	64.962291 
3058.000000	64.946460 
3057.000000	64.932084 
3056.000000	64.920759 
3055.000000	64.914035 
3054.000000	64.912700 
3053.000000	64.917206 
3052.000000	64.927124 
3051.000000	64.941382 
3050.000000	64.958190 
3049.000000	64.975380 
3048.000000	64.990615 
3047.000000	65.002059 
3046.000000	65.008401 
3045.000000	65.009164 
3044.000000	65.004658 
3043.000000	64.995789 
3042.000000	64.983749 
3041.000000	64.969635 
3040.000000	64.954209 
3039.000000	64.937901 
3038.000000	64.920663 
3037.000000	64.902329 
3036.000000	64.882612 
3035.000000	64.861321 
3034.000000	64.838552 
3033.000000	64.814639 
3032.000000	64.790272 
3031.000000	64.766526 
3030.000000	64.744544 
3029.000000	64.725542 
3028.000000	64.710688 
3027.000000	64.700984 
3026.000000	64.697003 
3025.000000	64.699172 
3024.000000	64.706969 
3023.000000	64.719629 
3022.000000	64.735794 
3021.000000	64.753794 
3020.000000	64.771819 
3019.000000	64.788198 
3018.000000	64.801454 
3017.000000	64.810681 
3016.000000	64.815497 
3015.000000	64.816141 
3014.000000	64.813399 
3013.000000	64.808583 
3012.000000	64.803218 
3011.000000	64.799046 
3010.000000	64.797568 
3009.000000	64.799666 
3008.000000	64.805269 
3007.000000	64.813446 
3006.000000	64.822483 
3005.000000	64.830112 
3004.000000	64.834141 
3003.000000	64.832854 
3002.000000	64.825534 
3001.000000	64.812707 
3000.000000	64.795994 
2999.000000	64.777946 
2998.000000	64.761328 
2997.000000	64.748406 
2996.000000	64.740538 
2995.000000	64.738154 
2994.000000	64.740538 
2993.000000	64.746212 
2992.000000	64.753389 
2991.000000	64.760613 
2990.000000	64.766931 
2989.000000	64.772224 
2988.000000	64.776992 
2987.000000	64.781904 
2986.000000	64.787912 
2985.000000	64.795660 
2984.000000	64.805412 
2983.000000	64.816641 
2982.000000	64.828372 
2981.000000	64.839076 
2980.000000	64.847016 
2979.000000	64.850497 
2978.000000	64.848089 
2977.000000	64.838910 
2976.000000	64.822888 
2975.000000	64.801216 
2974.000000	64.776206 
2973.000000	64.751243 
2972.000000	64.730310 
2971.000000	64.717316 
2970.000000	64.715194 
2969.000000	64.725255 
2968.000000	64.746999 
2967.000000	64.777612 
2966.000000	64.812636 
2965.000000	64.846777 
2964.000000	64.874911 
2963.000000	64.892959 
2962.000000	64.898490 
2961.000000	64.891123 
2960.000000	64.872288 
2959.000000	64.844775 
2958.000000	64.811968 
2957.000000	64.777088 
2956.000000	64.742779 
2955.000000	64.710783 
2954.000000	64.681959 
2953.000000	64.656591 
2952.000000	64.634823 
2951.000000	64.616489 
2950.000000	64.601492 
2949.000000	64.589619 
2948.000000	64.580750 
2947.000000	64.574670 
2946.000000	64.571309 
2945.000000	64.570212 
2944.000000	64.571166 
2943.000000	64.573907 
2942.000000	64.578628 
2941.000000	64.585494 
2940.000000	64.594912 
2939.000000	64.607238 
2938.000000	64.622569 
2937.000000	64.640760 
2936.000000	64.661145 
2935.000000	64.682459 
2934.000000	64.702987 
2933.000000	64.720773 
2932.000000	64.733886 
2931.000000	64.740991 
2930.000000	64.741563 
2929.000000	64.736223 
2928.000000	64.726829 
2927.000000	64.716076 
2926.000000	64.707279 
2925.000000	64.703392 
2924.000000	64.706158 
2923.000000	64.715337 
2922.000000	64.729022 
2921.000000	64.743638 
2920.000000	64.754748 
2919.000000	64.758396 
2918.000000	64.751958 
2917.000000	64.735126 
2916.000000	64.709877 
2915.000000	64.680385 
2914.000000	64.651846 
2913.000000	64.629578 
2912.000000	64.617919 
2911.000000	64.619112 
2910.000000	64.633154 
2909.000000	64.657807 
2908.000000	64.689373 
2907.000000	64.723491 
2906.000000	64.756083 
2905.000000	64.784145 
2904.000000	64.805960 
2903.000000	64.821100 
2902.000000	64.830017 
2901.000000	64.833664 
2900.000000	64.832806 
2899.000000	64.827990 
2898.000000	64.819288 
2897.000000	64.806604 
2896.000000	64.789795 
2895.000000	64.769411 
2894.000000	64.746475 
2893.000000	64.722633 
2892.000000	64.699649 
2891.000000	64.679360 
2890.000000	64.663124 
2889.000000	64.651441 
2888.000000	64.644169 
2887.000000	64.640402 
2886.000000	64.638900 
2885.000000	64.638543 
2884.000000	64.638829 
2883.000000	64.639759 
2882.000000	64.642143 
2881.000000	64.646935 
2880.000000	64.655232 
2879.000000	64.667558 
2878.000000	64.683485 
2877.000000	64.701581 
2876.000000	64.719510 
2875.000000	64.734625 
2874.000000	64.744544 
2873.000000	64.747858 
2872.000000	64.744496 
2871.000000	64.735698 
2870.000000	64.723944 
2869.000000	64.712142 
2868.000000	64.703154 
2867.000000	64.698719 
2866.000000	64.699363 
2865.000000	64.704060 
2864.000000	64.710640 
2863.000000	64.716553 
2862.000000	64.719462 
2861.000000	64.717960 
2860.000000	64.712023 
2859.000000	64.703035 
2858.000000	64.693069 
2857.000000	64.684796 
2856.000000	64.680385 
2855.000000	64.681410 
2854.000000	64.688348 
2853.000000	64.700794 
2852.000000	64.717674 
2851.000000	64.737486 
2850.000000	64.758658 
2849.000000	64.779853 
2848.000000	64.799904 
2847.000000	64.817929 
2846.000000	64.832949 
2845.000000	64.844346 
2844.000000	64.851427 
2843.000000	64.853668 
2842.000000	64.850521 
2841.000000	64.842152 
2840.000000	64.828848 
2839.000000	64.811515 
2838.000000	64.791250 
2837.000000	64.769387 
2836.000000	64.747381 
2835.000000	64.726495 
2834.000000	64.707803 
2833.000000	64.692091 
2832.000000	64.679813 
2831.000000	64.671349 
2830.000000	64.667034 
2829.000000	64.666843 
2828.000000	64.670801 
2827.000000	64.678907 
2826.000000	64.690971 
2825.000000	64.706516 
2824.000000	64.724755 
2823.000000	64.744639 
2822.000000	64.765000 
2821.000000	64.784574 
2820.000000	64.802455 
2819.000000	64.818000 
2818.000000	64.831185 
2817.000000	64.842557 
2816.000000	64.852857 
2815.000000	64.862990 
2814.000000	64.873719 
2813.000000	64.885282 
2812.000000	64.897465 
2811.000000	64.909172 
2810.000000	64.919209 
2809.000000	64.926004 
2808.000000	64.928197 
2807.000000	64.924478 
2806.000000	64.914417 
2805.000000	64.897871 
2804.000000	64.875197 
2803.000000	64.847207 
2802.000000	64.815115 
2801.000000	64.780497 
2800.000000	64.745044 
2799.000000	64.710807 
2798.000000	64.679908 
2797.000000	64.654684 
2796.000000	64.637351 
2795.000000	64.629673 
2794.000000	64.632630 
2793.000000	64.646267 
2792.000000	64.669942 
2791.000000	64.701700 
2790.000000	64.738869 
2789.000000	64.778518 
2788.000000	64.817738 
2787.000000	64.853835 
2786.000000	64.884829 
2785.000000	64.909172 
2784.000000	64.926314 
2783.000000	64.936065 
2782.000000	64.938735 
2781.000000	64.935064 
2780.000000	64.926075 
2779.000000	64.913415 
2778.000000	64.898943 
2777.000000	64.884901 
2776.000000	64.873480 
2775.000000	64.866828 
2774.000000	64.866232 
2773.000000	64.872145 
2772.000000	64.883732 
2771.000000	64.899182 
2770.000000	64.915657 
2769.000000	64.930009 
2768.000000	64.939212 
2767.000000	64.941143 
2766.000000	64.934563 
2765.000000	64.919352 
2764.000000	64.896535 
2763.000000	64.867854 
2762.000000	64.835691 
2761.000000	64.802670 
2760.000000	64.771151 
2759.000000	64.743256 
2758.000000	64.720869 
2757.000000	64.705395 
2756.000000	64.697551 
2755.000000	64.697551 
2754.000000	64.705038 
2753.000000	64.719128 
2752.000000	64.738154 
2751.000000	64.759945 
2750.000000	64.782118 
2749.000000	64.802312 
2748.000000	64.818429 
2747.000000	64.829087 
2746.000000	64.833593 
2745.000000	64.832258 
2744.000000	64.826154 
2743.000000	64.816904 
2742.000000	64.806437 
2741.000000	64.796519 
2740.000000	64.788556 
2739.000000	64.783382 
2738.000000	64.781212 
2737.000000	64.781689 
2736.000000	64.784121 
2735.000000	64.787793 
2734.000000	64.792251 
2733.000000	64.797139 
2732.000000	64.802360 
2731.000000	64.807820 
2730.000000	64.813280 
2729.000000	64.818286 
2728.000000	64.822101 
2727.000000	64.823794 
2726.000000	64.822459 
2725.000000	64.817643 
2724.000000	64.809441 
2723.000000	64.798593 
2722.000000	64.786458 
2721.000000	64.774823 
2720.000000	64.765429 
2719.000000	64.759778 
2718.000000	64.758729 
2717.000000	64.762377 
2716.000000	64.770126 
2715.000000	64.780807 
2714.000000	64.792895 
2713.000000	64.804863 
2712.000000	64.815258 
2711.000000	64.822721 
2710.000000	64.826440 
2709.000000	64.825963 
2708.000000	64.821314 
2707.000000	64.812994 
2706.000000	64.801931 
2705.000000	64.789175 
2704.000000	64.775919 
2703.000000	64.763021 
2702.000000	64.750933 
2701.000000	64.739751 
2700.000000	64.729237 
2699.000000	64.719247 
2698.000000	64.709448 
2697.000000	64.700102 
2696.000000	64.691710 
2695.000000	64.685392 
2694.000000	64.682102 
2693.000000	64.682769 
2692.000000	64.688014 
2691.000000	64.697813 
2690.000000	64.711594 
2689.000000	64.728403 
2688.000000	64.747142 
2687.000000	64.766860 
2686.000000	64.786767 
2685.000000	64.806199 
2684.000000	64.824628 
2683.000000	64.841437 
2682.000000	64.855766 
2681.000000	64.866828 
2680.000000	64.873743 
2679.000000	64.876031 
2678.000000	64.873552 
2677.000000	64.866757 
2676.000000	64.856576 
2675.000000	64.844441 
2674.000000	64.831542 
2673.000000	64.818954 
2672.000000	64.807200 
2671.000000	64.796471 
2670.000000	64.786458 
2669.000000	64.776635 
2668.000000	64.766430 
2667.000000	64.755535 
2666.000000	64.743971 
2665.000000	64.731979 
2664.000000	64.720129 
2663.000000	64.708948 
2662.000000	64.699244 
2661.000000	64.691781 
2660.000000	64.687299 
2659.000000	64.686322 
2658.000000	64.689183 
2657.000000	64.695644 
2656.000000	64.704871 
2655.000000	64.715409 
2654.000000	64.725446 
2653.000000	64.733052 
2652.000000	64.736533 
2651.000000	64.734745 
2650.000000	64.727401 
2649.000000	64.715218 
2648.000000	64.699840 
2647.000000	64.683389 
2646.000000	64.668250 
2645.000000	64.656567 
2644.000000	64.649724 
2643.000000	64.648342 
2642.000000	64.652013 
2641.000000	64.659404 
2640.000000	64.668726 
2639.000000	64.678239 
2638.000000	64.686512 
2637.000000	64.692950 
2636.000000	64.697670 
2635.000000	64.701437 
2634.000000	64.705467 
2633.000000	64.710927 
2632.000000	64.718484 
2631.000000	64.728116 
2630.000000	64.739084 
2629.000000	64.750051 
2628.000000	64.759492 
2627.000000	64.766168 
2626.000000	64.769697 
2625.000000	64.770531 
2624.000000	64.770102 
2623.000000	64.770150 
2622.000000	64.772462 
2621.000000	64.778375 
2620.000000	64.788055 
2619.000000	64.800858 
2618.000000	64.814710 
2617.000000	64.827227 
2616.000000	64.835453 
2615.000000	64.837050 
2614.000000	64.830350 
2613.000000	64.814949 
2612.000000	64.791703 
2611.000000	64.762377 
2610.000000	64.729595 
2609.000000	64.696383 
2608.000000	64.665579 
2607.000000	64.639449 
2606.000000	64.619374 
2605.000000	64.605689 
2604.000000	64.597654 
2603.000000	64.593791 
2602.000000	64.592099 
2601.000000	64.590883 
2600.000000	64.589333 
2599.000000	64.587712 
2598.000000	64.587402 
2597.000000	64.590191 
2596.000000	64.597749 
2595.000000	64.610767 
2594.000000	64.628481 
2593.000000	64.648580 
2592.000000	64.667630 
2591.000000	64.682006 
2590.000000	64.688682 
2589.000000	64.686203 
2588.000000	64.675140 
2587.000000	64.657974 
2586.000000	64.638614 
2585.000000	64.621448 
2584.000000	64.610433 
2583.000000	64.608049 
2582.000000	64.614915 
2581.000000	64.629912 
2580.000000	64.650487 
2579.000000	64.673447 
2578.000000	64.695811 
2577.000000	64.714980 
2576.000000	64.729404 
2575.000000	64.738225 
2574.000000	64.741516 
2573.000000	64.739799 
2572.000000	64.733672 
2571.000000	64.723944 
2570.000000	64.711356 
2569.000000	64.696955 
2568.000000	64.681816 
2567.000000	64.667177 
2566.000000	64.654254 
2565.000000	64.644265 
2564.000000	64.638090 
2563.000000	64.636254 
2562.000000	64.638638 
2561.000000	64.644455 
2560.000000	64.652514 
2559.000000	64.661216 
2558.000000	64.668941 
2557.000000	64.674091 
2556.000000	64.675664 
2555.000000	64.673137 
2554.000000	64.666628 
2553.000000	64.656877 
2552.000000	64.645051 
2551.000000	64.632749 
2550.000000	64.621591 
2549.000000	64.612889 
2548.000000	64.607429 
2547.000000	64.605283 
2546.000000	64.605832 
2545.000000	64.607977 
2544.000000	64.609932 
2543.000000	64.610123 
2542.000000	64.607286 
2541.000000	64.601063 
2540.000000	64.591813 
2539.000000	64.580845 
2538.000000	64.570045 
2537.000000	64.561462 
2536.000000	64.556908 
2535.000000	64.557623 
2534.000000	64.563941 
2533.000000	64.575409 
2532.000000	64.590883 
2531.000000	64.608788 
2530.000000	64.627504 
2529.000000	64.645624 
2528.000000	64.662241 
2527.000000	64.676904 
2526.000000	64.689493 
2525.000000	64.700341 
2524.000000	64.709663 
2523.000000	64.717626 
2522.000000	64.723825 
2521.000000	64.727568 
2520.000000	64.727950 
2519.000000	64.723873 
2518.000000	64.714455 
2517.000000	64.699411 
2516.000000	64.679312 
2515.000000	64.655780 
2514.000000	64.631152 
2513.000000	64.608526 
2512.000000	64.590787 
2511.000000	64.580416 
2510.000000	64.578557 
2509.000000	64.584946 
2508.000000	64.597797 
2507.000000	64.614152 
2506.000000	64.630556 
2505.000000	64.643669 
2504.000000	64.651322 
2503.000000	64.652729 
2502.000000	64.648723 
2501.000000	64.641475 
2500.000000	64.633846 
2499.000000	64.628577 
2498.000000	64.627647 
2497.000000	64.631724 
2496.000000	64.640235 
2495.000000	64.651584 
2494.000000	64.663624 
2493.000000	64.674305 
2492.000000	64.682078 
2491.000000	64.686393 
2490.000000	64.687371 
2489.000000	64.686012 
2488.000000	64.683532 
2487.000000	64.681410 
2486.000000	64.680719 
2485.000000	64.682054 
2484.000000	64.685511 
2483.000000	64.690494 
2482.000000	64.696240 
2481.000000	64.701533 
2480.000000	64.705181 
2479.000000	64.706063 
2478.000000	64.703655 
2477.000000	64.698100 
2476.000000	64.690184 
2475.000000	64.681315 
2474.000000	64.673328 
2473.000000	64.667820 
2472.000000	64.665818 
2471.000000	64.667391 
2470.000000	64.671516 
2469.000000	64.676308 
2468.000000	64.679694 
2467.000000	64.679646 
2466.000000	64.674925 
2465.000000	64.665532 
2464.000000	64.652371 
2463.000000	64.637255 
2462.000000	64.622116 
2461.000000	64.608621 
2460.000000	64.597630 
2459.000000	64.588952 
2458.000000	64.581727 
2457.000000	64.574646 
2456.000000	64.566898 
2455.000000	64.558243 
2454.000000	64.549612 
2453.000000	64.542531 
2452.000000	64.539194 
2451.000000	64.541459 
2450.000000	64.550757 
2449.000000	64.567327 
2448.000000	64.590096 
2447.000000	64.616823 
2446.000000	64.644312 
2445.000000	64.669132 
2444.000000	64.687967 
2443.000000	64.698457 
2442.000000	64.699554 
2441.000000	64.691591 
2440.000000	64.676380 
2439.000000	64.656496 
2438.000000	64.634966 
2437.000000	64.614439 
2436.000000	64.596605 
2435.000000	64.582061 
2434.000000	64.570093 
2433.000000	64.559435 
2432.000000	64.548301 
2431.000000	64.535951 
2430.000000	64.522576 
2429.000000	64.510059 
2428.000000	64.501285 
2427.000000	64.499735 
2426.000000	64.508199 
2425.000000	64.527916 
2424.000000	64.557909 
2423.000000	64.594745 
2422.000000	64.633297 
2421.000000	64.667582 
2420.000000	64.692211 
2419.000000	64.703369 
2418.000000	64.699745 
2417.000000	64.682698 
2416.000000	64.655756 
2415.000000	64.623975 
2414.000000	64.592671 
2413.000000	64.566302 
2412.000000	64.547705 
2411.000000	64.537978 
2410.000000	64.536356 
2409.000000	64.541101 
2408.000000	64.549875 
2407.000000	64.560532 
2406.000000	64.571595 
2405.000000	64.582252 
2404.000000	64.592266 
2403.000000	64.601492 
2402.000000	64.609742 
2401.000000	64.616370 
2400.000000	64.620423 
2399.000000	64.620804 
2398.000000	64.616560 
2397.000000	64.607381 
2396.000000	64.593768 
2395.000000	64.577078 
2394.000000	64.559364 
2393.000000	64.542937 
2392.000000	64.529967 
2391.000000	64.522027 
2390.000000	64.519715 
2389.000000	64.522433 
2388.000000	64.528775 
2387.000000	64.536714 
2386.000000	64.544057 
2385.000000	64.548802 
2384.000000	64.549493 
2383.000000	64.545750 
2382.000000	64.537906 
2381.000000	64.527273 
2380.000000	64.515638 
2379.000000	64.505028 
2378.000000	64.497208 
2377.000000	64.493465 
2376.000000	64.494395 
2375.000000	64.499711 
2374.000000	64.508271 
2373.000000	64.518499 
2372.000000	64.528465 
2371.000000	64.536476 
2370.000000	64.541316 
2369.000000	64.542484 
2368.000000	64.540123 
2367.000000	64.535117 
2366.000000	64.528775 
2365.000000	64.522409 
2364.000000	64.516949 
2363.000000	64.512777 
2362.000000	64.509725 
2361.000000	64.507150 
2360.000000	64.503931 
2359.000000	64.499092 
2358.000000	64.492011 
2357.000000	64.482522 
2356.000000	64.471173 
2355.000000	64.459037 
2354.000000	64.447474 
2353.000000	64.437937 
2352.000000	64.431691 
2351.000000	64.429545 
2350.000000	64.431834 
2349.000000	64.438295 
2348.000000	64.448475 
2347.000000	64.461445 
2346.000000	64.476346 
2345.000000	64.492321 
2344.000000	64.508628 
2343.000000	64.524602 
2342.000000	64.539599 
2341.000000	64.553093 
2340.000000	64.564538 
2339.000000	64.573407 
2338.000000	64.579343 
2337.000000	64.582109 
2336.000000	64.581727 
2335.000000	64.578604 
2334.000000	64.573264 
2333.000000	64.566564 
2332.000000	64.559555 
2331.000000	64.553284 
2330.000000	64.548921 
2329.000000	64.547371 
2328.000000	64.549541 
2327.000000	64.555835 
2326.000000	64.566254 
2325.000000	64.580273 
2324.000000	64.596700 
2323.000000	64.613914 
2322.000000	64.629864 
2321.000000	64.642381 
2320.000000	64.649701 
2319.000000	64.650583 
2318.000000	64.644742 
2317.000000	64.632821 
2316.000000	64.616441 
2315.000000	64.597511 
2314.000000	64.578270 
2313.000000	64.560484 
2312.000000	64.545392 
2311.000000	64.533329 
2310.000000	64.523839 
2309.000000	64.515948 
2308.000000	64.508605 
2307.000000	64.500761 
2306.000000	64.491724 
2305.000000	64.481139 
2304.000000	64.468884 
2303.000000	64.455056 
2302.000000	64.439988 
2301.000000	64.423704 
2300.000000	64.406585 
2299.000000	64.389300 
2298.000000	64.372873 
2297.000000	64.358663 
2296.000000	64.348292 
2295.000000	64.343237 
2294.000000	64.344310 
2293.000000	64.351487 
2292.000000	64.363861 
2291.000000	64.379596 
2290.000000	64.396452 
2289.000000	64.412140 
2288.000000	64.425063 
2287.000000	64.434552 
2286.000000	64.441037 
2285.000000	64.445781 
2284.000000	64.450597 
2283.000000	64.457178 
2282.000000	64.466571 
2281.000000	64.478826 
2280.000000	64.492917 
2279.000000	64.507079 
2278.000000	64.519143 
2277.000000	64.527153 
2276.000000	64.529991 
2275.000000	64.527463 
2274.000000	64.520502 
2273.000000	64.510917 
2272.000000	64.500880 
2271.000000	64.492511 
2270.000000	64.487433 
2269.000000	64.486551 
2268.000000	64.489889 
2267.000000	64.496660 
2266.000000	64.505791 
2265.000000	64.515972 
2264.000000	64.525961 
2263.000000	64.534878 
2262.000000	64.542031 
2261.000000	64.547061 
2260.000000	64.549708 
2259.000000	64.549636 
2258.000000	64.546465 
2257.000000	64.539885 
2256.000000	64.529776 
2255.000000	64.516234 
2254.000000	64.499735 
2253.000000	64.481043 
2252.000000	64.461231 
2251.000000	64.441633 
2250.000000	64.423465 
2249.000000	64.407777 
2248.000000	64.395308 
2247.000000	64.386463 
2246.000000	64.381217 
2245.000000	64.379262 
2244.000000	64.380073 
2243.000000	64.382934 
2242.000000	64.387178 
2241.000000	64.392089 
2240.000000	64.397335 
2239.000000	64.402604 
2238.000000	64.408159 
2237.000000	64.414262 
2236.000000	64.421367 
2235.000000	64.429926 
2234.000000	64.439940 
2233.000000	64.451050 
2232.000000	64.462375 
2231.000000	64.472508 
2230.000000	64.479994 
2229.000000	64.483451 
2228.000000	64.482212 
2227.000000	64.476370 
2226.000000	64.467096 
2225.000000	64.456129 
2224.000000	64.445710 
2223.000000	64.438009 
2222.000000	64.434504 
2221.000000	64.435505 
2220.000000	64.440464 
2219.000000	64.447855 
2218.000000	64.455485 
2217.000000	64.461302 
2216.000000	64.463973 
2215.000000	64.462971 
2214.000000	64.458799 
2213.000000	64.452719 
2212.000000	64.446258 
2211.000000	64.440822 
2210.000000	64.437246 
2209.000000	64.435291 
2208.000000	64.434099 
2207.000000	64.432215 
2206.000000	64.428210 
2205.000000	64.421033 
2204.000000	64.410471 
2203.000000	64.397335 
2202.000000	64.383339 
2201.000000	64.370656 
2200.000000	64.361405 
2199.000000	64.357256 
2198.000000	64.358973 
2197.000000	64.366269 
2196.000000	64.378190 
2195.000000	64.393138 
2194.000000	64.409470 
2193.000000	64.425826 
2192.000000	64.441323 
2191.000000	64.455461 
2190.000000	64.468193 
2189.000000	64.479398 
2188.000000	64.489078 
2187.000000	64.496827 
2186.000000	64.502239 
2185.000000	64.504957 
2184.000000	64.504599 
2183.000000	64.501333 
2182.000000	64.495348 
2181.000000	64.487290 
2180.000000	64.477634 
2179.000000	64.466595 
2178.000000	64.454150 
2177.000000	64.440011 
2176.000000	64.423918 
2175.000000	64.405918 
2174.000000	64.386749 
2173.000000	64.367914 
2172.000000	64.351511 
2171.000000	64.339661 
2170.000000	64.334154 
2169.000000	64.335680 
2168.000000	64.343881 
2167.000000	64.357066 
2166.000000	64.372491 
2165.000000	64.387202 
2164.000000	64.398622 
2163.000000	64.405083 
2162.000000	64.406180 
2161.000000	64.402770 
2160.000000	64.396786 
2159.000000	64.390277 
2158.000000	64.385199 
2157.000000	64.382481 
2156.000000	64.381957 
2155.000000	64.382624 
2154.000000	64.382863 
2153.000000	64.381313 
2152.000000	64.377307 
2151.000000	64.371442 
2150.000000	64.365410 
2149.000000	64.361405 
2148.000000	64.361667 
2147.000000	64.367604 
2146.000000	64.379429 
2145.000000	64.395856 
2144.000000	64.414334 
2143.000000	64.431667 
2142.000000	64.444923 
2141.000000	64.451694 
2140.000000	64.450716 
2139.000000	64.442086 
2138.000000	64.427208 
2137.000000	64.408373 
2136.000000	64.388155 
2135.000000	64.369201 
2134.000000	64.353418 
2133.000000	64.342164 
2132.000000	64.335703 
2131.000000	64.333462 
2130.000000	64.334106 
2129.000000	64.336085 
2128.000000	64.337682 
2127.000000	64.337348 
2126.000000	64.334034 
2125.000000	64.327216 
2124.000000	64.317345 
2123.000000	64.305377 
2122.000000	64.293026 
2121.000000	64.282536 
2120.000000	64.276266 
2119.000000	64.276289 
2118.000000	64.284133 
2117.000000	64.300441 
2116.000000	64.324617 
2115.000000	64.354991 
2114.000000	64.389252 
2113.000000	64.424395 
2112.000000	64.457273 
2111.000000	64.485144 
2110.000000	64.505863 
2109.000000	64.518022 
2108.000000	64.521312 
2107.000000	64.515995 
2106.000000	64.503121 
2105.000000	64.483928 
2104.000000	64.460420 
2103.000000	64.434409 
2102.000000	64.407873 
2101.000000	64.382410 
2100.000000	64.359641 
2099.000000	64.340662 
2098.000000	64.326262 
2097.000000	64.316606 
2096.000000	64.311408 
2095.000000	64.309883 
2094.000000	64.310884 
2093.000000	64.313054 
2092.000000	64.314889 
2091.000000	64.314961 
2090.000000	64.312100 
2089.000000	64.305472 
2088.000000	64.294743 
2087.000000	64.280176 
2086.000000	64.262676 
2085.000000	64.243698 
2084.000000	64.225006 
2083.000000	64.208626 
2082.000000	64.196443 
2081.000000	64.189815 
2080.000000	64.189577 
2079.000000	64.195728 
2078.000000	64.207506 
2077.000000	64.223575 
2076.000000	64.242172 
2075.000000	64.261341 
2074.000000	64.279246 
2073.000000	64.294433 
2072.000000	64.305949 
2071.000000	64.313173 
2070.000000	64.316153 
2069.000000	64.315271 
2068.000000	64.311218 
2067.000000	64.304685 
2066.000000	64.296483 
2065.000000	64.287519 
2064.000000	64.278674 
2063.000000	64.270567 
2062.000000	64.263677 
2061.000000	64.258313 
2060.000000	64.254331 
2059.000000	64.251351 
2058.000000	64.248728 
2057.000000	64.245748 
2056.000000	64.241957 
2055.000000	64.237093 
2054.000000	64.231467 
2053.000000	64.225769 
2052.000000	64.220929 
2051.000000	64.218020 
2050.000000	64.217805 
2049.000000	64.220428 
2048.000000	64.225530 
2047.000000	64.232110 
2046.000000	64.238715 
2045.000000	64.244055 
2044.000000	64.247298 
2043.000000	64.248132 
2042.000000	64.247012 
2041.000000	64.244866 
2040.000000	64.242911 
2039.000000	64.242053 
2038.000000	64.242792 
2037.000000	64.244961 
2036.000000	64.247798 
2035.000000	64.250183 
2034.000000	64.251041 
2033.000000	64.249420 
2032.000000	64.244937 
2031.000000	64.237546 
2030.000000	64.227938 
2029.000000	64.217114 
2028.000000	64.206433 
2027.000000	64.197301 
2026.000000	64.190959 
2025.000000	64.188337 
2024.000000	64.189863 
2023.000000	64.195418 
2022.000000	64.204454 
2021.000000	64.215993 
2020.000000	64.228725 
2019.000000	64.241051 
2018.000000	64.251542 
2017.000000	64.258813 
2016.000000	64.262175 
2015.000000	64.261341 
2014.000000	64.256811 
2013.000000	64.249610 
2012.000000	64.241361 
2011.000000	64.233779 
2010.000000	64.228272 
2009.000000	64.225769 
2008.000000	64.226484 
2007.000000	64.229798 
2006.000000	64.234542 
2005.000000	64.239168 
2004.000000	64.242243 
2003.000000	64.242839 
2002.000000	64.240884 
2001.000000	64.236974 
2000.000000	64.232468 
1999.000000	64.228510 
1998.000000	64.226078 
1997.000000	64.225292 
1996.000000	64.225435 
1995.000000	64.225101 
1994.000000	64.222645 
1993.000000	64.216828 
1992.000000	64.206981 
1991.000000	64.193725 
1990.000000	64.178586 
1989.000000	64.163804 
1988.000000	64.151668 
1987.000000	64.144515 
1986.000000	64.143943 
1985.000000	64.150738 
1984.000000	64.164710 
1983.000000	64.184880 
1982.000000	64.209556 
1981.000000	64.236712 
1980.000000	64.263963 
1979.000000	64.289021 
1978.000000	64.309740 
1977.000000	64.324331 
1976.000000	64.331722 
1975.000000	64.331388 
1974.000000	64.323639 
1973.000000	64.309835 
1972.000000	64.291930 
1971.000000	64.272189 
1970.000000	64.252710 
1969.000000	64.235448 
1968.000000	64.221501 
1967.000000	64.211225 
1966.000000	64.204287 
1965.000000	64.199829 
1964.000000	64.196777 
1963.000000	64.194226 
1962.000000	64.191651 
1961.000000	64.188742 
1960.000000	64.185738 
1959.000000	64.183044 
1958.000000	64.181041 
1957.000000	64.179873 
1956.000000	64.179229 
1955.000000	64.178490 
1954.000000	64.176869 
1953.000000	64.173746 
1952.000000	64.168977 
1951.000000	64.163112 
1950.000000	64.157438 
1949.000000	64.153552 
1948.000000	64.153146 
1947.000000	64.157676 
1946.000000	64.167499 
1945.000000	64.182114 
1944.000000	64.199829 
1943.000000	64.218330 
1942.000000	64.235091 
1941.000000	64.247655 
1940.000000	64.254403 
1939.000000	64.254546 
1938.000000	64.248394 
1937.000000	64.236879 
1936.000000	64.221167 
1935.000000	64.202713 
1934.000000	64.182734 
1933.000000	64.162325 
1932.000000	64.142632 
1931.000000	64.124798 
1930.000000	64.109969 
1929.000000	64.099311 
1928.000000	64.093708 
1927.000000	64.093661 
1926.000000	64.098930 
1925.000000	64.108610 
1924.000000	64.121198 
1923.000000	64.134883 
1922.000000	64.147996 
1921.000000	64.158916 
1920.000000	64.166522 
1919.000000	64.170169 
1918.000000	64.169931 
1917.000000	64.166188 
1916.000000	64.159584 
1915.000000	64.150857 
1914.000000	64.140892 
1913.000000	64.130759 
1912.000000	64.121365 
1911.000000	64.113759 
1910.000000	64.108610 
1909.000000	64.106321 
1908.000000	64.106655 
1907.000000	64.108729 
1906.000000	64.111042 
1905.000000	64.111876 
1904.000000	64.109563 
1903.000000	64.103007 
1902.000000	64.091992 
1901.000000	64.077305 
1900.000000	64.060878 
1899.000000	64.045476 
1898.000000	64.034271 
1897.000000	64.030146 
1896.000000	64.035224 
1895.000000	64.050364 
1894.000000	64.074778 
1893.000000	64.106011 
1892.000000	64.140510 
1891.000000	64.174008 
1890.000000	64.202642 
1889.000000	64.223241 
1888.000000	64.234089 
1887.000000	64.234948 
1886.000000	64.227175 
1885.000000	64.213132 
1884.000000	64.195728 
1883.000000	64.177894 
1882.000000	64.161968 
1881.000000	64.149618 
1880.000000	64.141821 
1879.000000	64.138722 
1878.000000	64.140033 
1877.000000	64.145064 
1876.000000	64.152932 
1875.000000	64.162635 
1874.000000	64.173173 
1873.000000	64.183306 
1872.000000	64.191961 
1871.000000	64.198327 
1870.000000	64.202022 
1869.000000	64.203166 
1868.000000	64.202117 
1867.000000	64.199662 
1866.000000	64.196610 
1865.000000	64.193487 
1864.000000	64.190435 
1863.000000	64.187192 
1862.000000	64.183330 
1861.000000	64.178347 
1860.000000	64.172077 
1859.000000	64.164829 
1858.000000	64.157533 
1857.000000	64.151382 
1856.000000	64.147591 
1855.000000	64.146947 
1854.000000	64.149594 
1853.000000	64.154744 
1852.000000	64.160990 
1851.000000	64.166450 
1850.000000	64.169406 
1849.000000	64.168667 
1848.000000	64.163708 
1847.000000	64.154767 
1846.000000	64.142632 
1845.000000	64.128422 
1844.000000	64.113259 
1843.000000	64.097905 
1842.000000	64.082717 
1841.000000	64.067769 
1840.000000	64.052915 
1839.000000	64.038443 
1838.000000	64.024639 
1837.000000	64.012312 
1836.000000	64.002680 
1835.000000	63.997173 
1834.000000	63.996887 
1833.000000	64.002561 
1832.000000	64.014124 
1831.000000	64.030909 
1830.000000	64.051365 
1829.000000	64.073371 
1828.000000	64.094376 
1827.000000	64.111948 
1826.000000	64.124083 
1825.000000	64.129614 
1824.000000	64.128446 
1823.000000	64.121651 
1822.000000	64.111185 
1821.000000	64.099645 
1820.000000	64.089560 
1819.000000	64.083099 
1818.000000	64.081335 
1817.000000	64.084291 
1816.000000	64.090681 
1815.000000	64.098429 
1814.000000	64.104890 
1813.000000	64.107561 
1812.000000	64.104628 
1811.000000	64.095354 
1810.000000	64.080381 
1809.000000	64.061236 
1808.000000	64.040684 
1807.000000	64.021587 
1806.000000	64.006781 
1805.000000	63.998436 
1804.000000	63.997602 
1803.000000	64.004230 
1802.000000	64.016985 
1801.000000	64.033746 
1800.000000	64.051842 
1799.000000	64.068603 
1798.000000	64.081835 
1797.000000	64.090180 
1796.000000	64.093232 
1795.000000	64.091324 
1794.000000	64.085412 
1793.000000	64.076852 
1792.000000	64.066886 
1791.000000	64.056515 
1790.000000	64.046430 
1789.000000	64.036870 
1788.000000	64.028024 
1787.000000	64.020037 
1786.000000	64.013290 
1785.000000	64.008331 
1784.000000	64.005756 
1783.000000	64.006257 
1782.000000	64.010143 
1781.000000	64.017653 
1780.000000	64.028310 
1779.000000	64.041495 
1778.000000	64.056301 
1777.000000	64.071869 
1776.000000	64.087343 
1775.000000	64.101934 
1774.000000	64.114856 
1773.000000	64.125156 
1772.000000	64.131951 
1771.000000	64.134430 
1770.000000	64.132094 
1769.000000	64.125061 
1768.000000	64.114022 
1767.000000	64.100408 
1766.000000	64.086079 
1765.000000	64.073109 
1764.000000	64.062929 
1763.000000	64.056372 
1762.000000	64.052844 
1761.000000	64.050865 
1760.000000	64.048027 
1759.000000	64.041614 
1758.000000	64.029192 
1757.000000	64.009237 
1756.000000	63.981819 
1755.000000	63.948225 
1754.000000	63.911294 
1753.000000	63.874459 
1752.000000	63.841438 
1751.000000	63.815236 
1750.000000	63.797831 
1749.000000	63.789916 
1748.000000	63.790678 
1747.000000	63.798356 
1746.000000	63.810515 
1745.000000	63.824486 
1744.000000	63.837814 
1743.000000	63.848519 
1742.000000	63.855242 
1741.000000	63.857150 
1740.000000	63.853907 
1739.000000	63.845753 
1738.000000	63.833332 
1737.000000	63.817811 
1736.000000	63.800621 
1735.000000	63.783478 
1734.000000	63.768148 
1733.000000	63.756275 
1732.000000	63.748955 
1731.000000	63.746500 
1730.000000	63.748502 
1729.000000	63.754010 
1728.000000	63.761568 
1727.000000	63.770008 
1726.000000	63.778495 
1725.000000	63.786888 
1724.000000	63.795423 
1723.000000	63.804912 
1722.000000	63.816308 
1721.000000	63.830161 
1720.000000	63.846230 
1719.000000	63.863635 
1718.000000	63.880968 
1717.000000	63.896560 
1716.000000	63.908839 
1715.000000	63.916730 
1714.000000	63.919854 
1713.000000	63.918590 
1712.000000	63.913822 
1711.000000	63.906741 
1710.000000	63.898348 
1709.000000	63.889575 
1708.000000	63.880991 
1707.000000	63.872814 
1706.000000	63.865089 
1705.000000	63.857769 
1704.000000	63.850975 
1703.000000	63.844799 
1702.000000	63.839721 
1701.000000	63.836216 
1700.000000	63.835000 
1699.000000	63.836574 
1698.000000	63.841366 
1697.000000	63.849449 
1696.000000	63.860511 
1695.000000	63.873744 
1694.000000	63.888001 
1693.000000	63.901972 
1692.000000	63.914346 
1691.000000	63.924074 
1690.000000	63.930821 
1689.000000	63.934874 
1688.000000	63.937163 
1687.000000	63.938999 
1686.000000	63.941764 
1685.000000	63.946485 
1684.000000	63.953399 
1683.000000	63.961839 
1682.000000	63.970255 
1681.000000	63.976502 
1680.000000	63.978481 
1679.000000	63.974475 
1678.000000	63.963603 
1677.000000	63.946008 
1676.000000	63.922977 
1675.000000	63.896775 
1674.000000	63.870167 
1673.000000	63.846015 
1672.000000	63.826823 
1671.000000	63.814401 
1670.000000	63.809704 
1669.000000	63.812661 
1668.000000	63.822460 
1667.000000	63.837552 
1666.000000	63.856005 
1665.000000	63.875722 
1664.000000	63.894701 
1663.000000	63.911223 
1662.000000	63.924002 
1661.000000	63.932299 
1660.000000	63.935923 
1659.000000	63.935232 
1658.000000	63.930940 
1657.000000	63.924098 
1656.000000	63.916087 
1655.000000	63.908410 
1654.000000	63.902425 
1653.000000	63.899350 
1652.000000	63.900065 
1651.000000	63.904953 
1650.000000	63.913559 
1649.000000	63.924837 
1648.000000	63.937091 
1647.000000	63.948202 
1646.000000	63.955974 
1645.000000	63.958525 
1644.000000	63.954663 
1643.000000	63.944220 
1642.000000	63.928341 
1641.000000	63.908982 
1640.000000	63.889026 
1639.000000	63.871455 
1638.000000	63.858938 
1637.000000	63.853383 
1636.000000	63.855695 
1635.000000	63.865685 
1634.000000	63.882231 
1633.000000	63.903474 
1632.000000	63.927268 
1631.000000	63.951563 
1630.000000	63.974618 
1629.000000	63.995075 
1628.000000	64.012289 
1627.000000	64.026165 
1626.000000	64.036989 
1625.000000	64.045262 
1624.000000	64.051485 
1623.000000	64.055871 
1622.000000	64.058423 
1621.000000	64.058804 
1620.000000	64.056181 
1619.000000	64.049625 
1618.000000	64.038610 
1617.000000	64.022827 
1616.000000	64.002799 
1615.000000	63.979578 
1614.000000	63.954949 
1613.000000	63.930559 
1612.000000	63.907814 
1611.000000	63.887476 
1610.000000	63.869500 
1609.000000	63.853573 
1608.000000	63.839292 
1607.000000	63.826584 
1606.000000	63.815808 
1605.000000	63.807821 
1604.000000	63.803720 
1603.000000	63.804101 
1602.000000	63.808798 
1601.000000	63.816738 
1600.000000	63.825941 
1599.000000	63.833737 
1598.000000	63.837814 
1597.000000	63.836526 
1596.000000	63.830018 
1595.000000	63.819622 
1594.000000	63.808059 
1593.000000	63.798642 
1592.000000	63.794684 
1591.000000	63.798546 
1590.000000	63.810944 
1589.000000	63.831067 
1588.000000	63.856363 
1587.000000	63.883757 
1586.000000	63.909506 
1585.000000	63.930368 
1584.000000	63.943767 
1583.000000	63.948464 
1582.000000	63.944101 
1581.000000	63.931179 
1580.000000	63.911080 
1579.000000	63.885760 
1578.000000	63.857507 
1577.000000	63.828611 
1576.000000	63.801479 
1575.000000	63.778138 
1574.000000	63.759541 
1573.000000	63.745760 
1572.000000	63.735580 
1571.000000	63.727259 
1570.000000	63.718581 
1569.000000	63.707971 
1568.000000	63.694620 
1567.000000	63.679218 
1566.000000	63.663649 
1565.000000	63.650679 
1564.000000	63.643097 
1563.000000	63.642930 
1562.000000	63.651084 
1561.000000	63.666868 
1560.000000	63.688158 
1559.000000	63.711953 
1558.000000	63.735294 
1557.000000	63.755774 
1556.000000	63.772034 
1555.000000	63.783860 
1554.000000	63.792109 
1553.000000	63.798069 
1552.000000	63.803148 
1551.000000	63.808298 
1550.000000	63.814115 
1549.000000	63.820862 
1548.000000	63.828682 
1547.000000	63.837504 
1546.000000	63.847279 
1545.000000	63.858222 
1544.000000	63.870239 
1543.000000	63.882875 
1542.000000	63.894796 
1541.000000	63.904476 
1540.000000	63.909983 
1539.000000	63.909721 
1538.000000	63.902711 
1537.000000	63.889098 
1536.000000	63.869857 
1535.000000	63.846755 
1534.000000	63.821744 
1533.000000	63.796710 
1532.000000	63.773393 
1531.000000	63.753032 
1530.000000	63.736701 
1529.000000	63.725113 
1528.000000	63.718771 
1527.000000	63.717961 
1526.000000	63.722515 
1525.000000	63.731837 
1524.000000	63.745141 
1523.000000	63.761448 
1522.000000	63.779759 
1521.000000	63.799166 
1520.000000	63.818883 
1519.000000	63.838267 
1518.000000	63.856887 
1517.000000	63.874244 
1516.000000	63.890027 
1515.000000	63.903856 
1514.000000	63.915443 
1513.000000	63.924312 
1512.000000	63.930153 
1511.000000	63.932394 
1510.000000	63.930916 
1509.000000	63.925409 
1508.000000	63.915777 
1507.000000	63.902139 
1506.000000	63.884782 
1505.000000	63.864254 
1504.000000	63.841438 
1503.000000	63.817405 
1502.000000	63.793587 
1501.000000	63.771247 
1500.000000	63.751530 
1499.000000	63.735342 
1498.000000	63.723111 
1497.000000	63.715171 
1496.000000	63.711619 
1495.000000	63.712334 
1494.000000	63.717007 
1493.000000	63.725018 
1492.000000	63.735556 
1491.000000	63.747215 
1490.000000	63.758587 
1489.000000	63.767957 
1488.000000	63.774037 
1487.000000	63.775992 
1486.000000	63.773822 
1485.000000	63.768434 
1484.000000	63.761234 
1483.000000	63.754057 
1482.000000	63.748359 
1481.000000	63.745117 
1480.000000	63.744258 
1479.000000	63.744926 
1478.000000	63.745713 
1477.000000	63.745164 
1476.000000	63.742208 
1475.000000	63.736462 
1474.000000	63.728070 
1473.000000	63.717627 
1472.000000	63.705706 
1471.000000	63.692975 
1470.000000	63.679599 
1469.000000	63.665652 
1468.000000	63.651490 
1467.000000	63.637971 
1466.000000	63.626527 
1465.000000	63.619232 
1464.000000	63.618421 
1463.000000	63.625907 
1462.000000	63.642382 
1461.000000	63.666963 
1460.000000	63.697028 
1459.000000	63.728713 
1458.000000	63.757920 
1457.000000	63.780856 
1456.000000	63.795208 
1455.000000	63.799929 
1454.000000	63.795638 
1453.000000	63.783884 
1452.000000	63.766646 
1451.000000	63.745975 
1450.000000	63.723516 
1449.000000	63.700628 
1448.000000	63.678598 
1447.000000	63.658785 
1446.000000	63.642954 
1445.000000	63.633084 
1444.000000	63.631081 
1443.000000	63.638448 
1442.000000	63.655805 
1441.000000	63.682508 
1440.000000	63.716697 
1439.000000	63.755416 
1438.000000	63.795304 
1437.000000	63.833141 
1436.000000	63.866186 
1435.000000	63.892507 
1434.000000	63.910961 
1433.000000	63.921236 
1432.000000	63.923645 
1431.000000	63.919138 
1430.000000	63.908839 
1429.000000	63.894295 
1428.000000	63.876748 
1427.000000	63.857507 
1426.000000	63.837313 
1425.000000	63.816714 
1424.000000	63.795781 
1423.000000	63.774561 
1422.000000	63.753056 
1421.000000	63.731384 
1420.000000	63.709759 
1419.000000	63.688611 
1418.000000	63.668394 
1417.000000	63.649392 
1416.000000	63.632059 
1415.000000	63.616633 
1414.000000	63.603281 
1413.000000	63.592195 
1412.000000	63.583683 
1411.000000	63.578367 
1410.000000	63.576674 
1409.000000	63.579106 
1408.000000	63.585877 
1407.000000	63.596653 
1406.000000	63.610363 
1405.000000	63.625526 
1404.000000	63.640546 
1403.000000	63.653969 
1402.000000	63.664793 
1401.000000	63.672614 
1400.000000	63.677549 
1399.000000	63.680076 
1398.000000	63.680815 
1397.000000	63.680291 
1396.000000	63.678717 
1395.000000	63.675999 
1394.000000	63.671946 
1393.000000	63.665843 
1392.000000	63.657188 
1391.000000	63.645529 
1390.000000	63.630986 
1389.000000	63.614225 
1388.000000	63.596415 
1387.000000	63.579297 
1386.000000	63.564729 
1385.000000	63.554453 
1384.000000	63.549542 
1383.000000	63.550186 
1382.000000	63.555836 
1381.000000	63.564991 
1380.000000	63.575863 
1379.000000	63.586616 
1378.000000	63.595676 
1377.000000	63.602161 
1376.000000	63.605690 
1375.000000	63.606548 
1374.000000	63.605046 
1373.000000	63.601350 
1372.000000	63.595390 
1371.000000	63.586759 
1370.000000	63.575029 
1369.000000	63.560009 
1368.000000	63.542151 
1367.000000	63.522839 
1366.000000	63.504052 
1365.000000	63.488054 
1364.000000	63.476991 
1363.000000	63.472223 
1362.000000	63.474154 
1361.000000	63.481974 
1360.000000	63.493800 
1359.000000	63.507223 
1358.000000	63.519597 
1357.000000	63.528847 
1356.000000	63.533520 
1355.000000	63.533306 
1354.000000	63.528895 
1353.000000	63.521838 
1352.000000	63.513946 
1351.000000	63.507151 
1350.000000	63.502931 
1349.000000	63.502287 
1348.000000	63.505411 
1347.000000	63.512206 
1346.000000	63.522338 
1345.000000	63.535523 
1344.000000	63.551497 
1343.000000	63.570070 
1342.000000	63.591217 
1341.000000	63.614654 
1340.000000	63.639712 
1339.000000	63.665151 
1338.000000	63.689184 
1337.000000	63.709735 
1336.000000	63.724899 
1335.000000	63.733124 
1334.000000	63.733649 
1333.000000	63.726902 
1332.000000	63.714313 
1331.000000	63.698029 
1330.000000	63.680243 
1329.000000	63.663148 
1328.000000	63.648176 
1327.000000	63.636302 
1326.000000	63.627362 
1325.000000	63.620853 
1324.000000	63.615560 
1323.000000	63.610219 
1322.000000	63.603544 
1321.000000	63.594532 
1320.000000	63.582634 
1319.000000	63.567972 
1318.000000	63.551211 
1317.000000	63.533306 
1316.000000	63.515496 
1315.000000	63.498997 
1314.000000	63.484549 
1313.000000	63.472437 
1312.000000	63.462471 
1311.000000	63.454318 
1310.000000	63.447475 
1309.000000	63.441610 
1308.000000	63.436889 
1307.000000	63.433933 
1306.000000	63.433599 
1305.000000	63.436722 
1304.000000	63.443660 
1303.000000	63.454127 
1302.000000	63.467144 
1301.000000	63.481068 
1300.000000	63.494014 
1299.000000	63.504099 
1298.000000	63.510203 
1297.000000	63.511586 
1296.000000	63.508152 
1295.000000	63.499903 
1294.000000	63.487172 
1293.000000	63.470125 
1292.000000	63.449048 
1291.000000	63.424468 
1290.000000	63.397336 
1289.000000	63.369274 
1288.000000	63.342356 
1287.000000	63.319039 
1286.000000	63.301777 
1285.000000	63.292217 
1284.000000	63.290905 
1283.000000	63.297009 
1282.000000	63.308668 
1281.000000	63.323307 
1280.000000	63.338470 
1279.000000	63.352203 
1278.000000	63.363742 
1277.000000	63.373494 
1276.000000	63.382768 
1275.000000	63.393139 
1274.000000	63.405847 
1273.000000	63.421297 
1272.000000	63.438487 
1271.000000	63.455653 
1270.000000	63.470101 
1269.000000	63.479232 
1268.000000	63.480973 
1267.000000	63.474488 
1266.000000	63.460254 
1265.000000	63.440084 
1264.000000	63.416886 
1263.000000	63.394021 
1262.000000	63.374781 
1261.000000	63.361692 
1260.000000	63.356304 
1259.000000	63.359141 
1258.000000	63.369488 
1257.000000	63.385462 
1256.000000	63.404512 
1255.000000	63.423681 
1254.000000	63.440060 
1253.000000	63.451099 
1252.000000	63.454914 
1251.000000	63.450837 
1250.000000	63.439464 
1249.000000	63.422536 
1248.000000	63.402795 
1247.000000	63.383197 
1246.000000	63.366532 
1245.000000	63.354635 
1244.000000	63.348126 
1243.000000	63.346433 
1242.000000	63.348007 
1241.000000	63.350820 
1240.000000	63.352775 
1239.000000	63.352489 
1238.000000	63.349485 
1237.000000	63.344478 
1236.000000	63.338685 
1235.000000	63.333940 
1234.000000	63.332056 
1233.000000	63.334584 
1232.000000	63.342475 
1231.000000	63.355803 
1230.000000	63.373804 
1229.000000	63.394951 
1228.000000	63.417315 
1227.000000	63.438677 
1226.000000	63.456916 
1225.000000	63.470172 
1224.000000	63.477373 
1223.000000	63.478517 
1222.000000	63.474559 
1221.000000	63.467335 
1220.000000	63.458967 
1219.000000	63.451695 
1218.000000	63.447093 
1217.000000	63.445854 
1216.000000	63.447284 
1215.000000	63.449716 
1214.000000	63.450789 
1213.000000	63.448166 
1212.000000	63.440346 
1211.000000	63.426995 
1210.000000	63.409113 
1209.000000	63.388943 
1208.000000	63.369274 
1207.000000	63.353037 
1206.000000	63.342499 
1205.000000	63.338589 
1204.000000	63.341474 
1203.000000	63.350272 
1202.000000	63.363885 
1201.000000	63.380861 
1200.000000	63.399815 
1199.000000	63.419365 
1198.000000	63.437867 
1197.000000	63.453507 
1196.000000	63.464164 
1195.000000	63.467741 
1194.000000	63.462543 
1193.000000	63.447570 
1192.000000	63.423180 
1191.000000	63.390970 
1190.000000	63.354086 
1189.000000	63.316345 
1188.000000	63.281822 
1187.000000	63.253879 
1186.000000	63.234639 
1185.000000	63.224506 
1184.000000	63.222241 
1183.000000	63.225078 
1182.000000	63.229537 
1181.000000	63.232231 
1180.000000	63.230252 
1179.000000	63.222098 
1178.000000	63.207602 
1177.000000	63.188195 
1176.000000	63.166046 
1175.000000	63.144111 
1174.000000	63.125205 
1173.000000	63.111400 
1172.000000	63.103604 
1171.000000	63.101649 
1170.000000	63.104414 
1169.000000	63.110280 
1168.000000	63.117623 
1167.000000	63.125276 
1166.000000	63.132810 
1165.000000	63.140368 
1164.000000	63.148760 
1163.000000	63.158822 
1162.000000	63.170933 
1161.000000	63.185048 
1160.000000	63.200163 
1159.000000	63.214826 
1158.000000	63.227295 
1157.000000	63.236093 
1156.000000	63.240361 
1155.000000	63.240289 
1154.000000	63.236808 
1153.000000	63.231515 
1152.000000	63.226199 
1151.000000	63.222575 
1150.000000	63.221955 
1149.000000	63.225102 
1148.000000	63.232278 
1147.000000	63.243269 
1146.000000	63.257503 
1145.000000	63.274025 
1144.000000	63.291883 
1143.000000	63.309860 
1142.000000	63.326835 
1141.000000	63.341498 
1140.000000	63.352823 
1139.000000	63.359594 
1138.000000	63.361048 
1137.000000	63.356184 
1136.000000	63.344669 
1135.000000	63.326072 
1134.000000	63.300538 
1133.000000	63.268375 
1132.000000	63.230609 
1131.000000	63.189005 
1130.000000	63.145947 
1129.000000	63.104414 
1128.000000	63.067531 
1127.000000	63.038468 
1126.000000	63.019680 
1125.000000	63.012456 
1124.000000	63.016653 
1123.000000	63.030886 
1122.000000	63.052654 
1121.000000	63.078999 
1120.000000	63.106775 
1119.000000	63.133215 
1118.000000	63.156294 
1117.000000	63.174843 
1116.000000	63.188505 
1115.000000	63.197565 
1114.000000	63.202762 
1113.000000	63.205122 
1112.000000	63.205671 
1111.000000	63.205361 
1110.000000	63.204979 
1109.000000	63.205504 
1108.000000	63.207268 
1107.000000	63.210749 
1106.000000	63.215851 
1105.000000	63.222432 
1104.000000	63.229918 
1103.000000	63.237333 
1102.000000	63.243651 
1101.000000	63.248038 
1100.000000	63.249778 
1099.000000	63.248467 
1098.000000	63.244271 
1097.000000	63.237810 
1096.000000	63.230204 
1095.000000	63.222670 
1094.000000	63.216495 
1093.000000	63.212704 
1092.000000	63.211965 
1091.000000	63.214445 
1090.000000	63.219714 
1089.000000	63.226795 
1088.000000	63.234376 
1087.000000	63.241147 
1086.000000	63.245892 
1085.000000	63.247776 
1084.000000	63.246679 
1083.000000	63.243436 
1082.000000	63.239336 
1081.000000	63.236212 
1080.000000	63.235855 
1079.000000	63.239693 
1078.000000	63.248634 
1077.000000	63.262271 
1076.000000	63.279318 
1075.000000	63.297343 
1074.000000	63.313746 
1073.000000	63.325953 
1072.000000	63.332033 
1071.000000	63.331055 
1070.000000	63.323259 
1069.000000	63.310003 
1068.000000	63.293457 
1067.000000	63.276100 
1066.000000	63.260197 
1065.000000	63.247537 
1064.000000	63.239097 
1063.000000	63.234996 
1062.000000	63.234519 
1061.000000	63.236427 
1060.000000	63.239121 
1059.000000	63.240766 
1058.000000	63.239789 
1057.000000	63.234734 
1056.000000	63.225197 
1055.000000	63.211107 
1054.000000	63.193988 
1053.000000	63.176393 
1052.000000	63.162016 
1051.000000	63.154911 
1050.000000	63.158488 
1049.000000	63.174772 
1048.000000	63.203382 
1047.000000	63.241362 
1046.000000	63.283658 
1045.000000	63.324069 
1044.000000	63.356471 
1043.000000	63.376235 
1042.000000	63.380861 
1041.000000	63.370490 
1040.000000	63.347601 
1039.000000	63.316416 
1038.000000	63.281774 
1037.000000	63.248157 
1036.000000	63.219046 
1035.000000	63.196468 
1034.000000	63.180804 
1033.000000	63.171172 
1032.000000	63.166022 
1031.000000	63.163661 
1030.000000	63.162922 
1029.000000	63.163042 
1028.000000	63.163781 
1027.000000	63.164925 
1026.000000	63.165998 
1025.000000	63.165998 
1024.000000	63.163495 
1023.000000	63.156938 
1022.000000	63.145017 
1021.000000	63.127303 
1020.000000	63.104629 
1019.000000	63.078975 
1018.000000	63.053178 
1017.000000	63.030457 
1016.000000	63.013625 
1015.000000	63.004517 
1014.000000	63.003492 
1013.000000	63.009643 
1012.000000	63.020873 
1011.000000	63.034391 
1010.000000	63.047361 
1009.000000	63.057374 
1008.000000	63.062858 
1007.000000	63.062858 
1006.000000	63.057351 
1005.000000	63.046789 
1004.000000	63.032197 
1003.000000	63.015103 
1002.000000	62.997436 
1001.000000	62.981438 
1000.000000	62.969350 
999.000000	 62.963151 
998.000000	 62.964081 
997.000000	 62.972331 
996.000000	 62.987041 
995.000000	 63.006210 
994.000000	 63.027358 
993.000000	 63.047766 
992.000000	 63.065767 
991.000000	 63.080716 
990.000000	 63.093733 
989.000000	 63.107085 
988.000000	 63.124108 
987.000000	 63.147997 
986.000000	 63.181042 
985.000000	 63.223743 
984.000000	 63.274312 
983.000000	 63.328647 
982.000000	 63.381147 
981.000000	 63.425588 
980.000000	 63.456249 
979.000000	 63.469076 
978.000000	 63.462519 
977.000000	 63.438010 
976.000000	 63.399815 
975.000000	 63.354253 
974.000000	 63.308858 
973.000000	 63.270592 
972.000000	 63.244819 
971.000000	 63.234043 
970.000000	 63.238215 
969.000000	 63.254213 
968.000000	 63.277435 
967.000000	 63.302302 
966.000000	 63.323426 
965.000000	 63.336753 
964.000000	 63.339948 
963.000000	 63.332653 
962.000000	 63.315916 
961.000000	 63.292455 
960.000000	 63.265776 
959.000000	 63.239669 
958.000000	 63.217544 
957.000000	 63.201808 
956.000000	 63.193726 
955.000000	 63.192939 
954.000000	 63.197875 
953.000000	 63.206124 
952.000000	 63.215112 
951.000000	 63.222575 
950.000000	 63.227534 
949.000000	 63.230299 
948.000000	 63.232541 
947.000000	 63.236737 
946.000000	 63.244938 
945.000000	 63.258242 
944.000000	 63.275814 
943.000000	 63.295102 
942.000000	 63.311934 
941.000000	 63.321733 
940.000000	 63.320446 
939.000000	 63.306045 
938.000000	 63.278651 
937.000000	 63.241100 
936.000000	 63.198065 
935.000000	 63.155078 
934.000000	 63.117408 
933.000000	 63.089084 
932.000000	 63.072180 
931.000000	 63.066673 
930.000000	 63.070774 
929.000000	 63.081717 
928.000000	 63.096523 
927.000000	 63.112831 
926.000000	 63.129115 
925.000000	 63.145017 
924.000000	 63.160872 
923.000000	 63.177490 
922.000000	 63.195514 
921.000000	 63.215136 
920.000000	 63.235855 
919.000000	 63.256144 
918.000000	 63.273859 
917.000000	 63.286137 
916.000000	 63.290619 
915.000000	 63.285279 
914.000000	 63.269281 
913.000000	 63.243103 
912.000000	 63.208794 
911.000000	 63.169717 
910.000000	 63.130164 
909.000000	 63.094663 
908.000000	 63.067078 
907.000000	 63.049983 
906.000000	 63.044214 
905.000000	 63.048863 
904.000000	 63.061618 
903.000000	 63.079285 
902.000000	 63.098549 
901.000000	 63.116550 
900.000000	 63.131618 
899.000000	 63.142919 
898.000000	 63.150787 
897.000000	 63.155913 
896.000000	 63.159346 
895.000000	 63.162493 
894.000000	 63.166689 
893.000000	 63.173246 
892.000000	 63.182997 
891.000000	 63.196754 
890.000000	 63.214159 
889.000000	 63.234257 
888.000000	 63.254833 
887.000000	 63.272690 
886.000000	 63.284182 
885.000000	 63.285803 
884.000000	 63.275623 
883.000000	 63.253903 
882.000000	 63.223695 
881.000000	 63.190340 
880.000000	 63.160443 
879.000000	 63.140320 
878.000000	 63.134813 
877.000000	 63.145971 
876.000000	 63.172578 
875.000000	 63.210272 
874.000000	 63.252830 
873.000000	 63.293194 
872.000000	 63.325071 
871.000000	 63.343977 
870.000000	 63.347625 
869.000000	 63.336348 
868.000000	 63.312602 
867.000000	 63.280391 
866.000000	 63.244485 
865.000000	 63.209390 
864.000000	 63.179540 
863.000000	 63.157939 
862.000000	 63.146615 
861.000000	 63.145446 
860.000000	 63.152575 
859.000000	 63.164591 
858.000000	 63.176870 
857.000000	 63.185000 
856.000000	 63.185620 
855.000000	 63.177514 
854.000000	 63.161921 
853.000000	 63.142323 
852.000000	 63.123202 
851.000000	 63.109135 
850.000000	 63.103604 
849.000000	 63.107895 
848.000000	 63.120818 
847.000000	 63.139200 
846.000000	 63.158607 
845.000000	 63.174724 
844.000000	 63.184094 
843.000000	 63.184881 
842.000000	 63.176751 
841.000000	 63.160991 
840.000000	 63.139748 
839.000000	 63.114953 
838.000000	 63.088250 
837.000000	 63.060331 
836.000000	 63.031721 
835.000000	 63.002991 
834.000000	 62.975239 
833.000000	 62.949943 
832.000000	 62.929368 
831.000000	 62.915778 
830.000000	 62.911725 
829.000000	 62.918710 
828.000000	 62.937593 
827.000000	 62.967610 
826.000000	 63.006997 
825.000000	 63.053154 
824.000000	 63.102746 
823.000000	 63.152146 
822.000000	 63.197612 
821.000000	 63.235521 
820.000000	 63.262462 
819.000000	 63.275337 
818.000000	 63.271665 
817.000000	 63.250088 
816.000000	 63.210773 
815.000000	 63.156080 
814.000000	 63.090801 
813.000000	 63.021779 
812.000000	 62.957382 
811.000000	 62.905883 
810.000000	 62.874102 
809.000000	 62.866020 
808.000000	 62.882113 
807.000000	 62.918806 
806.000000	 62.969183 
805.000000	 63.024425 
804.000000	 63.075590 
803.000000	 63.115143 
802.000000	 63.138246 
801.000000	 63.143467 
800.000000	 63.132452 
799.000000	 63.109016 
798.000000	 63.077855 
797.000000	 63.043498 
796.000000	 63.009309 
795.000000	 62.977123 
794.000000	 62.947630 
793.000000	 62.920403 
792.000000	 62.894725 
791.000000	 62.869882 
790.000000	 62.845778 
789.000000	 62.822556 
788.000000	 62.801313 
787.000000	 62.783360 
786.000000	 62.770891 
785.000000	 62.765908 
784.000000	 62.770771 
783.000000	 62.786674 
782.000000	 62.814044 
781.000000	 62.851834 
780.000000	 62.897515 
779.000000	 62.947273 
778.000000	 62.996697 
777.000000	 63.041019 
776.000000	 63.076734 
775.000000	 63.101816 
774.000000	 63.116025 
773.000000	 63.120579 
772.000000	 63.117694 
771.000000	 63.109970 
770.000000	 63.099360 
769.000000	 63.086819 
768.000000	 63.072228 
767.000000	 63.054966 
766.000000	 63.034510 
765.000000	 63.011264 
764.000000	 62.986874 
763.000000	 62.964177 
762.000000	 62.946629 
761.000000	 62.937521 
760.000000	 62.939238 
759.000000	 62.952160 
758.000000	 62.974357 
757.000000	 63.001823 
756.000000	 63.029432 
755.000000	 63.051557 
754.000000	 63.063573 
753.000000	 63.062143 
752.000000	 63.046026 
751.000000	 63.015770 
750.000000	 62.973666 
749.000000	 62.923288 
748.000000	 62.868881 
747.000000	 62.814950 
746.000000	 62.765645 
745.000000	 62.724518 
744.000000	 62.694191 
743.000000	 62.676024 
742.000000	 62.669897 
741.000000	 62.674379 
740.000000	 62.686634 
739.000000	 62.702822 
738.000000	 62.718653 
737.000000	 62.730097 
736.000000	 62.733888 
735.000000	 62.727856 
734.000000	 62.711334 
733.000000	 62.684845 
732.000000	 62.650322 
731.000000	 62.610363 
730.000000	 62.568521 
729.000000	 62.528657 
728.000000	 62.494969 
727.000000	 62.471365 
726.000000	 62.461137 
725.000000	 62.466335 
724.000000	 62.487530 
723.000000	 62.523221 
722.000000	 62.570452 
721.000000	 62.624740 
720.000000	 62.681269 
719.000000	 62.735533 
718.000000	 62.783765 
717.000000	 62.823176 
716.000000	 62.852334 
715.000000	 62.871026 
714.000000	 62.879180 
713.000000	 62.876510 
712.000000	 62.862753 
711.000000	 62.837767 
710.000000	 62.801790 
709.000000	 62.755727 
708.000000	 62.702155 
707.000000	 62.644886 
706.000000	 62.588596 
705.000000	 62.538027 
704.000000	 62.496948 
703.000000	 62.467622 
702.000000	 62.450265 
701.000000	 62.443399 
700.000000	 62.443804 
699.000000	 62.448143 
698.000000	 62.453222 
697.000000	 62.457513 
696.000000	 62.460446 
695.000000	 62.463760 
694.000000	 62.470293 
693.000000	 62.483668 
692.000000	 62.507200 
691.000000	 62.542796 
690.000000	 62.590503 
689.000000	 62.648391 
688.000000	 62.712907 
687.000000	 62.780237 
686.000000	 62.846922 
685.000000	 62.910509 
684.000000	 62.969470 
683.000000	 63.023042 
682.000000	 63.070678 
681.000000	 63.111543 
680.000000	 63.144111 
679.000000	 63.167309 
678.000000	 63.179636 
677.000000	 63.181018 
676.000000	 63.171148 
675.000000	 63.150453 
674.000000	 63.118958 
673.000000	 63.076663 
672.000000	 63.024020 
671.000000	 62.962269 
670.000000	 62.894630 
669.000000	 62.825870 
668.000000	 62.763166 
667.000000	 62.714958 
666.000000	 62.689399 
665.000000	 62.692260 
664.000000	 62.725353 
663.000000	 62.785315 
662.000000	 62.863707 
661.000000	 62.948203 
660.000000	 63.024997 
659.000000	 63.081216 
658.000000	 63.107705 
657.000000	 63.100290 
656.000000	 63.060665 
655.000000	 62.995219 
654.000000	 62.913179 
653.000000	 62.824106 
652.000000	 62.736845 
651.000000	 62.657165 
650.000000	 62.588477 
649.000000	 62.530446 
648.000000	 62.481355 
647.000000	 62.437558 
646.000000	 62.395572 
645.000000	 62.351989 
644.000000	 62.303757 
643.000000	 62.249279 
642.000000	 62.187433 
641.000000	 62.119865 
640.000000	 62.049770 
639.000000	 61.983346 
638.000000	 61.928176 
637.000000	 61.892390 
636.000000	 61.882448 
635.000000	 61.902213 
634.000000	 61.951327 
633.000000	 62.024044 
632.000000	 62.109994 
631.000000	 62.195587 
630.000000	 62.266659 
629.000000	 62.311625 
628.000000	 62.323713 
627.000000	 62.301373 
626.000000	 62.249183 
625.000000	 62.176585 
624.000000	 62.096142 
623.000000	 62.020874 
622.000000	 61.961889 
621.000000	 61.927461 
620.000000	 61.920976 
619.000000	 61.942028 
618.000000	 61.985325 
617.000000	 62.042140 
616.000000	 62.102222 
615.000000	 62.155127 
614.000000	 62.193822 
613.000000	 62.214708 
612.000000	 62.221121 
611.000000	 62.221431 
610.000000	 62.228846 
609.000000	 62.257266 
608.000000	 62.318253 
607.000000	 62.417173 
606.000000	 62.549233 
605.000000	 62.698888 
604.000000	 62.842440 
603.000000	 62.952470 
602.000000	 63.004565 
601.000000	 62.982320 
600.000000	 62.882566 
599.000000	 62.715053 
598.000000	 62.500357 
597.000000	 62.264680 
596.000000	 62.033700 
595.000000	 61.828207 
594.000000	 61.660981 
593.000000	 61.536693 
592.000000	 61.454033 
591.000000	 61.407852 
590.000000	 61.391687 
589.000000	 61.400580 
588.000000	 61.430835 
587.000000	 61.481690 
586.000000	 61.552286 
585.000000	 61.641597 
584.000000	 61.745071 
583.000000	 61.856675 
582.000000	 61.968421 
581.000000	 62.072300 
580.000000	 62.161374 
579.000000	 62.231397 
578.000000	 62.281203 
577.000000	 62.312769 
576.000000	 62.329888 
575.000000	 62.337231 
574.000000	 62.338328 
573.000000	 62.335824 
572.000000	 62.330532 
571.000000	 62.321162 
570.000000	 62.305998 
569.000000	 62.284612 
568.000000	 62.259030 
567.000000	 62.234306 
566.000000	 62.217783 
565.000000	 62.218785 
564.000000	 62.244129 
563.000000	 62.296080 
562.000000	 62.370038 
561.000000	 62.454533 
560.000000	 62.534046 
559.000000	 62.592911 
558.000000	 62.619090 
557.000000	 62.606906 
556.000000	 62.559461 
555.000000	 62.487745 
554.000000	 62.407851 
553.000000	 62.337303 
552.000000	 62.290620 
551.000000	 62.276458 
550.000000	 62.296962 
549.000000	 62.348723 
548.000000	 62.425255 
547.000000	 62.519788 
546.000000	 62.627220 
545.000000	 62.745046 
544.000000	 62.873625 
543.000000	 63.013267 
542.000000	 63.161683 
541.000000	 63.311648 
540.000000	 63.452434 
539.000000	 63.567829 
538.000000	 63.642048 
537.000000	 63.658547 
536.000000	 63.605523 
535.000000	 63.476943 
534.000000	 63.276267 
533.000000	 63.015723 
532.000000	 62.715291 
531.000000	 62.401723 
530.000000	 62.104296 
529.000000	 61.853337 
528.000000	 61.675834 
527.000000	 61.592030 
526.000000	 61.611890 
525.000000	 61.734747 
524.000000	 61.948513 
523.000000	 62.230253 
522.000000	 62.548422 
521.000000	 62.866187 
520.000000	 63.146162 
519.000000	 63.355040 
518.000000	 63.468694 
517.000000	 63.474106 
516.000000	 63.372921 
515.000000	 63.180041 
514.000000	 62.923288 
513.000000	 62.639164 
512.000000	 62.367463 
511.000000	 62.146449 
510.000000	 62.005472 
509.000000	 61.963248 
508.000000	 62.021684 
507.000000	 62.167859 
506.000000	 62.374830 
505.000000	 62.608051 
504.000000	 62.829923 
503.000000	 63.006091 
502.000000	 63.110899 
501.000000	 63.130426 
500.000000	 63.065600 
499.000000	 62.930750 
498.000000	 62.750101 
497.000000	 62.552785 
496.000000	 62.369894 
495.000000	 62.228703 
494.000000	 62.148880 
493.000000	 62.139630 
492.000000	 62.199497 
491.000000	 62.317419 
490.000000	 62.477445 
489.000000	 62.660384 
488.000000	 62.845611 
487.000000	 63.014173 
486.000000	 63.151359 
485.000000	 63.246440 
484.000000	 63.291835 
483.000000	 63.283014 
482.000000	 63.219046 
481.000000	 63.102102 
480.000000	 62.939286 
479.000000	 62.740945 
478.000000	 62.520432 
477.000000	 62.294483 
476.000000	 62.082314 
475.000000	 61.904740 
474.000000	 61.781477 
473.000000	 61.728882 
472.000000	 61.756491 
471.000000	 61.865448 
470.000000	 62.046670 
469.000000	 62.281537 
468.000000	 62.543201 
467.000000	 62.799835 
466.000000	 63.018369 
465.000000	 63.170409 
464.000000	 63.234853 
463.000000	 63.201737 
462.000000	 63.071489 
461.000000	 62.854743 
460.000000	 62.569546 
459.000000	 62.240004 
458.000000	 61.892390 
457.000000	 61.551904 
456.000000	 61.242103 
455.000000	 60.985159 
454.000000	 60.798263 
453.000000	 60.692048 
452.000000	 60.669684 
451.000000	 60.726356 
450.000000	 60.848760 
449.000000	 61.014318 
448.000000	 61.198925 
447.000000	 61.379575 
446.000000	 61.541295 
445.000000	 61.678600 
444.000000	 61.795878 
443.000000	 61.903071 
442.000000	 62.014555 
441.000000	 62.140774 
440.000000	 62.281560 
439.000000	 62.422180 
438.000000	 62.539982 
437.000000	 62.605142 
436.000000	 62.588024 
435.000000	 62.466144 
434.000000	 62.234306 
433.000000	 61.904430 
432.000000	 61.508178 
431.000000	 61.086201 
430.000000	 60.683441 
429.000000	 60.333633 
428.000000	 60.055208 
427.000000	 59.844088 
426.000000	 59.676003 
425.000000	 59.517383 
424.000000	 59.337353 
423.000000	 59.118151 
422.000000	 58.860349 
421.000000	 58.586025 
420.000000	 58.332109 
419.000000	 58.143877 
418.000000	 58.062696 
417.000000	 58.124446 
416.000000	 58.352231 
415.000000	 58.748936 
414.000000	 59.298467 
413.000000	 59.971642 
412.000000	 60.728621 
411.000000	 61.530470 
410.000000	 62.336134 
409.000000	 63.092708 
408.000000	 63.745093 
407.000000	 64.252853 
406.000000	 64.584469 
405.000000	 64.728236 
404.000000	 64.679265 
403.000000	 64.463305 
402.000000	 64.099168 
401.000000	 63.586163 
400.000000	 62.921452 
399.000000	 62.119603 
398.000000	 61.212396 
397.000000	 60.249781 
396.000000	 59.316515 
395.000000	 58.528804 
394.000000	 57.992053 
393.000000	 57.780337 
392.000000	 57.876658 
391.000000	 58.173346 
390.000000	 58.490610 
389.000000	 58.635282 
388.000000	 58.467197 
387.000000	 57.965183 
386.000000	 57.240486 
385.000000	 56.536436 
384.000000	 56.176185 
383.000000	 56.481027 
382.000000	 57.672119 
381.000000	 59.804725 
380.000000	 62.727689 
379.000000	 66.132402 
378.000000	 69.563579 
377.000000	 72.630047 
376.000000	 75.030851 
375.000000	 76.757431 
374.000000	 78.145051 
373.000000	 79.712319 
372.000000	 82.047843 
371.000000	 85.489869 
370.000000	 89.982700 

