PE IR       SPECTRUM    SPECTRUM    ASCII       PEDS        1.60        
  -1
BZ6B21~1.ASC
17/04/07
18:22:50.00
17/04/07
18:22:50.00
tln
$BZ1503107-1_t0063$<tbV0>[-5.2,0.0,8.0,0.0,27,1,0]
370.000000
64









2002,4.07    
MIRTGS : RIGHTBACK : INTERNAL 2
MIR : ON : INTERNAL 2
OPTKBR

0.200000
8
8.000000
FILLER
RATIO
SPECTRUM
UNLOCKED 256

DOUBLE
64
COMBINED
1
0
0


1.000000
RATIO


1
0
TRUE
51149
0
LEFT NOT FITTED RIGHT NOT FITTED 0
NONE
NONE
15600
12.000000
4.427000
51148
TRUE
1 0 8 72 0 0 0 0 

15798.010000






#HDR
-1
-1
#GR
CM-1
%T
0.00002384185791015625
0.0
5000.000000
-1.000000
4631
8
75.218796
53.713631
#DATA
5000.000000	64.851593 
4999.000000	65.006971 
4998.000000	65.190124 
4997.000000	65.385007 
4996.000000	65.569734 
4995.000000	65.721940 
4994.000000	65.825104 
4993.000000	65.874266 
4992.000000	65.876078 
4991.000000	65.847992 
4990.000000	65.810847 
4989.000000	65.784549 
4988.000000	65.778303 
4987.000000	65.788865 
4986.000000	65.799736 
4985.000000	65.787076 
4984.000000	65.725874 
4983.000000	65.598630 
4982.000000	65.400576 
4981.000000	65.142869 
4980.000000	64.848947 
4979.000000	64.550995 
4978.000000	64.280891 
4977.000000	64.066362 
4976.000000	63.927149 
4975.000000	63.873291 
4974.000000	63.904666 
4973.000000	64.012169 
4972.000000	64.179301 
4971.000000	64.385890 
4970.000000	64.606618 
4969.000000	64.819335 
4968.000000	65.004920 
4967.000000	65.152764 
4966.000000	65.259122 
4965.000000	65.328526 
4964.000000	65.371227 
4963.000000	65.398907 
4962.000000	65.421700 
4961.000000	65.444064 
4960.000000	65.464663 
4959.000000	65.476918 
4958.000000	65.472459 
4957.000000	65.444588 
4956.000000	65.391397 
4955.000000	65.318059 
4954.000000	65.235900 
4953.000000	65.157771 
4952.000000	65.094709 
4951.000000	65.051770 
4950.000000	65.027570 
4949.000000	65.014934 
4948.000000	65.004086 
4947.000000	64.988231 
4946.000000	64.964056 
4945.000000	64.932632 
4944.000000	64.898300 
4943.000000	64.866280 
4942.000000	64.841079 
4941.000000	64.824008 
4940.000000	64.813542 
4939.000000	64.804553 
4938.000000	64.791917 
4937.000000	64.772582 
4936.000000	64.746713 
4935.000000	64.717888 
4934.000000	64.692425 
4933.000000	64.677429 
4932.000000	64.678335 
4931.000000	64.696741 
4930.000000	64.730334 
4929.000000	64.773082 
4928.000000	64.816999 
4927.000000	64.853930 
4926.000000	64.876866 
4925.000000	64.881706 
4924.000000	64.867472 
4923.000000	64.837193 
4922.000000	64.797663 
4921.000000	64.757966 
4920.000000	64.728617 
4919.000000	64.717912 
4918.000000	64.730048 
4917.000000	64.763474 
4916.000000	64.811062 
4915.000000	64.862179 
4914.000000	64.905357 
4913.000000	64.931726 
4912.000000	64.937448 
4911.000000	64.924860 
4910.000000	64.901351 
4909.000000	64.877319 
4908.000000	64.862871 
4907.000000	64.864444 
4906.000000	64.882588 
4905.000000	64.912247 
4904.000000	64.944314 
4903.000000	64.968633 
4902.000000	64.976906 
4901.000000	64.965724 
4900.000000	64.937162 
4899.000000	64.897155 
4898.000000	64.853692 
4897.000000	64.813351 
4896.000000	64.780306 
4895.000000	64.755725 
4894.000000	64.738178 
4893.000000	64.725661 
4892.000000	64.716172 
4891.000000	64.709305 
4890.000000	64.705753 
4889.000000	64.706754 
4888.000000	64.713382 
4887.000000	64.724969 
4886.000000	64.739966 
4885.000000	64.754843 
4884.000000	64.766597 
4883.000000	64.773464 
4882.000000	64.776301 
4881.000000	64.777922 
4880.000000	64.783406 
4879.000000	64.798498 
4878.000000	64.827847 
4877.000000	64.873027 
4876.000000	64.932441 
4875.000000	65.000987 
4874.000000	65.071606 
4873.000000	65.136623 
4872.000000	65.189194 
4871.000000	65.224528 
4870.000000	65.240645 
4869.000000	65.238332 
4868.000000	65.220618 
4867.000000	65.191793 
4866.000000	65.156960 
4865.000000	65.120387 
4864.000000	65.085291 
4863.000000	65.052580 
4862.000000	65.022706 
4861.000000	64.994239 
4860.000000	64.965486 
4859.000000	64.934086 
4858.000000	64.897942 
4857.000000	64.855122 
4856.000000	64.804601 
4855.000000	64.746284 
4854.000000	64.680671 
4853.000000	64.609861 
4852.000000	64.537262 
4851.000000	64.467525 
4850.000000	64.405989 
4849.000000	64.358210 
4848.000000	64.329123 
4847.000000	64.322018 
4846.000000	64.337778 
4845.000000	64.374470 
4844.000000	64.427757 
4843.000000	64.490962 
4842.000000	64.556622 
4841.000000	64.617657 
4840.000000	64.669060 
4839.000000	64.707946 
4838.000000	64.734482 
4837.000000	64.751338 
4836.000000	64.762473 
4835.000000	64.772248 
4834.000000	64.783191 
4833.000000	64.795613 
4832.000000	64.806675 
4831.000000	64.812374 
4830.000000	64.807844 
4829.000000	64.789414 
4828.000000	64.756107 
4827.000000	64.710712 
4826.000000	64.659404 
4825.000000	64.610266 
4824.000000	64.571619 
4823.000000	64.549922 
4822.000000	64.548420 
4821.000000	64.566516 
4820.000000	64.599823 
4819.000000	64.641618 
4818.000000	64.684581 
4817.000000	64.722609 
4816.000000	64.751863 
4815.000000	64.771127 
4814.000000	64.781165 
4813.000000	64.783930 
4812.000000	64.781022 
4811.000000	64.773559 
4810.000000	64.761447 
4809.000000	64.744448 
4808.000000	64.722752 
4807.000000	64.697861 
4806.000000	64.673066 
4805.000000	64.653038 
4804.000000	64.643263 
4803.000000	64.648103 
4802.000000	64.669990 
4801.000000	64.707565 
4800.000000	64.756011 
4799.000000	64.806509 
4798.000000	64.847946 
4797.000000	64.868974 
4796.000000	64.860701 
4795.000000	64.818334 
4794.000000	64.742612 
4793.000000	64.639997 
4792.000000	64.521479 
4791.000000	64.400386 
4790.000000	64.290261 
4789.000000	64.202117 
4788.000000	64.143633 
4787.000000	64.118432 
4786.000000	64.126777 
4785.000000	64.165496 
4784.000000	64.229750 
4783.000000	64.313697 
4782.000000	64.411234 
4781.000000	64.515185 
4780.000000	64.618372 
4779.000000	64.712810 
4778.000000	64.791607 
4777.000000	64.848852 
4776.000000	64.881777 
4775.000000	64.890909 
4774.000000	64.880728 
4773.000000	64.859557 
4772.000000	64.837050 
4771.000000	64.822125 
4770.000000	64.820814 
4769.000000	64.835023 
4768.000000	64.861941 
4767.000000	64.895296 
4766.000000	64.926862 
4765.000000	64.948749 
4764.000000	64.955759 
4763.000000	64.946317 
4762.000000	64.922499 
4761.000000	64.889144 
4760.000000	64.851546 
4759.000000	64.814090 
4758.000000	64.779376 
4757.000000	64.747691 
4756.000000	64.717483 
4755.000000	64.686775 
4754.000000	64.654707 
4753.000000	64.622712 
4752.000000	64.594697 
4751.000000	64.576649 
4750.000000	64.574384 
4749.000000	64.592719 
4748.000000	64.633703 
4747.000000	64.695525 
4746.000000	64.772439 
4745.000000	64.855647 
4744.000000	64.935278 
4743.000000	65.001463 
4742.000000	65.046525 
4741.000000	65.065121 
4740.000000	65.055155 
4739.000000	65.017580 
4738.000000	64.956378 
4737.000000	64.877939 
4736.000000	64.790487 
4735.000000	64.703202 
4734.000000	64.625191 
4733.000000	64.564752 
4732.000000	64.528059 
4731.000000	64.518189 
4730.000000	64.534950 
4729.000000	64.575028 
4728.000000	64.632916 
4727.000000	64.701437 
4726.000000	64.773702 
4725.000000	64.843630 
4724.000000	64.906954 
4723.000000	64.960885 
4722.000000	65.004205 
4721.000000	65.036177 
4720.000000	65.056777 
4719.000000	65.066123 
4718.000000	65.065407 
4717.000000	65.056920 
4716.000000	65.044212 
4715.000000	65.032100 
4714.000000	65.024709 
4713.000000	65.024638 
4712.000000	65.031862 
4711.000000	65.043449 
4710.000000	65.054011 
4709.000000	65.057039 
4708.000000	65.046954 
4707.000000	65.020489 
4706.000000	64.977717 
4705.000000	64.921879 
4704.000000	64.858818 
4703.000000	64.795088 
4702.000000	64.736008 
4701.000000	64.685106 
4700.000000	64.642953 
4699.000000	64.608788 
4698.000000	64.581227 
4697.000000	64.559459 
4696.000000	64.543962 
4695.000000	64.536309 
4694.000000	64.538478 
4693.000000	64.551830 
4692.000000	64.575386 
4691.000000	64.607238 
4690.000000	64.644169 
4689.000000	64.683604 
4688.000000	64.723849 
4687.000000	64.765453 
4686.000000	64.810371 
4685.000000	64.861059 
4684.000000	64.918923 
4683.000000	64.982438 
4682.000000	65.046882 
4681.000000	65.104722 
4680.000000	65.147233 
4679.000000	65.166926 
4678.000000	65.159511 
4677.000000	65.126252 
4676.000000	65.073156 
4675.000000	65.009975 
4674.000000	64.947557 
4673.000000	64.895367 
4672.000000	64.859461 
4671.000000	64.841318 
4670.000000	64.838290 
4669.000000	64.845705 
4668.000000	64.857816 
4667.000000	64.869856 
4666.000000	64.878916 
4665.000000	64.884305 
4664.000000	64.886808 
4663.000000	64.887285 
4662.000000	64.886045 
4661.000000	64.882016 
4660.000000	64.873385 
4659.000000	64.858150 
4658.000000	64.835429 
4657.000000	64.806127 
4656.000000	64.773654 
4655.000000	64.743208 
4654.000000	64.720344 
4653.000000	64.709639 
4652.000000	64.713263 
4651.000000	64.730381 
4650.000000	64.756822 
4649.000000	64.786243 
4648.000000	64.812207 
4647.000000	64.829659 
4646.000000	64.835882 
4645.000000	64.831805 
4644.000000	64.821290 
4643.000000	64.810395 
4642.000000	64.805650 
4641.000000	64.812612 
4640.000000	64.834141 
4639.000000	64.870333 
4638.000000	64.918565 
4637.000000	64.973855 
4636.000000	65.030121 
4635.000000	65.081262 
4634.000000	65.122413 
4633.000000	65.150165 
4632.000000	65.162825 
4631.000000	65.160536 
4630.000000	65.145015 
4629.000000	65.118885 
4628.000000	65.084958 
4627.000000	65.046405 
4626.000000	65.005755 
4625.000000	64.964985 
4624.000000	64.924907 
4623.000000	64.885759 
4622.000000	64.847040 
4621.000000	64.807844 
4620.000000	64.767408 
4619.000000	64.725494 
4618.000000	64.682936 
4617.000000	64.641451 
4616.000000	64.603900 
4615.000000	64.572906 
4614.000000	64.551711 
4613.000000	64.542818 
4612.000000	64.548611 
4611.000000	64.569735 
4610.000000	64.606618 
4609.000000	64.658784 
4608.000000	64.725255 
4607.000000	64.804244 
4606.000000	64.893460 
4605.000000	64.989686 
4604.000000	65.088510 
4603.000000	65.184140 
4602.000000	65.270185 
4601.000000	65.340137 
4600.000000	65.388274 
4599.000000	65.411019 
4598.000000	65.408110 
4597.000000	65.383028 
4596.000000	65.342926 
4595.000000	65.296721 
4594.000000	65.254187 
4593.000000	65.222716 
4592.000000	65.207099 
4591.000000	65.207409 
4590.000000	65.219688 
4589.000000	65.236639 
4588.000000	65.250158 
4587.000000	65.253257 
4586.000000	65.241527 
4585.000000	65.214657 
4584.000000	65.176129 
4583.000000	65.132522 
4582.000000	65.091562 
4581.000000	65.060138 
4580.000000	65.042543 
4579.000000	65.039348 
4578.000000	65.047383 
4577.000000	65.060210 
4576.000000	65.069651 
4575.000000	65.067839 
4574.000000	65.049004 
4573.000000	65.009951 
4572.000000	64.951252 
4571.000000	64.876770 
4570.000000	64.793300 
4569.000000	64.708375 
4568.000000	64.629840 
4567.000000	64.564514 
4566.000000	64.517545 
4565.000000	64.491963 
4564.000000	64.488387 
4563.000000	64.504909 
4562.000000	64.538025 
4561.000000	64.583039 
4560.000000	64.635133 
4559.000000	64.689135 
4558.000000	64.741015 
4557.000000	64.787697 
4556.000000	64.827179 
4555.000000	64.858126 
4554.000000	64.880084 
4553.000000	64.892911 
4552.000000	64.897036 
4551.000000	64.893102 
4550.000000	64.882636 
4549.000000	64.867568 
4548.000000	64.849615 
4547.000000	64.829993 
4546.000000	64.809322 
4545.000000	64.787697 
4544.000000	64.764738 
4543.000000	64.740133 
4542.000000	64.714002 
4541.000000	64.687943 
4540.000000	64.664483 
4539.000000	64.647912 
4538.000000	64.642715 
4537.000000	64.653730 
4536.000000	64.684343 
4535.000000	64.736294 
4534.000000	64.808583 
4533.000000	64.897298 
4532.000000	64.996075 
4531.000000	65.096449 
4530.000000	65.189242 
4529.000000	65.266060 
4528.000000	65.321016 
4527.000000	65.351247 
4526.000000	65.357136 
4525.000000	65.342855 
4524.000000	65.315532 
4523.000000	65.283942 
4522.000000	65.256834 
4521.000000	65.241527 
4520.000000	65.242123 
4519.000000	65.259385 
4518.000000	65.290355 
4517.000000	65.328907 
4516.000000	65.366959 
4515.000000	65.396666 
4514.000000	65.411543 
4513.000000	65.407299 
4512.000000	65.383219 
4511.000000	65.341711 
4510.000000	65.288352 
4509.000000	65.230751 
4508.000000	65.176582 
4507.000000	65.132808 
4506.000000	65.102434 
4505.000000	65.084576 
4504.000000	65.073680 
4503.000000	65.060973 
4502.000000	65.037465 
4501.000000	64.996862 
4500.000000	64.937400 
4499.000000	64.862680 
4498.000000	64.780449 
4497.000000	64.700818 
4496.000000	64.633154 
4495.000000	64.584398 
4494.000000	64.558982 
4493.000000	64.558553 
4492.000000	64.582443 
4491.000000	64.627909 
4490.000000	64.690041 
4489.000000	64.762973 
4488.000000	64.839363 
4487.000000	64.912533 
4486.000000	64.976954 
4485.000000	65.029096 
4484.000000	65.068006 
4483.000000	65.094280 
4482.000000	65.109658 
4481.000000	65.115427 
4480.000000	65.112328 
4479.000000	65.100002 
4478.000000	65.077948 
4477.000000	65.046548 
4476.000000	65.007185 
4475.000000	64.965486 
4474.000000	64.931726 
4473.000000	64.916968 
4472.000000	64.930796 
4471.000000	64.975500 
4470.000000	65.044808 
4469.000000	65.123057 
4468.000000	65.189361 
4467.000000	65.224719 
4466.000000	65.217518 
4465.000000	65.169715 
4464.000000	65.095114 
4463.000000	65.013456 
4462.000000	64.945507 
4461.000000	64.902639 
4460.000000	64.888024 
4459.000000	64.900016 
4458.000000	64.931988 
4457.000000	64.977240 
4456.000000	65.027761 
4455.000000	65.080022 
4454.000000	65.128087 
4453.000000	65.163755 
4452.000000	65.173697 
4451.000000	65.141248 
4450.000000	65.048432 
4449.000000	64.881682 
4448.000000	64.634776 
4447.000000	64.312386 
4446.000000	63.933491 
4445.000000	63.530874 
4444.000000	63.144207 
4443.000000	62.813568 
4442.000000	62.575650 
4441.000000	62.456679 
4440.000000	62.470507 
4439.000000	62.612271 
4438.000000	62.862801 
4437.000000	63.183164 
4436.000000	63.515281 
4435.000000	63.788151 
4434.000000	63.925433 
4433.000000	63.863563 
4432.000000	63.564610 
4431.000000	63.029766 
4430.000000	62.304139 
4429.000000	61.468648 
4428.000000	60.622668 
4427.000000	59.867835 
4426.000000	59.284234 
4425.000000	58.923482 
4424.000000	58.800220 
4423.000000	58.899521 
4422.000000	59.183716 
4421.000000	59.606981 
4420.000000	60.123419 
4419.000000	60.696315 
4418.000000	61.296963 
4417.000000	61.908149 
4416.000000	62.517070 
4415.000000	63.113403 
4414.000000	63.683390 
4413.000000	64.208793 
4412.000000	64.666652 
4411.000000	65.037584 
4410.000000	65.307307 
4409.000000	65.473437 
4408.000000	65.542912 
4407.000000	65.536665 
4406.000000	65.479636 
4405.000000	65.398526 
4404.000000	65.313816 
4403.000000	65.239739 
4402.000000	65.182018 
4401.000000	65.143537 
4400.000000	65.123152 
4399.000000	65.123581 
4398.000000	65.145421 
4397.000000	65.186858 
4396.000000	65.242600 
4395.000000	65.303587 
4394.000000	65.357995 
4393.000000	65.392112 
4392.000000	65.396595 
4391.000000	65.368890 
4390.000000	65.314769 
4389.000000	65.247559 
4388.000000	65.182542 
4387.000000	65.132594 
4386.000000	65.106987 
4385.000000	65.108633 
4384.000000	65.131163 
4383.000000	65.161490 
4382.000000	65.185880 
4381.000000	65.193295 
4380.000000	65.176773 
4379.000000	65.136194 
4378.000000	65.078854 
4377.000000	65.016698 
4376.000000	64.961361 
4375.000000	64.921998 
4374.000000	64.902901 
4373.000000	64.902734 
4372.000000	64.915847 
4371.000000	64.934349 
4370.000000	64.950513 
4369.000000	64.959883 
4368.000000	64.962172 
4367.000000	64.962196 
4366.000000	64.967751 
4365.000000	64.988112 
4364.000000	65.030479 
4363.000000	65.097999 
4362.000000	65.187811 
4361.000000	65.291118 
4360.000000	65.394616 
4359.000000	65.483117 
4358.000000	65.542888 
4357.000000	65.564942 
4356.000000	65.546727 
4355.000000	65.492653 
4354.000000	65.412878 
4353.000000	65.321421 
4352.000000	65.232229 
4351.000000	65.156984 
4350.000000	65.101742 
4349.000000	65.067172 
4348.000000	65.048527 
4347.000000	65.038013 
4346.000000	65.027618 
4345.000000	65.011644 
4344.000000	64.989280 
4343.000000	64.964222 
4342.000000	64.944529 
4341.000000	64.939212 
4340.000000	64.956140 
4339.000000	64.998650 
4338.000000	65.064239 
4337.000000	65.144324 
4336.000000	65.226674 
4335.000000	65.298271 
4334.000000	65.348458 
4333.000000	65.371394 
4332.000000	65.366792 
4331.000000	65.339398 
4330.000000	65.297293 
4329.000000	65.249419 
4328.000000	65.203452 
4327.000000	65.163874 
4326.000000	65.132021 
4325.000000	65.106296 
4324.000000	65.084075 
4323.000000	65.062785 
4322.000000	65.041708 
4321.000000	65.021729 
4320.000000	65.004897 
4319.000000	64.993762 
4318.000000	64.990234 
4317.000000	64.994692 
4316.000000	65.005421 
4315.000000	65.018987 
4314.000000	65.031123 
4313.000000	65.037274 
4312.000000	65.033626 
4311.000000	65.018224 
4310.000000	64.991474 
4309.000000	64.956712 
4308.000000	64.919567 
4307.000000	64.887595 
4306.000000	64.868426 
4305.000000	64.868640 
4304.000000	64.891672 
4303.000000	64.936923 
4302.000000	64.999270 
4301.000000	65.070033 
4300.000000	65.138459 
4299.000000	65.193676 
4298.000000	65.227484 
4297.000000	65.235567 
4296.000000	65.218830 
4295.000000	65.182995 
4294.000000	65.137004 
4293.000000	65.090847 
4292.000000	65.053415 
4291.000000	65.030622 
4290.000000	65.024733 
4289.000000	65.034604 
4288.000000	65.056657 
4287.000000	65.086507 
4286.000000	65.120196 
4285.000000	65.155100 
4284.000000	65.190029 
4283.000000	65.224575 
4282.000000	65.258598 
4281.000000	65.291452 
4280.000000	65.321683 
4279.000000	65.346789 
4278.000000	65.364217 
4277.000000	65.371918 
4276.000000	65.369391 
4275.000000	65.357613 
4274.000000	65.339040 
4273.000000	65.316557 
4272.000000	65.293121 
4271.000000	65.270853 
4270.000000	65.250778 
4269.000000	65.232610 
4268.000000	65.215492 
4267.000000	65.198111 
4266.000000	65.179824 
4265.000000	65.160202 
4264.000000	65.139818 
4263.000000	65.119171 
4262.000000	65.098571 
4261.000000	65.077781 
4260.000000	65.055894 
4259.000000	65.031552 
4258.000000	65.003204 
4257.000000	64.969706 
4256.000000	64.930891 
4255.000000	64.887928 
4254.000000	64.843153 
4253.000000	64.799594 
4252.000000	64.760708 
4251.000000	64.729714 
4250.000000	64.709281 
4249.000000	64.700913 
4248.000000	64.705133 
4247.000000	64.721417 
4246.000000	64.748477 
4245.000000	64.784240 
4244.000000	64.826154 
4243.000000	64.871287 
4242.000000	64.916896 
4241.000000	64.960050 
4240.000000	64.998459 
4239.000000	65.030193 
4238.000000	65.054059 
4237.000000	65.069913 
4236.000000	65.078282 
4235.000000	65.080428 
4234.000000	65.077924 
4233.000000	65.072917 
4232.000000	65.067386 
4231.000000	65.063142 
4230.000000	65.061664 
4229.000000	65.064239 
4228.000000	65.071678 
4227.000000	65.084266 
4226.000000	65.101528 
4225.000000	65.122413 
4224.000000	65.144634 
4223.000000	65.165209 
4222.000000	65.181016 
4221.000000	65.189337 
4220.000000	65.188527 
4219.000000	65.178227 
4218.000000	65.160107 
4217.000000	65.136837 
4216.000000	65.111923 
4215.000000	65.088415 
4214.000000	65.068078 
4213.000000	65.051507 
4212.000000	65.038251 
4211.000000	65.027499 
4210.000000	65.018153 
4209.000000	65.010309 
4208.000000	65.005660 
4207.000000	65.006780 
4206.000000	65.016222 
4205.000000	65.035438 
4204.000000	65.064024 
4203.000000	65.099072 
4202.000000	65.135574 
4201.000000	65.167999 
4200.000000	65.191698 
4199.000000	65.204334 
4198.000000	65.206670 
4197.000000	65.202426 
4196.000000	65.197134 
4195.000000	65.196442 
4194.000000	65.204405 
4193.000000	65.222549 
4192.000000	65.248918 
4191.000000	65.279269 
4190.000000	65.307188 
4189.000000	65.326786 
4188.000000	65.332722 
4187.000000	65.322494 
4186.000000	65.295457 
4185.000000	65.252995 
4184.000000	65.197706 
4183.000000	65.132808 
4182.000000	65.061616 
4181.000000	64.987277 
4180.000000	64.912891 
4179.000000	64.841794 
4178.000000	64.777278 
4177.000000	64.722537 
4176.000000	64.680218 
4175.000000	64.652037 
4174.000000	64.638662 
4173.000000	64.639592 
4172.000000	64.653229 
4171.000000	64.677047 
4170.000000	64.708185 
4169.000000	64.743804 
4168.000000	64.780950 
4167.000000	64.817047 
4166.000000	64.849519 
4165.000000	64.876317 
4164.000000	64.895725 
4163.000000	64.906954 
4162.000000	64.910340 
4161.000000	64.907240 
4160.000000	64.900279 
4159.000000	64.892315 
4158.000000	64.886355 
4157.000000	64.884305 
4156.000000	64.886903 
4155.000000	64.893293 
4154.000000	64.901375 
4153.000000	64.908695 
4152.000000	64.913368 
4151.000000	64.914345 
4150.000000	64.911866 
4149.000000	64.907360 
4148.000000	64.903020 
4147.000000	64.901232 
4146.000000	64.903640 
4145.000000	64.911270 
4144.000000	64.924073 
4143.000000	64.941072 
4142.000000	64.960765 
4141.000000	64.981842 
4140.000000	65.003085 
4139.000000	65.023636 
4138.000000	65.042400 
4137.000000	65.057921 
4136.000000	65.068078 
4135.000000	65.070438 
4134.000000	65.062522 
4133.000000	65.042567 
4132.000000	65.010547 
4131.000000	64.968585 
4130.000000	64.921236 
4129.000000	64.875030 
4128.000000	64.836764 
4127.000000	64.812493 
4126.000000	64.805555 
4125.000000	64.815664 
4124.000000	64.838933 
4123.000000	64.868569 
4122.000000	64.896631 
4121.000000	64.915919 
4120.000000	64.922618 
4119.000000	64.917302 
4118.000000	64.904808 
4117.000000	64.893078 
4116.000000	64.890861 
4115.000000	64.905309 
4114.000000	64.939546 
4113.000000	64.991402 
4112.000000	65.054225 
4111.000000	65.117955 
4110.000000	65.171957 
4109.000000	65.207481 
4108.000000	65.219759 
4107.000000	65.209269 
4106.000000	65.181279 
4105.000000	65.144515 
4104.000000	65.108776 
4103.000000	65.082335 
4102.000000	65.070676 
4101.000000	65.074396 
4100.000000	65.090036 
4099.000000	65.110421 
4098.000000	65.127682 
4097.000000	65.134239 
4096.000000	65.125131 
4095.000000	65.098953 
4094.000000	65.058016 
4093.000000	65.007424 
4092.000000	64.953756 
4091.000000	64.903330 
4090.000000	64.860916 
4089.000000	64.828777 
4088.000000	64.806628 
4087.000000	64.792108 
4086.000000	64.782023 
4085.000000	64.773488 
4084.000000	64.765381 
4083.000000	64.758038 
4082.000000	64.753794 
4081.000000	64.755725 
4080.000000	64.767122 
4079.000000	64.789557 
4078.000000	64.822816 
4077.000000	64.864730 
4076.000000	64.911365 
4075.000000	64.957833 
4074.000000	64.999341 
4073.000000	65.031766 
4072.000000	65.052890 
4071.000000	65.062379 
4070.000000	65.062069 
4069.000000	65.055060 
4068.000000	65.045571 
4067.000000	65.038013 
4066.000000	65.036153 
4065.000000	65.042591 
4064.000000	65.058207 
4063.000000	65.082144 
4062.000000	65.111589 
4061.000000	65.142226 
4060.000000	65.168929 
4059.000000	65.186786 
4058.000000	65.191984 
4057.000000	65.182685 
4056.000000	65.159416 
4055.000000	65.125346 
4054.000000	65.085744 
4053.000000	65.046906 
4052.000000	65.015125 
4051.000000	64.995002 
4050.000000	64.989280 
4049.000000	64.997577 
4048.000000	65.016984 
4047.000000	65.042448 
4046.000000	65.068268 
4045.000000	65.089368 
4044.000000	65.101909 
4043.000000	65.105080 
4042.000000	65.100908 
4041.000000	65.093708 
4040.000000	65.088701 
4039.000000	65.090632 
4038.000000	65.102362 
4037.000000	65.123987 
4036.000000	65.152740 
4035.000000	65.183329 
4034.000000	65.209174 
4033.000000	65.224337 
4032.000000	65.224742 
4031.000000	65.209174 
4030.000000	65.179514 
4029.000000	65.140199 
4028.000000	65.097093 
4027.000000	65.056085 
4026.000000	65.021705 
4025.000000	64.996600 
4024.000000	64.980816 
4023.000000	64.972758 
4022.000000	64.969491 
4021.000000	64.968037 
4020.000000	64.965724 
4019.000000	64.960527 
4018.000000	64.951610 
4017.000000	64.938735 
4016.000000	64.922928 
4015.000000	64.905786 
4014.000000	64.889621 
4013.000000	64.876866 
4012.000000	64.870262 
4011.000000	64.872360 
4010.000000	64.884853 
4009.000000	64.908337 
4008.000000	64.942026 
4007.000000	64.983749 
4006.000000	65.030241 
4005.000000	65.077662 
4004.000000	65.122318 
4003.000000	65.161323 
4002.000000	65.193057 
4001.000000	65.216946 
4000.000000	65.233683 
3999.000000	65.244603 
3998.000000	65.251278 
3997.000000	65.255284 
3996.000000	65.257668 
3995.000000	65.259218 
3994.000000	65.260958 
3993.000000	65.263581 
3992.000000	65.267872 
3991.000000	65.274357 
3990.000000	65.283322 
3989.000000	65.294647 
3988.000000	65.307855 
3987.000000	65.321898 
3986.000000	65.335345 
3985.000000	65.346741 
3984.000000	65.354943 
3983.000000	65.359115 
3982.000000	65.358901 
3981.000000	65.354442 
3980.000000	65.346050 
3979.000000	65.334200 
3978.000000	65.319156 
3977.000000	65.301179 
3976.000000	65.280413 
3975.000000	65.256977 
3974.000000	65.231537 
3973.000000	65.205311 
3972.000000	65.180277 
3971.000000	65.158581 
3970.000000	65.142393 
3969.000000	65.133571 
3968.000000	65.132951 
3967.000000	65.140271 
3966.000000	65.153694 
3965.000000	65.170121 
3964.000000	65.185379 
3963.000000	65.195083 
3962.000000	65.195345 
3961.000000	65.183544 
3960.000000	65.158581 
3959.000000	65.121126 
3958.000000	65.073561 
3957.000000	65.019559 
3956.000000	64.963459 
3955.000000	64.909911 
3954.000000	64.863133 
3953.000000	64.826560 
3952.000000	64.802479 
3951.000000	64.791727 
3950.000000	64.793157 
3949.000000	64.804172 
3948.000000	64.820551 
3947.000000	64.838290 
3946.000000	64.853405 
3945.000000	64.864110 
3944.000000	64.870309 
3943.000000	64.874315 
3942.000000	64.879655 
3941.000000	64.890146 
3940.000000	64.909076 
3939.000000	64.937376 
3938.000000	64.973235 
3937.000000	65.012001 
3936.000000	65.047597 
3935.000000	65.073227 
3934.000000	65.083217 
3933.000000	65.074419 
3932.000000	65.047264 
3931.000000	65.005755 
3930.000000	64.956760 
3929.000000	64.908599 
3928.000000	64.869570 
3927.000000	64.846110 
3926.000000	64.841675 
3925.000000	64.856600 
3924.000000	64.888024 
3923.000000	64.930486 
3922.000000	64.977121 
3921.000000	65.021252 
3920.000000	65.057635 
3919.000000	65.083050 
3918.000000	65.096974 
3917.000000	65.100717 
3916.000000	65.097498 
3915.000000	65.091276 
3914.000000	65.085887 
3913.000000	65.084409 
3912.000000	65.088772 
3911.000000	65.099954 
3910.000000	65.117835 
3909.000000	65.141606 
3908.000000	65.169596 
3907.000000	65.199899 
3906.000000	65.229892 
3905.000000	65.256667 
3904.000000	65.277504 
3903.000000	65.290522 
3902.000000	65.294671 
3901.000000	65.290427 
3900.000000	65.279984 
3899.000000	65.266919 
3898.000000	65.255808 
3897.000000	65.251064 
3896.000000	65.255737 
3895.000000	65.270805 
3894.000000	65.294885 
3893.000000	65.324306 
3892.000000	65.354084 
3891.000000	65.378737 
3890.000000	65.393686 
3889.000000	65.396261 
3888.000000	65.386295 
3887.000000	65.365743 
3886.000000	65.338110 
3885.000000	65.307211 
3884.000000	65.276336 
3883.000000	65.247416 
3882.000000	65.221023 
3881.000000	65.196251 
3880.000000	65.171742 
3879.000000	65.145945 
3878.000000	65.118265 
3877.000000	65.089011 
3876.000000	65.059590 
3875.000000	65.031766 
3874.000000	65.007424 
3873.000000	64.988231 
3872.000000	64.975452 
3871.000000	64.969801 
3870.000000	64.971446 
3869.000000	64.980268 
3868.000000	64.995718 
3867.000000	65.016651 
3866.000000	65.041589 
3865.000000	65.068578 
3864.000000	65.095186 
3863.000000	65.118741 
3862.000000	65.136718 
3861.000000	65.147137 
3860.000000	65.149188 
3859.000000	65.143156 
3858.000000	65.130782 
3857.000000	65.114855 
3856.000000	65.098714 
3855.000000	65.085577 
3854.000000	65.077590 
3853.000000	65.075325 
3852.000000	65.077924 
3851.000000	65.083432 
3850.000000	65.089440 
3849.000000	65.093636 
3848.000000	65.094828 
3847.000000	65.093159 
3846.000000	65.090322 
3845.000000	65.088820 
3844.000000	65.091204 
3843.000000	65.098953 
3842.000000	65.111875 
3841.000000	65.127849 
3840.000000	65.143322 
3839.000000	65.153980 
3838.000000	65.156364 
3837.000000	65.148329 
3836.000000	65.130209 
3835.000000	65.104341 
3834.000000	65.074443 
3833.000000	65.044832 
3832.000000	65.019130 
3831.000000	64.999747 
3830.000000	64.987564 
3829.000000	64.982438 
3828.000000	64.983701 
3827.000000	64.990854 
3826.000000	65.004110 
3825.000000	65.024113 
3824.000000	65.051436 
3823.000000	65.085458 
3822.000000	65.123844 
3821.000000	65.162396 
3820.000000	65.195298 
3819.000000	65.216398 
3818.000000	65.220212 
3817.000000	65.204095 
3816.000000	65.168833 
3815.000000	65.118241 
3814.000000	65.058875 
3813.000000	64.998459 
3812.000000	64.944386 
3811.000000	64.901995 
3810.000000	64.874029 
3809.000000	64.860701 
3808.000000	64.860200 
3807.000000	64.869785 
3806.000000	64.886593 
3805.000000	64.908432 
3804.000000	64.933681 
3803.000000	64.960837 
3802.000000	64.988350 
3801.000000	65.013670 
3800.000000	65.033888 
3799.000000	65.045833 
3798.000000	65.047359 
3797.000000	65.037822 
3796.000000	65.019154 
3795.000000	64.995861 
3794.000000	64.974284 
3793.000000	64.961433 
3792.000000	64.963746 
3791.000000	64.985775 
3790.000000	65.028882 
3789.000000	65.090799 
3788.000000	65.166282 
3787.000000	65.247845 
3786.000000	65.327334 
3785.000000	65.397381 
3784.000000	65.452432 
3783.000000	65.489745 
3782.000000	65.509271 
3781.000000	65.513372 
3780.000000	65.505886 
3779.000000	65.490770 
3778.000000	65.471959 
3777.000000	65.451645 
3776.000000	65.430736 
3775.000000	65.408253 
3774.000000	65.382885 
3773.000000	65.353107 
3772.000000	65.318369 
3771.000000	65.279221 
3770.000000	65.237545 
3769.000000	65.196061 
3768.000000	65.157747 
3767.000000	65.124845 
3766.000000	65.098524 
3765.000000	65.078854 
3764.000000	65.065073 
3763.000000	65.056061 
3762.000000	65.050721 
3761.000000	65.048360 
3760.000000	65.048766 
3759.000000	65.051841 
3758.000000	65.057182 
3757.000000	65.064144 
3756.000000	65.071439 
3755.000000	65.076661 
3754.000000	65.077543 
3753.000000	65.072441 
3752.000000	65.061116 
3751.000000	65.044569 
3750.000000	65.025544 
3749.000000	65.007781 
3748.000000	64.995312 
3747.000000	64.991521 
3746.000000	64.997720 
3745.000000	65.012860 
3744.000000	65.033602 
3743.000000	65.055203 
3742.000000	65.072464 
3741.000000	65.081048 
3740.000000	65.078759 
3739.000000	65.066051 
3738.000000	65.045738 
3737.000000	65.022349 
3736.000000	65.000963 
3735.000000	64.985918 
3734.000000	64.979553 
3733.000000	64.981484 
3732.000000	64.989304 
3731.000000	64.998984 
3730.000000	65.006208 
3729.000000	65.007591 
3728.000000	65.001487 
3727.000000	64.988565 
3726.000000	64.971208 
3725.000000	64.953494 
3724.000000	64.939260 
3723.000000	64.932155 
3722.000000	64.934563 
3721.000000	64.947199 
3720.000000	64.969062 
3719.000000	64.997768 
3718.000000	65.030026 
3717.000000	65.062236 
3716.000000	65.091204 
3715.000000	65.114736 
3714.000000	65.132021 
3713.000000	65.143632 
3712.000000	65.151190 
3711.000000	65.157055 
3710.000000	65.163516 
3709.000000	65.172362 
3708.000000	65.184259 
3707.000000	65.198826 
3706.000000	65.214657 
3705.000000	65.230107 
3704.000000	65.243172 
3703.000000	65.252542 
3702.000000	65.257048 
3701.000000	65.256333 
3700.000000	65.250158 
3699.000000	65.238213 
3698.000000	65.219926 
3697.000000	65.194654 
3696.000000	65.162086 
3695.000000	65.122842 
3694.000000	65.078830 
3693.000000	65.033411 
3692.000000	64.990949 
3691.000000	64.955854 
3690.000000	64.931774 
3689.000000	64.920759 
3688.000000	64.922928 
3687.000000	64.936280 
3686.000000	64.957237 
3685.000000	64.981484 
3684.000000	65.004968 
3683.000000	65.024662 
3682.000000	65.038752 
3681.000000	65.046930 
3680.000000	65.049743 
3679.000000	65.048217 
3678.000000	65.043306 
3677.000000	65.035557 
3676.000000	65.025186 
3675.000000	65.011858 
3674.000000	64.995503 
3673.000000	64.976358 
3672.000000	64.955353 
3671.000000	64.934062 
3670.000000	64.914441 
3669.000000	64.899039 
3668.000000	64.889931 
3667.000000	64.889073 
3666.000000	64.897465 
3665.000000	64.915370 
3664.000000	64.941883 
3663.000000	64.975237 
3662.000000	65.012884 
3661.000000	65.051794 
3660.000000	65.088963 
3659.000000	65.121889 
3658.000000	65.148854 
3657.000000	65.169024 
3656.000000	65.182518 
3655.000000	65.190315 
3654.000000	65.193915 
3653.000000	65.195012 
3652.000000	65.194821 
3651.000000	65.194058 
3650.000000	65.192604 
3649.000000	65.189933 
3648.000000	65.185284 
3647.000000	65.178298 
3646.000000	65.169072 
3645.000000	65.158677 
3644.000000	65.148758 
3643.000000	65.141367 
3642.000000	65.138006 
3641.000000	65.139269 
3640.000000	65.144252 
3639.000000	65.150737 
3638.000000	65.155506 
3637.000000	65.155220 
3636.000000	65.147376 
3635.000000	65.131044 
3634.000000	65.107607 
3633.000000	65.080356 
3632.000000	65.053987 
3631.000000	65.033388 
3630.000000	65.022492 
3629.000000	65.023255 
3628.000000	65.035223 
3627.000000	65.055346 
3626.000000	65.079069 
3625.000000	65.101218 
3624.000000	65.117073 
3623.000000	65.123486 
3622.000000	65.119123 
3621.000000	65.104770 
3620.000000	65.082716 
3619.000000	65.056276 
3618.000000	65.028762 
3617.000000	65.003323 
3616.000000	64.982342 
3615.000000	64.967274 
3614.000000	64.958882 
3613.000000	64.956831 
3612.000000	64.960527 
3611.000000	64.968657 
3610.000000	64.979481 
3609.000000	64.991140 
3608.000000	65.001726 
3607.000000	65.010023 
3606.000000	65.015363 
3605.000000	65.018081 
3604.000000	65.019392 
3603.000000	65.021014 
3602.000000	65.024518 
3601.000000	65.031027 
3600.000000	65.040755 
3599.000000	65.052771 
3598.000000	65.065193 
3597.000000	65.075755 
3596.000000	65.082502 
3595.000000	65.084218 
3594.000000	65.080928 
3593.000000	65.073680 
3592.000000	65.064501 
3591.000000	65.055871 
3590.000000	65.050005 
3589.000000	65.048456 
3588.000000	65.051674 
3587.000000	65.059208 
3586.000000	65.069675 
3585.000000	65.081524 
3584.000000	65.092945 
3583.000000	65.102362 
3582.000000	65.108680 
3581.000000	65.111279 
3580.000000	65.110278 
3579.000000	65.106368 
3578.000000	65.100955 
3577.000000	65.095639 
3576.000000	65.092396 
3575.000000	65.092849 
3574.000000	65.098118 
3573.000000	65.108346 
3572.000000	65.122604 
3571.000000	65.138816 
3570.000000	65.154170 
3569.000000	65.165400 
3568.000000	65.169858 
3567.000000	65.165567 
3566.000000	65.152025 
3565.000000	65.130281 
3564.000000	65.102696 
3563.000000	65.072703 
3562.000000	65.043735 
3561.000000	65.018963 
3560.000000	65.000724 
3559.000000	64.990305 
3558.000000	64.987635 
3557.000000	64.991903 
3556.000000	65.001821 
3555.000000	65.015912 
3554.000000	65.032720 
3553.000000	65.050911 
3552.000000	65.069341 
3551.000000	65.086913 
3550.000000	65.102720 
3549.000000	65.115857 
3548.000000	65.125370 
3547.000000	65.130734 
3546.000000	65.131831 
3545.000000	65.128946 
3544.000000	65.122604 
3543.000000	65.113735 
3542.000000	65.103244 
3541.000000	65.092110 
3540.000000	65.080928 
3539.000000	65.070462 
3538.000000	65.060615 
3537.000000	65.051150 
3536.000000	65.041160 
3535.000000	65.029644 
3534.000000	65.015149 
3533.000000	64.996266 
3532.000000	64.972019 
3531.000000	64.942240 
3530.000000	64.908051 
3529.000000	64.871668 
3528.000000	64.836931 
3527.000000	64.808344 
3526.000000	64.790844 
3525.000000	64.788746 
3524.000000	64.804840 
3523.000000	64.839482 
3522.000000	64.890336 
3521.000000	64.952325 
3520.000000	65.018439 
3519.000000	65.080690 
3518.000000	65.131926 
3517.000000	65.167045 
3516.000000	65.183711 
3515.000000	65.182876 
3514.000000	65.168356 
3513.000000	65.145850 
3512.000000	65.121722 
3511.000000	65.101504 
3510.000000	65.089225 
3509.000000	65.086531 
3508.000000	65.093183 
3507.000000	65.107250 
3506.000000	65.126085 
3505.000000	65.147018 
3504.000000	65.168166 
3503.000000	65.188550 
3502.000000	65.208005 
3501.000000	65.227031 
3500.000000	65.246009 
3499.000000	65.265011 
3498.000000	65.283370 
3497.000000	65.299916 
3496.000000	65.313005 
3495.000000	65.320777 
3494.000000	65.321493 
3493.000000	65.314269 
3492.000000	65.298938 
3491.000000	65.276527 
3490.000000	65.248823 
3489.000000	65.218496 
3488.000000	65.188312 
3487.000000	65.161037 
3486.000000	65.138840 
3485.000000	65.122914 
3484.000000	65.113306 
3483.000000	65.108990 
3482.000000	65.108180 
3481.000000	65.108609 
3480.000000	65.108060 
3479.000000	65.104889 
3478.000000	65.098214 
3477.000000	65.087962 
3476.000000	65.074944 
3475.000000	65.060448 
3474.000000	65.046000 
3473.000000	65.032863 
3472.000000	65.022301 
3471.000000	65.015411 
3470.000000	65.012979 
3469.000000	65.015554 
3468.000000	65.023326 
3467.000000	65.036296 
3466.000000	65.053844 
3465.000000	65.075016 
3464.000000	65.098810 
3463.000000	65.124273 
3462.000000	65.150547 
3461.000000	65.177011 
3460.000000	65.203380 
3459.000000	65.229368 
3458.000000	65.254712 
3457.000000	65.278601 
3456.000000	65.299701 
3455.000000	65.316081 
3454.000000	65.325951 
3453.000000	65.327405 
3452.000000	65.319514 
3451.000000	65.302038 
3450.000000	65.276432 
3449.000000	65.244889 
3448.000000	65.210509 
3447.000000	65.176463 
3446.000000	65.145540 
3445.000000	65.119743 
3444.000000	65.100026 
3443.000000	65.086364 
3442.000000	65.077900 
3441.000000	65.072894 
3440.000000	65.069270 
3439.000000	65.064859 
3438.000000	65.057778 
3437.000000	65.046811 
3436.000000	65.031623 
3435.000000	65.012383 
3434.000000	64.990282 
3433.000000	64.967083 
3432.000000	64.945077 
3431.000000	64.926242 
3430.000000	64.912414 
3429.000000	64.904999 
3428.000000	64.904808 
3427.000000	64.911603 
3426.000000	64.924645 
3425.000000	64.942455 
3424.000000	64.963269 
3423.000000	64.984869 
3422.000000	65.005207 
3421.000000	65.022325 
3420.000000	65.035128 
3419.000000	65.043210 
3418.000000	65.047264 
3417.000000	65.048623 
3416.000000	65.049481 
3415.000000	65.052270 
3414.000000	65.058565 
3413.000000	65.068793 
3412.000000	65.082073 
3411.000000	65.096330 
3410.000000	65.108704 
3409.000000	65.116071 
3408.000000	65.116238 
3407.000000	65.107965 
3406.000000	65.091729 
3405.000000	65.069031 
3404.000000	65.042304 
3403.000000	65.013885 
3402.000000	64.985752 
3401.000000	64.958810 
3400.000000	64.933300 
3399.000000	64.909029 
3398.000000	64.885878 
3397.000000	64.864563 
3396.000000	64.846348 
3395.000000	64.833378 
3394.000000	64.827919 
3393.000000	64.831876 
3392.000000	64.845848 
3391.000000	64.869427 
3390.000000	64.900827 
3389.000000	64.937400 
3388.000000	64.975905 
3387.000000	65.013384 
3386.000000	65.047359 
3385.000000	65.076112 
3384.000000	65.098428 
3383.000000	65.113639 
3382.000000	65.121436 
3381.000000	65.122056 
3380.000000	65.116143 
3379.000000	65.104937 
3378.000000	65.090155 
3377.000000	65.074300 
3376.000000	65.059566 
3375.000000	65.047955 
3374.000000	65.040326 
3373.000000	65.036368 
3372.000000	65.034866 
3371.000000	65.033793 
3370.000000	65.031528 
3369.000000	65.027213 
3368.000000	65.021300 
3367.000000	65.015482 
3366.000000	65.012049 
3365.000000	65.013241 
3364.000000	65.019965 
3363.000000	65.031504 
3362.000000	65.045189 
3361.000000	65.056991 
3360.000000	65.062832 
3359.000000	65.059685 
3358.000000	65.046668 
3357.000000	65.025591 
3356.000000	65.000867 
3355.000000	64.978480 
3354.000000	64.964246 
3353.000000	64.962315 
3352.000000	64.974427 
3351.000000	64.999103 
3350.000000	65.032196 
3349.000000	65.067958 
3348.000000	65.100574 
3347.000000	65.125370 
3346.000000	65.139985 
3345.000000	65.144324 
3344.000000	65.140247 
3343.000000	65.130710 
3342.000000	65.118646 
3341.000000	65.106320 
3340.000000	65.094780 
3339.000000	65.083932 
3338.000000	65.073180 
3337.000000	65.061807 
3336.000000	65.049743 
3335.000000	65.037584 
3334.000000	65.026593 
3333.000000	65.018200 
3332.000000	65.013432 
3331.000000	65.012478 
3330.000000	65.014553 
3329.000000	65.018296 
3328.000000	65.022039 
3327.000000	65.024232 
3326.000000	65.024089 
3325.000000	65.021514 
3324.000000	65.017294 
3323.000000	65.012550 
3322.000000	65.008735 
3321.000000	65.007162 
3320.000000	65.008735 
3319.000000	65.013766 
3318.000000	65.021944 
3317.000000	65.032577 
3316.000000	65.044403 
3315.000000	65.055799 
3314.000000	65.065169 
3313.000000	65.071225 
3312.000000	65.073180 
3311.000000	65.071010 
3310.000000	65.065431 
3309.000000	65.057849 
3308.000000	65.050148 
3307.000000	65.044260 
3306.000000	65.041399 
3305.000000	65.041685 
3304.000000	65.044307 
3303.000000	65.047454 
3302.000000	65.048885 
3301.000000	65.046215 
3300.000000	65.038156 
3299.000000	65.024280 
3298.000000	65.005230 
3297.000000	64.982485 
3296.000000	64.958024 
3295.000000	64.933872 
3294.000000	64.911985 
3293.000000	64.893889 
3292.000000	64.880681 
3291.000000	64.872908 
3290.000000	64.870572 
3289.000000	64.873147 
3288.000000	64.879608 
3287.000000	64.888525 
3286.000000	64.898204 
3285.000000	64.906859 
3284.000000	64.912915 
3283.000000	64.915442 
3282.000000	64.914202 
3281.000000	64.909911 
3280.000000	64.904141 
3279.000000	64.899134 
3278.000000	64.897370 
3277.000000	64.901208 
3276.000000	64.912295 
3275.000000	64.931321 
3274.000000	64.957737 
3273.000000	64.990067 
3272.000000	65.025639 
3271.000000	65.061211 
3270.000000	65.093207 
3269.000000	65.118265 
3268.000000	65.133976 
3267.000000	65.139222 
3266.000000	65.134501 
3265.000000	65.121889 
3264.000000	65.104484 
3263.000000	65.085935 
3262.000000	65.069460 
3261.000000	65.057754 
3260.000000	65.052175 
3259.000000	65.052700 
3258.000000	65.057945 
3257.000000	65.065932 
3256.000000	65.073919 
3255.000000	65.079283 
3254.000000	65.079879 
3253.000000	65.074443 
3252.000000	65.062975 
3251.000000	65.046906 
3250.000000	65.028738 
3249.000000	65.011477 
3248.000000	64.998173 
3247.000000	64.991092 
3246.000000	64.991164 
3245.000000	64.997529 
3244.000000	65.007758 
3243.000000	65.018296 
3242.000000	65.025067 
3241.000000	65.024852 
3240.000000	65.016078 
3239.000000	64.999628 
3238.000000	64.978241 
3237.000000	64.956355 
3236.000000	64.938759 
3235.000000	64.929652 
3234.000000	64.931440 
3233.000000	64.944458 
3232.000000	64.966845 
3231.000000	64.995169 
3230.000000	65.025401 
3229.000000	65.053415 
3228.000000	65.075945 
3227.000000	65.090870 
3226.000000	65.097546 
3225.000000	65.096545 
3224.000000	65.089273 
3223.000000	65.077829 
3222.000000	65.064144 
3221.000000	65.050029 
3220.000000	65.036582 
3219.000000	65.024423 
3218.000000	65.013289 
3217.000000	65.002298 
3216.000000	64.990496 
3215.000000	64.976930 
3214.000000	64.961504 
3213.000000	64.945077 
3212.000000	64.929771 
3211.000000	64.918494 
3210.000000	64.914274 
3209.000000	64.919352 
3208.000000	64.934563 
3207.000000	64.958667 
3206.000000	64.988636 
3205.000000	65.020275 
3204.000000	65.049123 
3203.000000	65.071439 
3202.000000	65.084981 
3201.000000	65.089535 
3200.000000	65.086627 
3199.000000	65.078997 
3198.000000	65.070080 
3197.000000	65.062880 
3196.000000	65.059566 
3195.000000	65.060710 
3194.000000	65.065598 
3193.000000	65.072202 
3192.000000	65.078258 
3191.000000	65.081524 
3190.000000	65.080499 
3189.000000	65.074872 
3188.000000	65.065264 
3187.000000	65.053510 
3186.000000	65.041851 
3185.000000	65.032458 
3184.000000	65.027070 
3183.000000	65.026497 
3182.000000	65.030384 
3181.000000	65.037226 
3180.000000	65.044879 
3179.000000	65.050935 
3178.000000	65.053200 
3177.000000	65.050387 
3176.000000	65.042328 
3175.000000	65.029883 
3174.000000	65.014934 
3173.000000	64.999771 
3172.000000	64.986658 
3171.000000	64.977431 
3170.000000	64.973187 
3169.000000	64.974117 
3168.000000	64.979743 
3167.000000	64.988946 
3166.000000	65.000414 
3165.000000	65.012884 
3164.000000	65.025544 
3163.000000	65.037608 
3162.000000	65.048646 
3161.000000	65.058302 
3160.000000	65.066170 
3159.000000	65.071654 
3158.000000	65.074205 
3157.000000	65.073323 
3156.000000	65.068864 
3155.000000	65.061211 
3154.000000	65.051269 
3153.000000	65.040469 
3152.000000	65.030574 
3151.000000	65.023469 
3150.000000	65.020680 
3149.000000	65.023112 
3148.000000	65.031242 
3147.000000	65.044999 
3146.000000	65.063786 
3145.000000	65.086674 
3144.000000	65.112543 
3143.000000	65.140032 
3142.000000	65.167641 
3141.000000	65.193581 
3140.000000	65.216064 
3139.000000	65.233445 
3138.000000	65.244388 
3137.000000	65.248322 
3136.000000	65.245819 
3135.000000	65.238332 
3134.000000	65.228319 
3133.000000	65.218424 
3132.000000	65.211224 
3131.000000	65.208029 
3130.000000	65.209102 
3129.000000	65.213227 
3128.000000	65.218162 
3127.000000	65.220904 
3126.000000	65.218853 
3125.000000	65.210175 
3124.000000	65.194416 
3123.000000	65.172481 
3122.000000	65.146327 
3121.000000	65.118670 
3120.000000	65.092492 
3119.000000	65.070080 
3118.000000	65.052795 
3117.000000	65.040850 
3116.000000	65.033626 
3115.000000	65.029621 
3114.000000	65.026998 
3113.000000	65.023851 
3112.000000	65.019178 
3111.000000	65.012407 
3110.000000	65.004181 
3109.000000	64.996027 
3108.000000	64.990425 
3107.000000	64.989995 
3106.000000	64.997053 
3105.000000	65.012931 
3104.000000	65.037178 
3103.000000	65.067863 
3102.000000	65.101146 
3101.000000	65.132308 
3100.000000	65.155935 
3099.000000	65.167689 
3098.000000	65.164303 
3097.000000	65.144729 
3096.000000	65.109944 
3095.000000	65.062999 
3094.000000	65.008211 
3093.000000	64.950394 
3092.000000	64.894175 
3091.000000	64.843392 
3090.000000	64.800643 
3089.000000	64.767384 
3088.000000	64.743924 
3087.000000	64.729952 
3086.000000	64.724516 
3085.000000	64.726686 
3084.000000	64.735293 
3083.000000	64.749622 
3082.000000	64.768958 
3081.000000	64.793109 
3080.000000	64.821600 
3079.000000	64.853835 
3078.000000	64.888739 
3077.000000	64.924669 
3076.000000	64.959287 
3075.000000	64.989876 
3074.000000	65.013742 
3073.000000	65.028882 
3072.000000	65.034365 
3071.000000	65.030741 
3070.000000	65.020251 
3069.000000	65.006136 
3068.000000	64.992213 
3067.000000	64.981770 
3066.000000	64.977002 
3065.000000	64.978241 
3064.000000	64.984130 
3063.000000	64.991760 
3062.000000	64.997673 
3061.000000	64.999008 
3060.000000	64.994311 
3059.000000	64.983677 
3058.000000	64.968967 
3057.000000	64.953231 
3056.000000	64.939904 
3055.000000	64.931535 
3054.000000	64.929485 
3053.000000	64.933395 
3052.000000	64.941430 
3051.000000	64.950966 
3050.000000	64.959406 
3049.000000	64.964795 
3048.000000	64.966249 
3047.000000	64.964318 
3046.000000	64.960241 
3045.000000	64.955425 
3044.000000	64.950966 
3043.000000	64.947080 
3042.000000	64.943194 
3041.000000	64.938139 
3040.000000	64.930701 
3039.000000	64.920210 
3038.000000	64.907002 
3037.000000	64.892458 
3036.000000	64.878511 
3035.000000	64.867210 
3034.000000	64.860010 
3033.000000	64.857387 
3032.000000	64.858865 
3031.000000	64.863061 
3030.000000	64.868235 
3029.000000	64.872670 
3028.000000	64.875197 
3027.000000	64.875459 
3026.000000	64.873743 
3025.000000	64.870929 
3024.000000	64.867758 
3023.000000	64.865016 
3022.000000	64.863014 
3021.000000	64.861941 
3020.000000	64.861989 
3019.000000	64.863562 
3018.000000	64.867448 
3017.000000	64.874911 
3016.000000	64.887452 
3015.000000	64.906430 
3014.000000	64.932608 
3013.000000	64.965939 
3012.000000	65.005397 
3011.000000	65.048813 
3010.000000	65.093088 
3009.000000	65.134406 
3008.000000	65.168952 
3007.000000	65.193152 
3006.000000	65.204644 
3005.000000	65.202641 
3004.000000	65.188360 
3003.000000	65.165019 
3002.000000	65.137052 
3001.000000	65.109562 
3000.000000	65.087127 
2999.000000	65.073037 
2998.000000	65.068149 
2997.000000	65.071320 
2996.000000	65.079331 
2995.000000	65.087914 
2994.000000	65.092802 
2993.000000	65.090870 
2992.000000	65.080857 
2991.000000	65.063476 
2990.000000	65.041017 
2989.000000	65.016579 
2988.000000	64.993023 
2987.000000	64.972257 
2986.000000	64.954972 
2985.000000	64.940547 
2984.000000	64.927744 
2983.000000	64.915180 
2982.000000	64.901947 
2981.000000	64.887928 
2980.000000	64.873433 
2979.000000	64.859271 
2978.000000	64.846086 
2977.000000	64.834451 
2976.000000	64.824104 
2975.000000	64.814567 
2974.000000	64.805293 
2973.000000	64.796018 
2972.000000	64.787101 
2971.000000	64.779543 
2970.000000	64.774370 
2969.000000	64.772462 
2968.000000	64.774036 
2967.000000	64.778518 
2966.000000	64.784312 
2965.000000	64.789652 
2964.000000	64.792752 
2963.000000	64.792680 
2962.000000	64.789676 
2961.000000	64.785218 
2960.000000	64.781618 
2959.000000	64.781308 
2958.000000	64.786195 
2957.000000	64.797019 
2956.000000	64.813113 
2955.000000	64.832425 
2954.000000	64.852023 
2953.000000	64.869046 
2952.000000	64.881372 
2951.000000	64.888000 
2950.000000	64.889359 
2949.000000	64.886999 
2948.000000	64.883184 
2947.000000	64.880251 
2946.000000	64.879894 
2945.000000	64.882946 
2944.000000	64.889073 
2943.000000	64.897036 
2942.000000	64.905071 
2941.000000	64.911341 
2940.000000	64.914655 
2939.000000	64.914464 
2938.000000	64.911341 
2937.000000	64.906454 
2936.000000	64.901518 
2935.000000	64.898252 
2934.000000	64.897942 
2933.000000	64.901161 
2932.000000	64.907741 
2931.000000	64.916896 
2930.000000	64.927291 
2929.000000	64.937424 
2928.000000	64.945983 
2927.000000	64.952182 
2926.000000	64.955687 
2925.000000	64.956760 
2924.000000	64.956116 
2923.000000	64.954829 
2922.000000	64.953923 
2921.000000	64.954185 
2920.000000	64.956212 
2919.000000	64.960193 
2918.000000	64.965772 
2917.000000	64.972519 
2916.000000	64.979624 
2915.000000	64.986276 
2914.000000	64.991807 
2913.000000	64.995670 
2912.000000	64.997768 
2911.000000	64.998078 
2910.000000	64.996910 
2909.000000	64.994359 
2908.000000	64.990448 
2907.000000	64.984846 
2906.000000	64.977121 
2905.000000	64.966607 
2904.000000	64.952826 
2903.000000	64.935612 
2902.000000	64.915347 
2901.000000	64.892935 
2900.000000	64.869713 
2899.000000	64.847326 
2898.000000	64.827537 
2897.000000	64.811682 
2896.000000	64.800834 
2895.000000	64.795398 
2894.000000	64.795398 
2893.000000	64.800429 
2892.000000	64.809918 
2891.000000	64.822840 
2890.000000	64.838051 
2889.000000	64.854049 
2888.000000	64.869403 
2887.000000	64.882278 
2886.000000	64.891290 
2885.000000	64.895462 
2884.000000	64.894700 
2883.000000	64.889883 
2882.000000	64.882636 
2881.000000	64.875030 
2880.000000	64.869141 
2879.000000	64.866590 
2878.000000	64.868187 
2877.000000	64.873909 
2876.000000	64.883041 
2875.000000	64.894413 
2874.000000	64.906787 
2873.000000	64.919137 
2872.000000	64.931082 
2871.000000	64.942622 
2870.000000	64.953899 
2869.000000	64.964818 
2868.000000	64.975023 
2867.000000	64.983558 
2866.000000	64.989137 
2865.000000	64.990425 
2864.000000	64.986467 
2863.000000	64.976906 
2862.000000	64.962339 
2861.000000	64.944219 
2860.000000	64.924836 
2859.000000	64.906787 
2858.000000	64.892745 
2857.000000	64.884734 
2856.000000	64.883899 
2855.000000	64.890050 
2854.000000	64.901900 
2853.000000	64.917159 
2852.000000	64.932966 
2851.000000	64.946651 
2850.000000	64.956355 
2849.000000	64.961457 
2848.000000	64.962482 
2847.000000	64.961147 
2846.000000	64.959692 
2845.000000	64.960384 
2844.000000	64.964461 
2843.000000	64.972114 
2842.000000	64.982128 
2841.000000	64.992237 
2840.000000	64.999771 
2839.000000	65.002465 
2838.000000	64.999079 
2837.000000	64.989995 
2836.000000	64.976978 
2835.000000	64.962887 
2834.000000	64.950919 
2833.000000	64.943933 
2832.000000	64.943647 
2831.000000	64.950537 
2830.000000	64.963579 
2829.000000	64.980769 
2828.000000	64.999198 
2827.000000	65.015745 
2826.000000	65.027546 
2825.000000	65.032505 
2824.000000	65.029454 
2823.000000	65.018129 
2822.000000	64.999294 
2821.000000	64.974522 
2820.000000	64.946031 
2819.000000	64.916229 
2818.000000	64.887523 
2817.000000	64.861989 
2816.000000	64.841294 
2815.000000	64.826464 
2814.000000	64.817905 
2813.000000	64.815425 
2812.000000	64.818286 
2811.000000	64.825510 
2810.000000	64.835786 
2809.000000	64.847779 
2808.000000	64.860081 
2807.000000	64.871382 
2806.000000	64.880442 
2805.000000	64.886403 
2804.000000	64.888715 
2803.000000	64.887475 
2802.000000	64.883160 
2801.000000	64.876818 
2800.000000	64.869737 
2799.000000	64.863252 
2798.000000	64.858412 
2797.000000	64.855742 
2796.000000	64.855456 
2795.000000	64.857196 
2794.000000	64.860343 
2793.000000	64.864134 
2792.000000	64.867925 
2791.000000	64.871478 
2790.000000	64.874839 
2789.000000	64.878344 
2788.000000	64.882564 
2787.000000	64.888000 
2786.000000	64.894723 
2785.000000	64.902353 
2784.000000	64.910125 
2783.000000	64.917063 
2782.000000	64.922285 
2781.000000	64.925074 
2780.000000	64.925384 
2779.000000	64.923715 
2778.000000	64.920830 
2777.000000	64.917564 
2776.000000	64.914417 
2775.000000	64.911413 
2774.000000	64.908099 
2773.000000	64.903783 
2772.000000	64.897918 
2771.000000	64.890575 
2770.000000	64.882540 
2769.000000	64.875507 
2768.000000	64.871525 
2767.000000	64.872455 
2766.000000	64.879083 
2765.000000	64.890885 
2764.000000	64.905643 
2763.000000	64.920139 
2762.000000	64.930963 
2761.000000	64.935255 
2760.000000	64.931869 
2759.000000	64.921426 
2758.000000	64.906382 
2757.000000	64.890217 
2756.000000	64.876508 
2755.000000	64.867973 
2754.000000	64.865994 
2753.000000	64.870405 
2752.000000	64.879655 
2751.000000	64.891386 
2750.000000	64.903330 
2749.000000	64.913678 
2748.000000	64.921474 
2747.000000	64.926481 
2746.000000	64.928936 
2745.000000	64.928889 
2744.000000	64.926314 
2743.000000	64.920902 
2742.000000	64.912295 
2741.000000	64.900588 
2740.000000	64.886498 
2739.000000	64.871406 
2738.000000	64.857149 
2737.000000	64.845728 
2736.000000	64.838814 
2735.000000	64.837384 
2734.000000	64.841437 
2733.000000	64.850020 
2732.000000	64.861464 
2731.000000	64.873719 
2730.000000	64.884805 
2729.000000	64.893007 
2728.000000	64.897537 
2727.000000	64.898347 
2726.000000	64.896368 
2725.000000	64.893174 
2724.000000	64.890575 
2723.000000	64.890336 
2722.000000	64.893579 
2721.000000	64.900875 
2720.000000	64.911770 
2719.000000	64.924883 
2718.000000	64.938426 
2717.000000	64.950203 
2716.000000	64.958596 
2715.000000	64.962840 
2714.000000	64.963364 
2713.000000	64.961647 
2712.000000	64.959859 
2711.000000	64.960241 
2710.000000	64.964389 
2709.000000	64.972853 
2708.000000	64.984917 
2707.000000	64.998722 
2706.000000	65.011620 
2705.000000	65.021061 
2704.000000	65.024971 
2703.000000	65.022492 
2702.000000	65.013957 
2701.000000	65.001201 
2700.000000	64.986896 
2699.000000	64.974236 
2698.000000	64.965963 
2697.000000	64.963817 
2696.000000	64.968180 
2695.000000	64.977860 
2694.000000	64.990592 
2693.000000	65.003204 
2692.000000	65.012478 
2691.000000	65.016007 
2690.000000	65.012335 
2689.000000	65.001630 
2688.000000	64.985418 
2687.000000	64.966177 
2686.000000	64.946746 
2685.000000	64.929723 
2684.000000	64.916825 
2683.000000	64.908599 
2682.000000	64.904403 
2681.000000	64.902782 
2680.000000	64.901971 
2679.000000	64.900445 
2678.000000	64.897298 
2677.000000	64.892387 
2676.000000	64.886474 
2675.000000	64.880537 
2674.000000	64.875888 
2673.000000	64.873600 
2672.000000	64.874386 
2671.000000	64.878392 
2670.000000	64.885306 
2669.000000	64.894437 
2668.000000	64.904952 
2667.000000	64.915919 
2666.000000	64.926481 
2665.000000	64.935851 
2664.000000	64.943456 
2663.000000	64.948916 
2662.000000	64.952158 
2661.000000	64.953517 
2660.000000	64.953613 
2659.000000	64.953279 
2658.000000	64.953422 
2657.000000	64.954686 
2656.000000	64.957499 
2655.000000	64.961743 
2654.000000	64.966845 
2653.000000	64.971899 
2652.000000	64.975786 
2651.000000	64.977669 
2650.000000	64.976835 
2649.000000	64.973020 
2648.000000	64.966320 
2647.000000	64.957499 
2646.000000	64.947414 
2645.000000	64.937090 
2644.000000	64.927673 
2643.000000	64.920043 
2642.000000	64.914917 
2641.000000	64.912509 
2640.000000	64.912724 
2639.000000	64.914846 
2638.000000	64.917564 
2637.000000	64.919447 
2636.000000	64.918756 
2635.000000	64.914226 
2634.000000	64.905214 
2633.000000	64.892053 
2632.000000	64.875912 
2631.000000	64.858675 
2630.000000	64.842700 
2629.000000	64.830112 
2628.000000	64.822530 
2627.000000	64.820790 
2626.000000	64.824962 
2625.000000	64.834427 
2624.000000	64.848089 
2623.000000	64.864611 
2622.000000	64.882755 
2621.000000	64.901399 
2620.000000	64.919424 
2619.000000	64.935708 
2618.000000	64.949083 
2617.000000	64.958405 
2616.000000	64.962720 
2615.000000	64.961552 
2614.000000	64.955139 
2613.000000	64.944529 
2612.000000	64.931464 
2611.000000	64.918160 
2610.000000	64.906549 
2609.000000	64.898204 
2608.000000	64.893722 
2607.000000	64.892911 
2606.000000	64.894795 
2605.000000	64.897990 
2604.000000	64.901232 
2603.000000	64.903831 
2602.000000	64.905667 
2601.000000	64.907169 
2600.000000	64.909148 
2599.000000	64.912271 
2598.000000	64.916801 
2597.000000	64.922428 
2596.000000	64.928483 
2595.000000	64.934062 
2594.000000	64.938378 
2593.000000	64.941048 
2592.000000	64.942193 
2591.000000	64.942264 
2590.000000	64.941835 
2589.000000	64.941191 
2588.000000	64.940285 
2587.000000	64.938592 
2586.000000	64.935255 
2585.000000	64.929199 
2584.000000	64.919590 
2583.000000	64.906167 
2582.000000	64.889478 
2581.000000	64.870738 
2580.000000	64.851975 
2579.000000	64.835238 
2578.000000	64.822363 
2577.000000	64.814281 
2576.000000	64.810800 
2575.000000	64.810633 
2574.000000	64.811778 
2573.000000	64.811968 
2572.000000	64.809203 
2571.000000	64.802265 
2570.000000	64.791202 
2569.000000	64.776849 
2568.000000	64.760971 
2567.000000	64.745545 
2566.000000	64.732503 
2565.000000	64.723181 
2564.000000	64.718317 
2563.000000	64.717960 
2562.000000	64.721632 
2561.000000	64.728569 
2560.000000	64.737844 
2559.000000	64.748573 
2558.000000	64.759826 
2557.000000	64.770531 
2556.000000	64.779782 
2555.000000	64.786458 
2554.000000	64.789915 
2553.000000	64.789867 
2552.000000	64.786744 
2551.000000	64.781713 
2550.000000	64.776325 
2549.000000	64.772343 
2548.000000	64.771318 
2547.000000	64.774203 
2546.000000	64.781045 
2545.000000	64.791107 
2544.000000	64.803028 
2543.000000	64.815306 
2542.000000	64.826560 
2541.000000	64.836120 
2540.000000	64.843750 
2539.000000	64.849925 
2538.000000	64.855527 
2537.000000	64.861369 
2536.000000	64.867973 
2535.000000	64.875292 
2534.000000	64.882826 
2533.000000	64.889645 
2532.000000	64.894771 
2531.000000	64.897251 
2530.000000	64.896488 
2529.000000	64.892196 
2528.000000	64.884805 
2527.000000	64.874887 
2526.000000	64.863300 
2525.000000	64.850997 
2524.000000	64.839029 
2523.000000	64.828300 
2522.000000	64.819550 
2521.000000	64.813423 
2520.000000	64.810204 
2519.000000	64.809846 
2518.000000	64.811754 
2517.000000	64.814972 
2516.000000	64.818120 
2515.000000	64.819669 
2514.000000	64.818072 
2513.000000	64.811944 
2512.000000	64.800572 
2511.000000	64.783740 
2510.000000	64.762210 
2509.000000	64.737129 
2508.000000	64.710664 
2507.000000	64.685463 
2506.000000	64.664721 
2505.000000	64.651298 
2504.000000	64.647865 
2503.000000	64.656066 
2502.000000	64.676380 
2501.000000	64.707708 
2500.000000	64.747548 
2499.000000	64.792466 
2498.000000	64.838409 
2497.000000	64.881253 
2496.000000	64.917778 
2495.000000	64.945888 
2494.000000	64.964866 
2493.000000	64.975404 
2492.000000	64.979338 
2491.000000	64.978957 
2490.000000	64.976763 
2489.000000	64.974641 
2488.000000	64.973974 
2487.000000	64.974951 
2486.000000	64.977288 
2485.000000	64.979743 
2484.000000	64.981031 
2483.000000	64.979457 
2482.000000	64.973902 
2481.000000	64.963555 
2480.000000	64.948225 
2479.000000	64.928245 
2478.000000	64.904665 
2477.000000	64.878654 
2476.000000	64.851641 
2475.000000	64.824843 
2474.000000	64.799284 
2473.000000	64.775681 
2472.000000	64.754581 
2471.000000	64.736390 
2470.000000	64.721322 
2469.000000	64.709782 
2468.000000	64.702391 
2467.000000	64.699649 
2466.000000	64.701890 
2465.000000	64.709234 
2464.000000	64.721417 
2463.000000	64.737439 
2462.000000	64.755845 
2461.000000	64.774751 
2460.000000	64.792227 
2459.000000	64.806628 
2458.000000	64.816927 
2457.000000	64.822769 
2456.000000	64.824819 
2455.000000	64.824485 
2454.000000	64.823484 
2453.000000	64.823555 
2452.000000	64.825868 
2451.000000	64.831113 
2450.000000	64.838838 
2449.000000	64.847755 
2448.000000	64.855790 
2447.000000	64.860773 
2446.000000	64.860868 
2445.000000	64.854884 
2444.000000	64.842677 
2443.000000	64.825344 
2442.000000	64.805030 
2441.000000	64.784407 
2440.000000	64.766478 
2439.000000	64.753842 
2438.000000	64.748334 
2437.000000	64.750695 
2436.000000	64.760518 
2435.000000	64.776110 
2434.000000	64.795136 
2433.000000	64.814805 
2432.000000	64.832353 
2431.000000	64.845752 
2430.000000	64.853978 
2429.000000	64.857339 
2428.000000	64.857101 
2427.000000	64.855504 
2426.000000	64.855098 
2425.000000	64.858126 
2424.000000	64.866042 
2423.000000	64.878773 
2422.000000	64.894890 
2421.000000	64.911603 
2420.000000	64.925527 
2419.000000	64.933252 
2418.000000	64.932227 
2417.000000	64.921331 
2416.000000	64.901137 
2415.000000	64.873909 
2414.000000	64.843177 
2413.000000	64.812922 
2412.000000	64.786791 
2411.000000	64.767289 
2410.000000	64.755463 
2409.000000	64.750957 
2408.000000	64.752125 
2407.000000	64.756631 
2406.000000	64.761948 
2405.000000	64.766168 
2404.000000	64.768362 
2403.000000	64.768362 
2402.000000	64.767146 
2401.000000	64.765882 
2400.000000	64.765858 
2399.000000	64.768052 
2398.000000	64.772891 
2397.000000	64.779996 
2396.000000	64.788436 
2395.000000	64.796972 
2394.000000	64.804339 
2393.000000	64.809489 
2392.000000	64.811635 
2391.000000	64.810538 
2390.000000	64.806294 
2389.000000	64.799094 
2388.000000	64.789438 
2387.000000	64.777994 
2386.000000	64.765262 
2385.000000	64.751935 
2384.000000	64.738702 
2383.000000	64.726328 
2382.000000	64.715862 
2381.000000	64.708495 
2380.000000	64.705252 
2379.000000	64.706897 
2378.000000	64.713788 
2377.000000	64.725446 
2376.000000	64.740443 
2375.000000	64.756536 
2374.000000	64.770865 
2373.000000	64.780426 
2372.000000	64.782762 
2371.000000	64.776587 
2370.000000	64.762020 
2369.000000	64.740824 
2368.000000	64.715981 
2367.000000	64.691066 
2366.000000	64.669442 
2365.000000	64.653491 
2364.000000	64.643931 
2363.000000	64.639735 
2362.000000	64.638566 
2361.000000	64.637637 
2360.000000	64.634633 
2359.000000	64.628386 
2358.000000	64.619469 
2357.000000	64.609885 
2356.000000	64.602637 
2355.000000	64.600586 
2354.000000	64.605712 
2353.000000	64.618325 
2352.000000	64.637112 
2351.000000	64.659237 
2350.000000	64.681220 
2349.000000	64.699649 
2348.000000	64.712166 
2347.000000	64.717841 
2346.000000	64.717531 
2345.000000	64.713239 
2344.000000	64.707565 
2343.000000	64.702963 
2342.000000	64.701175 
2341.000000	64.702749 
2340.000000	64.707207 
2339.000000	64.713287 
2338.000000	64.719486 
2337.000000	64.724469 
2336.000000	64.727473 
2335.000000	64.728474 
2334.000000	64.727902 
2333.000000	64.726257 
2332.000000	64.724063 
2331.000000	64.721345 
2330.000000	64.717650 
2329.000000	64.712262 
2328.000000	64.704298 
2327.000000	64.693427 
2326.000000	64.679908 
2325.000000	64.664840 
2324.000000	64.649844 
2323.000000	64.636945 
2322.000000	64.627885 
2321.000000	64.624023 
2320.000000	64.625787 
2319.000000	64.632987 
2318.000000	64.644765 
2317.000000	64.660072 
2316.000000	64.677739 
2315.000000	64.696645 
2314.000000	64.715814 
2313.000000	64.734339 
2312.000000	64.751338 
2311.000000	64.766097 
2310.000000	64.778113 
2309.000000	64.787077 
2308.000000	64.793276 
2307.000000	64.797449 
2306.000000	64.800500 
2305.000000	64.803671 
2304.000000	64.807868 
2303.000000	64.813542 
2302.000000	64.820289 
2301.000000	64.827132 
2300.000000	64.832472 
2299.000000	64.834547 
2298.000000	64.831709 
2297.000000	64.823102 
2296.000000	64.808511 
2295.000000	64.788603 
2294.000000	64.764690 
2293.000000	64.738464 
2292.000000	64.711976 
2291.000000	64.687108 
2290.000000	64.665555 
2289.000000	64.648556 
2288.000000	64.636826 
2287.000000	64.630436 
2286.000000	64.628672 
2285.000000	64.630270 
2284.000000	64.633846 
2283.000000	64.638113 
2282.000000	64.642024 
2281.000000	64.645004 
2280.000000	64.647006 
2279.000000	64.648532 
2278.000000	64.650177 
2277.000000	64.652585 
2276.000000	64.656090 
2275.000000	64.660668 
2274.000000	64.666080 
2273.000000	64.671874 
2272.000000	64.677691 
2271.000000	64.683389 
2270.000000	64.689135 
2269.000000	64.695262 
2268.000000	64.702248 
2267.000000	64.710283 
2266.000000	64.719200 
2265.000000	64.728426 
2264.000000	64.737105 
2263.000000	64.744305 
2262.000000	64.749288 
2261.000000	64.751648 
2260.000000	64.751362 
2259.000000	64.748835 
2258.000000	64.744853 
2257.000000	64.740157 
2256.000000	64.735388 
2255.000000	64.730978 
2254.000000	64.727067 
2253.000000	64.723491 
2252.000000	64.719986 
2251.000000	64.716267 
2250.000000	64.712190 
2249.000000	64.707827 
2248.000000	64.703392 
2247.000000	64.699149 
2246.000000	64.695239 
2245.000000	64.691543 
2244.000000	64.687705 
2243.000000	64.683270 
2242.000000	64.677596 
2241.000000	64.670276 
2240.000000	64.661216 
2239.000000	64.650654 
2238.000000	64.639139 
2237.000000	64.627265 
2236.000000	64.615654 
2235.000000	64.604687 
2234.000000	64.594674 
2233.000000	64.585661 
2232.000000	64.577865 
2231.000000	64.571571 
2230.000000	64.567446 
2229.000000	64.566373 
2228.000000	64.569330 
2227.000000	64.577245 
2226.000000	64.590406 
2225.000000	64.608335 
2224.000000	64.629840 
2223.000000	64.653038 
2222.000000	64.675688 
2221.000000	64.695549 
2220.000000	64.710927 
2219.000000	64.720606 
2218.000000	64.724230 
2217.000000	64.722084 
2216.000000	64.714956 
2215.000000	64.704012 
2214.000000	64.691042 
2213.000000	64.677786 
2212.000000	64.666271 
2211.000000	64.658117 
2210.000000	64.654612 
2209.000000	64.656233 
2208.000000	64.662790 
2207.000000	64.673089 
2206.000000	64.685273 
2205.000000	64.697337 
2204.000000	64.707326 
2203.000000	64.714193 
2202.000000	64.717912 
2201.000000	64.719462 
2200.000000	64.720559 
2199.000000	64.723205 
2198.000000	64.728856 
2197.000000	64.738202 
2196.000000	64.750480 
2195.000000	64.763832 
2194.000000	64.775323 
2193.000000	64.781999 
2192.000000	64.781236 
2191.000000	64.771461 
2190.000000	64.752602 
2189.000000	64.726018 
2188.000000	64.694356 
2187.000000	64.661192 
2186.000000	64.630246 
2185.000000	64.604806 
2184.000000	64.587259 
2183.000000	64.578819 
2182.000000	64.579224 
2181.000000	64.587116 
2180.000000	64.599871 
2179.000000	64.614343 
2178.000000	64.627265 
2177.000000	64.635777 
2176.000000	64.638209 
2175.000000	64.634203 
2174.000000	64.624905 
2173.000000	64.612388 
2172.000000	64.599132 
2171.000000	64.587426 
2170.000000	64.578652 
2169.000000	64.573264 
2168.000000	64.571046 
2167.000000	64.571452 
2166.000000	64.574241 
2165.000000	64.579439 
2164.000000	64.587354 
2163.000000	64.598321 
2162.000000	64.612245 
2161.000000	64.628458 
2160.000000	64.645648 
2159.000000	64.662027 
2158.000000	64.675879 
2157.000000	64.685797 
2156.000000	64.691066 
2155.000000	64.691948 
2154.000000	64.689707 
2153.000000	64.686226 
2152.000000	64.683532 
2151.000000	64.683222 
2150.000000	64.686250 
2149.000000	64.692378 
2148.000000	64.700341 
2147.000000	64.708018 
2146.000000	64.713144 
2145.000000	64.713597 
2144.000000	64.708113 
2143.000000	64.696288 
2142.000000	64.678907 
2141.000000	64.657354 
2140.000000	64.633607 
2139.000000	64.609766 
2138.000000	64.587664 
2137.000000	64.568734 
2136.000000	64.554023 
2135.000000	64.544057 
2134.000000	64.539146 
2133.000000	64.539504 
2132.000000	64.545226 
2131.000000	64.555907 
2130.000000	64.570713 
2129.000000	64.588356 
2128.000000	64.607095 
2127.000000	64.624691 
2126.000000	64.639163 
2125.000000	64.649200 
2124.000000	64.654469 
2123.000000	64.655804 
2122.000000	64.654874 
2121.000000	64.653944 
2120.000000	64.655137 
2119.000000	64.659857 
2118.000000	64.668416 
2117.000000	64.679861 
2116.000000	64.692401 
2115.000000	64.703869 
2114.000000	64.712190 
2113.000000	64.716053 
2112.000000	64.715051 
2111.000000	64.709854 
2110.000000	64.701652 
2109.000000	64.691925 
2108.000000	64.681792 
2107.000000	64.671874 
2106.000000	64.662194 
2105.000000	64.652085 
2104.000000	64.640998 
2103.000000	64.628434 
2102.000000	64.614439 
2101.000000	64.599537 
2100.000000	64.584732 
2099.000000	64.571166 
2098.000000	64.559912 
2097.000000	64.551544 
2096.000000	64.545989 
2095.000000	64.542603 
2094.000000	64.540457 
2093.000000	64.538574 
2092.000000	64.536237 
2091.000000	64.533329 
2090.000000	64.530277 
2089.000000	64.527988 
2088.000000	64.527583 
2087.000000	64.529943 
2086.000000	64.535546 
2085.000000	64.544105 
2084.000000	64.554595 
2083.000000	64.565539 
2082.000000	64.575242 
2081.000000	64.582276 
2080.000000	64.585804 
2079.000000	64.585852 
2078.000000	64.583325 
2077.000000	64.579749 
2076.000000	64.576649 
2075.000000	64.575219 
2074.000000	64.575886 
2073.000000	64.578270 
2072.000000	64.581465 
2071.000000	64.584112 
2070.000000	64.585065 
2069.000000	64.583992 
2068.000000	64.581108 
2067.000000	64.577293 
2066.000000	64.573740 
2065.000000	64.571547 
2064.000000	64.571332 
2063.000000	64.572978 
2062.000000	64.575767 
2061.000000	64.578413 
2060.000000	64.579677 
2059.000000	64.578509 
2058.000000	64.574408 
2057.000000	64.567470 
2056.000000	64.558315 
2055.000000	64.547705 
2054.000000	64.536356 
2053.000000	64.524793 
2052.000000	64.513182 
2051.000000	64.501690 
2050.000000	64.490485 
2049.000000	64.480304 
2048.000000	64.472198 
2047.000000	64.467620 
2046.000000	64.468193 
2045.000000	64.475059 
2044.000000	64.488530 
2043.000000	64.507794 
2042.000000	64.530801 
2041.000000	64.554619 
2040.000000	64.575839 
2039.000000	64.591264 
2038.000000	64.598703 
2037.000000	64.597225 
2036.000000	64.587473 
2035.000000	64.571452 
2034.000000	64.552021 
2033.000000	64.532327 
2032.000000	64.515209 
2031.000000	64.502716 
2030.000000	64.495754 
2029.000000	64.494514 
2028.000000	64.498186 
2027.000000	64.505648 
2026.000000	64.515662 
2025.000000	64.527106 
2024.000000	64.539289 
2023.000000	64.551520 
2022.000000	64.563488 
2021.000000	64.574718 
2020.000000	64.584827 
2019.000000	64.593362 
2018.000000	64.599800 
2017.000000	64.603829 
2016.000000	64.605355 
2015.000000	64.604568 
2014.000000	64.601898 
2013.000000	64.598131 
2012.000000	64.593958 
2011.000000	64.589905 
2010.000000	64.586305 
2009.000000	64.583277 
2008.000000	64.580655 
2007.000000	64.578008 
2006.000000	64.575099 
2005.000000	64.571714 
2004.000000	64.567899 
2003.000000	64.564085 
2002.000000	64.560699 
2001.000000	64.558315 
2000.000000	64.557504 
1999.000000	64.558482 
1998.000000	64.561128 
1997.000000	64.564847 
1996.000000	64.568877 
1995.000000	64.572286 
1994.000000	64.574265 
1993.000000	64.574313 
1992.000000	64.572167 
1991.000000	64.567852 
1990.000000	64.561629 
1989.000000	64.553761 
1988.000000	64.544272 
1987.000000	64.533209 
1986.000000	64.520597 
1985.000000	64.506506 
1984.000000	64.491248 
1983.000000	64.475393 
1982.000000	64.459848 
1981.000000	64.445781 
1980.000000	64.434409 
1979.000000	64.426755 
1978.000000	64.423799 
1977.000000	64.426016 
1976.000000	64.433407 
1975.000000	64.445567 
1974.000000	64.461755 
1973.000000	64.480900 
1972.000000	64.501857 
1971.000000	64.523410 
1970.000000	64.544367 
1969.000000	64.563775 
1968.000000	64.580607 
1967.000000	64.594054 
1966.000000	64.603328 
1965.000000	64.608025 
1964.000000	64.607667 
1963.000000	64.602279 
1962.000000	64.592170 
1961.000000	64.578104 
1960.000000	64.561152 
1959.000000	64.542627 
1958.000000	64.524078 
1957.000000	64.506936 
1956.000000	64.492130 
1955.000000	64.480161 
1954.000000	64.470839 
1953.000000	64.463877 
1952.000000	64.458799 
1951.000000	64.455318 
1950.000000	64.453387 
1949.000000	64.453363 
1948.000000	64.455676 
1947.000000	64.460754 
1946.000000	64.468407 
1945.000000	64.478206 
1944.000000	64.489245 
1943.000000	64.500164 
1942.000000	64.509820 
1941.000000	64.516997 
1940.000000	64.521098 
1939.000000	64.521884 
1938.000000	64.519739 
1937.000000	64.515233 
1936.000000	64.509272 
1935.000000	64.502811 
1934.000000	64.496755 
1933.000000	64.491891 
1932.000000	64.488935 
1931.000000	64.488434 
1930.000000	64.490628 
1929.000000	64.495325 
1928.000000	64.501810 
1927.000000	64.508843 
1926.000000	64.514803 
1925.000000	64.518022 
1924.000000	64.517283 
1923.000000	64.512038 
1922.000000	64.502644 
1921.000000	64.490413 
1920.000000	64.477300 
1919.000000	64.465451 
1918.000000	64.456963 
1917.000000	64.453148 
1916.000000	64.454650 
1915.000000	64.460968 
1914.000000	64.470982 
1913.000000	64.483118 
1912.000000	64.495658 
1911.000000	64.507222 
1910.000000	64.516782 
1909.000000	64.523911 
1908.000000	64.528489 
1907.000000	64.530611 
1906.000000	64.530324 
1905.000000	64.527535 
1904.000000	64.521956 
1903.000000	64.513421 
1902.000000	64.501690 
1901.000000	64.486932 
1900.000000	64.469838 
1899.000000	64.451646 
1898.000000	64.433836 
1897.000000	64.418101 
1896.000000	64.405989 
1895.000000	64.398503 
1894.000000	64.396166 
1893.000000	64.398694 
1892.000000	64.405131 
1891.000000	64.413928 
1890.000000	64.423179 
1889.000000	64.431047 
1888.000000	64.435958 
1887.000000	64.436817 
1886.000000	64.433097 
1885.000000	64.425039 
1884.000000	64.413523 
1883.000000	64.400053 
1882.000000	64.386296 
1881.000000	64.374089 
1880.000000	64.364981 
1879.000000	64.360237 
1878.000000	64.360499 
1877.000000	64.365816 
1876.000000	64.375591 
1875.000000	64.388918 
1874.000000	64.404463 
1873.000000	64.420866 
1872.000000	64.436769 
1871.000000	64.451003 
1870.000000	64.462709 
1869.000000	64.471316 
1868.000000	64.476466 
1867.000000	64.478111 
1866.000000	64.476394 
1865.000000	64.471817 
1864.000000	64.464974 
1863.000000	64.456820 
1862.000000	64.448475 
1861.000000	64.440941 
1860.000000	64.435315 
1859.000000	64.432406 
1858.000000	64.432764 
1857.000000	64.436340 
1856.000000	64.442682 
1855.000000	64.450836 
1854.000000	64.459657 
1853.000000	64.467883 
1852.000000	64.474320 
1851.000000	64.478087 
1850.000000	64.478492 
1849.000000	64.475393 
1848.000000	64.468717 
1847.000000	64.458656 
1846.000000	64.445567 
1845.000000	64.429998 
1844.000000	64.412975 
1843.000000	64.395761 
1842.000000	64.379930 
1841.000000	64.367222 
1840.000000	64.359259 
1839.000000	64.357018 
1838.000000	64.360737 
1837.000000	64.369606 
1836.000000	64.381670 
1835.000000	64.394474 
1834.000000	64.405322 
1833.000000	64.412021 
1832.000000	64.413380 
1831.000000	64.409542 
1830.000000	64.401888 
1829.000000	64.392662 
1828.000000	64.384341 
1827.000000	64.378952 
1826.000000	64.377450 
1825.000000	64.379858 
1824.000000	64.385151 
1823.000000	64.391589 
1822.000000	64.397430 
1821.000000	64.401292 
1820.000000	64.402604 
1819.000000	64.401459 
1818.000000	64.398503 
1817.000000	64.394664 
1816.000000	64.390826 
1815.000000	64.387607 
1814.000000	64.385390 
1813.000000	64.384293 
1812.000000	64.384412 
1811.000000	64.386010 
1810.000000	64.389419 
1809.000000	64.394831 
1808.000000	64.402389 
1807.000000	64.411735 
1806.000000	64.422202 
1805.000000	64.432954 
1804.000000	64.442944 
1803.000000	64.451360 
1802.000000	64.457583 
1801.000000	64.461541 
1800.000000	64.463376 
1799.000000	64.463376 
1798.000000	64.461684 
1797.000000	64.458394 
1796.000000	64.453339 
1795.000000	64.446258 
1794.000000	64.437031 
1793.000000	64.425897 
1792.000000	64.413547 
1791.000000	64.401030 
1790.000000	64.389657 
1789.000000	64.380812 
1788.000000	64.375424 
1787.000000	64.373850 
1786.000000	64.375996 
1785.000000	64.381194 
1784.000000	64.388275 
1783.000000	64.396166 
1782.000000	64.403843 
1781.000000	64.410543 
1780.000000	64.415693 
1779.000000	64.418816 
1778.000000	64.419555 
1777.000000	64.417505 
1776.000000	64.412212 
1775.000000	64.403247 
1774.000000	64.390587 
1773.000000	64.374446 
1772.000000	64.355444 
1771.000000	64.334511 
1770.000000	64.312934 
1769.000000	64.291906 
1768.000000	64.272522 
1767.000000	64.255738 
1766.000000	64.242315 
1765.000000	64.232921 
1764.000000	64.227914 
1763.000000	64.227294 
1762.000000	64.230823 
1761.000000	64.237737 
1760.000000	64.246869 
1759.000000	64.256644 
1758.000000	64.265251 
1757.000000	64.271092 
1756.000000	64.273118 
1755.000000	64.270830 
1754.000000	64.264726 
1753.000000	64.255976 
1752.000000	64.246106 
1751.000000	64.236640 
1750.000000	64.228510 
1749.000000	64.222097 
1748.000000	64.217138 
1747.000000	64.212632 
1746.000000	64.207482 
1745.000000	64.200639 
1744.000000	64.191412 
1743.000000	64.179372 
1742.000000	64.164590 
1741.000000	64.147400 
1740.000000	64.128375 
1739.000000	64.108157 
1738.000000	64.087557 
1737.000000	64.067506 
1736.000000	64.049124 
1735.000000	64.033579 
1734.000000	64.022135 
1733.000000	64.015841 
1732.000000	64.015197 
1731.000000	64.020156 
1730.000000	64.029693 
1729.000000	64.042520 
1728.000000	64.056754 
1727.000000	64.070868 
1726.000000	64.083528 
1725.000000	64.094114 
1724.000000	64.102482 
1723.000000	64.108943 
1722.000000	64.113950 
1721.000000	64.118075 
1720.000000	64.121723 
1719.000000	64.125084 
1718.000000	64.128351 
1717.000000	64.131689 
1716.000000	64.135336 
1715.000000	64.139604 
1714.000000	64.144849 
1713.000000	64.151191 
1712.000000	64.158439 
1711.000000	64.165949 
1710.000000	64.172649 
1709.000000	64.177131 
1708.000000	64.177799 
1707.000000	64.173364 
1706.000000	64.163255 
1705.000000	64.147591 
1704.000000	64.127564 
1703.000000	64.105081 
1702.000000	64.082789 
1701.000000	64.063572 
1700.000000	64.050173 
1699.000000	64.044690 
1698.000000	64.048027 
1697.000000	64.059758 
1696.000000	64.078068 
1695.000000	64.100217 
1694.000000	64.122962 
1693.000000	64.143228 
1692.000000	64.158773 
1691.000000	64.168357 
1690.000000	64.171862 
1689.000000	64.170312 
1688.000000	64.165258 
1687.000000	64.158248 
1686.000000	64.150643 
1685.000000	64.143228 
1684.000000	64.136266 
1683.000000	64.129686 
1682.000000	64.123272 
1681.000000	64.116954 
1680.000000	64.110970 
1679.000000	64.105796 
1678.000000	64.101839 
1677.000000	64.099454 
1676.000000	64.098501 
1675.000000	64.099001 
1674.000000	64.100813 
1673.000000	64.104247 
1672.000000	64.109754 
1671.000000	64.118146 
1670.000000	64.130282 
1669.000000	64.146614 
1668.000000	64.166855 
1667.000000	64.189720 
1666.000000	64.213109 
1665.000000	64.234399 
1664.000000	64.250969 
1663.000000	64.260959 
1662.000000	64.263606 
1661.000000	64.259576 
1660.000000	64.250826 
1659.000000	64.240121 
1658.000000	64.230322 
1657.000000	64.224052 
1656.000000	64.223027 
1655.000000	64.228057 
1654.000000	64.239025 
1653.000000	64.255142 
1652.000000	64.274954 
1651.000000	64.296984 
1650.000000	64.319205 
1649.000000	64.339756 
1648.000000	64.356207 
1647.000000	64.366364 
1646.000000	64.368033 
1645.000000	64.359641 
1644.000000	64.340519 
1643.000000	64.311242 
1642.000000	64.273691 
1641.000000	64.230918 
1640.000000	64.186835 
1639.000000	64.145708 
1638.000000	64.111328 
1637.000000	64.086532 
1636.000000	64.072942 
1635.000000	64.070749 
1634.000000	64.078927 
1633.000000	64.095330 
1632.000000	64.117145 
1631.000000	64.141321 
1630.000000	64.164638 
1629.000000	64.184260 
1628.000000	64.197754 
1627.000000	64.203572 
1626.000000	64.201021 
1625.000000	64.190697 
1624.000000	64.174175 
1623.000000	64.154267 
1622.000000	64.134407 
1621.000000	64.118123 
1620.000000	64.108514 
1619.000000	64.107728 
1618.000000	64.116358 
1617.000000	64.133405 
1616.000000	64.156651 
1615.000000	64.182877 
1614.000000	64.208698 
1613.000000	64.231181 
1612.000000	64.247941 
1611.000000	64.257955 
1610.000000	64.261269 
1609.000000	64.258813 
1608.000000	64.251947 
1607.000000	64.242148 
1606.000000	64.230942 
1605.000000	64.219594 
1604.000000	64.208865 
1603.000000	64.199304 
1602.000000	64.191126 
1601.000000	64.184379 
1600.000000	64.178848 
1599.000000	64.173913 
1598.000000	64.168715 
1597.000000	64.162397 
1596.000000	64.154076 
1595.000000	64.143180 
1594.000000	64.129710 
1593.000000	64.114260 
1592.000000	64.098000 
1591.000000	64.082789 
1590.000000	64.070534 
1589.000000	64.062809 
1588.000000	64.060592 
1587.000000	64.064025 
1586.000000	64.072489 
1585.000000	64.084482 
1584.000000	64.098143 
1583.000000	64.111590 
1582.000000	64.123225 
1581.000000	64.132285 
1580.000000	64.138507 
1579.000000	64.142084 
1578.000000	64.143443 
1577.000000	64.142966 
1576.000000	64.140892 
1575.000000	64.136886 
1574.000000	64.130473 
1573.000000	64.121103 
1572.000000	64.108514 
1571.000000	64.093065 
1570.000000	64.075613 
1569.000000	64.057874 
1568.000000	64.041709 
1567.000000	64.029598 
1566.000000	64.023685 
1565.000000	64.026069 
1564.000000	64.037919 
1563.000000	64.059543 
1562.000000	64.090061 
1561.000000	64.127373 
1560.000000	64.168405 
1559.000000	64.209270 
1558.000000	64.245772 
1557.000000	64.274024 
1556.000000	64.291048 
1555.000000	64.295053 
1554.000000	64.285683 
1553.000000	64.264321 
1552.000000	64.233613 
1551.000000	64.197230 
1550.000000	64.159178 
1549.000000	64.123463 
1548.000000	64.093494 
1547.000000	64.071679 
1546.000000	64.059042 
1545.000000	64.055585 
1544.000000	64.059853 
1543.000000	64.069414 
1542.000000	64.081072 
1541.000000	64.091229 
1540.000000	64.096927 
1539.000000	64.095807 
1538.000000	64.087104 
1537.000000	64.071249 
1536.000000	64.050316 
1535.000000	64.027190 
1534.000000	64.005208 
1533.000000	63.987493 
1532.000000	63.976430 
1531.000000	63.973355 
1530.000000	63.978338 
1529.000000	63.990259 
1528.000000	64.007329 
1527.000000	64.027333 
1526.000000	64.048242 
1525.000000	64.068293 
1524.000000	64.086532 
1523.000000	64.102840 
1522.000000	64.117717 
1521.000000	64.132022 
1520.000000	64.146637 
1519.000000	64.161968 
1518.000000	64.177989 
1517.000000	64.193868 
1516.000000	64.208221 
1515.000000	64.219307 
1514.000000	64.225721 
1513.000000	64.226603 
1512.000000	64.222025 
1511.000000	64.212965 
1510.000000	64.201331 
1509.000000	64.189481 
1508.000000	64.179754 
1507.000000	64.173865 
1506.000000	64.172554 
1505.000000	64.175319 
1504.000000	64.180374 
1503.000000	64.185333 
1502.000000	64.187693 
1501.000000	64.185738 
1500.000000	64.178848 
1499.000000	64.167642 
1498.000000	64.153838 
1497.000000	64.139437 
1496.000000	64.126110 
1495.000000	64.114499 
1494.000000	64.104151 
1493.000000	64.094090 
1492.000000	64.083099 
1491.000000	64.070653 
1490.000000	64.057278 
1489.000000	64.044427 
1488.000000	64.034199 
1487.000000	64.028716 
1486.000000	64.029455 
1485.000000	64.036417 
1484.000000	64.048457 
1483.000000	64.063096 
1482.000000	64.077377 
1481.000000	64.088511 
1480.000000	64.094662 
1479.000000	64.095282 
1478.000000	64.091515 
1477.000000	64.085578 
1476.000000	64.080309 
1475.000000	64.078140 
1474.000000	64.080429 
1473.000000	64.087176 
1472.000000	64.096856 
1471.000000	64.106965 
1470.000000	64.114952 
1469.000000	64.119005 
1468.000000	64.118623 
1467.000000	64.114880 
1466.000000	64.109873 
1465.000000	64.106392 
1464.000000	64.106941 
1463.000000	64.113283 
1462.000000	64.125776 
1461.000000	64.143371 
1460.000000	64.164018 
1459.000000	64.184856 
1458.000000	64.203238 
1457.000000	64.216709 
1456.000000	64.223814 
1455.000000	64.223742 
1454.000000	64.216279 
1453.000000	64.201736 
1452.000000	64.180898 
1451.000000	64.154577 
1450.000000	64.123821 
1449.000000	64.089632 
1448.000000	64.053392 
1447.000000	64.016580 
1446.000000	63.980913 
1445.000000	63.948249 
1444.000000	63.920259 
1443.000000	63.898587 
1442.000000	63.884639 
1441.000000	63.879323 
1440.000000	63.882780 
1439.000000	63.894343 
1438.000000	63.912367 
1437.000000	63.934087 
1436.000000	63.955974 
1435.000000	63.974213 
1434.000000	63.985419 
1433.000000	63.987112 
1432.000000	63.978624 
1431.000000	63.961124 
1430.000000	63.937759 
1429.000000	63.913083 
1428.000000	63.892316 
1427.000000	63.880419 
1426.000000	63.880991 
1425.000000	63.895606 
1424.000000	63.923263 
1423.000000	63.960814 
1422.000000	64.003276 
1421.000000	64.045095 
1420.000000	64.080929 
1419.000000	64.106512 
1418.000000	64.119458 
1417.000000	64.119434 
1416.000000	64.108157 
1415.000000	64.088606 
1414.000000	64.064741 
1413.000000	64.040493 
1412.000000	64.019107 
1411.000000	64.002680 
1410.000000	63.992309 
1409.000000	63.987493 
1408.000000	63.987040 
1407.000000	63.988804 
1406.000000	63.990497 
1405.000000	63.990068 
1404.000000	63.986086 
1403.000000	63.978266 
1402.000000	63.966965 
1401.000000	63.953757 
1400.000000	63.940501 
1399.000000	63.929414 
1398.000000	63.922429 
1397.000000	63.920927 
1396.000000	63.925361 
1395.000000	63.935160 
1394.000000	63.948845 
1393.000000	63.964271 
1392.000000	63.978862 
1391.000000	63.990116 
1390.000000	63.995957 
1389.000000	63.995385 
1388.000000	63.988494 
1387.000000	63.976407 
1386.000000	63.960933 
1385.000000	63.944244 
1384.000000	63.928294 
1383.000000	63.914370 
1382.000000	63.903212 
1381.000000	63.894701 
1380.000000	63.888382 
1379.000000	63.883852 
1378.000000	63.881111 
1377.000000	63.880634 
1376.000000	63.883399 
1375.000000	63.890504 
1374.000000	63.902711 
1373.000000	63.919925 
1372.000000	63.940906 
1371.000000	63.963365 
1370.000000	63.984274 
1369.000000	64.000535 
1368.000000	64.009523 
1367.000000	64.009904 
1366.000000	64.001536 
1365.000000	63.985419 
1364.000000	63.963365 
1363.000000	63.937711 
1362.000000	63.910627 
1361.000000	63.883852 
1360.000000	63.858556 
1359.000000	63.835501 
1358.000000	63.815164 
1357.000000	63.797855 
1356.000000	63.783788 
1355.000000	63.773059 
1354.000000	63.765621 
1353.000000	63.761234 
1352.000000	63.759231 
1351.000000	63.759016 
1350.000000	63.759803 
1349.000000	63.761234 
1348.000000	63.763236 
1347.000000	63.766145 
1346.000000	63.770341 
1345.000000	63.776254 
1344.000000	63.784027 
1343.000000	63.793635 
1342.000000	63.804817 
1341.000000	63.817119 
1340.000000	63.830113 
1339.000000	63.843488 
1338.000000	63.857102 
1337.000000	63.870811 
1336.000000	63.884329 
1335.000000	63.897132 
1334.000000	63.908457 
1333.000000	63.917446 
1332.000000	63.923239 
1331.000000	63.925313 
1330.000000	63.923501 
1329.000000	63.918519 
1328.000000	63.911485 
1327.000000	63.903856 
1326.000000	63.897061 
1325.000000	63.892364 
1324.000000	63.890552 
1323.000000	63.892197 
1322.000000	63.897466 
1321.000000	63.906216 
1320.000000	63.918018 
1319.000000	63.932085 
1318.000000	63.947105 
1317.000000	63.961315 
1316.000000	63.972806 
1315.000000	63.979697 
1314.000000	63.980579 
1313.000000	63.974738 
1312.000000	63.962507 
1311.000000	63.945364 
1310.000000	63.925647 
1309.000000	63.906192 
1308.000000	63.889789 
1307.000000	63.878679 
1306.000000	63.874244 
1305.000000	63.876700 
1304.000000	63.885235 
1303.000000	63.897943 
1302.000000	63.912677 
1301.000000	63.926935 
1300.000000	63.938355 
1299.000000	63.945150 
1298.000000	63.945817 
1297.000000	63.940167 
1296.000000	63.928437 
1295.000000	63.912057 
1294.000000	63.892984 
1293.000000	63.873720 
1292.000000	63.856720 
1291.000000	63.843989 
1290.000000	63.836646 
1289.000000	63.834738 
1288.000000	63.837265 
1287.000000	63.842439 
1286.000000	63.847947 
1285.000000	63.851761 
1284.000000	63.852763 
1283.000000	63.850831 
1282.000000	63.846731 
1281.000000	63.842153 
1280.000000	63.839077 
1279.000000	63.839244 
1278.000000	63.843774 
1277.000000	63.852810 
1276.000000	63.865780 
1275.000000	63.881468 
1274.000000	63.898396 
1273.000000	63.915228 
1272.000000	63.930559 
1271.000000	63.943481 
1270.000000	63.953351 
1269.000000	63.959908 
1268.000000	63.963031 
1267.000000	63.962769 
1266.000000	63.959336 
1265.000000	63.953113 
1264.000000	63.944554 
1263.000000	63.934373 
1262.000000	63.923192 
1261.000000	63.911437 
1260.000000	63.899302 
1259.000000	63.886785 
1258.000000	63.873672 
1257.000000	63.859868 
1256.000000	63.845324 
1255.000000	63.830399 
1254.000000	63.815617 
1253.000000	63.801717 
1252.000000	63.789391 
1251.000000	63.779330 
1250.000000	63.772225 
1249.000000	63.768768 
1248.000000	63.769364 
1247.000000	63.773941 
1246.000000	63.781905 
1245.000000	63.791751 
1244.000000	63.801360 
1243.000000	63.808250 
1242.000000	63.810181 
1241.000000	63.805794 
1240.000000	63.794898 
1239.000000	63.778591 
1238.000000	63.759088 
1237.000000	63.739299 
1236.000000	63.722085 
1235.000000	63.709759 
1234.000000	63.703322 
1233.000000	63.702583 
1232.000000	63.706207 
1231.000000	63.712239 
1230.000000	63.718533 
1229.000000	63.723564 
1228.000000	63.726425 
1227.000000	63.726973 
1226.000000	63.725709 
1225.000000	63.723349 
1224.000000	63.720560 
1223.000000	63.717699 
1222.000000	63.714838 
1221.000000	63.712000 
1220.000000	63.709092 
1219.000000	63.706159 
1218.000000	63.703536 
1217.000000	63.701844 
1216.000000	63.701844 
1215.000000	63.704395 
1214.000000	63.710141 
1213.000000	63.719487 
1212.000000	63.732171 
1211.000000	63.747668 
1210.000000	63.764667 
1209.000000	63.781666 
1208.000000	63.796734 
1207.000000	63.807988 
1206.000000	63.813638 
1205.000000	63.812613 
1204.000000	63.804459 
1203.000000	63.789510 
1202.000000	63.769006 
1201.000000	63.744902 
1200.000000	63.719582 
1199.000000	63.695549 
1198.000000	63.674879 
1197.000000	63.659214 
1196.000000	63.649535 
1195.000000	63.646101 
1194.000000	63.648486 
1193.000000	63.655900 
1192.000000	63.667297 
1191.000000	63.681817 
1190.000000	63.698196 
1189.000000	63.715434 
1188.000000	63.732552 
1187.000000	63.748669 
1186.000000	63.762807 
1185.000000	63.774085 
1184.000000	63.781809 
1183.000000	63.785672 
1182.000000	63.785600 
1181.000000	63.782072 
1180.000000	63.775897 
1179.000000	63.768267 
1178.000000	63.760447 
1177.000000	63.753747 
1176.000000	63.749265 
1175.000000	63.747739 
1174.000000	63.749432 
1173.000000	63.754105 
1172.000000	63.760900 
1171.000000	63.768672 
1170.000000	63.775873 
1169.000000	63.780808 
1168.000000	63.781666 
1167.000000	63.777041 
1166.000000	63.765978 
1165.000000	63.747954 
1164.000000	63.723063 
1163.000000	63.691926 
1162.000000	63.655757 
1161.000000	63.616299 
1160.000000	63.575458 
1159.000000	63.535356 
1158.000000	63.498044 
1157.000000	63.465452 
1156.000000	63.439178 
1155.000000	63.420200 
1154.000000	63.408946 
1153.000000	63.405013 
1152.000000	63.407278 
1151.000000	63.414144 
1150.000000	63.423776 
1149.000000	63.434576 
1148.000000	63.445448 
1147.000000	63.456106 
1146.000000	63.467216 
1145.000000	63.480019 
1144.000000	63.496088 
1143.000000	63.516736 
1142.000000	63.542532 
1141.000000	63.572835 
1140.000000	63.605785 
1139.000000	63.638448 
1138.000000	63.667154 
1137.000000	63.688278 
1136.000000	63.699078 
1135.000000	63.698196 
1134.000000	63.685655 
1133.000000	63.663411 
1132.000000	63.634753 
1131.000000	63.604140 
1130.000000	63.576126 
1129.000000	63.555049 
1128.000000	63.544297 
1127.000000	63.545918 
1126.000000	63.560295 
1125.000000	63.586163 
1124.000000	63.620877 
1123.000000	63.660788 
1122.000000	63.701725 
1121.000000	63.739466 
1120.000000	63.770222 
1119.000000	63.791155 
1118.000000	63.800644 
1117.000000	63.798379 
1116.000000	63.785338 
1115.000000	63.763737 
1114.000000	63.736629 
1113.000000	63.707542 
1112.000000	63.679909 
1111.000000	63.656854 
1110.000000	63.640356 
1109.000000	63.631296 
1108.000000	63.629364 
1107.000000	63.633108 
1106.000000	63.640379 
1105.000000	63.648581 
1104.000000	63.655376 
1103.000000	63.659167 
1102.000000	63.659453 
1101.000000	63.656735 
1100.000000	63.652300 
1099.000000	63.647842 
1098.000000	63.644933 
1097.000000	63.644599 
1096.000000	63.647055 
1095.000000	63.651657 
1094.000000	63.656997 
1093.000000	63.661479 
1092.000000	63.663458 
1091.000000	63.661980 
1090.000000	63.656711 
1089.000000	63.648176 
1088.000000	63.637685 
1087.000000	63.627028 
1086.000000	63.618063 
1085.000000	63.612174 
1084.000000	63.610100 
1083.000000	63.611674 
1082.000000	63.616180 
1081.000000	63.622331 
1080.000000	63.628935 
1079.000000	63.635039 
1078.000000	63.640284 
1077.000000	63.644766 
1076.000000	63.648676 
1075.000000	63.652062 
1074.000000	63.654565 
1073.000000	63.655400 
1072.000000	63.653445 
1071.000000	63.647890 
1070.000000	63.638544 
1069.000000	63.626384 
1068.000000	63.613486 
1067.000000	63.602805 
1066.000000	63.597536 
1065.000000	63.600134 
1064.000000	63.611602 
1063.000000	63.630890 
1062.000000	63.654899 
1061.000000	63.678836 
1060.000000	63.697361 
1059.000000	63.705992 
1058.000000	63.701915 
1057.000000	63.685059 
1056.000000	63.657903 
1055.000000	63.625025 
1054.000000	63.591957 
1053.000000	63.563776 
1052.000000	63.544034 
1051.000000	63.534092 
1050.000000	63.533115 
1049.000000	63.538908 
1048.000000	63.548564 
1047.000000	63.559675 
1046.000000	63.570737 
1045.000000	63.581538 
1044.000000	63.592696 
1043.000000	63.604712 
1042.000000	63.617634 
1041.000000	63.630485 
1040.000000	63.641357 
1039.000000	63.647961 
1038.000000	63.648319 
1037.000000	63.641667 
1036.000000	63.629150 
1035.000000	63.613748 
1034.000000	63.599848 
1033.000000	63.591909 
1032.000000	63.593506 
1031.000000	63.605999 
1030.000000	63.628172 
1029.000000	63.656139 
1028.000000	63.684511 
1027.000000	63.707375 
1026.000000	63.719940 
1025.000000	63.719582 
1024.000000	63.706398 
1023.000000	63.683032 
1022.000000	63.653540 
1021.000000	63.622403 
1020.000000	63.593482 
1019.000000	63.569021 
1018.000000	63.549447 
1017.000000	63.533949 
1016.000000	63.521027 
1015.000000	63.509631 
1014.000000	63.499712 
1013.000000	63.492321 
1012.000000	63.489437 
1011.000000	63.492918 
1010.000000	63.503909 
1009.000000	63.521909 
1008.000000	63.544917 
1007.000000	63.569593 
1006.000000	63.592410 
1005.000000	63.610482 
1004.000000	63.622236 
1003.000000	63.627839 
1002.000000	63.629174 
1001.000000	63.629007 
1000.000000	63.630270 
999.000000	 63.635087 
998.000000	 63.644194 
997.000000	 63.656878 
996.000000	 63.671159 
995.000000	 63.684678 
994.000000	 63.695144 
993.000000	 63.700985 
992.000000	 63.701701 
991.000000	 63.697862 
990.000000	 63.690853 
989.000000	 63.682389 
988.000000	 63.674426 
987.000000	 63.668608 
986.000000	 63.666105 
985.000000	 63.667583 
984.000000	 63.673019 
983.000000	 63.681626 
982.000000	 63.692092 
981.000000	 63.702869 
980.000000	 63.712215 
979.000000	 63.718771 
978.000000	 63.721656 
977.000000	 63.720440 
976.000000	 63.715457 
975.000000	 63.707232 
974.000000	 63.696336 
973.000000	 63.683032 
972.000000	 63.667845 
971.000000	 63.651227 
970.000000	 63.633680 
969.000000	 63.616013 
968.000000	 63.599419 
967.000000	 63.585209 
966.000000	 63.574814 
965.000000	 63.568949 
964.000000	 63.567304 
963.000000	 63.568377 
962.000000	 63.569808 
961.000000	 63.568949 
960.000000	 63.563537 
959.000000	 63.552737 
958.000000	 63.537549 
957.000000	 63.520789 
956.000000	 63.506340 
955.000000	 63.498306 
954.000000	 63.499569 
953.000000	 63.510870 
952.000000	 63.530182 
951.000000	 63.552975 
950.000000	 63.572788 
949.000000	 63.582992 
948.000000	 63.578176 
947.000000	 63.555288 
946.000000	 63.515019 
945.000000	 63.461589 
944.000000	 63.402056 
943.000000	 63.344740 
942.000000	 63.297891 
941.000000	 63.267540 
940.000000	 63.256931 
939.000000	 63.266015 
938.000000	 63.291954 
937.000000	 63.330292 
936.000000	 63.375973 
935.000000	 63.424491 
934.000000	 63.472604 
933.000000	 63.518309 
932.000000	 63.560557 
931.000000	 63.598489 
930.000000	 63.631200 
929.000000	 63.657259 
928.000000	 63.674950 
927.000000	 63.682317 
926.000000	 63.677978 
925.000000	 63.661122 
924.000000	 63.632583 
923.000000	 63.594269 
922.000000	 63.549256 
921.000000	 63.501167 
920.000000	 63.453841 
919.000000	 63.410782 
918.000000	 63.374972 
917.000000	 63.348698 
916.000000	 63.333368 
915.000000	 63.329672 
914.000000	 63.337302 
913.000000	 63.355278 
912.000000	 63.381767 
911.000000	 63.414287 
910.000000	 63.449335 
909.000000	 63.483262 
908.000000	 63.512420 
907.000000	 63.533496 
906.000000	 63.544106 
905.000000	 63.543176 
904.000000	 63.530921 
903.000000	 63.509392 
902.000000	 63.481903 
901.000000	 63.452458 
900.000000	 63.424849 
899.000000	 63.402318 
898.000000	 63.386631 
897.000000	 63.377976 
896.000000	 63.375139 
895.000000	 63.376045 
894.000000	 63.378453 
893.000000	 63.380694 
892.000000	 63.382291 
891.000000	 63.383746 
890.000000	 63.386940 
889.000000	 63.394117 
888.000000	 63.407516 
887.000000	 63.428068 
886.000000	 63.455629 
885.000000	 63.488817 
884.000000	 63.525366 
883.000000	 63.562703 
882.000000	 63.598418 
881.000000	 63.630819 
880.000000	 63.658952 
879.000000	 63.682651 
878.000000	 63.701796 
877.000000	 63.716197 
876.000000	 63.725256 
875.000000	 63.728165 
874.000000	 63.724184 
873.000000	 63.712978 
872.000000	 63.695096 
871.000000	 63.672113 
870.000000	 63.646554 
869.000000	 63.621687 
868.000000	 63.600659 
867.000000	 63.586163 
866.000000	 63.579845 
865.000000	 63.582515 
864.000000	 63.593959 
863.000000	 63.613247 
862.000000	 63.639163 
861.000000	 63.670134 
860.000000	 63.704466 
859.000000	 63.739871 
858.000000	 63.773822 
857.000000	 63.803100 
856.000000	 63.824295 
855.000000	 63.834142 
854.000000	 63.830232 
853.000000	 63.811874 
852.000000	 63.780546 
851.000000	 63.739681 
850.000000	 63.694143 
849.000000	 63.649487 
848.000000	 63.610959 
847.000000	 63.582229 
846.000000	 63.564920 
845.000000	 63.558506 
844.000000	 63.560700 
843.000000	 63.567972 
842.000000	 63.576912 
841.000000	 63.584637 
840.000000	 63.589954 
839.000000	 63.592457 
838.000000	 63.593697 
837.000000	 63.595461 
836.000000	 63.600420 
835.000000	 63.610696 
834.000000	 63.628149 
833.000000	 63.654232 
832.000000	 63.689064 
831.000000	 63.731956 
830.000000	 63.779997 
829.000000	 63.828754 
828.000000	 63.871932 
827.000000	 63.902544 
826.000000	 63.914299 
825.000000	 63.903355 
824.000000	 63.869333 
823.000000	 63.815736 
822.000000	 63.749241 
821.000000	 63.678383 
820.000000	 63.611865 
819.000000	 63.556742 
818.000000	 63.517355 
817.000000	 63.494825 
816.000000	 63.487529 
815.000000	 63.491606 
814.000000	 63.501954 
813.000000	 63.513398 
812.000000	 63.521456 
811.000000	 63.523268 
810.000000	 63.517451 
809.000000	 63.504362 
808.000000	 63.485455 
807.000000	 63.463044 
806.000000	 63.439583 
805.000000	 63.417387 
804.000000	 63.398361 
803.000000	 63.383650 
802.000000	 63.373875 
801.000000	 63.368916 
800.000000	 63.368082 
799.000000	 63.370108 
798.000000	 63.373637 
797.000000	 63.377022 
796.000000	 63.378787 
795.000000	 63.377761 
794.000000	 63.373327 
793.000000	 63.365387 
792.000000	 63.354659 
791.000000	 63.342189 
790.000000	 63.329696 
789.000000	 63.319301 
788.000000	 63.313269 
787.000000	 63.313269 
786.000000	 63.320446 
785.000000	 63.335037 
784.000000	 63.356494 
783.000000	 63.383316 
782.000000	 63.413357 
781.000000	 63.443899 
780.000000	 63.472437 
779.000000	 63.496828 
778.000000	 63.515830 
777.000000	 63.528966 
776.000000	 63.536691 
775.000000	 63.540029 
774.000000	 63.540291 
773.000000	 63.538932 
772.000000	 63.537001 
771.000000	 63.535022 
770.000000	 63.533163 
769.000000	 63.531088 
768.000000	 63.528323 
767.000000	 63.524603 
766.000000	 63.520002 
765.000000	 63.515162 
764.000000	 63.511371 
763.000000	 63.510227 
762.000000	 63.513493 
761.000000	 63.522267 
760.000000	 63.536572 
759.000000	 63.554930 
758.000000	 63.574719 
757.000000	 63.592100 
756.000000	 63.603019 
755.000000	 63.603711 
754.000000	 63.591837 
753.000000	 63.566946 
752.000000	 63.531064 
751.000000	 63.488030 
750.000000	 63.442707 
749.000000	 63.400077 
748.000000	 63.364291 
747.000000	 63.337731 
746.000000	 63.320851 
745.000000	 63.312339 
744.000000	 63.310027 
743.000000	 63.311314 
742.000000	 63.314127 
741.000000	 63.317227 
740.000000	 63.320589 
739.000000	 63.324570 
738.000000	 63.330030 
737.000000	 63.337612 
736.000000	 63.347792 
735.000000	 63.360667 
734.000000	 63.375997 
733.000000	 63.393831 
732.000000	 63.413929 
731.000000	 63.436317 
730.000000	 63.460111 
729.000000	 63.483548 
728.000000	 63.503599 
727.000000	 63.516306 
726.000000	 63.517904 
725.000000	 63.505792 
724.000000	 63.479709 
723.000000	 63.442444 
722.000000	 63.399124 
721.000000	 63.356280 
720.000000	 63.320589 
719.000000	 63.297510 
718.000000	 63.289594 
717.000000	 63.295912 
716.000000	 63.312673 
715.000000	 63.334321 
714.000000	 63.354730 
713.000000	 63.368868 
712.000000	 63.373661 
711.000000	 63.368654 
710.000000	 63.355541 
709.000000	 63.337516 
708.000000	 63.318085 
707.000000	 63.300108 
706.000000	 63.285708 
705.000000	 63.275289 
704.000000	 63.267946 
703.000000	 63.261628 
702.000000	 63.254070 
701.000000	 63.243389 
700.000000	 63.228106 
699.000000	 63.208842 
698.000000	 63.187646 
697.000000	 63.169026 
696.000000	 63.158464 
695.000000	 63.162231 
694.000000	 63.185548 
693.000000	 63.231158 
692.000000	 63.298535 
691.000000	 63.382530 
690.000000	 63.473773 
689.000000	 63.560557 
688.000000	 63.631296 
687.000000	 63.677668 
686.000000	 63.696336 
685.000000	 63.690114 
684.000000	 63.666272 
683.000000	 63.634824 
682.000000	 63.604593 
681.000000	 63.580727 
680.000000	 63.563156 
679.000000	 63.547420 
678.000000	 63.526248 
677.000000	 63.493013 
676.000000	 63.443946 
675.000000	 63.380384 
674.000000	 63.308954 
673.000000	 63.238978 
672.000000	 63.181924 
671.000000	 63.147640 
670.000000	 63.143324 
669.000000	 63.170385 
668.000000	 63.226175 
667.000000	 63.304543 
666.000000	 63.397359 
665.000000	 63.496279 
664.000000	 63.593459 
663.000000	 63.682341 
662.000000	 63.756942 
661.000000	 63.811755 
660.000000	 63.841152 
659.000000	 63.840222 
658.000000	 63.806223 
657.000000	 63.739609 
656.000000	 63.645815 
655.000000	 63.534069 
654.000000	 63.418126 
653.000000	 63.311743 
652.000000	 63.226366 
651.000000	 63.167095 
650.000000	 63.132500 
649.000000	 63.113951 
648.000000	 63.097620 
647.000000	 63.068985 
646.000000	 63.016843 
645.000000	 62.936711 
644.000000	 62.831330 
643.000000	 62.711000 
642.000000	 62.590193 
641.000000	 62.484359 
640.000000	 62.404847 
639.000000	 62.357425 
638.000000	 62.340426 
637.000000	 62.347483 
636.000000	 62.370061 
635.000000	 62.400126 
634.000000	 62.432670 
633.000000	 62.467765 
632.000000	 62.510108 
631.000000	 62.565732 
630.000000	 62.639546 
629.000000	 62.732434 
628.000000	 62.840557 
627.000000	 62.955212 
626.000000	 63.065242 
625.000000	 63.159799 
624.000000	 63.231754 
623.000000	 63.279843 
622.000000	 63.309168 
621.000000	 63.329029 
620.000000	 63.351273 
619.000000	 63.387179 
618.000000	 63.444399 
617.000000	 63.525676 
616.000000	 63.626766 
615.000000	 63.739967 
614.000000	 63.851904 
613.000000	 63.947868 
612.000000	 64.012312 
611.000000	 64.033317 
610.000000	 64.002203 
609.000000	 63.915586 
608.000000	 63.776636 
607.000000	 63.595414 
606.000000	 63.388466 
605.000000	 63.176512 
604.000000	 62.981724 
603.000000	 62.823915 
602.000000	 62.717437 
601.000000	 62.668609 
600.000000	 62.673759 
599.000000	 62.721347 
598.000000	 62.794494 
597.000000	 62.875676 
596.000000	 62.948894 
595.000000	 63.003921 
594.000000	 63.035678 
593.000000	 63.045740 
592.000000	 63.038277 
591.000000	 63.020801 
590.000000	 63.000750 
589.000000	 62.985539 
588.000000	 62.981271 
587.000000	 62.992501 
586.000000	 63.022613 
585.000000	 63.072371 
584.000000	 63.140320 
583.000000	 63.221716 
582.000000	 63.309311 
581.000000	 63.392877 
580.000000	 63.460659 
579.000000	 63.501477 
578.000000	 63.507175 
577.000000	 63.474106 
576.000000	 63.404560 
575.000000	 63.306879 
574.000000	 63.194322 
573.000000	 63.082504 
572.000000	 62.987041 
571.000000	 62.920546 
570.000000	 62.891674 
569.000000	 62.903404 
568.000000	 62.954211 
567.000000	 63.038825 
566.000000	 63.149309 
565.000000	 63.277101 
564.000000	 63.412451 
563.000000	 63.544416 
562.000000	 63.661623 
561.000000	 63.753008 
560.000000	 63.808989 
559.000000	 63.822245 
558.000000	 63.790130 
557.000000	 63.716125 
556.000000	 63.607883 
555.000000	 63.476157 
554.000000	 63.332915 
553.000000	 63.189411 
552.000000	 63.053083 
551.000000	 62.926578 
550.000000	 62.807679 
549.000000	 62.690496 
548.000000	 62.567615 
547.000000	 62.433195 
546.000000	 62.283301 
545.000000	 62.120103 
544.000000	 61.950492 
543.000000	 61.788725 
542.000000	 61.650466 
541.000000	 61.554646 
540.000000	 61.517477 
539.000000	 61.551737 
538.000000	 61.661720 
537.000000	 61.843681 
536.000000	 62.084341 
535.000000	 62.363910 
534.000000	 62.656736 
533.000000	 62.938761 
532.000000	 63.190078 
531.000000	 63.399767 
530.000000	 63.565826 
529.000000	 63.695406 
528.000000	 63.800978 
527.000000	 63.896274 
526.000000	 63.991570 
525.000000	 64.089417 
524.000000	 64.183020 
523.000000	 64.259314 
522.000000	 64.301800 
521.000000	 64.295697 
520.000000	 64.231801 
519.000000	 64.111638 
518.000000	 63.946509 
517.000000	 63.755369 
516.000000	 63.560318 
515.000000	 63.382315 
514.000000	 63.236570 
513.000000	 63.130402 
512.000000	 63.062787 
511.000000	 63.026499 
510.000000	 63.011169 
509.000000	 63.006877 
508.000000	 63.006663 
507.000000	 63.006782 
506.000000	 63.007593 
505.000000	 63.011384 
504.000000	 63.021135 
503.000000	 63.036870 
502.000000	 63.058304 
501.000000	 63.084220 
500.000000	 63.112878 
499.000000	 63.142204 
498.000000	 63.170480 
497.000000	 63.196492 
496.000000	 63.218808 
495.000000	 63.235735 
494.000000	 63.245916 
493.000000	 63.248157 
492.000000	 63.242459 
491.000000	 63.229274 
490.000000	 63.210344 
489.000000	 63.187074 
488.000000	 63.160419 
487.000000	 63.129925 
486.000000	 63.093686 
485.000000	 63.049507 
484.000000	 62.995648 
483.000000	 62.932801 
482.000000	 62.864756 
481.000000	 62.798213 
480.000000	 62.742209 
479.000000	 62.704563 
478.000000	 62.689566 
477.000000	 62.696981 
476.000000	 62.721514 
475.000000	 62.755322 
474.000000	 62.789964 
473.000000	 62.819981 
472.000000	 62.844133 
471.000000	 62.866234 
470.000000	 62.893128 
469.000000	 62.931036 
468.000000	 62.982344 
467.000000	 63.044595 
466.000000	 63.109612 
465.000000	 63.165688 
464.000000	 63.199806 
463.000000	 63.202238 
462.000000	 63.167262 
461.000000	 63.098549 
460.000000	 63.003540 
459.000000	 62.889170 
458.000000	 62.761449 
457.000000	 62.623500 
456.000000	 62.478494 
455.000000	 62.329649 
454.000000	 62.185192 
453.000000	 62.058305 
452.000000	 61.966824 
451.000000	 61.930418 
450.000000	 61.963510 
449.000000	 62.069630 
448.000000	 62.239503 
447.000000	 62.451052 
446.000000	 62.671685 
445.000000	 62.864136 
444.000000	 62.992429 
443.000000	 63.029813 
442.000000	 62.962770 
441.000000	 62.796211 
440.000000	 62.552213 
439.000000	 62.270283 
438.000000	 61.995792 
437.000000	 61.778545 
436.000000	 61.667561 
435.000000	 61.702418 
434.000000	 61.906266 
433.000000	 62.279081 
432.000000	 62.799048 
431.000000	 63.419699 
430.000000	 64.079737 
429.000000	 64.705944 
428.000000	 65.224981 
427.000000	 65.573620 
426.000000	 65.710067 
425.000000	 65.619397 
424.000000	 65.317296 
423.000000	 64.844536 
422.000000	 64.258670 
421.000000	 63.630270 
420.000000	 63.033533 
419.000000	 62.535095 
418.000000	 62.184619 
417.000000	 62.008619 
416.000000	 62.004590 
415.000000	 62.142801 
414.000000	 62.367892 
413.000000	 62.600970 
412.000000	 62.754535 
411.000000	 62.748217 
410.000000	 62.530159 
409.000000	 62.070393 
408.000000	 61.389708 
407.000000	 60.559177 
406.000000	 59.694695 
405.000000	 58.933663 
404.000000	 58.405447 
403.000000	 58.207201 
402.000000	 58.370208 
401.000000	 58.864951 
400.000000	 59.580326 
399.000000	 60.352110 
398.000000	 60.985231 
397.000000	 61.293220 
396.000000	 61.147856 
395.000000	 60.507798 
394.000000	 59.433603 
393.000000	 58.073115 
392.000000	 56.630849 
391.000000	 55.323100 
390.000000	 54.333066 
389.000000	 53.783416 
388.000000	 53.713631 
387.000000	 54.103755 
386.000000	 54.891061 
385.000000	 56.015038 
384.000000	 57.465648 
383.000000	 59.267210 
382.000000	 61.446070 
381.000000	 63.978791 
380.000000	 66.777420 
379.000000	 69.635033 
378.000000	 72.242212 
377.000000	 74.232506 
376.000000	 75.218796 
375.000000	 74.956655 
374.000000	 73.440480 
373.000000	 70.934510 
372.000000	 67.944121 
371.000000	 65.105247 
370.000000	 63.061022 

