PE IR       SPECTRUM    SPECTRUM    ASCII       PEDS        1.60        
  -1
BZ6CA6~1.ASC
17/04/07
19:20:23.00
17/04/07
19:20:23.00
tln
$BZ1503107-1_t0074$<tbV0>[-5.2,2.6,8.0,0.0,27,1,0]
370.000000
64









2002,4.07    
MIRTGS : RIGHTBACK : INTERNAL 2
MIR : ON : INTERNAL 2
OPTKBR

0.200000
8
8.000000
FILLER
RATIO
SPECTRUM
UNLOCKED 256

DOUBLE
64
COMBINED
1
0
0


1.000000
RATIO


1
0
TRUE
51149
0
LEFT NOT FITTED RIGHT NOT FITTED 0
NONE
NONE
15600
12.000000
4.427000
51148
TRUE
1 0 8 72 0 0 0 0 

15798.010000






#HDR
-1
-1
#GR
CM-1
%T
0.00002384185791015625
0.0
5000.000000
-1.000000
4631
8
136.500453
54.404759
#DATA
5000.000000	65.392804  
4999.000000	65.449929  
4998.000000	65.463232  
4997.000000	65.431809  
4996.000000	65.361261  
4995.000000	65.262699  
4994.000000	65.150499  
4993.000000	65.040040  
4992.000000	64.944410  
4991.000000	64.873194  
4990.000000	64.829850  
4989.000000	64.813065  
4988.000000	64.815640  
4987.000000	64.827060  
4986.000000	64.835429  
4985.000000	64.830327  
4984.000000	64.805006  
4983.000000	64.757800  
4982.000000	64.692282  
4981.000000	64.616107  
4980.000000	64.539647  
4979.000000	64.473128  
4978.000000	64.424037  
4977.000000	64.395093  
4976.000000	64.383959  
4975.000000	64.383459  
4974.000000	64.383673  
4973.000000	64.374542  
4972.000000	64.347815  
4971.000000	64.300751  
4970.000000	64.234972  
4969.000000	64.159107  
4968.000000	64.085340  
4967.000000	64.028811  
4966.000000	64.003133  
4965.000000	64.018225  
4964.000000	64.077663  
4963.000000	64.178133  
4962.000000	64.310145  
4961.000000	64.459347  
4960.000000	64.609026  
4959.000000	64.743256  
4958.000000	64.849543  
4957.000000	64.919734  
4956.000000	64.950489  
4955.000000	64.942955  
4954.000000	64.901661  
4953.000000	64.833283  
4952.000000	64.745473  
4951.000000	64.646387  
4950.000000	64.544034  
4949.000000	64.446592  
4948.000000	64.361619  
4947.000000	64.296579  
4946.000000	64.257717  
4945.000000	64.248561  
4944.000000	64.269852  
4943.000000	64.318513  
4942.000000	64.388966  
4941.000000	64.472866  
4940.000000	64.561510  
4939.000000	64.646410  
4938.000000	64.721274  
4937.000000	64.782190  
4936.000000	64.827966  
4935.000000	64.859318  
4934.000000	64.878821  
4933.000000	64.890074  
4932.000000	64.896130  
4931.000000	64.898896  
4930.000000	64.898848  
4929.000000	64.895343  
4928.000000	64.886426  
4927.000000	64.869451  
4926.000000	64.842104  
4925.000000	64.803338  
4924.000000	64.754009  
4923.000000	64.697623  
4922.000000	64.639520  
4921.000000	64.587187  
4920.000000	64.548659  
4919.000000	64.531826  
4918.000000	64.541888  
4917.000000	64.581084  
4916.000000	64.648103  
4915.000000	64.737915  
4914.000000	64.842605  
4913.000000	64.951658  
4912.000000	65.054225  
4911.000000	65.138721  
4910.000000	65.195226  
4909.000000	65.214991  
4908.000000	65.192127  
4907.000000	65.124416  
4906.000000	65.014266  
4905.000000	64.869379  
4904.000000	64.702177  
4903.000000	64.529466  
4902.000000	64.370393  
4901.000000	64.243626  
4900.000000	64.164090  
4899.000000	64.140510  
4898.000000	64.173722  
4897.000000	64.255928  
4896.000000	64.372968  
4895.000000	64.506840  
4894.000000	64.640164  
4893.000000	64.758276  
4892.000000	64.853000  
4891.000000	64.922189  
4890.000000	64.969515  
4889.000000	65.001940  
4888.000000	65.026783  
4887.000000	65.049433  
4886.000000	65.071463  
4885.000000	65.091419  
4884.000000	65.104961  
4883.000000	65.108442  
4882.000000	65.098977  
4881.000000	65.076899  
4880.000000	65.044975  
4879.000000	65.008282  
4878.000000	64.971899  
4877.000000	64.939332  
4876.000000	64.912152  
4875.000000	64.889430  
4874.000000	64.868712  
4873.000000	64.846968  
4872.000000	64.821529  
4871.000000	64.791321  
4870.000000	64.757108  
4869.000000	64.721608  
4868.000000	64.688134  
4867.000000	64.660382  
4866.000000	64.641165  
4865.000000	64.632558  
4864.000000	64.635562  
4863.000000	64.649772  
4862.000000	64.673471  
4861.000000	64.703416  
4860.000000	64.735436  
4859.000000	64.764428  
4858.000000	64.784479  
4857.000000	64.790630  
4856.000000	64.779663  
4855.000000	64.751052  
4854.000000	64.707493  
4853.000000	64.653658  
4852.000000	64.595270  
4851.000000	64.537572  
4850.000000	64.484238  
4849.000000	64.436459  
4848.000000	64.393281  
4847.000000	64.352440  
4846.000000	64.311838  
4845.000000	64.270424  
4844.000000	64.229297  
4843.000000	64.191937  
4842.000000	64.163446  
4841.000000	64.149141  
4840.000000	64.153313  
4839.000000	64.177608  
4838.000000	64.220523  
4837.000000	64.277219  
4836.000000	64.340353  
4835.000000	64.401674  
4834.000000	64.453482  
4833.000000	64.489817  
4832.000000	64.507913  
4831.000000	64.507913  
4830.000000	64.493322  
4829.000000	64.469909  
4828.000000	64.444470  
4827.000000	64.423489  
4826.000000	64.411449  
4825.000000	64.410281  
4824.000000	64.418911  
4823.000000	64.434075  
4822.000000	64.450836  
4821.000000	64.464139  
4820.000000	64.470314  
4819.000000	64.468216  
4818.000000	64.459395  
4817.000000	64.447808  
4816.000000	64.438891  
4815.000000	64.438056  
4814.000000	64.449381  
4813.000000	64.474177  
4812.000000	64.510965  
4811.000000	64.555263  
4810.000000	64.600992  
4809.000000	64.641237  
4808.000000	64.670014  
4807.000000	64.683055  
4806.000000	64.678335  
4805.000000	64.656519  
4804.000000	64.620184  
4803.000000	64.573884  
4802.000000	64.523005  
4801.000000	64.473652  
4800.000000	64.431810  
4799.000000	64.402794  
4798.000000	64.390754  
4797.000000	64.397764  
4796.000000	64.423656  
4795.000000	64.465403  
4794.000000	64.517498  
4793.000000	64.572310  
4792.000000	64.621686  
4791.000000	64.658546  
4790.000000	64.678287  
4789.000000	64.679455  
4788.000000	64.663863  
4787.000000	64.636349  
4786.000000	64.603161  
4785.000000	64.570331  
4784.000000	64.542555  
4783.000000	64.522075  
4782.000000	64.509367  
4781.000000	64.503359  
4780.000000	64.503169  
4779.000000	64.509010  
4778.000000	64.522767  
4777.000000	64.547538  
4776.000000	64.586353  
4775.000000	64.640355  
4774.000000	64.708065  
4773.000000	64.784479  
4772.000000	64.862132  
4771.000000	64.932394  
4770.000000	64.987516  
4769.000000	65.022683  
4768.000000	65.036153  
4767.000000	65.029478  
4766.000000	65.006184  
4765.000000	64.970564  
4764.000000	64.926362  
4763.000000	64.876008  
4762.000000	64.820432  
4761.000000	64.759707  
4760.000000	64.694428  
4759.000000	64.626646  
4758.000000	64.560294  
4757.000000	64.500904  
4756.000000	64.454078  
4755.000000	64.425182  
4754.000000	64.416837  
4753.000000	64.429998  
4752.000000	64.462947  
4751.000000	64.512467  
4750.000000	64.574241  
4749.000000	64.643764  
4748.000000	64.716458  
4747.000000	64.788269  
4746.000000	64.855027  
4745.000000	64.913439  
4744.000000	64.961314  
4743.000000	64.997124  
4742.000000	65.019965  
4741.000000	65.029215  
4740.000000	65.024733  
4739.000000	65.005946  
4738.000000	64.972424  
4737.000000	64.924359  
4736.000000	64.863634  
4735.000000	64.794158  
4734.000000	64.722442  
4733.000000	64.656996  
4732.000000	64.607214  
4731.000000	64.582133  
4730.000000	64.587545  
4729.000000	64.624094  
4728.000000	64.686942  
4727.000000	64.765739  
4726.000000	64.847731  
4725.000000	64.920067  
4724.000000	64.972853  
4723.000000	65.001511  
4722.000000	65.006327  
4721.000000	64.991784  
4720.000000	64.963793  
4719.000000	64.927625  
4718.000000	64.886069  
4717.000000	64.839053  
4716.000000	64.784121  
4715.000000	64.718127  
4714.000000	64.638853  
4713.000000	64.547109  
4712.000000	64.446783  
4711.000000	64.344978  
4710.000000	64.250683  
4709.000000	64.173579  
4708.000000	64.121031  
4707.000000	64.097619  
4706.000000	64.103889  
4705.000000	64.136767  
4704.000000	64.190292  
4703.000000	64.256834  
4702.000000	64.327645  
4701.000000	64.394903  
4700.000000	64.451909  
4699.000000	64.494466  
4698.000000	64.520668  
4697.000000	64.531278  
4696.000000	64.529347  
4695.000000	64.518857  
4694.000000	64.503788  
4693.000000	64.487123  
4692.000000	64.470982  
4691.000000	64.456009  
4690.000000	64.442205  
4689.000000	64.429092  
4688.000000	64.416599  
4687.000000	64.404249  
4686.000000	64.391064  
4685.000000	64.375901  
4684.000000	64.357471  
4683.000000	64.334464  
4682.000000	64.306092  
4681.000000	64.272713  
4680.000000	64.236259  
4679.000000	64.199924  
4678.000000	64.167857  
4677.000000	64.144420  
4676.000000	64.133477  
4675.000000	64.136767  
4674.000000	64.154648  
4673.000000	64.184999  
4672.000000	64.225268  
4671.000000	64.273190  
4670.000000	64.327597  
4669.000000	64.388060  
4668.000000	64.454936  
4667.000000	64.528417  
4666.000000	64.607739  
4665.000000	64.689922  
4664.000000	64.770770  
4663.000000	64.845442  
4662.000000	64.909410  
4661.000000	64.959907  
4660.000000	64.995670  
4659.000000	65.017032  
4658.000000	65.025472  
4657.000000	65.023183  
4656.000000	65.012121  
4655.000000	64.994001  
4654.000000	64.970731  
4653.000000	64.944410  
4652.000000	64.917349  
4651.000000	64.891958  
4650.000000	64.871501  
4649.000000	64.858627  
4648.000000	64.854812  
4647.000000	64.859318  
4646.000000	64.869332  
4645.000000	64.880299  
4644.000000	64.886784  
4643.000000	64.883613  
4642.000000	64.867210  
4641.000000	64.836525  
4640.000000	64.793300  
4639.000000	64.742016  
4638.000000	64.688372  
4637.000000	64.639067  
4636.000000	64.600610  
4635.000000	64.577913  
4634.000000	64.573311  
4633.000000	64.586377  
4632.000000	64.614343  
4631.000000	64.652347  
4630.000000	64.695024  
4629.000000	64.738178  
4628.000000	64.780068  
4627.000000	64.821600  
4626.000000	64.866018  
4625.000000	64.917135  
4624.000000	64.977955  
4623.000000	65.049195  
4622.000000	65.128183  
4621.000000	65.209364  
4620.000000	65.284919  
4619.000000	65.346884  
4618.000000	65.388631  
4617.000000	65.407180  
4616.000000	65.403032  
4615.000000	65.380764  
4614.000000	65.346837  
4613.000000	65.308737  
4612.000000	65.272450  
4611.000000	65.241885  
4610.000000	65.218210  
4609.000000	65.200734  
4608.000000	65.187406  
4607.000000	65.176558  
4606.000000	65.166854  
4605.000000	65.158176  
4604.000000	65.151476  
4603.000000	65.148782  
4602.000000	65.153264  
4601.000000	65.168404  
4600.000000	65.197467  
4599.000000	65.241909  
4598.000000	65.301275  
4597.000000	65.371656  
4596.000000	65.445947  
4595.000000	65.514230  
4594.000000	65.565776  
4593.000000	65.590834  
4592.000000	65.582489  
4591.000000	65.538978  
4590.000000	65.464329  
4589.000000	65.367698  
4588.000000	65.262007  
4587.000000	65.160632  
4586.000000	65.075254  
4585.000000	65.013217  
4584.000000	64.976620  
4583.000000	64.963054  
4582.000000	64.967370  
4581.000000	64.983463  
4580.000000	65.005970  
4579.000000	65.031170  
4578.000000	65.056991  
4577.000000	65.082383  
4576.000000	65.106654  
4575.000000	65.128636  
4574.000000	65.146517  
4573.000000	65.158486  
4572.000000	65.163064  
4571.000000	65.159916  
4570.000000	65.149497  
4569.000000	65.133595  
4568.000000	65.114450  
4567.000000	65.094327  
4566.000000	65.074992  
4565.000000	65.057206  
4564.000000	65.041160  
4563.000000	65.027546  
4562.000000	65.016674  
4561.000000	65.009546  
4560.000000	65.005922  
4559.000000	65.004563  
4558.000000	65.002298  
4557.000000	64.994168  
4556.000000	64.975142  
4555.000000	64.941215  
4554.000000	64.892244  
4553.000000	64.832806  
4552.000000	64.772176  
4551.000000	64.722585  
4550.000000	64.697146  
4549.000000	64.706563  
4548.000000	64.756202  
4547.000000	64.844226  
4546.000000	64.961552  
4545.000000	65.093231  
4544.000000	65.221667  
4543.000000	65.329957  
4542.000000	65.405416  
4541.000000	65.441679  
4540.000000	65.439391  
4539.000000	65.405178  
4538.000000	65.349435  
4537.000000	65.283179  
4536.000000	65.216112  
4535.000000	65.153908  
4534.000000	65.098977  
4533.000000	65.049958  
4532.000000	65.004348  
4531.000000	64.959621  
4530.000000	64.915347  
4529.000000	64.874029  
4528.000000	64.840626  
4527.000000	64.822077  
4526.000000	64.825010  
4525.000000	64.854788  
4524.000000	64.913463  
4523.000000	64.999294  
4522.000000	65.106320  
4521.000000	65.224957  
4520.000000	65.343356  
4519.000000	65.449500  
4518.000000	65.533208  
4517.000000	65.587806  
4516.000000	65.611052  
4515.000000	65.605521  
4514.000000	65.576767  
4513.000000	65.532755  
4512.000000	65.480685  
4511.000000	65.426087  
4510.000000	65.371656  
4509.000000	65.318202  
4508.000000	65.265059  
4507.000000	65.211558  
4506.000000	65.158319  
4505.000000	65.107655  
4504.000000	65.064024  
4503.000000	65.032792  
4502.000000	65.019154  
4501.000000	65.026211  
4500.000000	65.054225  
4499.000000	65.099763  
4498.000000	65.156841  
4497.000000	65.218138  
4496.000000	65.276575  
4495.000000	65.326738  
4494.000000	65.365600  
4493.000000	65.393137  
4492.000000	65.410947  
4491.000000	65.421843  
4490.000000	65.429544  
4489.000000	65.437006  
4488.000000	65.446519  
4487.000000	65.457844  
4486.000000	65.468358  
4485.000000	65.473389  
4484.000000	65.467309  
4483.000000	65.445756  
4482.000000	65.407919  
4481.000000	65.356636  
4480.000000	65.299153  
4479.000000	65.243792  
4478.000000	65.198063  
4477.000000	65.166378  
4476.000000	65.148091  
4475.000000	65.139627  
4474.000000	65.135908  
4473.000000	65.132379  
4472.000000	65.127086  
4471.000000	65.118932  
4470.000000	65.107870  
4469.000000	65.092730  
4468.000000	65.071368  
4467.000000	65.041589  
4466.000000	65.002298  
4465.000000	64.955854  
4464.000000	64.908313  
4463.000000	64.866256  
4462.000000	64.836931  
4461.000000	64.828467  
4460.000000	64.846181  
4459.000000	64.892244  
4458.000000	64.962720  
4457.000000	65.044808  
4456.000000	65.121483  
4455.000000	65.180730  
4454.000000	65.211439  
4453.000000	65.202403  
4452.000000	65.148282  
4451.000000	65.051603  
4450.000000	64.921569  
4449.000000	64.770507  
4448.000000	64.616775  
4447.000000	64.481711  
4446.000000	64.386391  
4445.000000	64.350199  
4444.000000	64.373326  
4443.000000	64.437770  
4442.000000	64.512705  
4441.000000	64.567232  
4440.000000	64.588642  
4439.000000	64.591193  
4438.000000	64.620757  
4437.000000	64.738869  
4436.000000	65.010380  
4435.000000	65.466761  
4434.000000	66.100573  
4433.000000	66.835021  
4432.000000	67.537689  
4431.000000	68.031644  
4430.000000	68.144249  
4429.000000	67.738866  
4428.000000	66.758537  
4427.000000	65.239119  
4426.000000	63.314151  
4425.000000	61.185598  
4424.000000	59.071636  
4423.000000	57.190322  
4422.000000	55.705118  
4421.000000	54.747462  
4420.000000	54.404759  
4419.000000	54.720830  
4418.000000	55.695509  
4417.000000	57.243227  
4416.000000	59.196162  
4415.000000	61.294865  
4414.000000	63.232851  
4413.000000	64.726519  
4412.000000	65.577578  
4411.000000	65.731763  
4410.000000	65.282750  
4409.000000	64.438605  
4408.000000	63.465929  
4407.000000	62.611413  
4406.000000	62.052464  
4405.000000	61.875438  
4404.000000	62.062120  
4403.000000	62.540245  
4402.000000	63.188147  
4401.000000	63.886666  
4400.000000	64.533686  
4399.000000	65.059900  
4398.000000	65.439391  
4397.000000	65.674090  
4396.000000	65.792512  
4395.000000	65.828204  
4394.000000	65.812778  
4393.000000	65.763163  
4392.000000	65.690994  
4391.000000	65.608525  
4390.000000	65.524244  
4389.000000	65.447235  
4388.000000	65.385818  
4387.000000	65.347528  
4386.000000	65.336275  
4385.000000	65.351605  
4384.000000	65.384078  
4383.000000	65.418648  
4382.000000	65.443634  
4381.000000	65.451455  
4380.000000	65.434694  
4379.000000	65.391921  
4378.000000	65.328931  
4377.000000	65.257430  
4376.000000	65.193271  
4375.000000	65.151309  
4374.000000	65.139532  
4373.000000	65.159082  
4372.000000	65.204524  
4371.000000	65.264964  
4370.000000	65.328598  
4369.000000	65.383362  
4368.000000	65.418171  
4367.000000	65.427923  
4366.000000	65.414714  
4365.000000	65.385007  
4364.000000	65.347123  
4363.000000	65.308666  
4362.000000	65.274357  
4361.000000	65.245652  
4360.000000	65.221023  
4359.000000	65.198421  
4358.000000	65.176320  
4357.000000	65.156364  
4356.000000	65.141844  
4355.000000	65.134954  
4354.000000	65.136051  
4353.000000	65.141081  
4352.000000	65.144038  
4351.000000	65.139675  
4350.000000	65.124917  
4349.000000	65.098571  
4348.000000	65.062808  
4347.000000	65.024924  
4346.000000	64.992332  
4345.000000	64.969730  
4344.000000	64.957332  
4343.000000	64.949178  
4342.000000	64.937186  
4341.000000	64.913821  
4340.000000	64.875411  
4339.000000	64.823698  
4338.000000	64.766621  
4337.000000	64.717054  
4336.000000	64.685869  
4335.000000	64.679002  
4334.000000	64.695763  
4333.000000	64.730024  
4332.000000	64.776062  
4331.000000	64.830040  
4330.000000	64.896917  
4329.000000	64.982628  
4328.000000	65.092587  
4327.000000	65.219068  
4326.000000	65.340352  
4325.000000	65.416526  
4324.000000	65.395283  
4323.000000	65.225505  
4322.000000	64.869832  
4321.000000	64.323663  
4320.000000	63.620424  
4319.000000	62.835144  
4318.000000	62.069988  
4317.000000	61.438059  
4316.000000	61.036467  
4315.000000	60.928344  
4314.000000	61.125874  
4313.000000	61.592769  
4312.000000	62.252044  
4311.000000	63.005161  
4310.000000	63.752460  
4309.000000	64.411044  
4308.000000	64.926958  
4307.000000	65.277862  
4306.000000	65.469646  
4305.000000	65.528559  
4304.000000	65.489912  
4303.000000	65.391802  
4302.000000	65.264582  
4301.000000	65.131878  
4300.000000	65.004444  
4299.000000	64.890313  
4298.000000	64.790058  
4297.000000	64.703536  
4296.000000	64.628291  
4295.000000	64.561486  
4294.000000	64.501786  
4293.000000	64.448022  
4292.000000	64.402246  
4291.000000	64.367961  
4290.000000	64.350771  
4289.000000	64.355134  
4288.000000	64.384293  
4287.000000	64.438676  
4286.000000	64.514279  
4285.000000	64.601707  
4284.000000	64.689683  
4283.000000	64.767360  
4282.000000	64.826226  
4281.000000	64.862132  
4280.000000	64.874744  
4279.000000	64.867329  
4278.000000	64.848685  
4277.000000	64.830303  
4276.000000	64.821743  
4275.000000	64.828395  
4274.000000	64.851927  
4273.000000	64.888882  
4272.000000	64.932823  
4271.000000	64.974856  
4270.000000	65.005922  
4269.000000	65.018606  
4268.000000	65.009880  
4267.000000	64.980506  
4266.000000	64.934110  
4265.000000	64.877104  
4264.000000	64.816713  
4263.000000	64.760589  
4262.000000	64.715003  
4261.000000	64.684653  
4260.000000	64.672446  
4259.000000	64.679121  
4258.000000	64.703679  
4257.000000	64.742827  
4256.000000	64.791297  
4255.000000	64.842271  
4254.000000	64.888334  
4253.000000	64.921855  
4252.000000	64.936566  
4251.000000	64.929056  
4250.000000	64.900183  
4249.000000	64.854669  
4248.000000	64.801263  
4247.000000	64.751219  
4246.000000	64.716553  
4245.000000	64.707589  
4244.000000	64.730954  
4243.000000	64.788413  
4242.000000	64.876055  
4241.000000	64.985418  
4240.000000	65.104198  
4239.000000	65.218925  
4238.000000	65.316462  
4237.000000	65.386319  
4236.000000	65.422058  
4235.000000	65.421891  
4234.000000	65.388393  
4233.000000	65.328145  
4232.000000	65.249633  
4231.000000	65.161943  
4230.000000	65.073442  
4229.000000	64.991044  
4228.000000	64.919638  
4227.000000	64.862370  
4226.000000	64.820408  
4225.000000	64.793562  
4224.000000	64.780974  
4223.000000	64.781379  
4222.000000	64.792251  
4221.000000	64.810705  
4220.000000	64.832997  
4219.000000	64.855456  
4218.000000	64.874315  
4217.000000	64.886999  
4216.000000	64.891839  
4215.000000	64.889001  
4214.000000	64.880132  
4213.000000	64.867973  
4212.000000	64.855432  
4211.000000	64.844918  
4210.000000	64.837884  
4209.000000	64.834547  
4208.000000	64.834237  
4207.000000	64.835500  
4206.000000	64.836788  
4205.000000	64.836478  
4204.000000	64.833760  
4203.000000	64.827418  
4202.000000	64.815998  
4201.000000	64.796948  
4200.000000	64.767289  
4199.000000	64.724230  
4198.000000	64.666342  
4197.000000	64.594697  
4196.000000	64.513611  
4195.000000	64.431262  
4194.000000	64.358568  
4193.000000	64.306688  
4192.000000	64.284896  
4191.000000	64.298033  
4190.000000	64.345717  
4189.000000	64.421486  
4188.000000	64.515161  
4187.000000	64.614176  
4186.000000	64.707589  
4185.000000	64.787864  
4184.000000	64.852094  
4183.000000	64.902114  
4182.000000	64.941692  
4181.000000	64.974451  
4180.000000	65.001273  
4179.000000	65.019822  
4178.000000	65.024113  
4177.000000	65.006971  
4176.000000	64.962458  
4175.000000	64.888978  
4174.000000	64.790558  
4173.000000	64.677357  
4172.000000	64.563751  
4171.000000	64.465761  
4170.000000	64.397621  
4169.000000	64.368820  
4168.000000	64.382481  
4167.000000	64.434671  
4166.000000	64.515972  
4165.000000	64.613270  
4164.000000	64.712810  
4163.000000	64.802622  
4162.000000	64.873480  
4161.000000	64.921116  
4160.000000	64.944410  
4159.000000	64.946889  
4158.000000	64.934539  
4157.000000	64.915132  
4156.000000	64.896845  
4155.000000	64.886116  
4154.000000	64.887499  
4153.000000	64.901423  
4152.000000	64.925312  
4151.000000	64.953064  
4150.000000	64.977598  
4149.000000	64.991688  
4148.000000	64.990019  
4147.000000	64.970588  
4146.000000	64.935159  
4145.000000	64.888930  
4144.000000	64.839267  
4143.000000	64.793848  
4142.000000	64.758968  
4141.000000	64.738273  
4140.000000	64.732289  
4139.000000	64.738702  
4138.000000	64.753103  
4137.000000	64.770555  
4136.000000	64.786529  
4135.000000	64.797782  
4134.000000	64.803051  
4133.000000	64.801907  
4132.000000	64.796018  
4131.000000	64.787936  
4130.000000	64.781165  
4129.000000	64.778995  
4128.000000	64.783835  
4127.000000	64.796638  
4126.000000	64.816117  
4125.000000	64.839315  
4124.000000	64.861369  
4123.000000	64.876604  
4122.000000	64.879989  
4121.000000	64.868330  
4120.000000	64.841890  
4119.000000	64.804410  
4118.000000	64.762711  
4117.000000	64.724755  
4116.000000	64.697551  
4115.000000	64.684915  
4114.000000	64.686346  
4113.000000	64.697170  
4112.000000	64.709591  
4111.000000	64.715027  
4110.000000	64.706921  
4109.000000	64.682722  
4108.000000	64.643836  
4107.000000	64.596390  
4106.000000	64.548444  
4105.000000	64.509344  
4104.000000	64.486789  
4103.000000	64.485979  
4102.000000	64.508032  
4101.000000	64.550352  
4100.000000	64.607548  
4099.000000	64.672040  
4098.000000	64.735913  
4097.000000	64.791584  
4096.000000	64.833188  
4095.000000	64.857101  
4094.000000	64.862012  
4093.000000	64.849448  
4092.000000	64.823222  
4091.000000	64.789152  
4090.000000	64.754152  
4089.000000	64.724898  
4088.000000	64.706635  
4087.000000	64.702534  
4086.000000	64.713001  
4085.000000	64.735841  
4084.000000	64.766597  
4083.000000	64.800095  
4082.000000	64.831066  
4081.000000	64.855074  
4080.000000	64.868903  
4079.000000	64.871025  
4078.000000	64.860916  
4077.000000	64.838910  
4076.000000	64.805817  
4075.000000	64.762735  
4074.000000	64.711189  
4073.000000	64.653158  
4072.000000	64.591741  
4071.000000	64.530968  
4070.000000	64.475727  
4069.000000	64.431095  
4068.000000	64.401531  
4067.000000	64.390015  
4066.000000	64.397978  
4065.000000	64.424967  
4064.000000	64.468622  
4063.000000	64.524984  
4062.000000	64.589166  
4061.000000	64.655971  
4060.000000	64.720559  
4059.000000	64.778757  
4058.000000	64.827537  
4057.000000	64.864921  
4056.000000	64.890646  
4055.000000	64.905333  
4054.000000	64.910602  
4053.000000	64.908170  
4052.000000	64.900231  
4051.000000	64.888668  
4050.000000	64.875292  
4049.000000	64.861392  
4048.000000	64.848065  
4047.000000	64.835858  
4046.000000	64.825105  
4045.000000	64.815878  
4044.000000	64.808368  
4043.000000	64.802670  
4042.000000	64.798712  
4041.000000	64.796447  
4040.000000	64.795827  
4039.000000	64.796662  
4038.000000	64.798569  
4037.000000	64.801096  
4036.000000	64.803934  
4035.000000	64.807105  
4034.000000	64.810967  
4033.000000	64.816284  
4032.000000	64.824128  
4031.000000	64.835786  
4030.000000	64.852261  
4029.000000	64.873576  
4028.000000	64.898633  
4027.000000	64.925360  
4026.000000	64.950823  
4025.000000	64.971661  
4024.000000	64.984989  
4023.000000	64.989399  
4022.000000	64.985179  
4021.000000	64.974665  
4020.000000	64.961504  
4019.000000	64.949774  
4018.000000	64.943051  
4017.000000	64.943408  
4016.000000	64.951086  
4015.000000	64.964389  
4014.000000	64.980459  
4013.000000	64.996075  
4012.000000	65.008664  
4011.000000	65.016984  
4010.000000	65.021443  
4009.000000	65.023684  
4008.000000	65.025949  
4007.000000	65.030002  
4006.000000	65.036582  
4005.000000	65.044641  
4004.000000	65.051436  
4003.000000	65.053081  
4002.000000	65.045738  
4001.000000	65.026736  
4000.000000	64.995479  
3999.000000	64.953875  
3998.000000	64.906191  
3997.000000	64.858412  
3996.000000	64.817166  
3995.000000	64.788413  
3994.000000	64.775824  
3993.000000	64.780330  
3992.000000	64.799880  
3991.000000	64.829850  
3990.000000	64.863944  
3989.000000	64.895558  
3988.000000	64.919400  
3987.000000	64.932060  
3986.000000	64.932608  
3985.000000	64.922380  
3984.000000	64.904546  
3983.000000	64.883279  
3982.000000	64.862823  
3981.000000	64.847111  
3980.000000	64.839100  
3979.000000	64.840698  
3978.000000	64.852786  
3977.000000	64.874839  
3976.000000	64.905261  
3975.000000	64.941382  
3974.000000	64.979743  
3973.000000	65.016198  
3972.000000	65.046739  
3971.000000	65.068030  
3970.000000	65.078091  
3969.000000	65.076708  
3968.000000	65.065193  
3967.000000	65.046596  
3966.000000	65.024447  
3965.000000	65.002107  
3964.000000	64.981698  
3963.000000	64.964008  
3962.000000	64.948296  
3961.000000	64.932918  
3960.000000	64.915966  
3959.000000	64.896082  
3958.000000	64.873385  
3957.000000	64.849781  
3956.000000	64.828252  
3955.000000	64.812016  
3954.000000	64.803957  
3953.000000	64.805889  
3952.000000	64.817976  
3951.000000	64.839100  
3950.000000	64.866781  
3949.000000	64.898300  
3948.000000	64.931416  
3947.000000	64.964509  
3946.000000	64.996719  
3945.000000	65.027308  
3944.000000	65.055513  
3943.000000	65.079998  
3942.000000	65.098595  
3941.000000	65.108561  
3940.000000	65.107560  
3939.000000	65.094184  
3938.000000	65.068793  
3937.000000	65.033245  
3936.000000	64.991426  
3935.000000	64.947056  
3934.000000	64.903211  
3933.000000	64.861154  
3932.000000	64.820671  
3931.000000	64.780044  
3930.000000	64.737272  
3929.000000	64.691519  
3928.000000	64.644265  
3927.000000	64.599347  
3926.000000	64.562797  
3925.000000	64.541053  
3924.000000	64.539837  
3923.000000	64.561915  
3922.000000	64.607048  
3921.000000	64.671015  
3920.000000	64.747309  
3919.000000	64.828419  
3918.000000	64.907693  
3917.000000	64.980077  
3916.000000	65.043044  
3915.000000	65.096449  
3914.000000	65.141725  
3913.000000	65.180230  
3912.000000	65.213084  
3911.000000	65.240764  
3910.000000	65.263319  
3909.000000	65.280771  
3908.000000	65.293550  
3907.000000	65.302944  
3906.000000	65.310859  
3905.000000	65.319657  
3904.000000	65.330982  
3903.000000	65.345048  
3902.000000	65.360879  
3901.000000	65.376329  
3900.000000	65.388584  
3899.000000	65.394973  
3898.000000	65.394282  
3897.000000	65.386676  
3896.000000	65.373992  
3895.000000	65.358448  
3894.000000	65.342521  
3893.000000	65.327024  
3892.000000	65.311455  
3891.000000	65.293169  
3890.000000	65.268802  
3889.000000	65.234923  
3888.000000	65.189671  
3887.000000	65.133333  
3886.000000	65.068483  
3885.000000	65.000081  
3884.000000	64.934492  
3883.000000	64.878201  
3882.000000	64.835953  
3881.000000	64.810848  
3880.000000	64.803719  
3879.000000	64.813566  
3878.000000	64.837789  
3877.000000	64.873456  
3876.000000	64.917802  
3875.000000	64.968252  
3874.000000	65.022420  
3873.000000	65.077638  
3872.000000	65.130805  
3871.000000	65.178155  
3870.000000	65.215897  
3869.000000	65.240883  
3868.000000	65.251302  
3867.000000	65.247821  
3866.000000	65.233230  
3865.000000	65.212583  
3864.000000	65.191626  
3863.000000	65.176272  
3862.000000	65.170478  
3861.000000	65.175914  
3860.000000	65.190815  
3859.000000	65.211510  
3858.000000	65.232133  
3857.000000	65.246701  
3856.000000	65.249872  
3855.000000	65.238618  
3854.000000	65.212440  
3853.000000	65.173411  
3852.000000	65.125775  
3851.000000	65.074706  
3850.000000	65.025615  
3849.000000	64.983153  
3848.000000	64.950513  
3847.000000	64.929127  
3846.000000	64.918971  
3845.000000	64.919066  
3844.000000	64.927530  
3843.000000	64.942312  
3842.000000	64.961576  
3841.000000	64.984130  
3840.000000	65.008568  
3839.000000	65.033960  
3838.000000	65.059399  
3837.000000	65.084123  
3836.000000	65.107297  
3835.000000	65.127897  
3834.000000	65.145015  
3833.000000	65.157532  
3832.000000	65.165066  
3831.000000	65.167117  
3830.000000	65.163278  
3829.000000	65.153121  
3828.000000	65.136742  
3827.000000	65.113925  
3826.000000	65.084314  
3825.000000	65.047788  
3824.000000	65.004825  
3823.000000	64.956855  
3822.000000	64.906263  
3821.000000	64.856600  
3820.000000	64.812159  
3819.000000	64.776802  
3818.000000	64.753270  
3817.000000	64.742493  
3816.000000	64.743661  
3815.000000	64.754080  
3814.000000	64.770340  
3813.000000	64.788436  
3812.000000	64.805436  
3811.000000	64.819622  
3810.000000	64.831209  
3809.000000	64.841294  
3808.000000	64.852261  
3807.000000	64.866685  
3806.000000	64.887142  
3805.000000	64.914822  
3804.000000	64.949917  
3803.000000	64.991712  
3802.000000	65.038347  
3801.000000	65.087509  
3800.000000	65.136575  
3799.000000	65.183019  
3798.000000	65.224719  
3797.000000	65.260291  
3796.000000	65.289163  
3795.000000	65.311574  
3794.000000	65.328621  
3793.000000	65.341711  
3792.000000	65.352010  
3791.000000	65.359902  
3790.000000	65.365314  
3789.000000	65.367436  
3788.000000	65.365386  
3787.000000	65.358209  
3786.000000	65.345931  
3785.000000	65.328955  
3784.000000	65.308165  
3783.000000	65.284156  
3782.000000	65.257167  
3781.000000	65.226626  
3780.000000	65.191388  
3779.000000	65.150237  
3778.000000	65.102434  
3777.000000	65.048742  
3776.000000	64.991545  
3775.000000	64.934873  
3774.000000	64.883899  
3773.000000	64.843344  
3772.000000	64.816260  
3771.000000	64.803242  
3770.000000	64.802074  
3769.000000	64.808487  
3768.000000	64.817476  
3767.000000	64.824485  
3766.000000	64.826488  
3765.000000	64.822840  
3764.000000	64.815115  
3763.000000	64.805984  
3762.000000	64.798617  
3761.000000	64.795494  
3760.000000	64.798259  
3759.000000	64.806866  
3758.000000	64.820170  
3757.000000	64.836549  
3756.000000	64.854454  
3755.000000	64.872574  
3754.000000	64.890694  
3753.000000	64.909029  
3752.000000	64.928698  
3751.000000	64.950823  
3750.000000	64.976787  
3749.000000	65.007519  
3748.000000	65.043735  
3747.000000	65.085840  
3746.000000	65.133452  
3745.000000	65.185403  
3744.000000	65.239453  
3743.000000	65.292525  
3742.000000	65.340685  
3741.000000	65.379714  
3740.000000	65.405797  
3739.000000	65.416121  
3738.000000	65.409541  
3737.000000	65.386438  
3736.000000	65.349125  
3735.000000	65.300822  
3734.000000	65.245103  
3733.000000	65.184903  
3732.000000	65.122604  
3731.000000	65.059638  
3730.000000	64.996528  
3729.000000	64.933943  
3728.000000	64.872860  
3727.000000	64.815592  
3726.000000	64.765238  
3725.000000	64.725685  
3724.000000	64.700341  
3723.000000	64.691567  
3722.000000	64.699697  
3721.000000	64.722514  
3720.000000	64.755082  
3719.000000	64.790439  
3718.000000	64.821147  
3717.000000	64.840149  
3716.000000	64.842224  
3715.000000	64.825177  
3714.000000	64.790272  
3713.000000	64.741969  
3712.000000	64.687156  
3711.000000	64.634060  
3710.000000	64.590835  
3709.000000	64.564180  
3708.000000	64.558458  
3707.000000	64.575028  
3706.000000	64.612436  
3705.000000	64.666724  
3704.000000	64.732623  
3703.000000	64.803886  
3702.000000	64.874982  
3701.000000	64.941382  
3700.000000	65.000104  
3699.000000	65.049600  
3698.000000	65.089368  
3697.000000	65.120100  
3696.000000	65.142059  
3695.000000	65.154886  
3694.000000	65.157485  
3693.000000	65.149068  
3692.000000	65.128922  
3691.000000	65.097618  
3690.000000	65.057182  
3689.000000	65.011811  
3688.000000	64.966821  
3687.000000	64.928126  
3686.000000	64.900660  
3685.000000	64.887428  
3684.000000	64.889049  
3683.000000	64.903569  
3682.000000	64.926934  
3681.000000	64.953899  
3680.000000	64.979100  
3679.000000	64.998245  
3678.000000	65.008521  
3677.000000	65.009021  
3676.000000	65.000152  
3675.000000	64.983654  
3674.000000	64.961504  
3673.000000	64.936327  
3672.000000	64.911079  
3671.000000	64.889121  
3670.000000	64.873766  
3669.000000	64.868426  
3668.000000	64.876270  
3667.000000	64.899253  
3666.000000	64.937376  
3665.000000	64.988517  
3664.000000	65.048360  
3663.000000	65.111064  
3662.000000	65.169906  
3661.000000	65.218782  
3660.000000	65.253043  
3659.000000	65.270400  
3658.000000	65.271139  
3657.000000	65.257644  
3656.000000	65.233635  
3655.000000	65.203309  
3654.000000	65.170240  
3653.000000	65.137219  
3652.000000	65.105724  
3651.000000	65.076565  
3650.000000	65.049982  
3649.000000	65.026426  
3648.000000	65.006470  
3647.000000	64.990901  
3646.000000	64.980363  
3645.000000	64.975094  
3644.000000	64.974522  
3643.000000	64.977240  
3642.000000	64.981436  
3641.000000	64.984917  
3640.000000	64.986348  
3639.000000	64.985179  
3638.000000	64.982295  
3637.000000	64.979720  
3636.000000	64.979887  
3635.000000	64.984726  
3634.000000	64.995145  
3633.000000	65.010333  
3632.000000	65.027642  
3631.000000	65.042996  
3630.000000	65.052032  
3629.000000	65.051221  
3628.000000	65.038752  
3627.000000	65.015077  
3626.000000	64.982962  
3625.000000	64.947152  
3624.000000	64.913249  
3623.000000	64.886546  
3622.000000	64.870905  
3621.000000	64.868235  
3620.000000	64.878273  
3619.000000	64.898777  
3618.000000	64.926099  
3617.000000	64.956045  
3616.000000	64.984655  
3615.000000	65.008735  
3614.000000	65.026116  
3613.000000	65.035533  
3612.000000	65.036630  
3611.000000	65.029525  
3610.000000	65.014672  
3609.000000	64.992666  
3608.000000	64.964389  
3607.000000	64.930915  
3606.000000	64.893603  
3605.000000	64.854288  
3604.000000	64.815282  
3603.000000	64.779019  
3602.000000	64.748001  
3601.000000	64.724326  
3600.000000	64.709591  
3599.000000	64.704394  
3598.000000	64.708375  
3597.000000	64.720058  
3596.000000	64.737439  
3595.000000	64.757943  
3594.000000	64.779233  
3593.000000	64.798974  
3592.000000	64.815711  
3591.000000	64.828634  
3590.000000	64.837765  
3589.000000	64.843511  
3588.000000	64.846849  
3587.000000	64.848875  
3586.000000	64.850592  
3585.000000	64.852833  
3584.000000	64.856028  
3583.000000	64.860320  
3582.000000	64.865612  
3581.000000	64.871883  
3580.000000	64.879131  
3579.000000	64.887547  
3578.000000	64.897584  
3577.000000	64.910101  
3576.000000	64.926004  
3575.000000	64.946126  
3574.000000	64.971232  
3573.000000	65.001416  
3572.000000	65.035986  
3571.000000	65.072989  
3570.000000	65.109634  
3569.000000	65.142202  
3568.000000	65.166807  
3567.000000	65.179514  
3566.000000	65.177369  
3565.000000	65.158939  
3564.000000	65.124678  
3563.000000	65.077280  
3562.000000	65.021085  
3561.000000	64.962196  
3560.000000	64.907550  
3559.000000	64.863944  
3558.000000	64.836883  
3557.000000	64.829349  
3556.000000	64.841485  
3555.000000	64.870548  
3554.000000	64.911293  
3553.000000	64.957284  
3552.000000	65.002131  
3551.000000	65.040802  
3550.000000	65.070629  
3549.000000	65.091490  
3548.000000	65.105319  
3547.000000	65.115284  
3546.000000	65.124392  
3545.000000	65.134859  
3544.000000	65.146803  
3543.000000	65.158891  
3542.000000	65.168046  
3541.000000	65.171146  
3540.000000	65.165209  
3539.000000	65.148830  
3538.000000	65.121936  
3537.000000	65.086245  
3536.000000	65.044498  
3535.000000	64.999866  
3534.000000	64.955472  
3533.000000	64.914107  
3532.000000	64.878153  
3531.000000	64.849495  
3530.000000	64.829897  
3529.000000	64.820861  
3528.000000	64.823842  
3527.000000	64.839649  
3526.000000	64.868474  
3525.000000	64.909315  
3524.000000	64.959955  
3523.000000	65.016913  
3522.000000	65.075874  
3521.000000	65.132164  
3520.000000	65.181422  
3519.000000	65.219998  
3518.000000	65.245342  
3517.000000	65.256094  
3516.000000	65.252375  
3515.000000	65.235400  
3514.000000	65.207695  
3513.000000	65.172290  
3512.000000	65.133023  
3511.000000	65.093326  
3510.000000	65.056395  
3509.000000	65.024256  
3508.000000	64.997839  
3507.000000	64.976620  
3506.000000	64.959001  
3505.000000	64.942741  
3504.000000	64.925670  
3503.000000	64.906239  
3502.000000	64.883852  
3501.000000	64.859390  
3500.000000	64.835000  
3499.000000	64.813685  
3498.000000	64.798617  
3497.000000	64.792633  
3496.000000	64.797568  
3495.000000	64.814472  
3494.000000	64.843010  
3493.000000	64.881801  
3492.000000	64.928269  
3491.000000	64.979076  
3490.000000	65.030121  
3489.000000	65.076971  
3488.000000	65.115141  
3487.000000	65.141081  
3486.000000	65.152215  
3485.000000	65.147876  
3484.000000	65.129160  
3483.000000	65.098810  
3482.000000	65.060830  
3481.000000	65.020132  
3480.000000	64.981579  
3479.000000	64.949536  
3478.000000	64.927363  
3477.000000	64.917159  
3476.000000	64.919590  
3475.000000	64.934158  
3474.000000	64.959263  
3473.000000	64.992427  
3472.000000	65.030598  
3471.000000	65.070295  
3470.000000	65.107965  
3469.000000	65.140342  
3468.000000	65.164923  
3467.000000	65.180301  
3466.000000	65.186405  
3465.000000	65.184473  
3464.000000	65.176630  
3463.000000	65.165424  
3462.000000	65.153384  
3461.000000	65.142488  
3460.000000	65.134453  
3459.000000	65.129971  
3458.000000	65.129160  
3457.000000	65.130782  
3456.000000	65.133166  
3455.000000	65.133666  
3454.000000	65.129566  
3453.000000	65.118217  
3452.000000	65.097904  
3451.000000	65.068387  
3450.000000	65.031003  
3449.000000	64.988780  
3448.000000	64.945840  
3447.000000	64.906787  
3446.000000	64.875793  
3445.000000	64.855766  
3444.000000	64.847946  
3443.000000	64.851546  
3442.000000	64.864230  
3441.000000	64.882898  
3440.000000	64.904594  
3439.000000	64.926695  
3438.000000	64.947438  
3437.000000	64.965534  
3436.000000	64.980268  
3435.000000	64.990711  
3434.000000	64.996051  
3433.000000	64.995718  
3432.000000	64.989495  
3431.000000	64.978265  
3430.000000	64.963555  
3429.000000	64.947628  
3428.000000	64.932727  
3427.000000	64.920878  
3426.000000	64.913105  
3425.000000	64.909315  
3424.000000	64.908218  
3423.000000	64.907836  
3422.000000	64.906024  
3421.000000	64.901089  
3420.000000	64.892148  
3419.000000	64.879369  
3418.000000	64.863729  
3417.000000	64.846515  
3416.000000	64.829254  
3415.000000	64.813208  
3414.000000	64.799356  
3413.000000	64.788365  
3412.000000	64.780902  
3411.000000	64.777445  
3410.000000	64.777803  
3409.000000	64.781451  
3408.000000	64.787149  
3407.000000	64.793562  
3406.000000	64.799141  
3405.000000	64.803099  
3404.000000	64.805269  
3403.000000	64.806532  
3402.000000	64.808630  
3401.000000	64.813661  
3400.000000	64.823389  
3399.000000	64.838528  
3398.000000	64.858579  
3397.000000	64.881587  
3396.000000	64.904713  
3395.000000	64.924740  
3394.000000	64.938879  
3393.000000	64.945578  
3392.000000	64.944863  
3391.000000	64.937973  
3390.000000	64.927291  
3389.000000	64.915561  
3388.000000	64.905476  
3387.000000	64.899206  
3386.000000	64.898371  
3385.000000	64.904117  
3384.000000	64.917111  
3383.000000	64.937448  
3382.000000	64.964509  
3381.000000	64.996933  
3380.000000	65.032196  
3379.000000	65.066909  
3378.000000	65.096926  
3377.000000	65.118169  
3376.000000	65.127277  
3375.000000	65.122818  
3374.000000	65.105366  
3373.000000	65.077877  
3372.000000	65.044713  
3371.000000	65.010952  
3370.000000	64.981055  
3369.000000	64.958095  
3368.000000	64.942955  
3367.000000	64.934659  
3366.000000	64.930868  
3365.000000	64.929032  
3364.000000	64.927124  
3363.000000	64.924454  
3362.000000	64.921689  
3361.000000	64.920449  
3360.000000	64.922547  
3359.000000	64.929151  
3358.000000	64.940285  
3357.000000	64.954519  
3356.000000	64.969491  
3355.000000	64.982295  
3354.000000	64.990711  
3353.000000	64.993476  
3352.000000	64.990544  
3351.000000	64.983010  
3350.000000	64.972376  
3349.000000	64.960479  
3348.000000	64.948844  
3347.000000	64.938664  
3346.000000	64.930462  
3345.000000	64.924550  
3344.000000	64.921283  
3343.000000	64.921212  
3342.000000	64.925003  
3341.000000	64.933443  
3340.000000	64.947080  
3339.000000	64.965963  
3338.000000	64.989352  
3337.000000	65.015530  
3336.000000	65.041756  
3335.000000	65.065050  
3334.000000	65.082907  
3333.000000	65.093708  
3332.000000	65.097403  
3331.000000	65.095496  
3330.000000	65.090990  
3329.000000	65.087628  
3328.000000	65.088963  
3327.000000	65.097618  
3326.000000	65.114283  
3325.000000	65.137815  
3324.000000	65.165162  
3323.000000	65.191984  
3322.000000	65.213584  
3321.000000	65.226244  
3320.000000	65.227675  
3319.000000	65.217447  
3318.000000	65.196681  
3317.000000	65.167832  
3316.000000	65.134143  
3315.000000	65.098667  
3314.000000	65.064477  
3313.000000	65.034437  
3312.000000	65.011143  
3311.000000	64.996957  
3310.000000	64.993906  
3309.000000	65.003371  
3308.000000	65.025448  
3307.000000	65.058684  
3306.000000	65.100049  
3305.000000	65.145206  
3304.000000	65.188908  
3303.000000	65.225863  
3302.000000	65.251302  
3301.000000	65.261912  
3300.000000	65.256214  
3299.000000	65.234589  
3298.000000	65.199136  
3297.000000	65.153145  
3296.000000	65.100407  
3295.000000	65.044522  
3294.000000	64.988827  
3293.000000	64.935612  
3292.000000	64.886760  
3291.000000	64.843487  
3290.000000	64.807248  
3289.000000	64.779233  
3288.000000	64.760351  
3287.000000	64.750719  
3286.000000	64.748954  
3285.000000	64.752697  
3284.000000	64.758419  
3283.000000	64.762449  
3282.000000	64.761519  
3281.000000	64.754247  
3280.000000	64.741563  
3279.000000	64.726305  
3278.000000	64.712357  
3277.000000	64.704179  
3276.000000	64.705371  
3275.000000	64.717340  
3274.000000	64.738607  
3273.000000	64.766097  
3272.000000	64.794874  
3271.000000	64.819049  
3270.000000	64.833092  
3269.000000	64.833521  
3268.000000	64.819049  
3267.000000	64.790105  
3266.000000	64.749240  
3265.000000	64.699935  
3264.000000	64.647150  
3263.000000	64.596557  
3262.000000	64.554333  
3261.000000	64.526128  
3260.000000	64.516615  
3259.000000	64.528346  
3258.000000	64.562034  
3257.000000	64.615845  
3256.000000	64.687180  
3255.000000	64.772939  
3254.000000	64.869832  
3253.000000	64.974808  
3252.000000	65.085101  
3251.000000	65.198636  
3250.000000	65.312767  
3249.000000	65.425682  
3248.000000	65.537357  
3247.000000	65.649580  
3246.000000	65.766334  
3245.000000	65.890884  
3244.000000	66.026592  
3243.000000	66.171479  
3242.000000	66.319727  
3241.000000	66.458368  
3240.000000	66.570734  
3239.000000	66.637969  
3238.000000	66.644597  
3237.000000	66.582393  
3236.000000	66.454577  
3235.000000	66.275858  
3234.000000	66.071581  
3233.000000	65.870594  
3232.000000	65.699863  
3231.000000	65.577578  
3230.000000	65.510129  
3229.000000	65.490913  
3228.000000	65.503406  
3227.000000	65.526151  
3226.000000	65.538358  
3225.000000	65.524554  
3224.000000	65.477848  
3223.000000	65.398859  
3222.000000	65.295290  
3221.000000	65.178513  
3220.000000	65.060710  
3219.000000	64.951467  
3218.000000	64.856529  
3217.000000	64.778161  
3216.000000	64.715456  
3215.000000	64.665818  
3214.000000	64.626526  
3213.000000	64.595746  
3212.000000	64.573311  
3211.000000	64.558887  
3210.000000	64.553570  
3209.000000	64.557933  
3208.000000	64.572739  
3207.000000	64.597368  
3206.000000	64.630699  
3205.000000	64.670705  
3204.000000	64.714932  
3203.000000	64.760398  
3202.000000	64.803957  
3201.000000	64.842319  
3200.000000	64.873456  
3199.000000	64.896631  
3198.000000	64.912509  
3197.000000	64.922809  
3196.000000	64.930605  
3195.000000	64.939403  
3194.000000	64.952373  
3193.000000	64.971351  
3192.000000	64.996719  
3191.000000	65.026974  
3190.000000	65.058708  
3189.000000	65.087532  
3188.000000	65.109825  
3187.000000	65.122818  
3186.000000	65.125393  
3185.000000	65.117859  
3184.000000	65.102624  
3183.000000	65.082597  
3182.000000	65.060544  
3181.000000	65.038156  
3180.000000	65.016150  
3179.000000	64.993548  
3178.000000	64.968538  
3177.000000	64.938998  
3176.000000	64.903283  
3175.000000	64.861226  
3174.000000	64.814448  
3173.000000	64.765858  
3172.000000	64.719271  
3171.000000	64.678692  
3170.000000	64.647865  
3169.000000	64.628982  
3168.000000	64.622807  
3167.000000	64.628767  
3166.000000	64.645481  
3165.000000	64.670681  
3164.000000	64.702129  
3163.000000	64.737296  
3162.000000	64.774084  
3161.000000	64.810228  
3160.000000	64.844131  
3159.000000	64.874362  
3158.000000	64.900445  
3157.000000	64.922451  
3156.000000	64.941167  
3155.000000	64.958047  
3154.000000	64.974355  
3153.000000	64.991402  
3152.000000	65.009021  
3151.000000	65.025973  
3150.000000	65.039563  
3149.000000	65.046811  
3148.000000	65.044617  
3147.000000	65.030908  
3146.000000	65.005612  
3145.000000	64.971065  
3144.000000	64.931368  
3143.000000	64.891672  
3142.000000	64.857435  
3141.000000	64.833211  
3140.000000	64.821171  
3139.000000	64.821004  
3138.000000	64.830207  
3137.000000	64.844655  
3136.000000	64.859700  
3135.000000	64.871168  
3134.000000	64.876246  
3133.000000	64.874124  
3132.000000	64.865708  
3131.000000	64.853692  
3130.000000	64.840745  
3129.000000	64.829945  
3128.000000	64.823698  
3127.000000	64.823579  
3126.000000	64.829969  
3125.000000	64.842391  
3124.000000	64.859580  
3123.000000	64.880180  
3122.000000	64.902663  
3121.000000	64.926195  
3120.000000	64.950561  
3119.000000	64.976119  
3118.000000	65.003442  
3117.000000	65.032935  
3116.000000	65.064311  
3115.000000	65.096306  
3114.000000	65.126776  
3113.000000	65.153264  
3112.000000	65.173363  
3111.000000	65.185689  
3110.000000	65.189814  
3109.000000	65.186595  
3108.000000	65.177583  
3107.000000	65.164971  
3106.000000	65.150642  
3105.000000	65.135955  
3104.000000	65.121197  
3103.000000	65.105962  
3102.000000	65.089178  
3101.000000	65.069961  
3100.000000	65.047836  
3099.000000	65.023207  
3098.000000	64.997458  
3097.000000	64.972496  
3096.000000	64.950561  
3095.000000	64.933371  
3094.000000	64.922022  
3093.000000	64.916419  
3092.000000	64.915513  
3091.000000	64.917492  
3090.000000	64.920020  
3089.000000	64.920997  
3088.000000	64.918947  
3087.000000	64.913487  
3086.000000	64.905476  
3085.000000	64.896774  
3084.000000	64.889836  
3083.000000	64.886951  
3082.000000	64.889597  
3081.000000	64.898061  
3080.000000	64.910793  
3079.000000	64.925050  
3078.000000	64.937829  
3077.000000	64.946222  
3076.000000	64.948391  
3075.000000	64.943909  
3074.000000	64.933824  
3073.000000	64.920377  
3072.000000	64.906358  
3071.000000	64.894366  
3070.000000	64.886116  
3069.000000	64.882469  
3068.000000	64.883279  
3067.000000	64.888000  
3066.000000	64.896059  
3065.000000	64.907288  
3064.000000	64.922213  
3063.000000	64.941573  
3062.000000	64.966058  
3061.000000	64.995646  
3060.000000	65.029311  
3059.000000	65.064859  
3058.000000	65.099310  
3057.000000	65.129113  
3056.000000	65.150690  
3055.000000	65.161561  
3054.000000	65.160107  
3053.000000	65.146493  
3052.000000	65.122079  
3051.000000	65.089583  
3050.000000	65.052366  
3049.000000	65.014314  
3048.000000	64.978790  
3047.000000	64.948797  
3046.000000	64.926171  
3045.000000	64.911866  
3044.000000	64.905571  
3043.000000	64.906048  
3042.000000	64.911246  
3041.000000	64.918875  
3040.000000	64.926528  
3039.000000	64.932322  
3038.000000	64.934802  
3037.000000	64.933133  
3036.000000	64.927029  
3035.000000	64.916443  
3034.000000	64.901518  
3033.000000	64.882206  
3032.000000	64.858603  
3031.000000	64.831042  
3030.000000	64.800024  
3029.000000	64.766907  
3028.000000	64.733481  
3027.000000	64.702296  
3026.000000	64.676094  
3025.000000	64.657425  
3024.000000	64.648079  
3023.000000	64.648985  
3022.000000	64.659714  
3021.000000	64.678978  
3020.000000	64.704513  
3019.000000	64.733910  
3018.000000	64.764881  
3017.000000	64.795327  
3016.000000	64.823293  
3015.000000	64.847183  
3014.000000	64.865756  
3013.000000	64.877891  
3012.000000	64.882683  
3011.000000	64.879846  
3010.000000	64.869976  
3009.000000	64.854407  
3008.000000	64.835047  
3007.000000	64.814472  
3006.000000	64.795351  
3005.000000	64.779996  
3004.000000	64.770174  
3003.000000	64.766645  
3002.000000	64.769244  
3001.000000	64.776921  
3000.000000	64.788198  
2999.000000	64.801502  
2998.000000	64.815568  
2997.000000	64.829421  
2996.000000	64.842796  
2995.000000	64.855623  
2994.000000	64.868330  
2993.000000	64.881372  
2992.000000	64.895248  
2991.000000	64.910054  
2990.000000	64.925956  
2989.000000	64.943170  
2988.000000	64.961934  
2987.000000	64.982223  
2986.000000	65.004158  
2985.000000	65.027928  
2984.000000	65.053248  
2983.000000	65.079069  
2982.000000	65.103888  
2981.000000	65.125536  
2980.000000	65.141773  
2979.000000	65.150403  
2978.000000	65.149950  
2977.000000	65.139937  
2976.000000	65.121579  
2975.000000	65.097355  
2974.000000	65.070772  
2973.000000	65.045189  
2972.000000	65.023803  
2971.000000	65.008211  
2970.000000	64.998388  
2969.000000	64.992070  
2968.000000	64.985895  
2967.000000	64.975547  
2966.000000	64.957308  
2965.000000	64.928555  
2964.000000	64.888477  
2963.000000	64.838171  
2962.000000	64.780473  
2961.000000	64.719176  
2960.000000	64.658164  
2959.000000	64.600896  
2958.000000	64.550018  
2957.000000	64.507222  
2956.000000	64.473533  
2955.000000	64.449715  
2954.000000	64.436554  
2953.000000	64.434909  
2952.000000	64.445710  
2951.000000	64.469242  
2950.000000	64.505171  
2949.000000	64.551472  
2948.000000	64.604878  
2947.000000	64.660453  
2946.000000	64.712715  
2945.000000	64.756441  
2944.000000	64.787507  
2943.000000	64.803934  
2942.000000	64.805793  
2941.000000	64.795780  
2940.000000	64.777684  
2939.000000	64.755845  
2938.000000	64.733982  
2937.000000	64.714622  
2936.000000	64.698767  
2935.000000	64.686346  
2934.000000	64.676618  
2933.000000	64.669013  
2932.000000	64.663219  
2931.000000	64.659428  
2930.000000	64.658546  
2929.000000	64.661765  
2928.000000	64.670085  
2927.000000	64.683985  
2926.000000	64.703631  
2925.000000	64.728522  
2924.000000	64.757394  
2923.000000	64.788603  
2922.000000	64.820241  
2921.000000	64.850282  
2920.000000	64.876842  
2919.000000	64.898204  
2918.000000	64.912962  
2917.000000	64.919877  
2916.000000	64.918470  
2915.000000	64.908313  
2914.000000	64.889740  
2913.000000	64.863133  
2912.000000	64.829587  
2911.000000	64.790368  
2910.000000	64.747309  
2909.000000	64.702558  
2908.000000	64.658737  
2907.000000	64.618754  
2906.000000	64.585542  
2905.000000	64.561796  
2904.000000	64.549350  
2903.000000	64.549016  
2902.000000	64.560365  
2901.000000	64.581799  
2900.000000	64.610958  
2899.000000	64.644861  
2898.000000	64.680480  
2897.000000	64.714980  
2896.000000	64.746260  
2895.000000	64.772653  
2894.000000	64.793157  
2893.000000	64.807200  
2892.000000	64.814615  
2891.000000	64.815473  
2890.000000	64.810276  
2889.000000	64.800095  
2888.000000	64.786458  
2887.000000	64.771676  
2886.000000	64.757990  
2885.000000	64.747762  
2884.000000	64.742708  
2883.000000	64.743900  
2882.000000	64.751362  
2881.000000	64.764285  
2880.000000	64.781069  
2879.000000	64.799928  
2878.000000	64.818811  
2877.000000	64.835548  
2876.000000	64.848279  
2875.000000	64.855575  
2874.000000	64.856457  
2873.000000	64.850854  
2872.000000	64.839386  
2871.000000	64.823508  
2870.000000	64.805412  
2869.000000	64.787721  
2868.000000	64.772915  
2867.000000	64.762878  
2866.000000	64.758944  
2865.000000	64.761519  
2864.000000	64.769625  
2863.000000	64.781785  
2862.000000	64.796066  
2861.000000	64.810895  
2860.000000	64.825129  
2859.000000	64.838433  
2858.000000	64.851307  
2857.000000	64.864778  
2856.000000	64.879894  
2855.000000	64.897179  
2854.000000	64.916396  
2853.000000	64.936280  
2852.000000	64.954805  
2851.000000	64.969491  
2850.000000	64.978146  
2849.000000	64.979267  
2848.000000	64.972710  
2847.000000	64.959502  
2846.000000	64.941692  
2845.000000	64.921951  
2844.000000	64.902853  
2843.000000	64.886116  
2842.000000	64.872217  
2841.000000	64.860606  
2840.000000	64.849972  
2839.000000	64.838695  
2838.000000	64.825367  
2837.000000	64.809608  
2836.000000	64.791822  
2835.000000	64.773154  
2834.000000	64.755201  
2833.000000	64.739227  
2832.000000	64.726138  
2831.000000	64.716148  
2830.000000	64.708662  
2829.000000	64.702582  
2828.000000	64.696836  
2827.000000	64.690470  
2826.000000	64.683079  
2825.000000	64.674735  
2824.000000	64.666485  
2823.000000	64.659929  
2822.000000	64.657139  
2821.000000	64.660191  
2820.000000	64.670991  
2819.000000	64.690566  
2818.000000	64.719104  
2817.000000	64.755439  
2816.000000	64.797091  
2815.000000	64.840197  
2814.000000	64.880394  
2813.000000	64.913392  
2812.000000	64.935541  
2811.000000	64.944505  
2810.000000	64.940142  
2809.000000	64.924073  
2808.000000	64.899539  
2807.000000	64.870548  
2806.000000	64.841246  
2805.000000	64.814996  
2804.000000	64.794278  
2803.000000	64.779877  
2802.000000	64.771485  
2801.000000	64.767646  
2800.000000	64.766550  
2799.000000	64.766240  
2798.000000	64.765238  
2797.000000	64.763069  
2796.000000	64.760065  
2795.000000	64.757490  
2794.000000	64.757061  
2793.000000	64.760589  
2792.000000	64.769649  
2791.000000	64.785218  
2790.000000	64.807391  
2789.000000	64.835524  
2788.000000	64.868140  
2787.000000	64.903259  
2786.000000	64.938569  
2785.000000	64.971685  
2784.000000	65.000081  
2783.000000	65.021586  
2782.000000	65.034222  
2781.000000	65.036821  
2780.000000	65.028905  
2779.000000	65.010881  
2778.000000	64.984059  
2777.000000	64.950871  
2776.000000	64.914417  
2775.000000	64.878368  
2774.000000	64.846324  
2773.000000	64.821338  
2772.000000	64.805507  
2771.000000	64.799666  
2770.000000	64.803171  
2769.000000	64.814090  
2768.000000	64.829468  
2767.000000	64.845991  
2766.000000	64.860701  
2765.000000	64.871716  
2764.000000	64.878344  
2763.000000	64.881229  
2762.000000	64.882111  
2761.000000	64.883470  
2760.000000	64.887595  
2759.000000	64.896059  
2758.000000	64.909410  
2757.000000	64.926743  
2756.000000	64.946007  
2755.000000	64.964008  
2754.000000	64.977526  
2753.000000	64.983725  
2752.000000	64.980649  
2751.000000	64.968085  
2750.000000	64.947366  
2749.000000	64.921617  
2748.000000	64.894795  
2747.000000	64.871215  
2746.000000	64.854359  
2745.000000	64.846253  
2744.000000	64.847302  
2743.000000	64.855647  
2742.000000	64.867734  
2741.000000	64.879369  
2740.000000	64.886641  
2739.000000	64.886856  
2738.000000	64.879369  
2737.000000	64.865279  
2736.000000	64.847207  
2735.000000	64.828586  
2734.000000	64.812374  
2733.000000	64.800357  
2732.000000	64.792609  
2731.000000	64.788103  
2730.000000	64.784789  
2729.000000	64.780879  
2728.000000	64.775133  
2727.000000	64.767503  
2726.000000	64.759111  
2725.000000	64.751577  
2724.000000	64.746737  
2723.000000	64.745712  
2722.000000	64.748787  
2721.000000	64.755225  
2720.000000	64.763808  
2719.000000	64.773130  
2718.000000	64.782452  
2717.000000	64.792084  
2716.000000	64.802813  
2715.000000	64.815592  
2714.000000	64.830899  
2713.000000	64.848399  
2712.000000	64.866399  
2711.000000	64.882087  
2710.000000	64.892339  
2709.000000	64.894199  
2708.000000	64.885926  
2707.000000	64.867496  
2706.000000	64.840793  
2705.000000	64.809107  
2704.000000	64.776396  
2703.000000	64.746737  
2702.000000	64.723181  
2701.000000	64.707374  
2700.000000	64.699459  
2699.000000	64.698386  
2698.000000	64.702272  
2697.000000	64.709353  
2696.000000	64.718151  
2695.000000	64.728164  
2694.000000	64.739322  
2693.000000	64.752316  
2692.000000	64.767837  
2691.000000	64.786338  
2690.000000	64.807629  
2689.000000	64.830899  
2688.000000	64.854741  
2687.000000	64.877319  
2686.000000	64.896702  
2685.000000	64.911222  
2684.000000	64.919614  
2683.000000	64.921212  
2682.000000	64.915919  
2681.000000	64.904379  
2680.000000	64.887905  
2679.000000	64.868068  
2678.000000	64.846777  
2677.000000	64.826130  
2676.000000	64.808058  
2675.000000	64.794063  
2674.000000	64.785194  
2673.000000	64.781737  
2672.000000	64.783358  
2671.000000	64.789080  
2670.000000	64.797687  
2669.000000	64.807629  
2668.000000	64.817690  
2667.000000	64.826846  
2666.000000	64.834880  
2665.000000	64.841985  
2664.000000	64.848947  
2663.000000	64.856529  
2662.000000	64.865398  
2661.000000	64.875674  
2660.000000	64.886832  
2659.000000	64.897632  
2658.000000	64.906311  
2657.000000	64.910721  
2656.000000	64.908742  
2655.000000	64.898729  
2654.000000	64.879822  
2653.000000	64.852237  
2652.000000	64.817214  
2651.000000	64.777040  
2650.000000	64.734601  
2649.000000	64.693140  
2648.000000	64.655876  
2647.000000	64.625644  
2646.000000	64.604353  
2645.000000	64.592766  
2644.000000	64.590454  
2643.000000	64.595723  
2642.000000	64.605832  
2641.000000	64.617633  
2640.000000	64.627957  
2639.000000	64.634633  
2638.000000	64.636635  
2637.000000	64.634728  
2636.000000	64.630770  
2635.000000	64.627575  
2634.000000	64.627933  
2633.000000	64.633774  
2632.000000	64.645504  
2631.000000	64.662051  
2630.000000	64.681148  
2629.000000	64.699840  
2628.000000	64.715433  
2627.000000	64.726519  
2626.000000	64.733338  
2625.000000	64.737510  
2624.000000	64.741683  
2623.000000	64.748501  
2622.000000	64.759731  
2621.000000	64.775705  
2620.000000	64.795041  
2619.000000	64.815044  
2618.000000	64.832139  
2617.000000	64.843392  
2616.000000	64.846825  
2615.000000	64.841985  
2614.000000	64.829993  
2613.000000	64.813208  
2612.000000	64.794540  
2611.000000	64.776682  
2610.000000	64.761614  
2609.000000	64.750170  
2608.000000	64.741969  
2607.000000	64.735817  
2606.000000	64.729905  
2605.000000	64.722490  
2604.000000	64.712023  
2603.000000	64.697742  
2602.000000	64.679384  
2601.000000	64.657616  
2600.000000	64.633798  
2599.000000	64.609956  
2598.000000	64.588451  
2597.000000	64.571619  
2596.000000	64.561510  
2595.000000	64.559221  
2594.000000	64.564943  
2593.000000	64.577507  
2592.000000	64.594650  
2591.000000	64.613342  
2590.000000	64.630317  
2589.000000	64.642691  
2588.000000	64.648556  
2587.000000	64.647340  
2586.000000	64.639663  
2585.000000	64.627528  
2584.000000	64.613533  
2583.000000	64.600324  
2582.000000	64.590120  
2581.000000	64.583969  
2580.000000	64.581561  
2579.000000	64.581513  
2578.000000	64.581918  
2577.000000	64.580631  
2576.000000	64.575934  
2575.000000	64.567184  
2574.000000	64.555144  
2573.000000	64.541697  
2572.000000	64.529609  
2571.000000	64.522027  
2570.000000	64.521765  
2569.000000	64.530730  
2568.000000	64.549565  
2567.000000	64.577341  
2566.000000	64.611530  
2565.000000	64.648532  
2564.000000	64.683985  
2563.000000	64.713478  
2562.000000	64.733219  
2561.000000	64.740633  
2560.000000	64.735054  
2559.000000	64.717531  
2558.000000	64.690995  
2557.000000	64.659619  
2556.000000	64.628267  
2555.000000	64.601778  
2554.000000	64.584064  
2553.000000	64.577627  
2552.000000	64.583182  
2551.000000	64.599847  
2550.000000	64.625263  
2549.000000	64.656066  
2548.000000	64.688682  
2547.000000	64.719772  
2546.000000	64.746356  
2545.000000	64.766430  
2544.000000	64.778661  
2543.000000	64.782285  
2542.000000	64.776968  
2541.000000	64.762735  
2540.000000	64.740228  
2539.000000	64.710307  
2538.000000	64.674448  
2537.000000	64.634847  
2536.000000	64.594316  
2535.000000	64.556121  
2534.000000	64.523792  
2533.000000	64.500451  
2532.000000	64.488124  
2531.000000	64.487624  
2530.000000	64.498424  
2529.000000	64.518547  
2528.000000	64.544892  
2527.000000	64.574074  
2526.000000	64.603185  
2525.000000	64.629983  
2524.000000	64.653539  
2523.000000	64.674067  
2522.000000	64.692497  
2521.000000	64.710187  
2520.000000	64.728093  
2519.000000	64.746284  
2518.000000	64.763927  
2517.000000	64.779591  
2516.000000	64.791560  
2515.000000	64.798855  
2514.000000	64.801430  
2513.000000	64.800715  
2512.000000	64.798808  
2511.000000	64.798402  
2510.000000	64.801359  
2509.000000	64.808726  
2508.000000	64.819574  
2507.000000	64.831447  
2506.000000	64.840650  
2505.000000	64.843559  
2504.000000	64.837288  
2503.000000	64.820265  
2502.000000	64.792847  
2501.000000	64.757251  
2500.000000	64.716839  
2499.000000	64.675736  
2498.000000	64.637613  
2497.000000	64.605212  
2496.000000	64.580321  
2495.000000	64.563798  
2494.000000	64.555525  
2493.000000	64.554882  
2492.000000	64.561080  
2491.000000	64.573240  
2490.000000	64.590167  
2489.000000	64.610457  
2488.000000	64.632248  
2487.000000	64.653730  
2486.000000	64.672923  
2485.000000	64.688444  
2484.000000	64.699459  
2483.000000	64.706397  
2482.000000	64.710450  
2481.000000	64.713597  
2480.000000	64.718079  
2479.000000	64.725565  
2478.000000	64.736890  
2477.000000	64.751315  
2476.000000	64.766740  
2475.000000	64.779853  
2474.000000	64.787125  
2473.000000	64.785504  
2472.000000	64.773201  
2471.000000	64.750266  
2470.000000	64.718604  
2469.000000	64.681553  
2468.000000	64.643192  
2467.000000	64.607667  
2466.000000	64.578318  
2465.000000	64.557027  
2464.000000	64.544296  
2463.000000	64.539337  
2462.000000	64.540505  
2461.000000	64.545679  
2460.000000	64.552950  
2459.000000	64.560556  
2458.000000	64.567565  
2457.000000	64.573216  
2456.000000	64.577484  
2455.000000	64.580321  
2454.000000	64.581894  
2453.000000	64.582586  
2452.000000	64.582896  
2451.000000	64.583516  
2450.000000	64.585018  
2449.000000	64.587688  
2448.000000	64.591431  
2447.000000	64.595937  
2446.000000	64.600372  
2445.000000	64.603614  
2444.000000	64.604711  
2443.000000	64.603042  
2442.000000	64.598274  
2441.000000	64.590692  
2440.000000	64.581060  
2439.000000	64.570569  
2438.000000	64.560604  
2437.000000	64.552497  
2436.000000	64.547324  
2435.000000	64.545774  
2434.000000	64.547681  
2433.000000	64.552187  
2432.000000	64.558029  
2431.000000	64.563918  
2430.000000	64.568662  
2429.000000	64.571809  
2428.000000	64.573311  
2427.000000	64.574098  
2426.000000	64.575552  
2425.000000	64.579510  
2424.000000	64.587283  
2423.000000	64.599847  
2422.000000	64.617466  
2421.000000	64.639711  
2420.000000	64.665555  
2419.000000	64.693808  
2418.000000	64.723443  
2417.000000	64.753532  
2416.000000	64.783501  
2415.000000	64.812660  
2414.000000	64.840054  
2413.000000	64.864420  
2412.000000	64.884138  
2411.000000	64.897823  
2410.000000	64.904356  
2409.000000	64.903783  
2408.000000	64.896702  
2407.000000	64.884877  
2406.000000	64.870309  
2405.000000	64.855194  
2404.000000	64.841032  
2403.000000	64.828515  
2402.000000	64.817166  
2401.000000	64.805746  
2400.000000	64.792418  
2399.000000	64.775586  
2398.000000	64.753985  
2397.000000	64.727330  
2396.000000	64.696407  
2395.000000	64.662885  
2394.000000	64.629220  
2393.000000	64.597892  
2392.000000	64.571428  
2391.000000	64.551806  
2390.000000	64.540147  
2389.000000	64.536571  
2388.000000	64.540052  
2387.000000	64.548850  
2386.000000	64.560246  
2385.000000	64.571499  
2384.000000	64.580178  
2383.000000	64.584779  
2382.000000	64.584803  
2381.000000	64.580678  
2380.000000	64.573669  
2379.000000	64.565300  
2378.000000	64.556860  
2377.000000	64.549016  
2376.000000	64.542031  
2375.000000	64.535403  
2374.000000	64.528536  
2373.000000	64.520812  
2372.000000	64.511823  
2371.000000	64.501762  
2370.000000	64.491367  
2369.000000	64.481925  
2368.000000	64.474701  
2367.000000	64.470982  
2366.000000	64.471650  
2365.000000	64.477014  
2364.000000	64.486575  
2363.000000	64.499163  
2362.000000	64.513111  
2361.000000	64.526438  
2360.000000	64.537024  
2359.000000	64.543080  
2358.000000	64.543461  
2357.000000	64.538168  
2356.000000	64.528250  
2355.000000	64.515638  
2354.000000	64.502692  
2353.000000	64.491820  
2352.000000	64.484834  
2351.000000	64.482617  
2350.000000	64.485049  
2349.000000	64.491128  
2348.000000	64.499354  
2347.000000	64.508414  
2346.000000	64.517545  
2345.000000	64.526629  
2344.000000	64.536213  
2343.000000	64.547324  
2342.000000	64.560985  
2341.000000	64.577364  
2340.000000	64.596056  
2339.000000	64.615702  
2338.000000	64.634418  
2337.000000	64.650154  
2336.000000	64.661026  
2335.000000	64.665627  
2334.000000	64.662885  
2333.000000	64.652037  
2332.000000	64.632487  
2331.000000	64.603996  
2330.000000	64.566850  
2329.000000	64.522480  
2328.000000	64.473342  
2327.000000	64.423251  
2326.000000	64.376783  
2325.000000	64.339113  
2324.000000	64.314532  
2323.000000	64.306068  
2322.000000	64.314603  
2321.000000	64.338850  
2320.000000	64.375233  
2319.000000	64.419054  
2318.000000	64.465165  
2317.000000	64.509057  
2316.000000	64.547443  
2315.000000	64.578485  
2314.000000	64.601683  
2313.000000	64.617419  
2312.000000	64.626550  
2311.000000	64.630007  
2310.000000	64.628601  
2309.000000	64.623188  
2308.000000	64.614605  
2307.000000	64.603781  
2306.000000	64.591455  
2305.000000	64.578461  
2304.000000	64.565467  
2303.000000	64.553070  
2302.000000	64.541554  
2301.000000	64.531064  
2300.000000	64.521503  
2299.000000	64.512634  
2298.000000	64.503931  
2297.000000	64.495134  
2296.000000	64.486122  
2295.000000	64.476585  
2294.000000	64.466667  
2293.000000	64.456844  
2292.000000	64.447903  
2291.000000	64.440822  
2290.000000	64.436650  
2289.000000	64.436316  
2288.000000	64.440250  
2287.000000	64.448261  
2286.000000	64.459252  
2285.000000	64.471364  
2284.000000	64.482641  
2283.000000	64.491224  
2282.000000	64.495897  
2281.000000	64.496302  
2280.000000	64.492797  
2279.000000	64.486336  
2278.000000	64.478230  
2277.000000	64.469647  
2276.000000	64.461755  
2275.000000	64.455413  
2274.000000	64.451265  
2273.000000	64.449906  
2272.000000	64.451909  
2271.000000	64.457654  
2270.000000	64.467477  
2269.000000	64.481592  
2268.000000	64.499783  
2267.000000	64.521408  
2266.000000	64.545416  
2265.000000	64.570379  
2264.000000	64.594531  
2263.000000	64.616131  
2262.000000	64.633798  
2261.000000	64.646649  
2260.000000	64.654517  
2259.000000	64.657950  
2258.000000	64.658093  
2257.000000	64.656496  
2256.000000	64.654731  
2255.000000	64.653921  
2254.000000	64.654421  
2253.000000	64.655828  
2252.000000	64.656805  
2251.000000	64.655542  
2250.000000	64.650034  
2249.000000	64.638805  
2248.000000	64.621448  
2247.000000	64.598560  
2246.000000	64.572191  
2245.000000	64.545488  
2244.000000	64.521980  
2243.000000	64.504790  
2242.000000	64.496135  
2241.000000	64.497041  
2240.000000	64.507079  
2239.000000	64.524316  
2238.000000	64.546298  
2237.000000	64.570260  
2236.000000	64.594149  
2235.000000	64.616370  
2234.000000	64.636325  
2233.000000	64.654088  
2232.000000	64.669775  
2231.000000	64.683341  
2230.000000	64.694118  
2229.000000	64.700794  
2228.000000	64.701867  
2227.000000	64.696049  
2226.000000	64.682984  
2225.000000	64.663362  
2224.000000	64.639306  
2223.000000	64.613580  
2222.000000	64.589118  
2221.000000	64.567995  
2220.000000	64.550876  
2219.000000	64.537119  
2218.000000	64.524817  
2217.000000	64.511799  
2216.000000	64.496374  
2215.000000	64.477777  
2214.000000	64.456343  
2213.000000	64.433670  
2212.000000	64.411926  
2211.000000	64.393615  
2210.000000	64.380455  
2209.000000	64.373612  
2208.000000	64.373183  
2207.000000	64.378714  
2206.000000	64.389348  
2205.000000	64.404296  
2204.000000	64.423131  
2203.000000	64.445471  
2202.000000	64.470505  
2201.000000	64.497375  
2200.000000	64.524626  
2199.000000	64.550113  
2198.000000	64.571094  
2197.000000	64.585065  
2196.000000	64.590263  
2195.000000	64.585757  
2194.000000	64.572143  
2193.000000	64.551854  
2192.000000	64.529013  
2191.000000	64.508104  
2190.000000	64.493751  
2189.000000	64.490103  
2188.000000	64.499592  
2187.000000	64.522957  
2186.000000	64.558386  
2185.000000	64.601540  
2184.000000	64.646959  
2183.000000	64.688873  
2182.000000	64.722919  
2181.000000	64.746165  
2180.000000	64.759421  
2179.000000	64.766693  
2178.000000	64.774966  
2177.000000	64.792060  
2176.000000	64.825677  
2175.000000	64.881396  
2174.000000	64.960575  
2173.000000	65.059995  
2172.000000	65.172052  
2171.000000	65.286731  
2170.000000	65.393757  
2169.000000	65.485453  
2168.000000	65.559673  
2167.000000	65.619707  
2166.000000	65.674090  
2165.000000	65.732073  
2164.000000	65.801382  
2163.000000	65.883231  
2162.000000	65.972161  
2161.000000	66.054797  
2160.000000	66.114449  
2159.000000	66.133475  
2158.000000	66.100215  
2157.000000	66.010212  
2156.000000	65.869641  
2155.000000	65.692496  
2154.000000	65.498352  
2153.000000	65.307188  
2152.000000	65.135622  
2151.000000	64.993739  
2150.000000	64.883971  
2149.000000	64.803171  
2148.000000	64.745545  
2147.000000	64.704990  
2146.000000	64.677596  
2145.000000	64.661526  
2144.000000	64.656949  
2143.000000	64.662981  
2142.000000	64.677548  
2141.000000	64.696574  
2140.000000	64.714932  
2139.000000	64.727020  
2138.000000	64.728546  
2137.000000	64.717960  
2136.000000	64.696455  
2135.000000	64.667391  
2134.000000	64.635229  
2133.000000	64.604258  
2132.000000	64.577317  
2131.000000	64.554977  
2130.000000	64.535737  
2129.000000	64.516687  
2128.000000	64.494466  
2127.000000	64.467000  
2126.000000	64.433765  
2125.000000	64.396119  
2124.000000	64.357328  
2123.000000	64.321708  
2122.000000	64.293813  
2121.000000	64.276862  
2120.000000	64.273142  
2119.000000	64.283394  
2118.000000	64.306116  
2117.000000	64.337968  
2116.000000	64.374423  
2115.000000	64.410758  
2114.000000	64.442849  
2113.000000	64.467811  
2112.000000	64.484691  
2111.000000	64.493846  
2110.000000	64.496564  
2109.000000	64.494419  
2108.000000	64.488601  
2107.000000	64.479851  
2106.000000	64.468789  
2105.000000	64.455914  
2104.000000	64.442396  
2103.000000	64.429736  
2102.000000	64.419817  
2101.000000	64.414334  
2100.000000	64.414525  
2099.000000	64.420580  
2098.000000	64.431285  
2097.000000	64.444208  
2096.000000	64.456248  
2095.000000	64.464211  
2094.000000	64.465451  
2093.000000	64.458584  
2092.000000	64.443969  
2091.000000	64.423274  
2090.000000	64.399194  
2089.000000	64.374971  
2088.000000	64.353537  
2087.000000	64.337038  
2086.000000	64.326429  
2085.000000	64.321446  
2084.000000	64.320826  
2083.000000	64.322805  
2082.000000	64.325571  
2081.000000	64.327192  
2080.000000	64.326620  
2079.000000	64.323329  
2078.000000	64.317750  
2077.000000	64.310765  
2076.000000	64.303827  
2075.000000	64.298391  
2074.000000	64.295840  
2073.000000	64.297223  
2072.000000	64.303040  
2071.000000	64.313101  
2070.000000	64.326620  
2069.000000	64.342379  
2068.000000	64.358925  
2067.000000	64.374518  
2066.000000	64.387965  
2065.000000	64.398622  
2064.000000	64.406633  
2063.000000	64.412856  
2062.000000	64.418649  
2061.000000	64.425230  
2060.000000	64.433765  
2059.000000	64.444327  
2058.000000	64.456152  
2057.000000	64.467477  
2056.000000	64.475917  
2055.000000	64.478993  
2054.000000	64.475035  
2053.000000	64.463353  
2052.000000	64.445018  
2051.000000	64.422345  
2050.000000	64.398550  
2049.000000	64.377069  
2048.000000	64.360475  
2047.000000	64.350533  
2046.000000	64.347481  
2045.000000	64.350938  
2044.000000	64.359998  
2043.000000	64.374375  
2042.000000	64.394116  
2041.000000	64.419817  
2040.000000	64.452075  
2039.000000	64.490389  
2038.000000	64.532828  
2037.000000	64.575624  
2036.000000	64.613604  
2035.000000	64.640903  
2034.000000	64.652347  
2033.000000	64.645028  
2032.000000	64.618849  
2031.000000	64.577174  
2030.000000	64.525818  
2029.000000	64.472150  
2028.000000	64.423346  
2027.000000	64.384913  
2026.000000	64.359641  
2025.000000	64.347767  
2024.000000	64.347267  
2023.000000	64.354896  
2022.000000	64.367079  
2021.000000	64.380931  
2020.000000	64.394712  
2019.000000	64.407634  
2018.000000	64.419937  
2017.000000	64.431810  
2016.000000	64.443516  
2015.000000	64.454627  
2014.000000	64.464354  
2013.000000	64.471745  
2012.000000	64.475965  
2011.000000	64.476704  
2010.000000	64.474201  
2009.000000	64.469051  
2008.000000	64.462065  
2007.000000	64.453768  
2006.000000	64.444398  
2005.000000	64.433693  
2004.000000	64.421129  
2003.000000	64.405870  
2002.000000	64.387464  
2001.000000	64.365959  
2000.000000	64.341974  
1999.000000	64.317154  
1998.000000	64.293766  
1997.000000	64.274525  
1996.000000	64.262151  
1995.000000	64.258837  
1994.000000	64.265489  
1993.000000	64.281654  
1992.000000	64.305448  
1991.000000	64.333701  
1990.000000	64.362716  
1989.000000	64.388895  
1988.000000	64.409208  
1987.000000	64.421939  
1986.000000	64.426660  
1985.000000	64.424347  
1984.000000	64.417004  
1983.000000	64.407181  
1982.000000	64.397263  
1981.000000	64.389204  
1980.000000	64.383959  
1979.000000	64.381694  
1978.000000	64.381670  
1977.000000	64.382767  
1976.000000	64.383673  
1975.000000	64.383411  
1974.000000	64.381194  
1973.000000	64.376950  
1972.000000	64.371013  
1971.000000	64.364123  
1970.000000	64.357089  
1969.000000	64.350628  
1968.000000	64.345431  
1967.000000	64.341592  
1966.000000	64.339256  
1965.000000	64.338302  
1964.000000	64.339041  
1963.000000	64.341878  
1962.000000	64.347553  
1961.000000	64.356756  
1960.000000	64.370083  
1959.000000	64.387583  
1958.000000	64.408397  
1957.000000	64.430809  
1956.000000	64.452409  
1955.000000	64.470624  
1954.000000	64.483022  
1953.000000	64.488029  
1952.000000	64.485335  
1951.000000	64.475917  
1950.000000	64.461946  
1949.000000	64.446115  
1948.000000	64.431095  
1947.000000	64.418888  
1946.000000	64.410543  
1945.000000	64.406013  
1944.000000	64.404463  
1943.000000	64.404702  
1942.000000	64.405584  
1941.000000	64.406514  
1940.000000	64.407515  
1939.000000	64.409041  
1938.000000	64.411807  
1937.000000	64.416122  
1936.000000	64.421701  
1935.000000	64.427638  
1934.000000	64.432334  
1933.000000	64.433979  
1932.000000	64.431142  
1931.000000	64.422941  
1930.000000	64.409375  
1929.000000	64.391446  
1928.000000	64.370918  
1927.000000	64.349770  
1926.000000	64.329719  
1925.000000	64.312100  
1924.000000	64.297604  
1923.000000	64.286208  
1922.000000	64.277458  
1921.000000	64.270997  
1920.000000	64.266419  
1919.000000	64.263749  
1918.000000	64.263367  
1917.000000	64.265680  
1916.000000	64.271283  
1915.000000	64.280343  
1914.000000	64.292740  
1913.000000	64.308023  
1912.000000	64.325332  
1911.000000	64.343667  
1910.000000	64.361882  
1909.000000	64.378833  
1908.000000	64.393305  
1907.000000	64.404296  
1906.000000	64.410710  
1905.000000	64.411735  
1904.000000	64.406609  
1903.000000	64.395260  
1902.000000	64.378118  
1901.000000	64.356207  
1900.000000	64.331412  
1899.000000	64.306116  
1898.000000	64.282703  
1897.000000	64.263415  
1896.000000	64.249897  
1895.000000	64.242863  
1894.000000	64.242124  
1893.000000	64.246463  
1892.000000	64.254069  
1891.000000	64.262819  
1890.000000	64.270806  
1889.000000	64.276695  
1888.000000	64.279770  
1887.000000	64.280319  
1886.000000	64.279127  
1885.000000	64.277553  
1884.000000	64.276957  
1883.000000	64.278340  
1882.000000	64.282298  
1881.000000	64.288592  
1880.000000	64.296364  
1879.000000	64.304232  
1878.000000	64.310884  
1877.000000	64.315176  
1876.000000	64.316678  
1875.000000	64.315986  
1874.000000	64.314603  
1873.000000	64.314603  
1872.000000	64.317965  
1871.000000	64.326071  
1870.000000	64.338994  
1869.000000	64.355325  
1868.000000	64.372229  
1867.000000	64.386200  
1866.000000	64.394068  
1865.000000	64.393663  
1864.000000	64.384841  
1863.000000	64.369249  
1862.000000	64.350318  
1861.000000	64.332532  
1860.000000	64.320135  
1859.000000	64.316201  
1858.000000	64.321589  
1857.000000	64.335036  
1856.000000	64.353299  
1855.000000	64.372372  
1854.000000	64.388108  
1853.000000	64.397311  
1852.000000	64.398336  
1851.000000	64.391064  
1850.000000	64.376640  
1849.000000	64.356899  
1848.000000	64.333629  
1847.000000	64.308023  
1846.000000	64.280700  
1845.000000	64.251708  
1844.000000	64.220738  
1843.000000	64.187765  
1842.000000	64.153289  
1841.000000	64.118838  
1840.000000	64.086484  
1839.000000	64.059090  
1838.000000	64.039349  
1837.000000	64.029645  
1836.000000	64.031553  
1835.000000	64.045524  
1834.000000	64.070487  
1833.000000	64.103889  
1832.000000	64.141821  
1831.000000	64.179444  
1830.000000	64.211606  
1829.000000	64.233922  
1828.000000	64.243149  
1827.000000	64.238309  
1826.000000	64.220690  
1825.000000	64.193940  
1824.000000	64.163208  
1823.000000	64.134287  
1822.000000	64.112448  
1821.000000	64.101648  
1820.000000	64.103507  
1819.000000	64.117312  
1818.000000	64.140295  
1817.000000	64.168334  
1816.000000	64.196753  
1815.000000	64.221477  
1814.000000	64.239668  
1813.000000	64.249730  
1812.000000	64.251732  
1811.000000	64.246726  
1810.000000	64.236712  
1809.000000	64.223790  
1808.000000	64.210081  
1807.000000	64.197373  
1806.000000	64.186882  
1805.000000	64.179372  
1804.000000	64.175176  
1803.000000	64.174270  
1802.000000	64.176368  
1801.000000	64.181184  
1800.000000	64.188313  
1799.000000	64.197158  
1798.000000	64.207124  
1797.000000	64.217591  
1796.000000	64.227652  
1795.000000	64.236235  
1794.000000	64.242172  
1793.000000	64.244246  
1792.000000	64.241743  
1791.000000	64.234495  
1790.000000	64.223122  
1789.000000	64.208984  
1788.000000	64.194035  
1787.000000	64.180397  
1786.000000	64.169979  
1785.000000	64.163923  
1784.000000	64.162111  
1783.000000	64.163351  
1782.000000	64.165782  
1781.000000	64.167571  
1780.000000	64.167046  
1779.000000	64.163637  
1778.000000	64.157962  
1777.000000	64.151787  
1776.000000	64.147377  
1775.000000	64.146780  
1774.000000	64.151215  
1773.000000	64.160656  
1772.000000	64.173626  
1771.000000	64.188027  
1770.000000	64.201569  
1769.000000	64.212489  
1768.000000	64.219951  
1767.000000	64.224171  
1766.000000	64.226102  
1765.000000	64.226722  
1764.000000	64.226555  
1763.000000	64.225196  
1762.000000	64.221215  
1761.000000	64.212942  
1760.000000	64.198255  
1759.000000	64.176011  
1758.000000	64.145803  
1757.000000	64.108800  
1756.000000	64.067244  
1755.000000	64.024090  
1754.000000	63.982319  
1753.000000	63.944554  
1752.000000	63.912367  
1751.000000	63.886284  
1750.000000	63.865923  
1749.000000	63.850355  
1748.000000	63.838458  
1747.000000	63.829255  
1746.000000	63.822054  
1745.000000	63.816571  
1744.000000	63.812780  
1743.000000	63.810753  
1742.000000	63.810467  
1741.000000	63.811683  
1740.000000	63.813996  
1739.000000	63.816833  
1738.000000	63.819599  
1737.000000	63.821864  
1736.000000	63.823652  
1735.000000	63.825225  
1734.000000	63.827443  
1733.000000	63.831019  
1732.000000	63.836503  
1731.000000	63.843917  
1730.000000	63.852930  
1729.000000	63.862752  
1728.000000	63.872504  
1727.000000	63.881301  
1726.000000	63.888764  
1725.000000	63.895153  
1724.000000	63.900971  
1723.000000	63.907194  
1722.000000	63.914728  
1721.000000	63.923978  
1720.000000	63.934469  
1719.000000	63.945102  
1718.000000	63.954257  
1717.000000	63.960170  
1716.000000	63.961553  
1715.000000	63.957738  
1714.000000	63.949227  
1713.000000	63.937115  
1712.000000	63.923168  
1711.000000	63.909244  
1710.000000	63.897109  
1709.000000	63.888359  
1708.000000	63.884186  
1707.000000	63.885426  
1706.000000	63.892316  
1705.000000	63.904857  
1704.000000	63.922190  
1703.000000	63.942790  
1702.000000	63.964629  
1701.000000	63.985252  
1700.000000	64.002394  
1699.000000	64.013981  
1698.000000	64.018940  
1697.000000	64.017391  
1696.000000	64.010596  
1695.000000	64.000487  
1694.000000	63.989448  
1693.000000	63.979673  
1692.000000	63.972759  
1691.000000	63.969421  
1690.000000	63.969659  
1689.000000	63.973021  
1688.000000	63.978981  
1687.000000	63.986992  
1686.000000	63.996791  
1685.000000	64.008045  
1684.000000	64.020252  
1683.000000	64.032483  
1682.000000	64.043474  
1681.000000	64.051699  
1680.000000	64.055871  
1679.000000	64.054918  
1678.000000	64.048719  
1677.000000	64.037704  
1676.000000	64.023113  
1675.000000	64.006304  
1674.000000	63.988542  
1673.000000	63.970613  
1672.000000	63.952565  
1671.000000	63.933968  
1670.000000	63.914561  
1669.000000	63.894438  
1668.000000	63.874268  
1667.000000	63.855648  
1666.000000	63.840699  
1665.000000	63.831734  
1664.000000	63.830471  
1663.000000	63.837766  
1662.000000	63.853073  
1661.000000	63.874888  
1660.000000	63.900756  
1659.000000	63.927888  
1658.000000	63.953471  
1657.000000	63.975477  
1656.000000	63.992500  
1655.000000	64.004063  
1654.000000	64.010095  
1653.000000	64.011001  
1652.000000	64.007353  
1651.000000	63.999652  
1650.000000	63.988161  
1649.000000	63.973617  
1648.000000	63.956618  
1647.000000	63.938045  
1646.000000	63.918590  
1645.000000	63.899135  
1644.000000	63.880372  
1643.000000	63.862824  
1642.000000	63.846945  
1641.000000	63.833069  
1640.000000	63.821792  
1639.000000	63.813638  
1638.000000	63.809514  
1637.000000	63.810276  
1636.000000	63.816833  
1635.000000	63.829851  
1634.000000	63.849329  
1633.000000	63.874626  
1632.000000	63.904333  
1631.000000	63.936877  
1630.000000	63.970208  
1629.000000	64.002561  
1628.000000	64.032840  
1627.000000	64.060592  
1626.000000	64.086103  
1625.000000	64.109969  
1624.000000	64.132976  
1623.000000	64.155650  
1622.000000	64.177918  
1621.000000	64.198970  
1620.000000	64.217567  
1619.000000	64.232158  
1618.000000	64.241838  
1617.000000	64.246225  
1616.000000	64.245867  
1615.000000	64.241933  
1614.000000	64.236354  
1613.000000	64.230728  
1612.000000	64.226126  
1611.000000	64.222478  
1610.000000	64.218735  
1609.000000	64.213061  
1608.000000	64.203524  
1607.000000	64.188790  
1606.000000	64.168596  
1605.000000	64.144206  
1604.000000	64.118027  
1603.000000	64.093184  
1602.000000	64.072465  
1601.000000	64.057755  
1600.000000	64.049243  
1599.000000	64.045190  
1598.000000	64.042568  
1597.000000	64.038014  
1596.000000	64.029097  
1595.000000	64.014530  
1594.000000	63.995385  
1593.000000	63.974690  
1592.000000	63.957023  
1591.000000	63.946914  
1590.000000	63.947844  
1589.000000	63.961124  
1588.000000	63.985586  
1587.000000	64.017438  
1586.000000	64.051175  
1585.000000	64.080834  
1584.000000	64.101123  
1583.000000	64.108824  
1582.000000	64.103198  
1581.000000	64.085936  
1580.000000	64.060831  
1579.000000	64.032578  
1578.000000	64.005732  
1577.000000	63.983631  
1576.000000	63.968014  
1575.000000	63.958740  
1574.000000	63.954353  
1573.000000	63.952302  
1572.000000	63.950014  
1571.000000	63.945150  
1570.000000	63.935875  
1569.000000	63.921284  
1568.000000	63.901066  
1567.000000	63.876199  
1566.000000	63.848257  
1565.000000	63.820052  
1564.000000	63.794612  
1563.000000	63.775229  
1562.000000	63.764834  
1561.000000	63.765478  
1560.000000	63.777732  
1559.000000	63.800716  
1558.000000	63.832283  
1557.000000	63.869237  
1556.000000	63.908004  
1555.000000	63.945221  
1554.000000	63.978242  
1553.000000	64.005398  
1552.000000	64.025783  
1551.000000	64.039206  
1550.000000	64.045953  
1549.000000	64.046573  
1548.000000	64.041757  
1547.000000	64.032697  
1546.000000	64.020752  
1545.000000	64.008188  
1544.000000	63.997220  
1543.000000	63.989949  
1542.000000	63.987612  
1541.000000	63.990473  
1540.000000	63.997411  
1539.000000	64.006352  
1538.000000	64.014768  
1537.000000	64.020228  
1536.000000	64.020895  
1535.000000	64.016008  
1534.000000	64.005684  
1533.000000	63.991189  
1532.000000	63.974261  
1531.000000	63.956904  
1530.000000	63.940811  
1529.000000	63.927078  
1528.000000	63.916182  
1527.000000	63.908195  
1526.000000	63.902354  
1525.000000	63.897585  
1524.000000	63.892889  
1523.000000	63.887596  
1522.000000	63.881206  
1521.000000	63.873553  
1520.000000	63.864803  
1519.000000	63.855600  
1518.000000	63.846826  
1517.000000	63.839721  
1516.000000	63.835477  
1515.000000	63.835310  
1514.000000	63.840079  
1513.000000	63.850235  
1512.000000	63.865566  
1511.000000	63.885259  
1510.000000	63.907909  
1509.000000	63.931608  
1508.000000	63.954448  
1507.000000	63.974356  
1506.000000	63.989520  
1505.000000	63.998079  
1504.000000	63.998603  
1503.000000	63.989710  
1502.000000	63.970422  
1501.000000	63.939833  
1500.000000	63.897800  
1499.000000	63.845229  
1498.000000	63.784480  
1497.000000	63.719987  
1496.000000	63.657784  
1495.000000	63.605165  
1494.000000	63.569211  
1493.000000	63.555192  
1492.000000	63.565587  
1491.000000	63.598823  
1490.000000	63.649988  
1489.000000	63.711404  
1488.000000	63.774490  
1487.000000	63.831281  
1486.000000	63.875865  
1485.000000	63.904595  
1484.000000	63.916730  
1483.000000	63.913249  
1482.000000	63.896846  
1481.000000	63.870811  
1480.000000	63.838410  
1479.000000	63.802790  
1478.000000	63.766336  
1477.000000	63.731193  
1476.000000	63.698911  
1475.000000	63.670897  
1474.000000	63.648152  
1473.000000	63.631415  
1472.000000	63.620948  
1471.000000	63.616585  
1470.000000	63.617587  
1469.000000	63.622665  
1468.000000	63.630437  
1467.000000	63.639855  
1466.000000	63.650107  
1465.000000	63.660907  
1464.000000	63.672614  
1463.000000	63.686084  
1462.000000	63.701820  
1461.000000	63.720083  
1460.000000	63.740348  
1459.000000	63.761258  
1458.000000	63.780450  
1457.000000	63.794994  
1456.000000	63.801932  
1455.000000	63.798713  
1454.000000	63.784503  
1453.000000	63.759851  
1452.000000	63.726925  
1451.000000	63.689327  
1450.000000	63.651323  
1449.000000	63.617420  
1448.000000	63.591456  
1447.000000	63.576221  
1446.000000	63.573288  
1445.000000	63.582801  
1444.000000	63.603830  
1443.000000	63.634467  
1442.000000	63.672256  
1441.000000	63.714170  
1440.000000	63.757085  
1439.000000	63.797807  
1438.000000	63.833904  
1437.000000	63.863396  
1436.000000	63.885426  
1435.000000	63.900375  
1434.000000	63.909482  
1433.000000	63.914990  
1432.000000	63.918972  
1431.000000	63.923287  
1430.000000	63.928532  
1429.000000	63.934326  
1428.000000	63.938903  
1427.000000	63.939952  
1426.000000	63.935112  
1425.000000	63.922858  
1424.000000	63.902664  
1423.000000	63.875436  
1422.000000	63.843178  
1421.000000	63.808536  
1420.000000	63.773918  
1419.000000	63.741040  
1418.000000	63.710641  
1417.000000	63.682723  
1416.000000	63.656663  
1415.000000	63.631892  
1414.000000	63.608574  
1413.000000	63.587760  
1412.000000	63.571572  
1411.000000	63.562798  
1410.000000	63.563585  
1409.000000	63.575005  
1408.000000	63.596391  
1407.000000	63.625288  
1406.000000	63.657426  
1405.000000	63.687872  
1404.000000	63.712024  
1403.000000	63.726806  
1402.000000	63.731265  
1401.000000	63.726401  
1400.000000	63.714933  
1399.000000	63.700175  
1398.000000	63.685321  
1397.000000	63.672590  
1396.000000	63.662910  
1395.000000	63.656163  
1394.000000	63.651657  
1393.000000	63.648962  
1392.000000	63.648319  
1391.000000	63.650870  
1390.000000	63.658189  
1389.000000	63.671684  
1388.000000	63.691663  
1387.000000	63.716673  
1386.000000	63.743567  
1385.000000	63.767790  
1384.000000	63.784265  
1383.000000	63.788914  
1382.000000	63.779640  
1381.000000	63.757085  
1380.000000	63.724708  
1379.000000	63.688063  
1378.000000	63.653802  
1377.000000	63.628196  
1376.000000	63.615894  
1375.000000	63.618803  
1374.000000	63.635897  
1373.000000	63.663673  
1372.000000	63.696813  
1371.000000	63.729596  
1370.000000	63.756871  
1369.000000	63.774967  
1368.000000	63.782167  
1367.000000	63.778853  
1366.000000	63.766741  
1365.000000	63.748145  
1364.000000	63.725614  
1363.000000	63.701295  
1362.000000	63.676738  
1361.000000	63.652753  
1360.000000	63.629984  
1359.000000	63.609051  
1358.000000	63.590764  
1357.000000	63.576221  
1356.000000	63.566541  
1355.000000	63.562560  
1354.000000	63.564205  
1353.000000	63.570380  
1352.000000	63.578772  
1351.000000	63.586616  
1350.000000	63.591241  
1349.000000	63.591003  
1348.000000	63.585305  
1347.000000	63.575267  
1346.000000	63.563299  
1345.000000	63.552880  
1344.000000	63.547301  
1343.000000	63.549447  
1342.000000	63.561010  
1341.000000	63.582301  
1340.000000	63.612031  
1339.000000	63.647794  
1338.000000	63.686704  
1337.000000	63.725566  
1336.000000	63.761568  
1335.000000	63.792490  
1334.000000	63.817071  
1333.000000	63.835144  
1332.000000	63.847398  
1331.000000	63.855528  
1330.000000	63.861632  
1329.000000	63.868093  
1328.000000	63.876557  
1327.000000	63.887715  
1326.000000	63.900542  
1325.000000	63.912701  
1324.000000	63.920736  
1323.000000	63.921093  
1322.000000	63.910698  
1321.000000	63.888406  
1320.000000	63.854718  
1319.000000	63.812136  
1318.000000	63.764429  
1317.000000	63.715958  
1316.000000	63.670682  
1315.000000	63.631296  
1314.000000	63.598799  
1313.000000	63.572764  
1312.000000	63.551735  
1311.000000	63.533973  
1310.000000	63.518023  
1309.000000	63.503384  
1308.000000	63.490581  
1307.000000	63.480949  
1306.000000	63.475632  
1305.000000	63.475346  
1304.000000	63.479828  
1303.000000	63.487720  
1302.000000	63.496756  
1301.000000	63.503932  
1300.000000	63.506436  
1299.000000	63.502097  
1298.000000	63.489985  
1297.000000	63.470864  
1296.000000	63.446974  
1295.000000	63.421845  
1294.000000	63.399529  
1293.000000	63.383865  
1292.000000	63.377523  
1291.000000	63.381481  
1290.000000	63.394999  
1289.000000	63.415861  
1288.000000	63.440871  
1287.000000	63.466763  
1286.000000	63.490891  
1285.000000	63.511443  
1284.000000	63.527441  
1283.000000	63.538932  
1282.000000	63.546752  
1281.000000	63.551950  
1280.000000	63.555598  
1279.000000	63.558697  
1278.000000	63.562107  
1277.000000	63.566374  
1276.000000	63.571882  
1275.000000	63.578844  
1274.000000	63.587212  
1273.000000	63.596463  
1272.000000	63.605952  
1271.000000	63.614702  
1270.000000	63.621854  
1269.000000	63.627052  
1268.000000	63.630509  
1267.000000	63.633108  
1266.000000	63.635849  
1265.000000	63.639736  
1264.000000	63.645434  
1263.000000	63.652777  
1262.000000	63.661289  
1261.000000	63.670325  
1260.000000	63.679409  
1259.000000	63.688611  
1258.000000	63.698172  
1257.000000	63.708400  
1256.000000	63.719415  
1255.000000	63.730764  
1254.000000	63.741660  
1253.000000	63.750910  
1252.000000	63.757324  
1251.000000	63.759756  
1250.000000	63.757634  
1249.000000	63.751006  
1248.000000	63.740563  
1247.000000	63.727498  
1246.000000	63.713455  
1245.000000	63.700175  
1244.000000	63.689351  
1243.000000	63.682103  
1242.000000	63.678908  
1241.000000	63.679194  
1240.000000	63.681840  
1239.000000	63.684916  
1238.000000	63.686084  
1237.000000	63.683438  
1236.000000	63.675689  
1235.000000	63.663291  
1234.000000	63.648366  
1233.000000	63.634753  
1232.000000	63.626956  
1231.000000	63.629198  
1230.000000	63.644027  
1229.000000	63.671350  
1228.000000	63.707995  
1227.000000	63.748025  
1226.000000	63.784050  
1225.000000	63.808584  
1224.000000	63.815784  
1223.000000	63.802838  
1222.000000	63.770627  
1221.000000	63.723421  
1220.000000	63.667988  
1219.000000	63.612222  
1218.000000	63.563609  
1217.000000	63.527679  
1216.000000	63.507342  
1215.000000	63.502645  
1214.000000	63.511085  
1213.000000	63.528776  
1212.000000	63.551139  
1211.000000	63.574051  
1210.000000	63.594460  
1209.000000	63.610148  
1208.000000	63.620328  
1207.000000	63.624930  
1206.000000	63.624739  
1205.000000	63.620567  
1204.000000	63.613557  
1203.000000	63.604879  
1202.000000	63.595962  
1201.000000	63.588237  
1200.000000	63.582849  
1199.000000	63.580417  
1198.000000	63.580751  
1197.000000	63.582849  
1196.000000	63.584947  
1195.000000	63.585209  
1194.000000	63.581800  
1193.000000	63.573718  
1192.000000	63.561010  
1191.000000	63.544893  
1190.000000	63.527798  
1189.000000	63.512349  
1188.000000	63.500761  
1187.000000	63.493919  
1186.000000	63.491463  
1185.000000	63.491320  
1184.000000	63.489961  
1183.000000	63.483715  
1182.000000	63.469362  
1181.000000	63.445973  
1180.000000	63.415002  
1179.000000	63.380599  
1178.000000	63.348555  
1177.000000	63.325119  
1176.000000	63.315486  
1175.000000	63.322067  
1174.000000	63.343572  
1173.000000	63.374733  
1172.000000	63.407635  
1171.000000	63.433146  
1170.000000	63.443660  
1169.000000	63.434886  
1168.000000	63.407325  
1167.000000	63.366413  
1166.000000	63.321399  
1165.000000	63.282680  
1164.000000	63.259148  
1163.000000	63.256382  
1162.000000	63.275051  
1161.000000	63.311266  
1160.000000	63.357591  
1159.000000	63.405299  
1158.000000	63.445949  
1157.000000	63.473248  
1156.000000	63.483929  
1155.000000	63.477921  
1154.000000	63.457870  
1153.000000	63.427948  
1152.000000	63.392972  
1151.000000	63.357329  
1150.000000	63.324093  
1149.000000	63.294744  
1148.000000	63.269805  
1147.000000	63.249230  
1146.000000	63.233184  
1145.000000	63.222646  
1144.000000	63.219380  
1143.000000	63.225746  
1142.000000	63.243913  
1141.000000	63.275313  
1140.000000	63.319540  
1139.000000	63.374471  
1138.000000	63.436436  
1137.000000	63.500523  
1136.000000	63.561844  
1135.000000	63.615679  
1134.000000	63.658070  
1133.000000	63.685989  
1132.000000	63.698101  
1131.000000	63.694620  
1130.000000	63.677215  
1129.000000	63.649106  
1128.000000	63.614726  
1127.000000	63.579320  
1126.000000	63.548278  
1125.000000	63.526511  
1124.000000	63.517642  
1123.000000	63.523650  
1122.000000	63.544726  
1121.000000	63.578796  
1120.000000	63.621926  
1119.000000	63.668680  
1118.000000	63.713097  
1117.000000	63.748431  
1116.000000	63.768982  
1115.000000	63.773083  
1114.000000	63.763356  
1113.000000	63.743281  
1112.000000	63.718295  
1111.000000	63.696217  
1110.000000	63.684487  
1109.000000	63.688015  
1108.000000	63.708138  
1107.000000	63.742089  
1106.000000	63.784122  
1105.000000	63.827800  
1104.000000	63.867068  
1103.000000	63.897395  
1102.000000	63.916826  
1101.000000	63.927078  
1100.000000	63.930869  
1099.000000	63.929891  
1098.000000	63.925766  
1097.000000	63.919568  
1096.000000	63.912153  
1095.000000	63.903760  
1094.000000	63.895130  
1093.000000	63.885712  
1092.000000	63.869023  
1091.000000	63.830399  
1090.000000	63.746762  
1089.000000	63.589239  
1088.000000	63.326764  
1087.000000	62.936902  
1086.000000	62.411737  
1085.000000	61.769556  
1084.000000	61.054658  
1083.000000	60.337114  
1082.000000	59.698677  
1081.000000	59.221029  
1080.000000	58.965945  
1079.000000	58.965706  
1078.000000	59.210944  
1077.000000	59.658408  
1076.000000	60.236692  
1075.000000	60.866212  
1074.000000	61.470437  
1073.000000	61.994957  
1072.000000	62.410402  
1071.000000	62.716031  
1070.000000	62.929415  
1069.000000	63.079786  
1068.000000	63.194632  
1067.000000	63.294625  
1066.000000	63.388347  
1065.000000	63.473939  
1064.000000	63.541698  
1063.000000	63.582730  
1062.000000	63.591790  
1061.000000	63.568949  
1060.000000	63.519477  
1059.000000	63.452196  
1058.000000	63.377571  
1057.000000	63.304042  
1056.000000	63.238072  
1055.000000	63.185381  
1054.000000	63.149285  
1053.000000	63.130593  
1052.000000	63.127899  
1051.000000	63.139772  
1050.000000	63.163447  
1049.000000	63.193392  
1048.000000	63.224339  
1047.000000	63.251352  
1046.000000	63.271427  
1045.000000	63.283681  
1044.000000	63.289141  
1043.000000	63.289070  
1042.000000	63.286828  
1041.000000	63.287377  
1040.000000	63.293790  
1039.000000	63.306283  
1038.000000	63.323473  
1037.000000	63.342618  
1036.000000	63.359928  
1035.000000	63.371586  
1034.000000	63.374948  
1033.000000	63.368940  
1032.000000	63.353753  
1031.000000	63.331341  
1030.000000	63.304781  
1029.000000	63.278079  
1028.000000	63.254880  
1027.000000	63.238859  
1026.000000	63.232898  
1025.000000	63.239598  
1024.000000	63.260388  
1023.000000	63.296270  
1022.000000	63.347101  
1021.000000	63.411903  
1020.000000	63.488435  
1019.000000	63.573122  
1018.000000	63.660979  
1017.000000	63.745999  
1016.000000	63.821840  
1015.000000	63.882446  
1014.000000	63.923072  
1013.000000	63.941025  
1012.000000	63.936281  
1011.000000	63.911318  
1010.000000	63.870811  
1009.000000	63.821125  
1008.000000	63.768744  
1007.000000	63.719797  
1006.000000	63.678169  
1005.000000	63.645577  
1004.000000	63.620567  
1003.000000	63.599538  
1002.000000	63.577032  
1001.000000	63.547039  
1000.000000	63.504958  
999.000000	 63.448500  
998.000000	 63.379526  
997.000000	 63.302707  
996.000000	 63.226556  
995.000000	 63.160681  
994.000000	 63.114881  
993.000000	 63.096213  
992.000000	 63.108229  
991.000000	 63.150072  
990.000000	 63.216304  
989.000000	 63.297986  
988.000000	 63.384413  
987.000000	 63.465118  
986.000000	 63.531637  
985.000000	 63.578534  
984.000000	 63.604021  
983.000000	 63.609480  
982.000000	 63.598632  
981.000000	 63.576221  
980.000000	 63.546776  
979.000000	 63.513326  
978.000000	 63.478064  
977.000000	 63.441252  
976.000000	 63.402414  
975.000000	 63.360595  
974.000000	 63.315653  
973.000000	 63.268733  
972.000000	 63.222050  
971.000000	 63.178777  
970.000000	 63.142204  
969.000000	 63.115072  
968.000000	 63.098335  
967.000000	 63.091278  
966.000000	 63.091278  
965.000000	 63.095164  
964.000000	 63.099384  
963.000000	 63.102269  
962.000000	 63.103914  
961.000000	 63.107085  
960.000000	 63.116002  
959.000000	 63.135433  
958.000000	 63.169002  
957.000000	 63.217878  
956.000000	 63.279986  
955.000000	 63.349723  
954.000000	 63.419032  
953.000000	 63.479733  
952.000000	 63.524913  
951.000000	 63.550639  
950.000000	 63.556432  
949.000000	 63.545179  
948.000000	 63.522171  
947.000000	 63.493728  
946.000000	 63.465499  
945.000000	 63.441324  
944.000000	 63.422465  
943.000000	 63.409066  
942.000000	 63.399553  
941.000000	 63.392186  
940.000000	 63.385558  
939.000000	 63.379311  
938.000000	 63.374114  
937.000000	 63.371109  
936.000000	 63.371634  
935.000000	 63.376522  
934.000000	 63.386130  
933.000000	 63.399887  
932.000000	 63.416266  
931.000000	 63.432884  
930.000000	 63.446545  
929.000000	 63.453555  
928.000000	 63.449811  
927.000000	 63.431549  
926.000000	 63.396120  
925.000000	 63.343238  
924.000000	 63.275146  
923.000000	 63.197493  
922.000000	 63.118600  
921.000000	 63.048410  
920.000000	 62.996602  
919.000000	 62.970519  
918.000000	 62.973666  
917.000000	 63.004589  
916.000000	 63.056874  
915.000000	 63.120746  
914.000000	 63.184595  
913.000000	 63.238310  
912.000000	 63.274884  
911.000000	 63.291954  
910.000000	 63.291645  
909.000000	 63.279461  
908.000000	 63.262414  
907.000000	 63.246345  
906.000000	 63.234066  
905.000000	 63.224840  
904.000000	 63.215231  
903.000000	 63.200569  
902.000000	 63.177037  
901.000000	 63.143873  
900.000000	 63.104081  
899.000000	 63.063907  
898.000000	 63.031435  
897.000000	 63.014149  
896.000000	 63.016772  
895.000000	 63.039851  
894.000000	 63.079309  
893.000000	 63.127374  
892.000000	 63.174343  
891.000000	 63.211035  
890.000000	 63.230991  
889.000000	 63.231706  
888.000000	 63.215565  
887.000000	 63.188052  
886.000000	 63.157463  
885.000000	 63.131952  
884.000000	 63.118863  
883.000000	 63.122916  
882.000000	 63.145780  
881.000000	 63.185977  
880.000000	 63.239669  
879.000000	 63.301825  
878.000000	 63.366937  
877.000000	 63.429951  
876.000000	 63.487052  
875.000000	 63.535857  
874.000000	 63.575387  
873.000000	 63.605403  
872.000000	 63.626027  
871.000000	 63.636708  
870.000000	 63.636350  
869.000000	 63.623118  
868.000000	 63.595294  
867.000000	 63.552093  
866.000000	 63.494706  
865.000000	 63.426995  
864.000000	 63.355565  
863.000000	 63.288998  
862.000000	 63.236808  
861.000000	 63.206672  
860.000000	 63.203001  
859.000000	 63.225102  
858.000000	 63.267230  
857.000000	 63.319563  
856.000000	 63.369989  
855.000000	 63.407278  
854.000000	 63.423347  
853.000000	 63.415193  
852.000000	 63.385295  
851.000000	 63.340735  
850.000000	 63.291096  
849.000000	 63.245940  
848.000000	 63.212227  
847.000000	 63.192892  
846.000000	 63.186168  
845.000000	 63.187193  
844.000000	 63.189315  
843.000000	 63.186144  
842.000000	 63.173437  
841.000000	 63.149929  
840.000000	 63.118004  
839.000000	 63.081860  
838.000000	 63.047719  
837.000000	 63.021779  
836.000000	 63.009738  
835.000000	 63.015365  
834.000000	 63.040423  
833.000000	 63.084578  
832.000000	 63.145017  
831.000000	 63.217449  
830.000000	 63.295626  
829.000000	 63.371968  
828.000000	 63.438725  
827.000000	 63.488936  
826.000000	 63.518023  
825.000000	 63.524508  
824.000000	 63.510417  
823.000000	 63.480710  
822.000000	 63.441967  
821.000000	 63.400721  
820.000000	 63.362193  
819.000000	 63.329243  
818.000000	 63.302397  
817.000000	 63.279891  
816.000000	 63.259863  
815.000000	 63.240337  
814.000000	 63.219571  
813.000000	 63.196253  
812.000000	 63.169264  
811.000000	 63.138127  
810.000000	 63.102364  
809.000000	 63.062524  
808.000000	 63.019895  
807.000000	 62.977457  
806.000000	 62.939143  
805.000000	 62.909865  
804.000000	 62.894487  
803.000000	 62.896823  
802.000000	 62.918782  
801.000000	 62.958836  
800.000000	 63.011932  
799.000000	 63.070344  
798.000000	 63.125038  
797.000000	 63.167405  
796.000000	 63.191008  
795.000000	 63.193869  
794.000000	 63.178920  
793.000000	 63.153266  
792.000000	 63.126325  
791.000000	 63.107752  
790.000000	 63.104796  
789.000000	 63.120746  
788.000000	 63.154435  
787.000000	 63.200497  
786.000000	 63.251471  
785.000000	 63.300371  
784.000000	 63.342165  
783.000000	 63.375067  
782.000000	 63.400387  
781.000000	 63.422060  
780.000000	 63.444066  
779.000000	 63.468670  
778.000000	 63.494896  
777.000000	 63.518810  
776.000000	 63.534069  
775.000000	 63.534235  
774.000000	 63.514232  
773.000000	 63.472890  
772.000000	 63.412380  
771.000000	 63.338375  
770.000000	 63.258361  
769.000000	 63.180136  
768.000000	 63.110041  
767.000000	 63.052034  
766.000000	 63.007235  
765.000000	 62.974572  
764.000000	 62.951564  
763.000000	 62.935900  
762.000000	 62.925577  
761.000000	 62.920546  
760.000000	 62.921953  
759.000000	 62.932705  
758.000000	 62.955260  
757.000000	 62.991881  
756.000000	 63.043403  
755.000000	 63.108420  
754.000000	 63.182759  
753.000000	 63.259530  
752.000000	 63.330316  
751.000000	 63.386249  
750.000000	 63.419294  
749.000000	 63.424682  
748.000000	 63.401865  
747.000000	 63.355469  
746.000000	 63.294482  
745.000000	 63.230872  
744.000000	 63.177061  
743.000000	 63.143301  
742.000000	 63.135647  
741.000000	 63.154983  
740.000000	 63.197159  
739.000000	 63.254833  
738.000000	 63.319134  
737.000000	 63.381433  
736.000000	 63.434815  
735.000000	 63.475251  
734.000000	 63.501119  
733.000000	 63.512444  
732.000000	 63.509678  
731.000000	 63.492155  
730.000000	 63.458728  
729.000000	 63.408732  
728.000000	 63.342881  
727.000000	 63.263750  
726.000000	 63.176822  
725.000000	 63.091230  
724.000000	 63.017249  
723.000000	 62.964296  
722.000000	 62.938356  
721.000000	 62.940645  
720.000000	 62.966394  
719.000000	 63.005542  
718.000000	 63.045167  
717.000000	 63.072657  
716.000000	 63.079690  
715.000000	 63.064551  
714.000000	 63.032507  
713.000000	 62.994122  
712.000000	 62.964129  
711.000000	 62.956190  
710.000000	 62.978482  
709.000000	 63.029885  
708.000000	 63.101100  
707.000000	 63.174223  
706.000000	 63.228106  
705.000000	 63.240981  
704.000000	 63.196802  
703.000000	 63.087701  
702.000000	 62.916445  
701.000000	 62.695264  
700.000000	 62.442374  
699.000000	 62.179827  
698.000000	 61.929488  
697.000000	 61.709594  
696.000000	 61.532211  
695.000000	 61.403322  
694.000000	 61.322808  
693.000000	 61.287713  
692.000000	 61.293292  
691.000000	 61.336588  
690.000000	 61.415910  
689.000000	 61.532592  
688.000000	 61.688613  
687.000000	 61.885809  
686.000000	 62.122797  
685.000000	 62.393403  
684.000000	 62.685108  
683.000000	 62.980532  
682.000000	 63.258028  
681.000000	 63.496589  
680.000000	 63.676571  
679.000000	 63.784980  
678.000000	 63.813829  
677.000000	 63.765430  
676.000000	 63.646483  
675.000000	 63.468551  
674.000000	 63.243699  
673.000000	 62.985491  
672.000000	 62.707066  
671.000000	 62.422704  
670.000000	 62.148380  
669.000000	 61.902213  
668.000000	 61.704325  
667.000000	 61.573743  
666.000000	 61.526393  
665.000000	 61.570477  
664.000000	 61.704182  
663.000000	 61.913704  
662.000000	 62.174463  
661.000000	 62.454009  
660.000000	 62.717986  
659.000000	 62.935805  
658.000000	 63.085174  
657.000000	 63.155937  
656.000000	 63.151168  
655.000000	 63.086128  
654.000000	 62.983632  
653.000000	 62.869358  
652.000000	 62.769055  
651.000000	 62.701511  
650.000000	 62.679052  
649.000000	 62.702083  
648.000000	 62.762808  
647.000000	 62.844109  
646.000000	 62.925386  
645.000000	 62.984967  
644.000000	 63.004684  
643.000000	 62.974095  
642.000000	 62.892270  
641.000000	 62.767672  
640.000000	 62.614870  
639.000000	 62.452983  
638.000000	 62.302088  
637.000000	 62.178325  
636.000000	 62.091016  
635.000000	 62.042546  
634.000000	 62.029099  
633.000000	 62.041187  
632.000000	 62.067246  
631.000000	 62.095379  
630.000000	 62.117004  
629.000000	 62.128877  
628.000000	 62.133955  
627.000000	 62.137866  
626.000000	 62.148523  
625.000000	 62.173938  
624.000000	 62.220001  
623.000000	 62.288069  
622.000000	 62.374758  
621.000000	 62.472820  
620.000000	 62.572479  
619.000000	 62.663578  
618.000000	 62.737917  
617.000000	 62.790775  
616.000000	 62.822341  
615.000000	 62.836599  
614.000000	 62.841391  
613.000000	 62.845945  
612.000000	 62.860298  
611.000000	 62.892699  
610.000000	 62.949705  
609.000000	 63.034510  
608.000000	 63.147211  
607.000000	 63.284134  
606.000000	 63.436007  
605.000000	 63.588571  
604.000000	 63.724446  
603.000000	 63.825511  
602.000000	 63.876366  
601.000000	 63.866877  
600.000000	 63.795638  
599.000000	 63.668990  
598.000000	 63.500547  
597.000000	 63.306903  
596.000000	 63.105702  
595.000000	 62.911128  
594.000000	 62.732982  
593.000000	 62.575936  
592.000000	 62.441301  
591.000000	 62.328648  
590.000000	 62.237381  
589.000000	 62.168502  
588.000000	 62.123632  
587.000000	 62.105250  
586.000000	 62.114024  
585.000000	 62.148213  
584.000000	 62.201333  
583.000000	 62.265300  
582.000000	 62.330865  
581.000000	 62.390351  
580.000000	 62.438607  
579.000000	 62.474203  
578.000000	 62.498927  
577.000000	 62.515759  
576.000000	 62.527656  
575.000000	 62.537240  
574.000000	 62.545704  
573.000000	 62.552833  
572.000000	 62.557530  
571.000000	 62.559032  
570.000000	 62.558317  
569.000000	 62.557888  
568.000000	 62.563109  
567.000000	 62.580704  
566.000000	 62.618088  
565.000000	 62.681865  
564.000000	 62.775111  
563.000000	 62.895607  
562.000000	 63.035249  
561.000000	 63.181686  
560.000000	 63.319206  
559.000000	 63.432025  
558.000000	 63.507127  
557.000000	 63.537311  
556.000000	 63.522028  
555.000000	 63.467168  
554.000000	 63.383555  
553.000000	 63.284277  
552.000000	 63.180756  
551.000000	 63.080787  
550.000000	 62.987208  
549.000000	 62.898969  
548.000000	 62.813687  
547.000000	 62.729835  
546.000000	 62.648820  
545.000000	 62.575578  
544.000000	 62.516665  
543.000000	 62.479162  
542.000000	 62.466526  
541.000000	 62.478375  
540.000000	 62.509608  
539.000000	 62.551212  
538.000000	 62.592244  
537.000000	 62.621736  
536.000000	 62.630987  
535.000000	 62.615108  
534.000000	 62.573218  
533.000000	 62.509417  
532.000000	 62.431740  
531.000000	 62.350749  
530.000000	 62.276959  
529.000000	 62.219500  
528.000000	 62.184524  
527.000000	 62.173986  
526.000000	 62.185788  
525.000000	 62.214756  
524.000000	 62.254142  
523.000000	 62.297010  
522.000000	 62.337827  
521.000000	 62.372946  
520.000000	 62.400984  
519.000000	 62.422728  
518.000000	 62.440037  
517.000000	 62.454152  
516.000000	 62.465286  
515.000000	 62.472581  
514.000000	 62.474584  
513.000000	 62.470459  
512.000000	 62.459874  
511.000000	 62.444734  
510.000000	 62.427067  
509.000000	 62.408614  
508.000000	 62.389945  
507.000000	 62.370181  
506.000000	 62.347865  
505.000000	 62.321686  
504.000000	 62.291717  
503.000000	 62.259960  
502.000000	 62.229847  
501.000000	 62.205386  
500.000000	 62.189650  
499.000000	 62.183642  
498.000000	 62.185955  
497.000000	 62.193155  
496.000000	 62.200665  
495.000000	 62.204122  
494.000000	 62.201356  
493.000000	 62.192630  
492.000000	 62.179684  
491.000000	 62.165188  
490.000000	 62.151956  
489.000000	 62.142133  
488.000000	 62.134528  
487.000000	 62.127041  
486.000000	 62.117624  
485.000000	 62.105917  
484.000000	 62.094187  
483.000000	 62.086725  
482.000000	 62.088966  
481.000000	 62.105464  
480.000000	 62.138724  
479.000000	 62.187147  
478.000000	 62.244749  
477.000000	 62.302255  
476.000000	 62.349510  
475.000000	 62.377119  
474.000000	 62.378478  
473.000000	 62.352418  
472.000000	 62.303113  
471.000000	 62.237215  
470.000000	 62.161254  
469.000000	 62.081527  
468.000000	 62.001109  
467.000000	 61.918520  
466.000000	 61.827230  
465.000000	 61.718320  
464.000000	 61.582732  
463.000000	 61.414361  
462.000000	 61.213874  
461.000000	 60.987496  
460.000000	 60.750865  
459.000000	 60.524845  
458.000000	 60.335040  
457.000000	 60.206556  
456.000000	 60.159039  
455.000000	 60.199642  
454.000000	 60.322952  
453.000000	 60.511207  
452.000000	 60.737037  
451.000000	 60.966110  
450.000000	 61.169028  
449.000000	 61.324858  
448.000000	 61.431026  
447.000000	 61.501550  
446.000000	 61.566591  
445.000000	 61.662507  
444.000000	 61.823225  
443.000000	 62.067818  
442.000000	 62.394785  
441.000000	 62.777590  
440.000000	 63.170456  
439.000000	 63.515925  
438.000000	 63.756585  
437.000000	 63.849163  
436.000000	 63.775920  
435.000000	 63.551473  
434.000000	 63.214564  
433.000000	 62.829279  
432.000000	 62.470221  
431.000000	 62.212920  
430.000000	 62.118864  
429.000000	 62.225604  
428.000000	 62.541246  
427.000000	 63.042449  
426.000000	 63.682627  
425.000000	 64.395785  
424.000000	 65.109276  
423.000000	 65.751981  
422.000000	 66.261982  
421.000000	 66.602349  
420.000000	 66.764450  
419.000000	 66.766953  
418.000000	 66.647815  
417.000000	 66.454315  
416.000000	 66.228079  
415.000000	 66.002988  
414.000000	 65.792083  
413.000000	 65.586423  
412.000000	 65.352630  
411.000000	 65.050768  
410.000000	 64.641928  
409.000000	 64.085197  
408.000000	 63.364553  
407.000000	 62.516331  
406.000000	 61.618828  
405.000000	 60.741353  
404.000000	 59.970855  
403.000000	 59.415960  
402.000000	 59.162998  
401.000000	 59.251666  
400.000000	 59.659194  
399.000000	 60.314226  
398.000000	 61.076974  
397.000000	 61.756706  
396.000000	 62.165331  
395.000000	 62.157630  
394.000000	 61.678743  
393.000000	 60.771822  
392.000000	 59.619402  
391.000000	 58.499336  
390.000000	 57.701158  
389.000000	 57.459306  
388.000000	 57.820296  
387.000000	 58.668971  
386.000000	 59.813165  
385.000000	 61.091160  
384.000000	 62.356376  
383.000000	 63.639497  
382.000000	 65.151381  
381.000000	 67.303681  
380.000000	 70.525646  
379.000000	 75.221157  
378.000000	 81.633377  
377.000000	 89.710402  
376.000000	 99.215507  
375.000000	 109.496307 
374.000000	 119.463205 
373.000000	 127.933454 
372.000000	 133.791756 
371.000000	 136.500453 
370.000000	 136.273598 

