PE IR       SPECTRUM    SPECTRUM    ASCII       PEDS        1.60        
  -1
BZ6924~1.ASC
17/04/07
16:33:37.00
17/04/07
16:33:37.00
tln
$BZ1503107-1_t0041$<tbV0>[-5.2,-5.2,8.0,0.0,27,1,0]
370.000000
64









2002,4.07    
MIRTGS : RIGHTBACK : INTERNAL 2
MIR : ON : INTERNAL 2
OPTKBR

0.200000
8
8.000000
FILLER
RATIO
SPECTRUM
UNLOCKED 256

DOUBLE
64
COMBINED
1
0
0


1.000000
RATIO


1
0
TRUE
51149
0
LEFT NOT FITTED RIGHT NOT FITTED 0
NONE
NONE
15600
12.000000
4.427000
51148
TRUE
1 0 8 72 0 0 0 0 

15798.010000






#HDR
-1
-1
#GR
CM-1
%T
0.00002384185791015625
0.0
5000.000000
-1.000000
4631
8
81.214118
37.752652
#DATA
5000.000000	65.320730 
4999.000000	65.206050 
4998.000000	65.080785 
4997.000000	64.957046 
4996.000000	64.847087 
4995.000000	64.761400 
4994.000000	64.706802 
4993.000000	64.684557 
4992.000000	64.691781 
4991.000000	64.722371 
4990.000000	64.768600 
4989.000000	64.822387 
4988.000000	64.876461 
4987.000000	64.924860 
4986.000000	64.963054 
4985.000000	64.987587 
4984.000000	64.996957 
4983.000000	64.991259 
4982.000000	64.972472 
4981.000000	64.943623 
4980.000000	64.908862 
4979.000000	64.872026 
4978.000000	64.836120 
4977.000000	64.801836 
4976.000000	64.767289 
4975.000000	64.728450 
4974.000000	64.680385 
4973.000000	64.619112 
4972.000000	64.543223 
4971.000000	64.455223 
4970.000000	64.361953 
4969.000000	64.272975 
4968.000000	64.197802 
4967.000000	64.144468 
4966.000000	64.116525 
4965.000000	64.113354 
4964.000000	64.129662 
4963.000000	64.158082 
4962.000000	64.191031 
4961.000000	64.222407 
4960.000000	64.248299 
4959.000000	64.267945 
4958.000000	64.282822 
4957.000000	64.295172 
4956.000000	64.306378 
4955.000000	64.316558 
4954.000000	64.324021 
4953.000000	64.325118 
4952.000000	64.315652 
4951.000000	64.292216 
4950.000000	64.254069 
4949.000000	64.204072 
4948.000000	64.148807 
4947.000000	64.097356 
4946.000000	64.059305 
4945.000000	64.042639 
4944.000000	64.051270 
4943.000000	64.084458 
4942.000000	64.135694 
4941.000000	64.193296 
4940.000000	64.243841 
4939.000000	64.274859 
4938.000000	64.278960 
4937.000000	64.254689 
4936.000000	64.209437 
4935.000000	64.156651 
4934.000000	64.114856 
4933.000000	64.102602 
4932.000000	64.135050 
4931.000000	64.219999 
4930.000000	64.356803 
4929.000000	64.535903 
4928.000000	64.740324 
4927.000000	64.948296 
4926.000000	65.136098 
4925.000000	65.281915 
4924.000000	65.368199 
4923.000000	65.385103 
4922.000000	65.330839 
4921.000000	65.213489 
4920.000000	65.049195 
4919.000000	64.861178 
4918.000000	64.676856 
4917.000000	64.523363 
4916.000000	64.424800 
4915.000000	64.396119 
4914.000000	64.442396 
4913.000000	64.556026 
4912.000000	64.719152 
4911.000000	64.905929 
4910.000000	65.087628 
4909.000000	65.238046 
4908.000000	65.337562 
4907.000000	65.376925 
4906.000000	65.357327 
4905.000000	65.289545 
4904.000000	65.190196 
4903.000000	65.078186 
4902.000000	64.970397 
4901.000000	64.879274 
4900.000000	64.811182 
4899.000000	64.767336 
4898.000000	64.744687 
4897.000000	64.737868 
4896.000000	64.740872 
4895.000000	64.748287 
4894.000000	64.756417 
4893.000000	64.761495 
4892.000000	64.761471 
4891.000000	64.754819 
4890.000000	64.742159 
4889.000000	64.724731 
4888.000000	64.705777 
4887.000000	64.688849 
4886.000000	64.678597 
4885.000000	64.679431 
4884.000000	64.695358 
4883.000000	64.728975 
4882.000000	64.780879 
4881.000000	64.849257 
4880.000000	64.930009 
4879.000000	65.017271 
4878.000000	65.103197 
4877.000000	65.179061 
4876.000000	65.236616 
4875.000000	65.269422 
4874.000000	65.274143 
4873.000000	65.251326 
4872.000000	65.205550 
4871.000000	65.144681 
4870.000000	65.079689 
4869.000000	65.021657 
4868.000000	64.979672 
4867.000000	64.958429 
4866.000000	64.958333 
4865.000000	64.974761 
4864.000000	65.000009 
4863.000000	65.024900 
4862.000000	65.041327 
4861.000000	65.043878 
4860.000000	65.030789 
4859.000000	65.003919 
4858.000000	64.967107 
4857.000000	64.925599 
4856.000000	64.883995 
4855.000000	64.845800 
4854.000000	64.812541 
4853.000000	64.784741 
4852.000000	64.762616 
4851.000000	64.746570 
4850.000000	64.737796 
4849.000000	64.737677 
4848.000000	64.747643 
4847.000000	64.768028 
4846.000000	64.797472 
4845.000000	64.833402 
4844.000000	64.872145 
4843.000000	64.909887 
4842.000000	64.943408 
4841.000000	64.970707 
4840.000000	64.991068 
4839.000000	65.005064 
4838.000000	65.013861 
4837.000000	65.018367 
4836.000000	65.019059 
4835.000000	65.015840 
4834.000000	65.007877 
4833.000000	64.994478 
4832.000000	64.975142 
4831.000000	64.950680 
4830.000000	64.922595 
4829.000000	64.893293 
4828.000000	64.865565 
4827.000000	64.841914 
4826.000000	64.824533 
4825.000000	64.814805 
4824.000000	64.813685 
4823.000000	64.821505 
4822.000000	64.838290 
4821.000000	64.863824 
4820.000000	64.897632 
4819.000000	64.938735 
4818.000000	64.985942 
4817.000000	65.037631 
4816.000000	65.091419 
4815.000000	65.143966 
4814.000000	65.191149 
4813.000000	65.228104 
4812.000000	65.250301 
4811.000000	65.254402 
4810.000000	65.239095 
4809.000000	65.205764 
4808.000000	65.158939 
4807.000000	65.105223 
4806.000000	65.052747 
4805.000000	65.009021 
4804.000000	64.979934 
4803.000000	64.967799 
4802.000000	64.971232 
4801.000000	64.985156 
4800.000000	65.002107 
4799.000000	65.014290 
4798.000000	65.015196 
4797.000000	65.001177 
4796.000000	64.972090 
4795.000000	64.930176 
4794.000000	64.879179 
4793.000000	64.823293 
4792.000000	64.766430 
4791.000000	64.711928 
4790.000000	64.662647 
4789.000000	64.621543 
4788.000000	64.591813 
4787.000000	64.576578 
4786.000000	64.578652 
4785.000000	64.599108 
4784.000000	64.637422 
4783.000000	64.690661 
4782.000000	64.754080 
4781.000000	64.821171 
4780.000000	64.885163 
4779.000000	64.940190 
4778.000000	64.982008 
4777.000000	65.008139 
4776.000000	65.018248 
4775.000000	65.013670 
4774.000000	64.997434 
4773.000000	64.973449 
4772.000000	64.946913 
4771.000000	64.923548 
4770.000000	64.909791 
4769.000000	64.911985 
4768.000000	64.934706 
4767.000000	64.979696 
4766.000000	65.045189 
4765.000000	65.125966 
4764.000000	65.214133 
4763.000000	65.300846 
4762.000000	65.378332 
4761.000000	65.441179 
4760.000000	65.487289 
4759.000000	65.517020 
4758.000000	65.533447 
4757.000000	65.539336 
4756.000000	65.536952 
4755.000000	65.525460 
4754.000000	65.502381 
4753.000000	65.463089 
4752.000000	65.403580 
4751.000000	65.321803 
4750.000000	65.219545 
4749.000000	65.103316 
4748.000000	64.983630 
4747.000000	64.874053 
4746.000000	64.787983 
4745.000000	64.737057 
4744.000000	64.728379 
4743.000000	64.763426 
4742.000000	64.837646 
4741.000000	64.940834 
4740.000000	65.059041 
4739.000000	65.177083 
4738.000000	65.281486 
4737.000000	65.362811 
4736.000000	65.416765 
4735.000000	65.444278 
4734.000000	65.449738 
4733.000000	65.439701 
4732.000000	65.420007 
4731.000000	65.394210 
4730.000000	65.362715 
4729.000000	65.324449 
4728.000000	65.277600 
4727.000000	65.222001 
4726.000000	65.159964 
4725.000000	65.096950 
4724.000000	65.040874 
4723.000000	65.000247 
4722.000000	64.982604 
4721.000000	64.991760 
4720.000000	65.027832 
4719.000000	65.085959 
4718.000000	65.159273 
4717.000000	65.239667 
4716.000000	65.320777 
4715.000000	65.398788 
4714.000000	65.472364 
4713.000000	65.541625 
4712.000000	65.606760 
4711.000000	65.666341 
4710.000000	65.716886 
4709.000000	65.752482 
4708.000000	65.766263 
4707.000000	65.751624 
4706.000000	65.704846 
4705.000000	65.626454 
4704.000000	65.521860 
4703.000000	65.401101 
4702.000000	65.277814 
4701.000000	65.166115 
4700.000000	65.078687 
4699.000000	65.023112 
4698.000000	65.001153 
4697.000000	65.007638 
4696.000000	65.032124 
4695.000000	65.061163 
4694.000000	65.081214 
4693.000000	65.082311 
4692.000000	65.059709 
4691.000000	65.015912 
4690.000000	64.959263 
4689.000000	64.902114 
4688.000000	64.856958 
4687.000000	64.833426 
4686.000000	64.835524 
4685.000000	64.860558 
4684.000000	64.900064 
4683.000000	64.943099 
4682.000000	64.979028 
4681.000000	65.000867 
4680.000000	65.006303 
4679.000000	64.997673 
4678.000000	64.980435 
4677.000000	64.960718 
4676.000000	64.943385 
4675.000000	64.929819 
4674.000000	64.918470 
4673.000000	64.906048 
4672.000000	64.889335 
4671.000000	64.866781 
4670.000000	64.839506 
4669.000000	64.811992 
4668.000000	64.790010 
4667.000000	64.778518 
4666.000000	64.780282 
4665.000000	64.794158 
4664.000000	64.815902 
4663.000000	64.839267 
4662.000000	64.857769 
4661.000000	64.866638 
4660.000000	64.863896 
4659.000000	64.850759 
4658.000000	64.830756 
4657.000000	64.808869 
4656.000000	64.790177 
4655.000000	64.779114 
4654.000000	64.779090 
4653.000000	64.792323 
4652.000000	64.820194 
4651.000000	64.863085 
4650.000000	64.920616 
4649.000000	64.990711 
4648.000000	65.069723 
4647.000000	65.152001 
4646.000000	65.230131 
4645.000000	65.296125 
4644.000000	65.342545 
4643.000000	65.363979 
4642.000000	65.358757 
4641.000000	65.328621 
4640.000000	65.278983 
4639.000000	65.217065 
4638.000000	65.150856 
4637.000000	65.087294 
4636.000000	65.031337 
4635.000000	64.985418 
4634.000000	64.949774 
4633.000000	64.923191 
4632.000000	64.904189 
4631.000000	64.891338 
4630.000000	64.883923 
4629.000000	64.882016 
4628.000000	64.886116 
4627.000000	64.896297 
4626.000000	64.911818 
4625.000000	64.930629 
4624.000000	64.949965 
4623.000000	64.966845 
4622.000000	64.978814 
4621.000000	64.984560 
4620.000000	64.984107 
4619.000000	64.978861 
4618.000000	64.971065 
4617.000000	64.963769 
4616.000000	64.959192 
4615.000000	64.958548 
4614.000000	64.961004 
4613.000000	64.964747 
4612.000000	64.966535 
4611.000000	64.963102 
4610.000000	64.951109 
4609.000000	64.928340 
4608.000000	64.894032 
4607.000000	64.849400 
4606.000000	64.796757 
4605.000000	64.739108 
4604.000000	64.679980 
4603.000000	64.623451 
4602.000000	64.573478 
4601.000000	64.534139 
4600.000000	64.509367 
4599.000000	64.502596 
4598.000000	64.516258 
4597.000000	64.550995 
4596.000000	64.605140 
4595.000000	64.674258 
4594.000000	64.751076 
4593.000000	64.826393 
4592.000000	64.890170 
4591.000000	64.933514 
4590.000000	64.949870 
4589.000000	64.937138 
4588.000000	64.897751 
4587.000000	64.839291 
4586.000000	64.772939 
4585.000000	64.711880 
4584.000000	64.668607 
4583.000000	64.652633 
4582.000000	64.669084 
4581.000000	64.717102 
4580.000000	64.790606 
4579.000000	64.879155 
4578.000000	64.970231 
4577.000000	65.051436 
4576.000000	65.112972 
4575.000000	65.148711 
4574.000000	65.157151 
4573.000000	65.141344 
4572.000000	65.107989 
4571.000000	65.065503 
4570.000000	65.022659 
4569.000000	64.987015 
4568.000000	64.963698 
4567.000000	64.955878 
4566.000000	64.963507 
4565.000000	64.984655 
4564.000000	65.014910 
4563.000000	65.049242 
4562.000000	65.081620 
4561.000000	65.105748 
4560.000000	65.116333 
4559.000000	65.109920 
4558.000000	65.085291 
4557.000000	65.043711 
4556.000000	64.988732 
4555.000000	64.925622 
4554.000000	64.861059 
4553.000000	64.802122 
4552.000000	64.755988 
4551.000000	64.728713 
4550.000000	64.725017 
4549.000000	64.747023 
4548.000000	64.793467 
4547.000000	64.859271 
4546.000000	64.935469 
4545.000000	65.010380 
4544.000000	65.071702 
4543.000000	65.108418 
4542.000000	65.112805 
4541.000000	65.081858 
4540.000000	65.017700 
4539.000000	64.927220 
4538.000000	64.820671 
4537.000000	64.709758 
4536.000000	64.605712 
4535.000000	64.517569 
4534.000000	64.451193 
4533.000000	64.409184 
4532.000000	64.391207 
4531.000000	64.394855 
4530.000000	64.416408 
4529.000000	64.452075 
4528.000000	64.498233 
4527.000000	64.551925 
4526.000000	64.610314 
4525.000000	64.671349 
4524.000000	64.732813 
4523.000000	64.792871 
4522.000000	64.849591 
4521.000000	64.900851 
4520.000000	64.944148 
4519.000000	64.977455 
4518.000000	64.999127 
4517.000000	65.008163 
4516.000000	65.004205 
4515.000000	64.988541 
4514.000000	64.963006 
4513.000000	64.930391 
4512.000000	64.893269 
4511.000000	64.853858 
4510.000000	64.813661 
4509.000000	64.773869 
4508.000000	64.735293 
4507.000000	64.698529 
4506.000000	64.664578 
4505.000000	64.634847 
4504.000000	64.611363 
4503.000000	64.596343 
4502.000000	64.591765 
4501.000000	64.598536 
4500.000000	64.616107 
4499.000000	64.642167 
4498.000000	64.673089 
4497.000000	64.704775 
4496.000000	64.733147 
4495.000000	64.755320 
4494.000000	64.770936 
4493.000000	64.782333 
4492.000000	64.794039 
4491.000000	64.811468 
4490.000000	64.839625 
4489.000000	64.880704 
4488.000000	64.933991 
4487.000000	64.994025 
4486.000000	65.052342 
4485.000000	65.097737 
4484.000000	65.119910 
4483.000000	65.110492 
4482.000000	65.065073 
4481.000000	64.984750 
4480.000000	64.876842 
4479.000000	64.752912 
4478.000000	64.626669 
4477.000000	64.511370 
4476.000000	64.417791 
4475.000000	64.351844 
4474.000000	64.314317 
4473.000000	64.300823 
4472.000000	64.303660 
4471.000000	64.312863 
4470.000000	64.318823 
4469.000000	64.315104 
4468.000000	64.300251 
4467.000000	64.278244 
4466.000000	64.257240 
4465.000000	64.248514 
4464.000000	64.262533 
4463.000000	64.303016 
4462.000000	64.366817 
4461.000000	64.445567 
4460.000000	64.528512 
4459.000000	64.600610 
4458.000000	64.651918 
4457.000000	64.685702 
4456.000000	64.712619 
4455.000000	64.749717 
4454.000000	64.811515 
4453.000000	64.893865 
4452.000000	64.987659 
4451.000000	65.092325 
4450.000000	65.199828 
4449.000000	65.293049 
4448.000000	65.356349 
4447.000000	65.376353 
4446.000000	65.355873 
4445.000000	65.317535 
4444.000000	65.288090 
4443.000000	65.290164 
4442.000000	65.346646 
4441.000000	65.474796 
4440.000000	65.673089 
4439.000000	65.927147 
4438.000000	66.210961 
4437.000000	66.506862 
4436.000000	66.802144 
4435.000000	67.115998 
4434.000000	67.493629 
4433.000000	68.001198 
4432.000000	68.754673 
4431.000000	69.811248 
4430.000000	71.204948 
4429.000000	72.796225 
4428.000000	74.286150 
4427.000000	75.230097 
4426.000000	75.104379 
4425.000000	73.506450 
4424.000000	70.274662 
4423.000000	65.623450 
4422.000000	60.141229 
4421.000000	54.694509 
4420.000000	50.235009 
4419.000000	47.588968 
4418.000000	47.247648 
4417.000000	49.303150 
4416.000000	53.427457 
4415.000000	58.973002 
4414.000000	65.116500 
4413.000000	71.004676 
4412.000000	75.921821 
4411.000000	79.359507 
4410.000000	81.103301 
4409.000000	81.214118 
4408.000000	79.988384 
4407.000000	77.873921 
4406.000000	75.347852 
4405.000000	72.846269 
4404.000000	70.659494 
4403.000000	68.962597 
4402.000000	67.766547 
4401.000000	67.018246 
4400.000000	66.593503 
4399.000000	66.383910 
4398.000000	66.294360 
4397.000000	66.255617 
4396.000000	66.230750 
4395.000000	66.180205 
4394.000000	66.089367 
4393.000000	65.943932 
4392.000000	65.750241 
4391.000000	65.526890 
4390.000000	65.298509 
4389.000000	65.087080 
4388.000000	64.916491 
4387.000000	64.806389 
4386.000000	64.761924 
4385.000000	64.774847 
4384.000000	64.822387 
4383.000000	64.874887 
4382.000000	64.917182 
4381.000000	64.945626 
4380.000000	64.950203 
4379.000000	64.925575 
4378.000000	64.878630 
4377.000000	64.820528 
4376.000000	64.763021 
4375.000000	64.714765 
4374.000000	64.672136 
4373.000000	64.628314 
4372.000000	64.583134 
4371.000000	64.536571 
4370.000000	64.486455 
4369.000000	64.434361 
4368.000000	64.386272 
4367.000000	64.349675 
4366.000000	64.330744 
4365.000000	64.334225 
4364.000000	64.361524 
4363.000000	64.410185 
4362.000000	64.474081 
4361.000000	64.545106 
4360.000000	64.614820 
4359.000000	64.675903 
4358.000000	64.723563 
4357.000000	64.756894 
4356.000000	64.778494 
4355.000000	64.792895 
4354.000000	64.805316 
4353.000000	64.820408 
4352.000000	64.840936 
4351.000000	64.867424 
4350.000000	64.898276 
4349.000000	64.930582 
4348.000000	64.961242 
4347.000000	64.988255 
4346.000000	65.011191 
4345.000000	65.031886 
4344.000000	65.053081 
4343.000000	65.077495 
4342.000000	65.106630 
4341.000000	65.140366 
4340.000000	65.176033 
4339.000000	65.209317 
4338.000000	65.235018 
4337.000000	65.248703 
4336.000000	65.247392 
4335.000000	65.230512 
4334.000000	65.200018 
4333.000000	65.159964 
4332.000000	65.115261 
4331.000000	65.070700 
4330.000000	65.029501 
4329.000000	64.992904 
4328.000000	64.961075 
4327.000000	64.933228 
4326.000000	64.908170 
4325.000000	64.885330 
4324.000000	64.865040 
4323.000000	64.848780 
4322.000000	64.838171 
4321.000000	64.835453 
4320.000000	64.842152 
4319.000000	64.859080 
4318.000000	64.885497 
4317.000000	64.919066 
4316.000000	64.955639 
4315.000000	64.990282 
4314.000000	65.017890 
4313.000000	65.035176 
4312.000000	65.041303 
4311.000000	65.038514 
4310.000000	65.031385 
4309.000000	65.025305 
4308.000000	65.024828 
4307.000000	65.031814 
4306.000000	65.044760 
4305.000000	65.059280 
4304.000000	65.069103 
4303.000000	65.068268 
4302.000000	65.052843 
4301.000000	65.022063 
4300.000000	64.979028 
4299.000000	64.929604 
4298.000000	64.881682 
4297.000000	64.842605 
4296.000000	64.818429 
4295.000000	64.811921 
4294.000000	64.823436 
4293.000000	64.850783 
4292.000000	64.890527 
4291.000000	64.939165 
4290.000000	64.993524 
4289.000000	65.051245 
4288.000000	65.110254 
4287.000000	65.168070 
4286.000000	65.221953 
4285.000000	65.268754 
4284.000000	65.305185 
4283.000000	65.328288 
4282.000000	65.336418 
4281.000000	65.329742 
4280.000000	65.310406 
4279.000000	65.282011 
4278.000000	65.249061 
4277.000000	65.215730 
4276.000000	65.185165 
4275.000000	65.158700 
4274.000000	65.135431 
4273.000000	65.113043 
4272.000000	65.088367 
4271.000000	65.059423 
4270.000000	65.025925 
4269.000000	64.990258 
4268.000000	64.956903 
4267.000000	64.931559 
4266.000000	64.919209 
4265.000000	64.922714 
4264.000000	64.941811 
4263.000000	64.972376 
4262.000000	65.007352 
4261.000000	65.037989 
4260.000000	65.055990 
4259.000000	65.055418 
4258.000000	65.034174 
4257.000000	64.994215 
4256.000000	64.940977 
4255.000000	64.882087 
4254.000000	64.825534 
4253.000000	64.777994 
4252.000000	64.743471 
4251.000000	64.723324 
4250.000000	64.716172 
4249.000000	64.719104 
4248.000000	64.728355 
4247.000000	64.740109 
4246.000000	64.751291 
4245.000000	64.759469 
4244.000000	64.763808 
4243.000000	64.763998 
4242.000000	64.761066 
4241.000000	64.756751 
4240.000000	64.753413 
4239.000000	64.753246 
4238.000000	64.758205 
4237.000000	64.769864 
4236.000000	64.788770 
4235.000000	64.813947 
4234.000000	64.843344 
4233.000000	64.874291 
4232.000000	64.904189 
4231.000000	64.930820 
4230.000000	64.952969 
4229.000000	64.970469 
4228.000000	64.984107 
4227.000000	64.995384 
4226.000000	65.005731 
4225.000000	65.015959 
4224.000000	65.026259 
4223.000000	65.035963 
4222.000000	65.044283 
4221.000000	65.050125 
4220.000000	65.052604 
4219.000000	65.051484 
4218.000000	65.046954 
4217.000000	65.040326 
4216.000000	65.033268 
4215.000000	65.028548 
4214.000000	65.029191 
4213.000000	65.038633 
4212.000000	65.059924 
4211.000000	65.095162 
4210.000000	65.145087 
4209.000000	65.207982 
4208.000000	65.279579 
4207.000000	65.353012 
4206.000000	65.419936 
4205.000000	65.471601 
4204.000000	65.500831 
4203.000000	65.503239 
4202.000000	65.478253 
4201.000000	65.429282 
4200.000000	65.363121 
4199.000000	65.288352 
4198.000000	65.213346 
4197.000000	65.144610 
4196.000000	65.085625 
4195.000000	65.036749 
4194.000000	64.996433 
4193.000000	64.962124 
4192.000000	64.932513 
4191.000000	64.907813 
4190.000000	64.890909 
4189.000000	64.886116 
4188.000000	64.898395 
4187.000000	64.930629 
4186.000000	64.983224 
4185.000000	65.053224 
4184.000000	65.134525 
4183.000000	65.218949 
4182.000000	65.297341 
4181.000000	65.361642 
4180.000000	65.405559 
4179.000000	65.425872 
4178.000000	65.422344 
4177.000000	65.397405 
4176.000000	65.355682 
4175.000000	65.303063 
4174.000000	65.246319 
4173.000000	65.192198 
4172.000000	65.147328 
4171.000000	65.117263 
4170.000000	65.106391 
4169.000000	65.116882 
4168.000000	65.148639 
4167.000000	65.198493 
4166.000000	65.260028 
4165.000000	65.324544 
4164.000000	65.382146 
4163.000000	65.423846 
4162.000000	65.442943 
4161.000000	65.436697 
4160.000000	65.406751 
4159.000000	65.358543 
4158.000000	65.300059 
4157.000000	65.239810 
4156.000000	65.185546 
4155.000000	65.142655 
4154.000000	65.114045 
4153.000000	65.099954 
4152.000000	65.099000 
4151.000000	65.108656 
4150.000000	65.126490 
4149.000000	65.149998 
4148.000000	65.176749 
4147.000000	65.204143 
4146.000000	65.229487 
4145.000000	65.249896 
4144.000000	65.262460 
4143.000000	65.265011 
4142.000000	65.256309 
4141.000000	65.236926 
4140.000000	65.208888 
4139.000000	65.175175 
4138.000000	65.138983 
4137.000000	65.103173 
4136.000000	65.069937 
4135.000000	65.041017 
4134.000000	65.017724 
4133.000000	65.001010 
4132.000000	64.991807 
4131.000000	64.991116 
4130.000000	64.999604 
4129.000000	65.016770 
4128.000000	65.041613 
4127.000000	65.071916 
4126.000000	65.104961 
4125.000000	65.137887 
4124.000000	65.168046 
4123.000000	65.193557 
4122.000000	65.213608 
4121.000000	65.228438 
4120.000000	65.238904 
4119.000000	65.246200 
4118.000000	65.251374 
4117.000000	65.255165 
4116.000000	65.258216 
4115.000000	65.260982 
4114.000000	65.264153 
4113.000000	65.268182 
4112.000000	65.273404 
4111.000000	65.279531 
4110.000000	65.285730 
4109.000000	65.290307 
4108.000000	65.291213 
4107.000000	65.286278 
4106.000000	65.274262 
4105.000000	65.254902 
4104.000000	65.229129 
4103.000000	65.198779 
4102.000000	65.166425 
4101.000000	65.134859 
4100.000000	65.106773 
4099.000000	65.084099 
4098.000000	65.067887 
4097.000000	65.058541 
4096.000000	65.056037 
4095.000000	65.059924 
4094.000000	65.069222 
4093.000000	65.082812 
4092.000000	65.099358 
4091.000000	65.116858 
4090.000000	65.132975 
4089.000000	65.145182 
4088.000000	65.151524 
4087.000000	65.150904 
4086.000000	65.143728 
4085.000000	65.132141 
4084.000000	65.119528 
4083.000000	65.110421 
4082.000000	65.109038 
4081.000000	65.118503 
4080.000000	65.139484 
4079.000000	65.170431 
4078.000000	65.207195 
4077.000000	65.243959 
4076.000000	65.274214 
4075.000000	65.292406 
4074.000000	65.294623 
4073.000000	65.279650 
4072.000000	65.248680 
4071.000000	65.205264 
4070.000000	65.153932 
4069.000000	65.099453 
4068.000000	65.046000 
4067.000000	64.996743 
4066.000000	64.953660 
4065.000000	64.917874 
4064.000000	64.889907 
4063.000000	64.870405 
4062.000000	64.860081 
4061.000000	64.860033 
4060.000000	64.870691 
4059.000000	64.892029 
4058.000000	64.923095 
4057.000000	64.962077 
4056.000000	65.006136 
4055.000000	65.052056 
4054.000000	65.096378 
4053.000000	65.136098 
4052.000000	65.169024 
4051.000000	65.193915 
4050.000000	65.210175 
4049.000000	65.217900 
4048.000000	65.217685 
4047.000000	65.210366 
4046.000000	65.197157 
4045.000000	65.179133 
4044.000000	65.157961 
4043.000000	65.135312 
4042.000000	65.113162 
4041.000000	65.093421 
4040.000000	65.077805 
4039.000000	65.067195 
4038.000000	65.061616 
4037.000000	65.059971 
4036.000000	65.060567 
4035.000000	65.061211 
4034.000000	65.059947 
4033.000000	65.055441 
4032.000000	65.047645 
4031.000000	65.037846 
4030.000000	65.028691 
4029.000000	65.023398 
4028.000000	65.025138 
4027.000000	65.036201 
4026.000000	65.057325 
4025.000000	65.087342 
4024.000000	65.123367 
4023.000000	65.161275 
4022.000000	65.196681 
4021.000000	65.225529 
4020.000000	65.245103 
4019.000000	65.254569 
4018.000000	65.254974 
4017.000000	65.248680 
4016.000000	65.239095 
4015.000000	65.229797 
4014.000000	65.223550 
4013.000000	65.222001 
4012.000000	65.225148 
4011.000000	65.231609 
4010.000000	65.239000 
4009.000000	65.244722 
4008.000000	65.246200 
4007.000000	65.241575 
4006.000000	65.230250 
4005.000000	65.213036 
4004.000000	65.191984 
4003.000000	65.170216 
4002.000000	65.150880 
4001.000000	65.137076 
4000.000000	65.130996 
3999.000000	65.133738 
3998.000000	65.144968 
3997.000000	65.163373 
3996.000000	65.186882 
3995.000000	65.212631 
3994.000000	65.238142 
3993.000000	65.260505 
3992.000000	65.277123 
3991.000000	65.285301 
3990.000000	65.282654 
3989.000000	65.267539 
3988.000000	65.239381 
3987.000000	65.199422 
3986.000000	65.150785 
3985.000000	65.098667 
3984.000000	65.049815 
3983.000000	65.011382 
3982.000000	64.989471 
3981.000000	64.987635 
3980.000000	65.005803 
3979.000000	65.039920 
3978.000000	65.082645 
3977.000000	65.124678 
3976.000000	65.157151 
3975.000000	65.173292 
3974.000000	65.170574 
3973.000000	65.150642 
3972.000000	65.119671 
3971.000000	65.086269 
3970.000000	65.059995 
3969.000000	65.048956 
3968.000000	65.058040 
3967.000000	65.088176 
3966.000000	65.135693 
3965.000000	65.194010 
3964.000000	65.254330 
3963.000000	65.308046 
3962.000000	65.347957 
3961.000000	65.369892 
3960.000000	65.372705 
3959.000000	65.358066 
3958.000000	65.330028 
3957.000000	65.293765 
3956.000000	65.254712 
3955.000000	65.217566 
3954.000000	65.186095 
3953.000000	65.162658 
3952.000000	65.148615 
3951.000000	65.144443 
3950.000000	65.149712 
3949.000000	65.163540 
3948.000000	65.184307 
3947.000000	65.209794 
3946.000000	65.237116 
3945.000000	65.263271 
3944.000000	65.284991 
3943.000000	65.299487 
3942.000000	65.305018 
3941.000000	65.300869 
3940.000000	65.288138 
3939.000000	65.268588 
3938.000000	65.244626 
3937.000000	65.218424 
3936.000000	65.191578 
3935.000000	65.164661 
3934.000000	65.137386 
3933.000000	65.108799 
3932.000000	65.077924 
3931.000000	65.044307 
3930.000000	65.008592 
3929.000000	64.972424 
3928.000000	64.938330 
3927.000000	64.909195 
3926.000000	64.887666 
3925.000000	64.875507 
3924.000000	64.873290 
3923.000000	64.879941 
3922.000000	64.893460 
3921.000000	64.910960 
3920.000000	64.929986 
3919.000000	64.948654 
3918.000000	64.966559 
3917.000000	64.984059 
3916.000000	65.002417 
3915.000000	65.023255 
3914.000000	65.047526 
3913.000000	65.075278 
3912.000000	65.104985 
3911.000000	65.133976 
3910.000000	65.158939 
3909.000000	65.176892 
3908.000000	65.185904 
3907.000000	65.185737 
3906.000000	65.178132 
3905.000000	65.166759 
3904.000000	65.155935 
3903.000000	65.149712 
3902.000000	65.151095 
3901.000000	65.161418 
3900.000000	65.179872 
3899.000000	65.203595 
3898.000000	65.228939 
3897.000000	65.251731 
3896.000000	65.268158 
3895.000000	65.275263 
3894.000000	65.271162 
3893.000000	65.255355 
3892.000000	65.228295 
3891.000000	65.191602 
3890.000000	65.147590 
3889.000000	65.099382 
3888.000000	65.050816 
3887.000000	65.005970 
3886.000000	64.969062 
3885.000000	64.943337 
3884.000000	64.931058 
3883.000000	64.932751 
3882.000000	64.946866 
3881.000000	64.970469 
3880.000000	64.999747 
3879.000000	65.030884 
3878.000000	65.060567 
3877.000000	65.087127 
3876.000000	65.110611 
3875.000000	65.132451 
3874.000000	65.154480 
3873.000000	65.178298 
3872.000000	65.204310 
3871.000000	65.231418 
3870.000000	65.256881 
3869.000000	65.277314 
3868.000000	65.289068 
3867.000000	65.289688 
3866.000000	65.278577 
3865.000000	65.257334 
3864.000000	65.229582 
3863.000000	65.200328 
3862.000000	65.175104 
3861.000000	65.158653 
3860.000000	65.154123 
3859.000000	65.162777 
3858.000000	65.183305 
3857.000000	65.212416 
3856.000000	65.245103 
3855.000000	65.276122 
3854.000000	65.300512 
3853.000000	65.314364 
3852.000000	65.315675 
3851.000000	65.304493 
3850.000000	65.283083 
3849.000000	65.255260 
3848.000000	65.225625 
3847.000000	65.198397 
3846.000000	65.176558 
3845.000000	65.161299 
3844.000000	65.151453 
3843.000000	65.144395 
3842.000000	65.136742 
3841.000000	65.125989 
3840.000000	65.110802 
3839.000000	65.092039 
3838.000000	65.072417 
3837.000000	65.055799 
3836.000000	65.045976 
3835.000000	65.045738 
3834.000000	65.055537 
3833.000000	65.073800 
3832.000000	65.096902 
3831.000000	65.120315 
3830.000000	65.139532 
3829.000000	65.151453 
3828.000000	65.155100 
3827.000000	65.151572 
3826.000000	65.143465 
3825.000000	65.134215 
3824.000000	65.126776 
3823.000000	65.123271 
3822.000000	65.124368 
3821.000000	65.129375 
3820.000000	65.136599 
3819.000000	65.143585 
3818.000000	65.147924 
3817.000000	65.147733 
3816.000000	65.142178 
3815.000000	65.131592 
3814.000000	65.117692 
3813.000000	65.103125 
3812.000000	65.091204 
3811.000000	65.085029 
3810.000000	65.087056 
3809.000000	65.098810 
3808.000000	65.120315 
3807.000000	65.150260 
3806.000000	65.186357 
3805.000000	65.225672 
3804.000000	65.264940 
3803.000000	65.301179 
3802.000000	65.331935 
3801.000000	65.355324 
3800.000000	65.370225 
3799.000000	65.376305 
3798.000000	65.373682 
3797.000000	65.363097 
3796.000000	65.345811 
3795.000000	65.323495 
3794.000000	65.298438 
3793.000000	65.273165 
3792.000000	65.249800 
3791.000000	65.230107 
3790.000000	65.214872 
3789.000000	65.204215 
3788.000000	65.197682 
3787.000000	65.194559 
3786.000000	65.193986 
3785.000000	65.195393 
3784.000000	65.198421 
3783.000000	65.202879 
3782.000000	65.208745 
3781.000000	65.215706 
3780.000000	65.223455 
3779.000000	65.231204 
3778.000000	65.238118 
3777.000000	65.242981 
3776.000000	65.244317 
3775.000000	65.240812 
3774.000000	65.231394 
3773.000000	65.215945 
3772.000000	65.195560 
3771.000000	65.172600 
3770.000000	65.150332 
3769.000000	65.132570 
3768.000000	65.122938 
3767.000000	65.123820 
3766.000000	65.135598 
3765.000000	65.156340 
3764.000000	65.182161 
3763.000000	65.207648 
3762.000000	65.227103 
3761.000000	65.235781 
3760.000000	65.231251 
3759.000000	65.213656 
3758.000000	65.185904 
3757.000000	65.152907 
3756.000000	65.120577 
3755.000000	65.094637 
3754.000000	65.079498 
3753.000000	65.077495 
3752.000000	65.088939 
3751.000000	65.112280 
3750.000000	65.144658 
3749.000000	65.182566 
3748.000000	65.222382 
3747.000000	65.260887 
3746.000000	65.295338 
3745.000000	65.323352 
3744.000000	65.343236 
3743.000000	65.353679 
3742.000000	65.354013 
3741.000000	65.344071 
3740.000000	65.324568 
3739.000000	65.297031 
3738.000000	65.263748 
3737.000000	65.227103 
3736.000000	65.189599 
3735.000000	65.153408 
3734.000000	65.120053 
3733.000000	65.090537 
3732.000000	65.065479 
3731.000000	65.045547 
3730.000000	65.031456 
3729.000000	65.024375 
3728.000000	65.025448 
3727.000000	65.035772 
3726.000000	65.055418 
3725.000000	65.083479 
3724.000000	65.117502 
3723.000000	65.154170 
3722.000000	65.189290 
3721.000000	65.219140 
3720.000000	65.240883 
3719.000000	65.253734 
3718.000000	65.258836 
3717.000000	65.258908 
3716.000000	65.257263 
3715.000000	65.256738 
3714.000000	65.258836 
3713.000000	65.263104 
3712.000000	65.267300 
3711.000000	65.268325 
3710.000000	65.263414 
3709.000000	65.251374 
3708.000000	65.233302 
3707.000000	65.212655 
3706.000000	65.194654 
3705.000000	65.184926 
3704.000000	65.188169 
3703.000000	65.206551 
3702.000000	65.239262 
3701.000000	65.282654 
3700.000000	65.330815 
3699.000000	65.377187 
3698.000000	65.415477 
3697.000000	65.441465 
3696.000000	65.453171 
3695.000000	65.450787 
3694.000000	65.436291 
3693.000000	65.412449 
3692.000000	65.382409 
3691.000000	65.349149 
3690.000000	65.315151 
3689.000000	65.282392 
3688.000000	65.252518 
3687.000000	65.227103 
3686.000000	65.207457 
3685.000000	65.194511 
3684.000000	65.188789 
3683.000000	65.190196 
3682.000000	65.197896 
3681.000000	65.210437 
3680.000000	65.225696 
3679.000000	65.241742 
3678.000000	65.256428 
3677.000000	65.268397 
3676.000000	65.276861 
3675.000000	65.282130 
3674.000000	65.284991 
3673.000000	65.286827 
3672.000000	65.289235 
3671.000000	65.293741 
3670.000000	65.301275 
3669.000000	65.312004 
3668.000000	65.325236 
3667.000000	65.339207 
3666.000000	65.351557 
3665.000000	65.359640 
3664.000000	65.360999 
3663.000000	65.354251 
3662.000000	65.339469 
3661.000000	65.318274 
3660.000000	65.293598 
3659.000000	65.269494 
3658.000000	65.250229 
3657.000000	65.239500 
3656.000000	65.239572 
3655.000000	65.250897 
3654.000000	65.271830 
3653.000000	65.298986 
3652.000000	65.327835 
3651.000000	65.353608 
3650.000000	65.372204 
3649.000000	65.380787 
3648.000000	65.378451 
3647.000000	65.365576 
3646.000000	65.343952 
3645.000000	65.315914 
3644.000000	65.284156 
3643.000000	65.250873 
3642.000000	65.218281 
3641.000000	65.188431 
3640.000000	65.163612 
3639.000000	65.146231 
3638.000000	65.138816 
3637.000000	65.143394 
3636.000000	65.160894 
3635.000000	65.190696 
3634.000000	65.230298 
3633.000000	65.275597 
3632.000000	65.321350 
3631.000000	65.362143 
3630.000000	65.393567 
3629.000000	65.413022 
3628.000000	65.420436 
3627.000000	65.417790 
3626.000000	65.408563 
3625.000000	65.396451 
3624.000000	65.384745 
3623.000000	65.375256 
3622.000000	65.367984 
3621.000000	65.361309 
3620.000000	65.353155 
3619.000000	65.341162 
3618.000000	65.324091 
3617.000000	65.301990 
3616.000000	65.276551 
3615.000000	65.250635 
3614.000000	65.227794 
3613.000000	65.211296 
3612.000000	65.203332 
3611.000000	65.204262 
3610.000000	65.212750 
3609.000000	65.225625 
3608.000000	65.238666 
3607.000000	65.247511 
3606.000000	65.248656 
3605.000000	65.240192 
3604.000000	65.222239 
3603.000000	65.197229 
3602.000000	65.169668 
3601.000000	65.145039 
3600.000000	65.128612 
3599.000000	65.124773 
3598.000000	65.135741 
3597.000000	65.161323 
3596.000000	65.198779 
3595.000000	65.243649 
3594.000000	65.290498 
3593.000000	65.334129 
3592.000000	65.370225 
3591.000000	65.395903 
3590.000000	65.409660 
3589.000000	65.411663 
3588.000000	65.402770 
3587.000000	65.384340 
3586.000000	65.357685 
3585.000000	65.324234 
3584.000000	65.284919 
3583.000000	65.241026 
3582.000000	65.193819 
3581.000000	65.145182 
3580.000000	65.097379 
3579.000000	65.052938 
3578.000000	65.014338 
3577.000000	64.983534 
3576.000000	64.961624 
3575.000000	64.948844 
3574.000000	64.944100 
3573.000000	64.945697 
3572.000000	64.951181 
3571.000000	64.958214 
3570.000000	64.964628 
3569.000000	64.969301 
3568.000000	64.971828 
3567.000000	64.972972 
3566.000000	64.974069 
3565.000000	64.977097 
3564.000000	64.983725 
3563.000000	64.995288 
3562.000000	65.012192 
3561.000000	65.033602 
3560.000000	65.057897 
3559.000000	65.082311 
3558.000000	65.103912 
3557.000000	65.119624 
3556.000000	65.127038 
3555.000000	65.124797 
3554.000000	65.112948 
3553.000000	65.092873 
3552.000000	65.067005 
3551.000000	65.038847 
3550.000000	65.012383 
3549.000000	64.991450 
3548.000000	64.978981 
3547.000000	64.976954 
3546.000000	64.985895 
3545.000000	65.004515 
3544.000000	65.030145 
3543.000000	65.058946 
3542.000000	65.087008 
3541.000000	65.110802 
3540.000000	65.128135 
3539.000000	65.138292 
3538.000000	65.142250 
3537.000000	65.142345 
3536.000000	65.141415 
3535.000000	65.142202 
3534.000000	65.146493 
3533.000000	65.154790 
3532.000000	65.166258 
3531.000000	65.179085 
3530.000000	65.191173 
3529.000000	65.201020 
3528.000000	65.207958 
3527.000000	65.212655 
3526.000000	65.216660 
3525.000000	65.222263 
3524.000000	65.231537 
3523.000000	65.245628 
3522.000000	65.264415 
3521.000000	65.286421 
3520.000000	65.309357 
3519.000000	65.330433 
3518.000000	65.347337 
3517.000000	65.358567 
3516.000000	65.363979 
3515.000000	65.364313 
3514.000000	65.360951 
3513.000000	65.355205 
3512.000000	65.348076 
3511.000000	65.339922 
3510.000000	65.330839 
3509.000000	65.320491 
3508.000000	65.308928 
3507.000000	65.296030 
3506.000000	65.282082 
3505.000000	65.267205 
3504.000000	65.251469 
3503.000000	65.234780 
3502.000000	65.217018 
3501.000000	65.198016 
3500.000000	65.177989 
3499.000000	65.157318 
3498.000000	65.136718 
3497.000000	65.116977 
3496.000000	65.098881 
3495.000000	65.082812 
3494.000000	65.068912 
3493.000000	65.056777 
3492.000000	65.046048 
3491.000000	65.036463 
3490.000000	65.028262 
3489.000000	65.022063 
3488.000000	65.019130 
3487.000000	65.020632 
3486.000000	65.027546 
3485.000000	65.040135 
3484.000000	65.057730 
3483.000000	65.078806 
3482.000000	65.101218 
3481.000000	65.122604 
3480.000000	65.140676 
3479.000000	65.153694 
3478.000000	65.160560 
3477.000000	65.161108 
3476.000000	65.155982 
3475.000000	65.146636 
3474.000000	65.135073 
3473.000000	65.123343 
3472.000000	65.113234 
3471.000000	65.105915 
3470.000000	65.101742 
3469.000000	65.100431 
3468.000000	65.100860 
3467.000000	65.101790 
3466.000000	65.102195 
3465.000000	65.101861 
3464.000000	65.101265 
3463.000000	65.101766 
3462.000000	65.105557 
3461.000000	65.114784 
3460.000000	65.131020 
3459.000000	65.154504 
3458.000000	65.184140 
3457.000000	65.217208 
3456.000000	65.249609 
3455.000000	65.276360 
3454.000000	65.293240 
3453.000000	65.296745 
3452.000000	65.284895 
3451.000000	65.257668 
3450.000000	65.217161 
3449.000000	65.167117 
3448.000000	65.112519 
3447.000000	65.058732 
3446.000000	65.010881 
3445.000000	64.973044 
3444.000000	64.947938 
3443.000000	64.936518 
3442.000000	64.938068 
3441.000000	64.950466 
3440.000000	64.970970 
3439.000000	64.996194 
3438.000000	65.023398 
3437.000000	65.050220 
3436.000000	65.075945 
3435.000000	65.100359 
3434.000000	65.124726 
3433.000000	65.150642 
3432.000000	65.180444 
3431.000000	65.215921 
3430.000000	65.258479 
3429.000000	65.308666 
3428.000000	65.365624 
3427.000000	65.427732 
3426.000000	65.491580 
3425.000000	65.552854 
3424.000000	65.606355 
3423.000000	65.647220 
3422.000000	65.671038 
3421.000000	65.675234 
3420.000000	65.659213 
3419.000000	65.625166 
3418.000000	65.577316 
3417.000000	65.521407 
3416.000000	65.463948 
3415.000000	65.411114 
3414.000000	65.367650 
3413.000000	65.336132 
3412.000000	65.317010 
3411.000000	65.308570 
3410.000000	65.307831 
3409.000000	65.311360 
3408.000000	65.315389 
3407.000000	65.317225 
3406.000000	65.315389 
3405.000000	65.310049 
3404.000000	65.301871 
3403.000000	65.292859 
3402.000000	65.285468 
3401.000000	65.282344 
3400.000000	65.285420 
3399.000000	65.295767 
3398.000000	65.313410 
3397.000000	65.336990 
3396.000000	65.364050 
3395.000000	65.391612 
3394.000000	65.416789 
3393.000000	65.437197 
3392.000000	65.451359 
3391.000000	65.458893 
3390.000000	65.460348 
3389.000000	65.456867 
3388.000000	65.449714 
3387.000000	65.439701 
3386.000000	65.427088 
3385.000000	65.411996 
3384.000000	65.394330 
3383.000000	65.374064 
3382.000000	65.351343 
3381.000000	65.327048 
3380.000000	65.302300 
3379.000000	65.277957 
3378.000000	65.254402 
3377.000000	65.231418 
3376.000000	65.208411 
3375.000000	65.184736 
3374.000000	65.160417 
3373.000000	65.136075 
3372.000000	65.113520 
3371.000000	65.095114 
3370.000000	65.083456 
3369.000000	65.080332 
3368.000000	65.086412 
3367.000000	65.100717 
3366.000000	65.120744 
3365.000000	65.142869 
3364.000000	65.163540 
3363.000000	65.180039 
3362.000000	65.191078 
3361.000000	65.196967 
3360.000000	65.199422 
3359.000000	65.201091 
3358.000000	65.204477 
3357.000000	65.211367 
3356.000000	65.222263 
3355.000000	65.236544 
3354.000000	65.252828 
3353.000000	65.269184 
3352.000000	65.283942 
3351.000000	65.295863 
3350.000000	65.304589 
3349.000000	65.310406 
3348.000000	65.314173 
3347.000000	65.317034 
3346.000000	65.320158 
3345.000000	65.324282 
3344.000000	65.329861 
3343.000000	65.336632 
3342.000000	65.344119 
3341.000000	65.351152 
3340.000000	65.356254 
3339.000000	65.357637 
3338.000000	65.353631 
3337.000000	65.342736 
3336.000000	65.324163 
3335.000000	65.297913 
3334.000000	65.265274 
3333.000000	65.228652 
3332.000000	65.191411 
3331.000000	65.157341 
3330.000000	65.129756 
3329.000000	65.110993 
3328.000000	65.101695 
3327.000000	65.100669 
3326.000000	65.104913 
3325.000000	65.110325 
3324.000000	65.112519 
3323.000000	65.107512 
3322.000000	65.093207 
3321.000000	65.069246 
3320.000000	65.037679 
3319.000000	65.001988 
3318.000000	64.967131 
3317.000000	64.938235 
3316.000000	64.919805 
3315.000000	64.914798 
3314.000000	64.924001 
3313.000000	64.945888 
3312.000000	64.976954 
3311.000000	65.012192 
3310.000000	65.046358 
3309.000000	65.074825 
3308.000000	65.094447 
3307.000000	65.104031 
3306.000000	65.104508 
3305.000000	65.098357 
3304.000000	65.089154 
3303.000000	65.080595 
3302.000000	65.075707 
3301.000000	65.076136 
3300.000000	65.082359 
3299.000000	65.093088 
3298.000000	65.106034 
3297.000000	65.118193 
3296.000000	65.126872 
3295.000000	65.130186 
3294.000000	65.127491 
3293.000000	65.119504 
3292.000000	65.108156 
3291.000000	65.096116 
3290.000000	65.086174 
3289.000000	65.080571 
3288.000000	65.080451 
3287.000000	65.085554 
3286.000000	65.094470 
3285.000000	65.104913 
3284.000000	65.114498 
3283.000000	65.121316 
3282.000000	65.124392 
3281.000000	65.123772 
3280.000000	65.120506 
3279.000000	65.116310 
3278.000000	65.112948 
3277.000000	65.111804 
3276.000000	65.113472 
3275.000000	65.117835 
3274.000000	65.124154 
3273.000000	65.131664 
3272.000000	65.139698 
3271.000000	65.148138 
3270.000000	65.157341 
3269.000000	65.167999 
3268.000000	65.180492 
3267.000000	65.194749 
3266.000000	65.209794 
3265.000000	65.223741 
3264.000000	65.234231 
3263.000000	65.239262 
3262.000000	65.237498 
3261.000000	65.229010 
3260.000000	65.215039 
3259.000000	65.197825 
3258.000000	65.180039 
3257.000000	65.164184 
3256.000000	65.152096 
3255.000000	65.144634 
3254.000000	65.141701 
3253.000000	65.142583 
3252.000000	65.146541 
3251.000000	65.153050 
3250.000000	65.162086 
3249.000000	65.173840 
3248.000000	65.188455 
3247.000000	65.205574 
3246.000000	65.223979 
3245.000000	65.241575 
3244.000000	65.255928 
3243.000000	65.264320 
3242.000000	65.264773 
3241.000000	65.256214 
3240.000000	65.238833 
3239.000000	65.214204 
3238.000000	65.184736 
3237.000000	65.153622 
3236.000000	65.124177 
3235.000000	65.099501 
3234.000000	65.081810 
3233.000000	65.072345 
3232.000000	65.071225 
3231.000000	65.077495 
3230.000000	65.089416 
3229.000000	65.104532 
3228.000000	65.120291 
3227.000000	65.134620 
3226.000000	65.146088 
3225.000000	65.154194 
3224.000000	65.159249 
3223.000000	65.162253 
3222.000000	65.164375 
3221.000000	65.166068 
3220.000000	65.166974 
3219.000000	65.165948 
3218.000000	65.161204 
3217.000000	65.151548 
3216.000000	65.136384 
3215.000000	65.116620 
3214.000000	65.093946 
3213.000000	65.071058 
3212.000000	65.050339 
3211.000000	65.033435 
3210.000000	65.020680 
3209.000000	65.011096 
3208.000000	65.002989 
3207.000000	64.994621 
3206.000000	64.985013 
3205.000000	64.974331 
3204.000000	64.964079 
3203.000000	64.956808 
3202.000000	64.955234 
3201.000000	64.961457 
3200.000000	64.976239 
3199.000000	64.998793 
3198.000000	65.027308 
3197.000000	65.059351 
3196.000000	65.092563 
3195.000000	65.124893 
3194.000000	65.154933 
3193.000000	65.181517 
3192.000000	65.203332 
3191.000000	65.218901 
3190.000000	65.226411 
3189.000000	65.224242 
3188.000000	65.211415 
3187.000000	65.188288 
3186.000000	65.156698 
3185.000000	65.120029 
3184.000000	65.083026 
3183.000000	65.050888 
3182.000000	65.028333 
3181.000000	65.018844 
3180.000000	65.023779 
3179.000000	65.042257 
3178.000000	65.071392 
3177.000000	65.106773 
3176.000000	65.143275 
3175.000000	65.175962 
3174.000000	65.200757 
3173.000000	65.214991 
3172.000000	65.217566 
3171.000000	65.209007 
3170.000000	65.191245 
3169.000000	65.167212 
3168.000000	65.140390 
3167.000000	65.114498 
3166.000000	65.092921 
3165.000000	65.078377 
3164.000000	65.072393 
3163.000000	65.075421 
3162.000000	65.086960 
3161.000000	65.105462 
3160.000000	65.128731 
3159.000000	65.154361 
3158.000000	65.179777 
3157.000000	65.202736 
3156.000000	65.221452 
3155.000000	65.234422 
3154.000000	65.240740 
3153.000000	65.239953 
3152.000000	65.232157 
3151.000000	65.218091 
3150.000000	65.199208 
3149.000000	65.177774 
3148.000000	65.156435 
3147.000000	65.137982 
3146.000000	65.124678 
3145.000000	65.117549 
3144.000000	65.116047 
3143.000000	65.117955 
3142.000000	65.119624 
3141.000000	65.116930 
3140.000000	65.106534 
3139.000000	65.086960 
3138.000000	65.059113 
3137.000000	65.026569 
3136.000000	64.994668 
3135.000000	64.969372 
3134.000000	64.955973 
3133.000000	64.957356 
3132.000000	64.973211 
3131.000000	65.000224 
3130.000000	65.032768 
3129.000000	65.064311 
3128.000000	65.089011 
3127.000000	65.103197 
3126.000000	65.105867 
3125.000000	65.098953 
3124.000000	65.086269 
3123.000000	65.072441 
3122.000000	65.061569 
3121.000000	65.056538 
3120.000000	65.058302 
3119.000000	65.066242 
3118.000000	65.078449 
3117.000000	65.092349 
3116.000000	65.105056 
3115.000000	65.114164 
3114.000000	65.117955 
3113.000000	65.115380 
3112.000000	65.106558 
3111.000000	65.092206 
3110.000000	65.074419 
3109.000000	65.055894 
3108.000000	65.040016 
3107.000000	65.030336 
3106.000000	65.029907 
3105.000000	65.040636 
3104.000000	65.062761 
3103.000000	65.094780 
3102.000000	65.133404 
3101.000000	65.174293 
3100.000000	65.212678 
3099.000000	65.244293 
3098.000000	65.265750 
3097.000000	65.275096 
3096.000000	65.271615 
3095.000000	65.255951 
3094.000000	65.229558 
3093.000000	65.194606 
3092.000000	65.153861 
3091.000000	65.110373 
3090.000000	65.067553 
3089.000000	65.028762 
3088.000000	64.997243 
3087.000000	64.975738 
3086.000000	64.966106 
3085.000000	64.969038 
3084.000000	64.983677 
3083.000000	65.007805 
3082.000000	65.038084 
3081.000000	65.070557 
3080.000000	65.101194 
3079.000000	65.126514 
3078.000000	65.143918 
3077.000000	65.152049 
3076.000000	65.150642 
3075.000000	65.140819 
3074.000000	65.124511 
3073.000000	65.104675 
3072.000000	65.084528 
3071.000000	65.067410 
3070.000000	65.056562 
3069.000000	65.054345 
3068.000000	65.061926 
3067.000000	65.078997 
3066.000000	65.103864 
3065.000000	65.133309 
3064.000000	65.163326 
3063.000000	65.189456 
3062.000000	65.207910 
3061.000000	65.216231 
3060.000000	65.213894 
3059.000000	65.202164 
3058.000000	65.183711 
3057.000000	65.162277 
3056.000000	65.141415 
3055.000000	65.123820 
3054.000000	65.110540 
3053.000000	65.101361 
3052.000000	65.094614 
3051.000000	65.088438 
3050.000000	65.081095 
3049.000000	65.071773 
3048.000000	65.060639 
3047.000000	65.048933 
3046.000000	65.038132 
3045.000000	65.029358 
3044.000000	65.022897 
3043.000000	65.017843 
3042.000000	65.012359 
3041.000000	65.004205 
3040.000000	64.991760 
3039.000000	64.974498 
3038.000000	64.953494 
3037.000000	64.931416 
3036.000000	64.911746 
3035.000000	64.898157 
3034.000000	64.893198 
3033.000000	64.897727 
3032.000000	64.910840 
3031.000000	64.930152 
3030.000000	64.952301 
3029.000000	64.973807 
3028.000000	64.991903 
3027.000000	65.005016 
3026.000000	65.012812 
3025.000000	65.016245 
3024.000000	65.016984 
3023.000000	65.017104 
3022.000000	65.018463 
3021.000000	65.022516 
3020.000000	65.029931 
3019.000000	65.040612 
3018.000000	65.054178 
3017.000000	65.069532 
3016.000000	65.085530 
3015.000000	65.100574 
3014.000000	65.113306 
3013.000000	65.122246 
3012.000000	65.126061 
3011.000000	65.123796 
3010.000000	65.115189 
3009.000000	65.100598 
3008.000000	65.081095 
3007.000000	65.058445 
3006.000000	65.035033 
3005.000000	65.013384 
3004.000000	64.995718 
3003.000000	64.983773 
3002.000000	64.978432 
3001.000000	64.979577 
3000.000000	64.986324 
2999.000000	64.996790 
2998.000000	65.008950 
2997.000000	65.020847 
2996.000000	65.031170 
2995.000000	65.038990 
2994.000000	65.044307 
2993.000000	65.047621 
2992.000000	65.050029 
2991.000000	65.052580 
2990.000000	65.056324 
2989.000000	65.061688 
2988.000000	65.068769 
2987.000000	65.077137 
2986.000000	65.086078 
2985.000000	65.094637 
2984.000000	65.101838 
2983.000000	65.106987 
2982.000000	65.109801 
2981.000000	65.110206 
2980.000000	65.108489 
2979.000000	65.105009 
2978.000000	65.100336 
2977.000000	65.094447 
2976.000000	65.087199 
2975.000000	65.077972 
2974.000000	65.065789 
2973.000000	65.049552 
2972.000000	65.028452 
2971.000000	65.002417 
2970.000000	64.972138 
2969.000000	64.939475 
2968.000000	64.907193 
2967.000000	64.878654 
2966.000000	64.857363 
2965.000000	64.846396 
2964.000000	64.847445 
2963.000000	64.860796 
2962.000000	64.885067 
2961.000000	64.917612 
2960.000000	64.954733 
2959.000000	64.992356 
2958.000000	65.026593 
2957.000000	65.054416 
2956.000000	65.073919 
2955.000000	65.084362 
2954.000000	65.086030 
2953.000000	65.080142 
2952.000000	65.068459 
2951.000000	65.053081 
2950.000000	65.036010 
2949.000000	65.019416 
2948.000000	65.004849 
2947.000000	64.993667 
2946.000000	64.986681 
2945.000000	64.984107 
2944.000000	64.985585 
2943.000000	64.989852 
2942.000000	64.995241 
2941.000000	64.999771 
2940.000000	65.001678 
2939.000000	64.999318 
2938.000000	64.992094 
2937.000000	64.980340 
2936.000000	64.965581 
2935.000000	64.950084 
2934.000000	64.936804 
2933.000000	64.928579 
2932.000000	64.927983 
2931.000000	64.936637 
2930.000000	64.955067 
2929.000000	64.982342 
2928.000000	65.016555 
2927.000000	65.054750 
2926.000000	65.093398 
2925.000000	65.128731 
2924.000000	65.156984 
2923.000000	65.175151 
2922.000000	65.180969 
2921.000000	65.173602 
2920.000000	65.153956 
2919.000000	65.124368 
2918.000000	65.088891 
2917.000000	65.052199 
2916.000000	65.019035 
2915.000000	64.993095 
2914.000000	64.976787 
2913.000000	64.970660 
2912.000000	64.973497 
2911.000000	64.982843 
2910.000000	64.995646 
2909.000000	65.008926 
2908.000000	65.020275 
2907.000000	65.028452 
2906.000000	65.033149 
2905.000000	65.035319 
2904.000000	65.036487 
2903.000000	65.038585 
2902.000000	65.043234 
2901.000000	65.051388 
2900.000000	65.062880 
2899.000000	65.076732 
2898.000000	65.091061 
2897.000000	65.103816 
2896.000000	65.113210 
2895.000000	65.117883 
2894.000000	65.117430 
2893.000000	65.112447 
2892.000000	65.104269 
2891.000000	65.094590 
2890.000000	65.085148 
2889.000000	65.077590 
2888.000000	65.072917 
2887.000000	65.071654 
2886.000000	65.073490 
2885.000000	65.077757 
2884.000000	65.083265 
2883.000000	65.088963 
2882.000000	65.093803 
2881.000000	65.097045 
2880.000000	65.098500 
2879.000000	65.098404 
2878.000000	65.097594 
2877.000000	65.097332 
2876.000000	65.098929 
2875.000000	65.103411 
2874.000000	65.111184 
2873.000000	65.121793 
2872.000000	65.133953 
2871.000000	65.145730 
2870.000000	65.154957 
2869.000000	65.159726 
2868.000000	65.158891 
2867.000000	65.152192 
2866.000000	65.140271 
2865.000000	65.124535 
2864.000000	65.106511 
2863.000000	65.087676 
2862.000000	65.069317 
2861.000000	65.052008 
2860.000000	65.036106 
2859.000000	65.021681 
2858.000000	65.008711 
2857.000000	64.997291 
2856.000000	64.987659 
2855.000000	64.979982 
2854.000000	64.974379 
2853.000000	64.970636 
2852.000000	64.968061 
2851.000000	64.965844 
2850.000000	64.963293 
2849.000000	64.960050 
2848.000000	64.956283 
2847.000000	64.952874 
2846.000000	64.951300 
2845.000000	64.953041 
2844.000000	64.959502 
2843.000000	64.971399 
2842.000000	64.988327 
2841.000000	65.008926 
2840.000000	65.030932 
2839.000000	65.051269 
2838.000000	65.066981 
2837.000000	65.075612 
2836.000000	65.076184 
2835.000000	65.068984 
2834.000000	65.055823 
2833.000000	65.039682 
2832.000000	65.023851 
2831.000000	65.011024 
2830.000000	65.002632 
2829.000000	64.998793 
2828.000000	64.998030 
2827.000000	64.997839 
2826.000000	64.995479 
2825.000000	64.988970 
2824.000000	64.977622 
2823.000000	64.962267 
2822.000000	64.945030 
2821.000000	64.928793 
2820.000000	64.916324 
2819.000000	64.909529 
2818.000000	64.909029 
2817.000000	64.914035 
2816.000000	64.922904 
2815.000000	64.933705 
2814.000000	64.944815 
2813.000000	64.955258 
2812.000000	64.964985 
2811.000000	64.974546 
2810.000000	64.984583 
2809.000000	64.995598 
2808.000000	65.007495 
2807.000000	65.019989 
2806.000000	65.032529 
2805.000000	65.044593 
2804.000000	65.056204 
2803.000000	65.067696 
2802.000000	65.080046 
2801.000000	65.094017 
2800.000000	65.109896 
2799.000000	65.127086 
2798.000000	65.144276 
2797.000000	65.159416 
2796.000000	65.170383 
2795.000000	65.175557 
2794.000000	65.174174 
2793.000000	65.166711 
2792.000000	65.154504 
2791.000000	65.139460 
2790.000000	65.123605 
2789.000000	65.108394 
2788.000000	65.094709 
2787.000000	65.082550 
2786.000000	65.071773 
2785.000000	65.062093 
2784.000000	65.053892 
2783.000000	65.047907 
2782.000000	65.045547 
2781.000000	65.048384 
2780.000000	65.057897 
2779.000000	65.074491 
2778.000000	65.097522 
2777.000000	65.125226 
2776.000000	65.154671 
2775.000000	65.182590 
2774.000000	65.205812 
2773.000000	65.222096 
2772.000000	65.230321 
2771.000000	65.230727 
2770.000000	65.224552 
2769.000000	65.213894 
2768.000000	65.201091 
2767.000000	65.188121 
2766.000000	65.176510 
2765.000000	65.167284 
2764.000000	65.160799 
2763.000000	65.157008 
2762.000000	65.155577 
2761.000000	65.155959 
2760.000000	65.157508 
2759.000000	65.159416 
2758.000000	65.160727 
2757.000000	65.160465 
2756.000000	65.157723 
2755.000000	65.152001 
2754.000000	65.143275 
2753.000000	65.132045 
2752.000000	65.119409 
2751.000000	65.106797 
2750.000000	65.095710 
2749.000000	65.087175 
2748.000000	65.081644 
2747.000000	65.078639 
2746.000000	65.077090 
2745.000000	65.075469 
2744.000000	65.072059 
2743.000000	65.065765 
2742.000000	65.056347 
2741.000000	65.044450 
2740.000000	65.031504 
2739.000000	65.019178 
2738.000000	65.009307 
2737.000000	65.003204 
2736.000000	65.001606 
2735.000000	65.004348 
2734.000000	65.010833 
2733.000000	65.020203 
2732.000000	65.031623 
2731.000000	65.044450 
2730.000000	65.058326 
2729.000000	65.073060 
2728.000000	65.088510 
2727.000000	65.104413 
2726.000000	65.120148 
2725.000000	65.134978 
2724.000000	65.147686 
2723.000000	65.157032 
2722.000000	65.161728 
2721.000000	65.161013 
2720.000000	65.154433 
2719.000000	65.142083 
2718.000000	65.124607 
2717.000000	65.103292 
2716.000000	65.079689 
2715.000000	65.055513 
2714.000000	65.032529 
2713.000000	65.012383 
2712.000000	64.996457 
2711.000000	64.985871 
2710.000000	64.981317 
2709.000000	64.983010 
2708.000000	64.990615 
2707.000000	65.003418 
2706.000000	65.020132 
2705.000000	65.039277 
2704.000000	65.059280 
2703.000000	65.078759 
2702.000000	65.096473 
2701.000000	65.111684 
2700.000000	65.123939 
2699.000000	65.133142 
2698.000000	65.139293 
2697.000000	65.142512 
2696.000000	65.143108 
2695.000000	65.141248 
2694.000000	65.137362 
2693.000000	65.131783 
2692.000000	65.125107 
2691.000000	65.117883 
2690.000000	65.110731 
2689.000000	65.104055 
2688.000000	65.097975 
2687.000000	65.092206 
2686.000000	65.086293 
2685.000000	65.079712 
2684.000000	65.071916 
2683.000000	65.062689 
2682.000000	65.052270 
2681.000000	65.041089 
2680.000000	65.029788 
2679.000000	65.019178 
2678.000000	65.009975 
2677.000000	65.002846 
2676.000000	64.998126 
2675.000000	64.995861 
2674.000000	64.995598 
2673.000000	64.996647 
2672.000000	64.998149 
2671.000000	64.998841 
2670.000000	64.997768 
2669.000000	64.994430 
2668.000000	64.989280 
2667.000000	64.983081 
2666.000000	64.977526 
2665.000000	64.974498 
2664.000000	64.975810 
2663.000000	64.982390 
2662.000000	64.994311 
2661.000000	65.010499 
2660.000000	65.029072 
2659.000000	65.047645 
2658.000000	65.063905 
2657.000000	65.076136 
2656.000000	65.083718 
2655.000000	65.087103 
2654.000000	65.087604 
2653.000000	65.086746 
2652.000000	65.086150 
2651.000000	65.086650 
2650.000000	65.088605 
2649.000000	65.091395 
2648.000000	65.094208 
2647.000000	65.095663 
2646.000000	65.094852 
2645.000000	65.090870 
2644.000000	65.083408 
2643.000000	65.072369 
2642.000000	65.057897 
2641.000000	65.040373 
2640.000000	65.020108 
2639.000000	64.997792 
2638.000000	64.974498 
2637.000000	64.951634 
2636.000000	64.930939 
2635.000000	64.914441 
2634.000000	64.904117 
2633.000000	64.901518 
2632.000000	64.907407 
2631.000000	64.921736 
2630.000000	64.943337 
2629.000000	64.970350 
2628.000000	65.000152 
2627.000000	65.029931 
2626.000000	65.056872 
2625.000000	65.078520 
2624.000000	65.092992 
2623.000000	65.099382 
2622.000000	65.097594 
2621.000000	65.088629 
2620.000000	65.074229 
2619.000000	65.056657 
2618.000000	65.038180 
2617.000000	65.020990 
2616.000000	65.006494 
2615.000000	64.995169 
2614.000000	64.986395 
2613.000000	64.979004 
2612.000000	64.971494 
2611.000000	64.962530 
2610.000000	64.951586 
2609.000000	64.939045 
2608.000000	64.926481 
2607.000000	64.916157 
2606.000000	64.910554 
2605.000000	64.911508 
2604.000000	64.919590 
2603.000000	64.933753 
2602.000000	64.951395 
2601.000000	64.969158 
2600.000000	64.983606 
2599.000000	64.992356 
2598.000000	64.994382 
2597.000000	64.990496 
2596.000000	64.982914 
2595.000000	64.974689 
2594.000000	64.968681 
2593.000000	64.967083 
2592.000000	64.970970 
2591.000000	64.980125 
2590.000000	64.993596 
2589.000000	65.009641 
2588.000000	65.026307 
2587.000000	65.041494 
2586.000000	65.053582 
2585.000000	65.060973 
2584.000000	65.062165 
2583.000000	65.056228 
2582.000000	65.042591 
2581.000000	65.021872 
2580.000000	64.995908 
2579.000000	64.967870 
2578.000000	64.941740 
2577.000000	64.921689 
2576.000000	64.911103 
2575.000000	64.911746 
2574.000000	64.923405 
2573.000000	64.943671 
2572.000000	64.968705 
2571.000000	64.994049 
2570.000000	65.015673 
2569.000000	65.030813 
2568.000000	65.038752 
2567.000000	65.040421 
2566.000000	65.038228 
2565.000000	65.035080 
2564.000000	65.033698 
2563.000000	65.035939 
2562.000000	65.042304 
2561.000000	65.052008 
2560.000000	65.063095 
2559.000000	65.073537 
2558.000000	65.081048 
2557.000000	65.084052 
2556.000000	65.081596 
2555.000000	65.073585 
2554.000000	65.060734 
2553.000000	65.044307 
2552.000000	65.026259 
2551.000000	65.008640 
2550.000000	64.993619 
2549.000000	64.983034 
2548.000000	64.978313 
2547.000000	64.980149 
2546.000000	64.988279 
2545.000000	65.001487 
2544.000000	65.017724 
2543.000000	65.034532 
2542.000000	65.049409 
2541.000000	65.060353 
2540.000000	65.066146 
2539.000000	65.066552 
2538.000000	65.062332 
2537.000000	65.054941 
2536.000000	65.046000 
2535.000000	65.036964 
2534.000000	65.028953 
2533.000000	65.022325 
2532.000000	65.017127 
2531.000000	65.012907 
2530.000000	65.009045 
2529.000000	65.004825 
2528.000000	64.999866 
2527.000000	64.994072 
2526.000000	64.987730 
2525.000000	64.981245 
2524.000000	64.975214 
2523.000000	64.970135 
2522.000000	64.966487 
2521.000000	64.964604 
2520.000000	64.964652 
2519.000000	64.966726 
2518.000000	64.970660 
2517.000000	64.976215 
2516.000000	64.982914 
2515.000000	64.989948 
2514.000000	64.996528 
2513.000000	65.001702 
2512.000000	65.004849 
2511.000000	65.005660 
2510.000000	65.004420 
2509.000000	65.002083 
2508.000000	64.999794 
2507.000000	64.998984 
2506.000000	65.000557 
2505.000000	65.004849 
2504.000000	65.011286 
2503.000000	65.018486 
2502.000000	65.024423 
2501.000000	65.027046 
2500.000000	65.024781 
2499.000000	65.017080 
2498.000000	65.004467 
2497.000000	64.988660 
2496.000000	64.972066 
2495.000000	64.957046 
2494.000000	64.945626 
2493.000000	64.938831 
2492.000000	64.936709 
2491.000000	64.938378 
2490.000000	64.942336 
2489.000000	64.947104 
2488.000000	64.951634 
2487.000000	64.955568 
2486.000000	64.959073 
2485.000000	64.962816 
2484.000000	64.967560 
2483.000000	64.973902 
2482.000000	64.981865 
2481.000000	64.990687 
2480.000000	64.999198 
2479.000000	65.005850 
2478.000000	65.009140 
2477.000000	65.007972 
2476.000000	65.001821 
2475.000000	64.991092 
2474.000000	64.976906 
2473.000000	64.961004 
2472.000000	64.945650 
2471.000000	64.933013 
2470.000000	64.925098 
2469.000000	64.923262 
2468.000000	64.928007 
2467.000000	64.938855 
2466.000000	64.954304 
2465.000000	64.971756 
2464.000000	64.988255 
2463.000000	65.000629 
2462.000000	65.006303 
2461.000000	65.003418 
2460.000000	64.991712 
2459.000000	64.972329 
2458.000000	64.947795 
2457.000000	64.921712 
2456.000000	64.897871 
2455.000000	64.879679 
2454.000000	64.869260 
2453.000000	64.867281 
2452.000000	64.872598 
2451.000000	64.882802 
2450.000000	64.894723 
2449.000000	64.905476 
2448.000000	64.913010 
2447.000000	64.916467 
2446.000000	64.916396 
2445.000000	64.914345 
2444.000000	64.912080 
2443.000000	64.911031 
2442.000000	64.911746 
2441.000000	64.913678 
2440.000000	64.915490 
2439.000000	64.915585 
2438.000000	64.912629 
2437.000000	64.906167 
2436.000000	64.896941 
2435.000000	64.886856 
2434.000000	64.878559 
2433.000000	64.874649 
2432.000000	64.877057 
2431.000000	64.886164 
2430.000000	64.901185 
2429.000000	64.919877 
2428.000000	64.939260 
2427.000000	64.956021 
2426.000000	64.967536 
2425.000000	64.972066 
2424.000000	64.969277 
2423.000000	64.960193 
2422.000000	64.946579 
2421.000000	64.930820 
2420.000000	64.915275 
2419.000000	64.902043 
2418.000000	64.892601 
2417.000000	64.887881 
2416.000000	64.888215 
2415.000000	64.893507 
2414.000000	64.903497 
2413.000000	64.917516 
2412.000000	64.934539 
2411.000000	64.953351 
2410.000000	64.972305 
2409.000000	64.989399 
2408.000000	65.002465 
2407.000000	65.009713 
2406.000000	65.009880 
2405.000000	65.002560 
2404.000000	64.988636 
2403.000000	64.970040 
2402.000000	64.949965 
2401.000000	64.931869 
2400.000000	64.919161 
2399.000000	64.914369 
2398.000000	64.918565 
2397.000000	64.931344 
2396.000000	64.950633 
2395.000000	64.973235 
2394.000000	64.995598 
2393.000000	65.014362 
2392.000000	65.027117 
2391.000000	65.032744 
2390.000000	65.031528 
2389.000000	65.024995 
2388.000000	65.015316 
2387.000000	65.004515 
2386.000000	64.994311 
2385.000000	64.985418 
2384.000000	64.977717 
2383.000000	64.970183 
2382.000000	64.961504 
2381.000000	64.950275 
2380.000000	64.935517 
2379.000000	64.916872 
2378.000000	64.894652 
2377.000000	64.870119 
2376.000000	64.844822 
2375.000000	64.820861 
2374.000000	64.800167 
2373.000000	64.784598 
2372.000000	64.775276 
2371.000000	64.773058 
2370.000000	64.777946 
2369.000000	64.789509 
2368.000000	64.806818 
2367.000000	64.828610 
2366.000000	64.853191 
2365.000000	64.879035 
2364.000000	64.904570 
2363.000000	64.928317 
2362.000000	64.948916 
2361.000000	64.965295 
2360.000000	64.976787 
2359.000000	64.983201 
2358.000000	64.984750 
2357.000000	64.982295 
2356.000000	64.977121 
2355.000000	64.970993 
2354.000000	64.965748 
2353.000000	64.963006 
2352.000000	64.963626 
2351.000000	64.967966 
2350.000000	64.975571 
2349.000000	64.985466 
2348.000000	64.996337 
2347.000000	65.006875 
2346.000000	65.016031 
2345.000000	65.023183 
2344.000000	65.028095 
2343.000000	65.030813 
2342.000000	65.031552 
2341.000000	65.030646 
2340.000000	65.028190 
2339.000000	65.024232 
2338.000000	65.018916 
2337.000000	65.012454 
2336.000000	65.005373 
2335.000000	64.998364 
2334.000000	64.992380 
2333.000000	64.988303 
2332.000000	64.986824 
2331.000000	64.988160 
2330.000000	64.992237 
2329.000000	64.998650 
2328.000000	65.006661 
2327.000000	65.015363 
2326.000000	65.023756 
2325.000000	65.030860 
2324.000000	65.035748 
2323.000000	65.037798 
2322.000000	65.036559 
2321.000000	65.031933 
2320.000000	65.024042 
2319.000000	65.013480 
2318.000000	65.001058 
2317.000000	64.987611 
2316.000000	64.974117 
2315.000000	64.961552 
2314.000000	64.950680 
2313.000000	64.941978 
2312.000000	64.935612 
2311.000000	64.931583 
2310.000000	64.929580 
2309.000000	64.929103 
2308.000000	64.929461 
2307.000000	64.929723 
2306.000000	64.928936 
2305.000000	64.926338 
2304.000000	64.921259 
2303.000000	64.913702 
2302.000000	64.904212 
2301.000000	64.893794 
2300.000000	64.883780 
2299.000000	64.875292 
2298.000000	64.869189 
2297.000000	64.865541 
2296.000000	64.863848 
2295.000000	64.863371 
2294.000000	64.863419 
2293.000000	64.863562 
2292.000000	64.863801 
2291.000000	64.864587 
2290.000000	64.866495 
2289.000000	64.869976 
2288.000000	64.875030 
2287.000000	64.880967 
2286.000000	64.886665 
2285.000000	64.890766 
2284.000000	64.892172 
2283.000000	64.890241 
2282.000000	64.885330 
2281.000000	64.878463 
2280.000000	64.871263 
2279.000000	64.865350 
2278.000000	64.861917 
2277.000000	64.861202 
2276.000000	64.862537 
2275.000000	64.864420 
2274.000000	64.864850 
2273.000000	64.861750 
2272.000000	64.853477 
2271.000000	64.839363 
2270.000000	64.819717 
2269.000000	64.795875 
2268.000000	64.769935 
2267.000000	64.744544 
2266.000000	64.722275 
2265.000000	64.705443 
2264.000000	64.695405 
2263.000000	64.692664 
2262.000000	64.696693 
2261.000000	64.706277 
2260.000000	64.719700 
2259.000000	64.735245 
2258.000000	64.751172 
2257.000000	64.766263 
2256.000000	64.779543 
2255.000000	64.790463 
2254.000000	64.798617 
2253.000000	64.803600 
2252.000000	64.804935 
2251.000000	64.802312 
2250.000000	64.795422 
2249.000000	64.784479 
2248.000000	64.770340 
2247.000000	64.754509 
2246.000000	64.739155 
2245.000000	64.726638 
2244.000000	64.719295 
2243.000000	64.718914 
2242.000000	64.726305 
2241.000000	64.741301 
2240.000000	64.762616 
2239.000000	64.788246 
2238.000000	64.815759 
2237.000000	64.842534 
2236.000000	64.866352 
2235.000000	64.885520 
2234.000000	64.899134 
2233.000000	64.906907 
2232.000000	64.909267 
2231.000000	64.907193 
2230.000000	64.902091 
2229.000000	64.895319 
2228.000000	64.888310 
2227.000000	64.882206 
2226.000000	64.877700 
2225.000000	64.875125 
2224.000000	64.874219 
2223.000000	64.874243 
2222.000000	64.874219 
2221.000000	64.873147 
2220.000000	64.870333 
2219.000000	64.865493 
2218.000000	64.858889 
2217.000000	64.851403 
2216.000000	64.844369 
2215.000000	64.839076 
2214.000000	64.836573 
2213.000000	64.837479 
2212.000000	64.841699 
2211.000000	64.848589 
2210.000000	64.857244 
2209.000000	64.866685 
2208.000000	64.876079 
2207.000000	64.885282 
2206.000000	64.894652 
2205.000000	64.904999 
2204.000000	64.916944 
2203.000000	64.930725 
2202.000000	64.945960 
2201.000000	64.961409 
2200.000000	64.975142 
2199.000000	64.985084 
2198.000000	64.989352 
2197.000000	64.986968 
2196.000000	64.978122 
2195.000000	64.964318 
2194.000000	64.947891 
2193.000000	64.931988 
2192.000000	64.919281 
2191.000000	64.911675 
2190.000000	64.909529 
2189.000000	64.911723 
2188.000000	64.916133 
2187.000000	64.919900 
2186.000000	64.920210 
2185.000000	64.915013 
2184.000000	64.903116 
2183.000000	64.884710 
2182.000000	64.860963 
2181.000000	64.833760 
2180.000000	64.805221 
2179.000000	64.777588 
2178.000000	64.752697 
2177.000000	64.731907 
2176.000000	64.715981 
2175.000000	64.705324 
2174.000000	64.699769 
2173.000000	64.698910 
2172.000000	64.702200 
2171.000000	64.708995 
2170.000000	64.718580 
2169.000000	64.730453 
2168.000000	64.744400 
2167.000000	64.760541 
2166.000000	64.779019 
2165.000000	64.799690 
2164.000000	64.821839 
2163.000000	64.843988 
2162.000000	64.864063 
2161.000000	64.879512 
2160.000000	64.888072 
2159.000000	64.888000 
2158.000000	64.879155 
2157.000000	64.862513 
2156.000000	64.840126 
2155.000000	64.814758 
2154.000000	64.789462 
2153.000000	64.766955 
2152.000000	64.749383 
2151.000000	64.737963 
2150.000000	64.733290 
2149.000000	64.735054 
2148.000000	64.742207 
2147.000000	64.753270 
2146.000000	64.766526 
2145.000000	64.780211 
2144.000000	64.792704 
2143.000000	64.802861 
2142.000000	64.810013 
2141.000000	64.814138 
2140.000000	64.815831 
2139.000000	64.815902 
2138.000000	64.815616 
2137.000000	64.815783 
2136.000000	64.817047 
2135.000000	64.819526 
2134.000000	64.822936 
2133.000000	64.826989 
2132.000000	64.831542 
2131.000000	64.836645 
2130.000000	64.842534 
2129.000000	64.849448 
2128.000000	64.857482 
2127.000000	64.866161 
2126.000000	64.874482 
2125.000000	64.881086 
2124.000000	64.884591 
2123.000000	64.883875 
2122.000000	64.878487 
2121.000000	64.868807 
2120.000000	64.856100 
2119.000000	64.842271 
2118.000000	64.829516 
2117.000000	64.819693 
2116.000000	64.813971 
2115.000000	64.812707 
2114.000000	64.815402 
2113.000000	64.820909 
2112.000000	64.827752 
2111.000000	64.834380 
2110.000000	64.839577 
2109.000000	64.842557 
2108.000000	64.843058 
2107.000000	64.841246 
2106.000000	64.837479 
2105.000000	64.832305 
2104.000000	64.826393 
2103.000000	64.820289 
2102.000000	64.814352 
2101.000000	64.808845 
2100.000000	64.804100 
2099.000000	64.800238 
2098.000000	64.797186 
2097.000000	64.794850 
2096.000000	64.793062 
2095.000000	64.791750 
2094.000000	64.790892 
2093.000000	64.790487 
2092.000000	64.790558 
2091.000000	64.790773 
2090.000000	64.790654 
2089.000000	64.789342 
2088.000000	64.786076 
2087.000000	64.780116 
2086.000000	64.771175 
2085.000000	64.759683 
2084.000000	64.746594 
2083.000000	64.733433 
2082.000000	64.721703 
2081.000000	64.712738 
2080.000000	64.707422 
2079.000000	64.706110 
2078.000000	64.708709 
2077.000000	64.714765 
2076.000000	64.723682 
2075.000000	64.734911 
2074.000000	64.747786 
2073.000000	64.761710 
2072.000000	64.775538 
2071.000000	64.787864 
2070.000000	64.796853 
2069.000000	64.800715 
2068.000000	64.797902 
2067.000000	64.787864 
2066.000000	64.771389 
2065.000000	64.750552 
2064.000000	64.728713 
2063.000000	64.709639 
2062.000000	64.696836 
2061.000000	64.692711 
2060.000000	64.697861 
2059.000000	64.710831 
2058.000000	64.728665 
2057.000000	64.747643 
2056.000000	64.763927 
2055.000000	64.774775 
2054.000000	64.778900 
2053.000000	64.776706 
2052.000000	64.769649 
2051.000000	64.759993 
2050.000000	64.749789 
2049.000000	64.740633 
2048.000000	64.733362 
2047.000000	64.728021 
2046.000000	64.724302 
2045.000000	64.721727 
2044.000000	64.719915 
2043.000000	64.718627 
2042.000000	64.717793 
2041.000000	64.717507 
2040.000000	64.717650 
2039.000000	64.718055 
2038.000000	64.718532 
2037.000000	64.719009 
2036.000000	64.719748 
2035.000000	64.721393 
2034.000000	64.725112 
2033.000000	64.732098 
2032.000000	64.743566 
2031.000000	64.760041 
2030.000000	64.781188 
2029.000000	64.805865 
2028.000000	64.831948 
2027.000000	64.856791 
2026.000000	64.877700 
2025.000000	64.892625 
2024.000000	64.900302 
2023.000000	64.900612 
2022.000000	64.894413 
2021.000000	64.883542 
2020.000000	64.870238 
2019.000000	64.856982 
2018.000000	64.845705 
2017.000000	64.837694 
2016.000000	64.833402 
2015.000000	64.832687 
2014.000000	64.834856 
2013.000000	64.839100 
2012.000000	64.844679 
2011.000000	64.850902 
2010.000000	64.857435 
2009.000000	64.863967 
2008.000000	64.870214 
2007.000000	64.875745 
2006.000000	64.880013 
2005.000000	64.882135 
2004.000000	64.881205 
2003.000000	64.876317 
2002.000000	64.866781 
2001.000000	64.852285 
2000.000000	64.833092 
1999.000000	64.809989 
1998.000000	64.784336 
1997.000000	64.758038 
1996.000000	64.732980 
1995.000000	64.711284 
1994.000000	64.694929 
1993.000000	64.685392 
1992.000000	64.683246 
1991.000000	64.688253 
1990.000000	64.699387 
1989.000000	64.714813 
1988.000000	64.732360 
1987.000000	64.749646 
1986.000000	64.764690 
1985.000000	64.776110 
1984.000000	64.783406 
1983.000000	64.786624 
1982.000000	64.786362 
1981.000000	64.783501 
1980.000000	64.779090 
1979.000000	64.774012 
1978.000000	64.769148 
1977.000000	64.765334 
1976.000000	64.763236 
1975.000000	64.763593 
1974.000000	64.767026 
1973.000000	64.773821 
1972.000000	64.783740 
1971.000000	64.795899 
1970.000000	64.808726 
1969.000000	64.820289 
1968.000000	64.828348 
1967.000000	64.830923 
1966.000000	64.826703 
1965.000000	64.815402 
1964.000000	64.797782 
1963.000000	64.775562 
1962.000000	64.751100 
1961.000000	64.727139 
1960.000000	64.706373 
1959.000000	64.691066 
1958.000000	64.682745 
1957.000000	64.682006 
1956.000000	64.688587 
1955.000000	64.701199 
1954.000000	64.717793 
1953.000000	64.735889 
1952.000000	64.752864 
1951.000000	64.766550 
1950.000000	64.775395 
1949.000000	64.778757 
1948.000000	64.777064 
1947.000000	64.771509 
1946.000000	64.764094 
1945.000000	64.756655 
1944.000000	64.750671 
1943.000000	64.746761 
1942.000000	64.744734 
1941.000000	64.743614 
1940.000000	64.741897 
1939.000000	64.738106 
1938.000000	64.731335 
1937.000000	64.721441 
1936.000000	64.709424 
1935.000000	64.697074 
1934.000000	64.686679 
1933.000000	64.680552 
1932.000000	64.680290 
1931.000000	64.686632 
1930.000000	64.699172 
1929.000000	64.716291 
1928.000000	64.735341 
1927.000000	64.753293 
1926.000000	64.767241 
1925.000000	64.774632 
1924.000000	64.774012 
1923.000000	64.765048 
1922.000000	64.748620 
1921.000000	64.726638 
1920.000000	64.701628 
1919.000000	64.676475 
1918.000000	64.653897 
1917.000000	64.636063 
1916.000000	64.624142 
1915.000000	64.618492 
1914.000000	64.618301 
1913.000000	64.622092 
1912.000000	64.627885 
1911.000000	64.633584 
1910.000000	64.637589 
1909.000000	64.638900 
1908.000000	64.637422 
1907.000000	64.633774 
1906.000000	64.629030 
1905.000000	64.624333 
1904.000000	64.620447 
1903.000000	64.617705 
1902.000000	64.615869 
1901.000000	64.614367 
1900.000000	64.612555 
1899.000000	64.610266 
1898.000000	64.607787 
1897.000000	64.605879 
1896.000000	64.605808 
1895.000000	64.608907 
1894.000000	64.616394 
1893.000000	64.628887 
1892.000000	64.646029 
1891.000000	64.666628 
1890.000000	64.688730 
1889.000000	64.709973 
1888.000000	64.728116 
1887.000000	64.741468 
1886.000000	64.749288 
1885.000000	64.751768 
1884.000000	64.750313 
1883.000000	64.746761 
1882.000000	64.743113 
1881.000000	64.740777 
1880.000000	64.740514 
1879.000000	64.741992 
1878.000000	64.744138 
1877.000000	64.745402 
1876.000000	64.744281 
1875.000000	64.739871 
1874.000000	64.732122 
1873.000000	64.722108 
1872.000000	64.711427 
1871.000000	64.702057 
1870.000000	64.695501 
1869.000000	64.692616 
1868.000000	64.692950 
1867.000000	64.695191 
1866.000000	64.697241 
1865.000000	64.697074 
1864.000000	64.693021 
1863.000000	64.684677 
1862.000000	64.672732 
1861.000000	64.658832 
1860.000000	64.645457 
1859.000000	64.634919 
1858.000000	64.629054 
1857.000000	64.628505 
1856.000000	64.632868 
1855.000000	64.640974 
1854.000000	64.651107 
1853.000000	64.661526 
1852.000000	64.670896 
1851.000000	64.678597 
1850.000000	64.684367 
1849.000000	64.688396 
1848.000000	64.690828 
1847.000000	64.691543 
1846.000000	64.690184 
1845.000000	64.686298 
1844.000000	64.679598 
1843.000000	64.670300 
1842.000000	64.659237 
1841.000000	64.647865 
1840.000000	64.637947 
1839.000000	64.631152 
1838.000000	64.628577 
1837.000000	64.630460 
1836.000000	64.636111 
1835.000000	64.644098 
1834.000000	64.652729 
1833.000000	64.660167 
1832.000000	64.665198 
1831.000000	64.667057 
1830.000000	64.665794 
1829.000000	64.661741 
1828.000000	64.655470 
1827.000000	64.647436 
1826.000000	64.638042 
1825.000000	64.627742 
1824.000000	64.617037 
1823.000000	64.606809 
1822.000000	64.598250 
1821.000000	64.592742 
1820.000000	64.591526 
1819.000000	64.595341 
1818.000000	64.603924 
1817.000000	64.616084 
1816.000000	64.629817 
1815.000000	64.642572 
1814.000000	64.651942 
1813.000000	64.656233 
1812.000000	64.655041 
1811.000000	64.649271 
1810.000000	64.640951 
1809.000000	64.632582 
1808.000000	64.626836 
1807.000000	64.625620 
1806.000000	64.629864 
1805.000000	64.639163 
1804.000000	64.651918 
1803.000000	64.666104 
1802.000000	64.679241 
1801.000000	64.689302 
1800.000000	64.694952 
1799.000000	64.695620 
1798.000000	64.691615 
1797.000000	64.683699 
1796.000000	64.673042 
1795.000000	64.660835 
1794.000000	64.648079 
1793.000000	64.635443 
1792.000000	64.623236 
1791.000000	64.611482 
1790.000000	64.600110 
1789.000000	64.588999 
1788.000000	64.577960 
1787.000000	64.567184 
1786.000000	64.557266 
1785.000000	64.549207 
1784.000000	64.543938 
1783.000000	64.542484 
1782.000000	64.545488 
1781.000000	64.553022 
1780.000000	64.564323 
1779.000000	64.577984 
1778.000000	64.592289 
1777.000000	64.605450 
1776.000000	64.616084 
1775.000000	64.623451 
1774.000000	64.627718 
1773.000000	64.629769 
1772.000000	64.630818 
1771.000000	64.632201 
1770.000000	64.635038 
1769.000000	64.639687 
1768.000000	64.645648 
1767.000000	64.651799 
1766.000000	64.656543 
1765.000000	64.658260 
1764.000000	64.655447 
1763.000000	64.646959 
1762.000000	64.632177 
1761.000000	64.611101 
1760.000000	64.584565 
1759.000000	64.553904 
1758.000000	64.521074 
1757.000000	64.488482 
1756.000000	64.458608 
1755.000000	64.433765 
1754.000000	64.415597 
1753.000000	64.404916 
1752.000000	64.401483 
1751.000000	64.403867 
1750.000000	64.409923 
1749.000000	64.416956 
1748.000000	64.422440 
1747.000000	64.424324 
1746.000000	64.421463 
1745.000000	64.413619 
1744.000000	64.401555 
1743.000000	64.386677 
1742.000000	64.370608 
1741.000000	64.354896 
1740.000000	64.340806 
1739.000000	64.329147 
1738.000000	64.320421 
1737.000000	64.314937 
1736.000000	64.312767 
1735.000000	64.314007 
1734.000000	64.318442 
1733.000000	64.325976 
1732.000000	64.336109 
1731.000000	64.348411 
1730.000000	64.361929 
1729.000000	64.376091 
1728.000000	64.390015 
1727.000000	64.403343 
1726.000000	64.415907 
1725.000000	64.427947 
1724.000000	64.439749 
1723.000000	64.451718 
1722.000000	64.464116 
1721.000000	64.476823 
1720.000000	64.489293 
1719.000000	64.500546 
1718.000000	64.509558 
1717.000000	64.515376 
1716.000000	64.517521 
1715.000000	64.516019 
1714.000000	64.511632 
1713.000000	64.505648 
1712.000000	64.499640 
1711.000000	64.495325 
1710.000000	64.494061 
1709.000000	64.496612 
1708.000000	64.502906 
1707.000000	64.512157 
1706.000000	64.523029 
1705.000000	64.533782 
1704.000000	64.542484 
1703.000000	64.547395 
1702.000000	64.547395 
1701.000000	64.541912 
1700.000000	64.531373 
1699.000000	64.516901 
1698.000000	64.500474 
1697.000000	64.484500 
1696.000000	64.471411 
1695.000000	64.463376 
1694.000000	64.461469 
1693.000000	64.465808 
1692.000000	64.475035 
1691.000000	64.486670 
1690.000000	64.497447 
1689.000000	64.504051 
1688.000000	64.503884 
1687.000000	64.495658 
1686.000000	64.479804 
1685.000000	64.458465 
1684.000000	64.435148 
1683.000000	64.413833 
1682.000000	64.398241 
1681.000000	64.390850 
1680.000000	64.392495 
1679.000000	64.402246 
1678.000000	64.417672 
1677.000000	64.435577 
1676.000000	64.452624 
1675.000000	64.466309 
1674.000000	64.475369 
1673.000000	64.479923 
1672.000000	64.481091 
1671.000000	64.480638 
1670.000000	64.480304 
1669.000000	64.481377 
1668.000000	64.484333 
1667.000000	64.488744 
1666.000000	64.493656 
1665.000000	64.497828 
1664.000000	64.500236 
1663.000000	64.500164 
1662.000000	64.497590 
1661.000000	64.493036 
1660.000000	64.487242 
1659.000000	64.481210 
1658.000000	64.475893 
1657.000000	64.471960 
1656.000000	64.469838 
1655.000000	64.469599 
1654.000000	64.471101 
1653.000000	64.473843 
1652.000000	64.477109 
1651.000000	64.479827 
1650.000000	64.480972 
1649.000000	64.479327 
1648.000000	64.474201 
1647.000000	64.465379 
1646.000000	64.453458 
1645.000000	64.439821 
1644.000000	64.426207 
1643.000000	64.414715 
1642.000000	64.407038 
1641.000000	64.404058 
1640.000000	64.405751 
1639.000000	64.410996 
1638.000000	64.417982 
1637.000000	64.424514 
1636.000000	64.428567 
1635.000000	64.428687 
1634.000000	64.424371 
1633.000000	64.416074 
1632.000000	64.404892 
1631.000000	64.392304 
1630.000000	64.380002 
1629.000000	64.369082 
1628.000000	64.360284 
1627.000000	64.353489 
1626.000000	64.348316 
1625.000000	64.343857 
1624.000000	64.339280 
1623.000000	64.333939 
1622.000000	64.327383 
1621.000000	64.319849 
1620.000000	64.311981 
1619.000000	64.305019 
1618.000000	64.300346 
1617.000000	64.299297 
1616.000000	64.302754 
1615.000000	64.310884 
1614.000000	64.323139 
1613.000000	64.338231 
1612.000000	64.354372 
1611.000000	64.369797 
1610.000000	64.383053 
1609.000000	64.393258 
1608.000000	64.400267 
1607.000000	64.404726 
1606.000000	64.407587 
1605.000000	64.409923 
1604.000000	64.412665 
1603.000000	64.416313 
1602.000000	64.420771 
1601.000000	64.425539 
1600.000000	64.429450 
1599.000000	64.431524 
1598.000000	64.430880 
1597.000000	64.426851 
1596.000000	64.419078 
1595.000000	64.407825 
1594.000000	64.393854 
1593.000000	64.378166 
1592.000000	64.361953 
1591.000000	64.346647 
1590.000000	64.333391 
1589.000000	64.323210 
1588.000000	64.316463 
1587.000000	64.313101 
1586.000000	64.312148 
1585.000000	64.312076 
1584.000000	64.310932 
1583.000000	64.306688 
1582.000000	64.298105 
1581.000000	64.284873 
1580.000000	64.267873 
1579.000000	64.248895 
1578.000000	64.230465 
1577.000000	64.215040 
1576.000000	64.204430 
1575.000000	64.199614 
1574.000000	64.200639 
1573.000000	64.207005 
1572.000000	64.217925 
1571.000000	64.232659 
1570.000000	64.250564 
1569.000000	64.271211 
1568.000000	64.294004 
1567.000000	64.318132 
1566.000000	64.342284 
1565.000000	64.365053 
1564.000000	64.384794 
1563.000000	64.400148 
1562.000000	64.410138 
1561.000000	64.414763 
1560.000000	64.414882 
1559.000000	64.411950 
1558.000000	64.407849 
1557.000000	64.404082 
1556.000000	64.401745 
1555.000000	64.400720 
1554.000000	64.400029 
1553.000000	64.397931 
1552.000000	64.392542 
1551.000000	64.382338 
1550.000000	64.366579 
1549.000000	64.345836 
1548.000000	64.321875 
1547.000000	64.297127 
1546.000000	64.274311 
1545.000000	64.255857 
1544.000000	64.243507 
1543.000000	64.237999 
1542.000000	64.239072 
1541.000000	64.245796 
1540.000000	64.256787 
1539.000000	64.270639 
1538.000000	64.286065 
1537.000000	64.301800 
1536.000000	64.316773 
1535.000000	64.329862 
1534.000000	64.339756 
1533.000000	64.345097 
1532.000000	64.344644 
1531.000000	64.337682 
1530.000000	64.324402 
1529.000000	64.305925 
1528.000000	64.284467 
1527.000000	64.263248 
1526.000000	64.245843 
1525.000000	64.235568 
1524.000000	64.234924 
1523.000000	64.244961 
1522.000000	64.265131 
1521.000000	64.293336 
1520.000000	64.326429 
1519.000000	64.360690 
1518.000000	64.392495 
1517.000000	64.419126 
1516.000000	64.438867 
1515.000000	64.451503 
1514.000000	64.458012 
1513.000000	64.460372 
1512.000000	64.461088 
1511.000000	64.462566 
1510.000000	64.466953 
1509.000000	64.475226 
1508.000000	64.487576 
1507.000000	64.502859 
1506.000000	64.519047 
1505.000000	64.533424 
1504.000000	64.543104 
1503.000000	64.545583 
1502.000000	64.539241 
1501.000000	64.523911 
1500.000000	64.500975 
1499.000000	64.473152 
1498.000000	64.444041 
1497.000000	64.417314 
1496.000000	64.395952 
1495.000000	64.381551 
1494.000000	64.374351 
1493.000000	64.373159 
1492.000000	64.375877 
1491.000000	64.380168 
1490.000000	64.384150 
1489.000000	64.386725 
1488.000000	64.387750 
1487.000000	64.387583 
1486.000000	64.387178 
1485.000000	64.387416 
1484.000000	64.389014 
1483.000000	64.391946 
1482.000000	64.395666 
1481.000000	64.399194 
1480.000000	64.401364 
1479.000000	64.401006 
1478.000000	64.397358 
1477.000000	64.389967 
1476.000000	64.378809 
1475.000000	64.364266 
1474.000000	64.347052 
1473.000000	64.328193 
1472.000000	64.308905 
1471.000000	64.290857 
1470.000000	64.275789 
1469.000000	64.265561 
1468.000000	64.261960 
1467.000000	64.266419 
1466.000000	64.279460 
1465.000000	64.300656 
1464.000000	64.328455 
1463.000000	64.360404 
1462.000000	64.393210 
1461.000000	64.423274 
1460.000000	64.447331 
1459.000000	64.462828 
1458.000000	64.468646 
1457.000000	64.464831 
1456.000000	64.452743 
1455.000000	64.434456 
1454.000000	64.412474 
1453.000000	64.389157 
1452.000000	64.366555 
1451.000000	64.346170 
1450.000000	64.329147 
1449.000000	64.316320 
1448.000000	64.308476 
1447.000000	64.306330 
1446.000000	64.310431 
1445.000000	64.320874 
1444.000000	64.337134 
1443.000000	64.357948 
1442.000000	64.381289 
1441.000000	64.404702 
1440.000000	64.425444 
1439.000000	64.440989 
1438.000000	64.449429 
1437.000000	64.449930 
1436.000000	64.442610 
1435.000000	64.428853 
1434.000000	64.410567 
1433.000000	64.390254 
1432.000000	64.370059 
1431.000000	64.352059 
1430.000000	64.337348 
1429.000000	64.326405 
1428.000000	64.318943 
1427.000000	64.314389 
1426.000000	64.312148 
1425.000000	64.311504 
1424.000000	64.312195 
1423.000000	64.314341 
1422.000000	64.318108 
1421.000000	64.323568 
1420.000000	64.330410 
1419.000000	64.337706 
1418.000000	64.343953 
1417.000000	64.347338 
1416.000000	64.346265 
1415.000000	64.339780 
1414.000000	64.327931 
1413.000000	64.311981 
1412.000000	64.294362 
1411.000000	64.278101 
1410.000000	64.266157 
1409.000000	64.260792 
1408.000000	64.263129 
1407.000000	64.272928 
1406.000000	64.288616 
1405.000000	64.307713 
1404.000000	64.327502 
1403.000000	64.345455 
1402.000000	64.359736 
1401.000000	64.369368 
1400.000000	64.373850 
1399.000000	64.373207 
1398.000000	64.367723 
1397.000000	64.357709 
1396.000000	64.343595 
1395.000000	64.326000 
1394.000000	64.305877 
1393.000000	64.284467 
1392.000000	64.263272 
1391.000000	64.243698 
1390.000000	64.226984 
1389.000000	64.213705 
1388.000000	64.203667 
1387.000000	64.195966 
1386.000000	64.189267 
1385.000000	64.182209 
1384.000000	64.173984 
1383.000000	64.164376 
1382.000000	64.154028 
1381.000000	64.144229 
1380.000000	64.136767 
1379.000000	64.133143 
1378.000000	64.134526 
1377.000000	64.141225 
1376.000000	64.152622 
1375.000000	64.167571 
1374.000000	64.184069 
1373.000000	64.200091 
1372.000000	64.213514 
1371.000000	64.222645 
1370.000000	64.226412 
1369.000000	64.224600 
1368.000000	64.217925 
1367.000000	64.207887 
1366.000000	64.196515 
1365.000000	64.186024 
1364.000000	64.178347 
1363.000000	64.174962 
1362.000000	64.176344 
1361.000000	64.181923 
1360.000000	64.190244 
1359.000000	64.199280 
1358.000000	64.206910 
1357.000000	64.211320 
1356.000000	64.211535 
1355.000000	64.207601 
1354.000000	64.200663 
1353.000000	64.192557 
1352.000000	64.185309 
1351.000000	64.180850 
1350.000000	64.180374 
1349.000000	64.184212 
1348.000000	64.191913 
1347.000000	64.202380 
1346.000000	64.214134 
1345.000000	64.225745 
1344.000000	64.236211 
1343.000000	64.245057 
1342.000000	64.252471 
1341.000000	64.258909 
1340.000000	64.264893 
1339.000000	64.270710 
1338.000000	64.276337 
1337.000000	64.281392 
1336.000000	64.285373 
1335.000000	64.287948 
1334.000000	64.289164 
1333.000000	64.289450 
1332.000000	64.289307 
1331.000000	64.289236 
1330.000000	64.289355 
1329.000000	64.289021 
1328.000000	64.287137 
1327.000000	64.282536 
1326.000000	64.274287 
1325.000000	64.262437 
1324.000000	64.248085 
1323.000000	64.233469 
1322.000000	64.221429 
1321.000000	64.214873 
1320.000000	64.215826 
1319.000000	64.224839 
1318.000000	64.240789 
1317.000000	64.261031 
1316.000000	64.282202 
1315.000000	64.301204 
1314.000000	64.315795 
1313.000000	64.325118 
1312.000000	64.329648 
1311.000000	64.330768 
1310.000000	64.330077 
1309.000000	64.328646 
1308.000000	64.326667 
1307.000000	64.323329 
1306.000000	64.317083 
1305.000000	64.306402 
1304.000000	64.290165 
1303.000000	64.267992 
1302.000000	64.240550 
1301.000000	64.209675 
1300.000000	64.177560 
1299.000000	64.146828 
1298.000000	64.119911 
1297.000000	64.098858 
1296.000000	64.085197 
1295.000000	64.079856 
1294.000000	64.083051 
1293.000000	64.094042 
1292.000000	64.111304 
1291.000000	64.132285 
1290.000000	64.153623 
1289.000000	64.171767 
1288.000000	64.183640 
1287.000000	64.187264 
1286.000000	64.182019 
1285.000000	64.169216 
1284.000000	64.151597 
1283.000000	64.132905 
1282.000000	64.116859 
1281.000000	64.106440 
1280.000000	64.103293 
1279.000000	64.107370 
1278.000000	64.117121 
1277.000000	64.130067 
1276.000000	64.143300 
1275.000000	64.154338 
1274.000000	64.161682 
1273.000000	64.164757 
1272.000000	64.163875 
1271.000000	64.160013 
1270.000000	64.154458 
1269.000000	64.148354 
1268.000000	64.142537 
1267.000000	64.137744 
1266.000000	64.133834 
1265.000000	64.130210 
1264.000000	64.125728 
1263.000000	64.119076 
1262.000000	64.109277 
1261.000000	64.095926 
1260.000000	64.079594 
1259.000000	64.061808 
1258.000000	64.044976 
1257.000000	64.031863 
1256.000000	64.024949 
1255.000000	64.025855 
1254.000000	64.034819 
1253.000000	64.050674 
1252.000000	64.070963 
1251.000000	64.092469 
1250.000000	64.111971 
1249.000000	64.126873 
1248.000000	64.135646 
1247.000000	64.138221 
1246.000000	64.135432 
1245.000000	64.128851 
1244.000000	64.120173 
1243.000000	64.110803 
1242.000000	64.101791 
1241.000000	64.093375 
1240.000000	64.085602 
1239.000000	64.078164 
1238.000000	64.070892 
1237.000000	64.063787 
1236.000000	64.057111 
1235.000000	64.051151 
1234.000000	64.046216 
1233.000000	64.042568 
1232.000000	64.040255 
1231.000000	64.039230 
1230.000000	64.039254 
1229.000000	64.040303 
1228.000000	64.042472 
1227.000000	64.045858 
1226.000000	64.050412 
1225.000000	64.055967 
1224.000000	64.062356 
1223.000000	64.069247 
1222.000000	64.076256 
1221.000000	64.083194 
1220.000000	64.089775 
1219.000000	64.096021 
1218.000000	64.101600 
1217.000000	64.106154 
1216.000000	64.108848 
1215.000000	64.108514 
1214.000000	64.103627 
1213.000000	64.092969 
1212.000000	64.075613 
1211.000000	64.051508 
1210.000000	64.021706 
1209.000000	63.988423 
1208.000000	63.955116 
1207.000000	63.925766 
1206.000000	63.904500 
1205.000000	63.894653 
1204.000000	63.898301 
1203.000000	63.915872 
1202.000000	63.945984 
1201.000000	63.985466 
1200.000000	64.030003 
1199.000000	64.074730 
1198.000000	64.114785 
1197.000000	64.146065 
1196.000000	64.165759 
1195.000000	64.172816 
1194.000000	64.167666 
1193.000000	64.152455 
1192.000000	64.130353 
1191.000000	64.105153 
1190.000000	64.081025 
1189.000000	64.061403 
1188.000000	64.049100 
1187.000000	64.045357 
1186.000000	64.050149 
1185.000000	64.061737 
1184.000000	64.077425 
1183.000000	64.093375 
1182.000000	64.105820 
1181.000000	64.111351 
1180.000000	64.107513 
1179.000000	64.093470 
1178.000000	64.070010 
1177.000000	64.039325 
1176.000000	64.004492 
1175.000000	63.969016 
1174.000000	63.936114 
1173.000000	63.908219 
1172.000000	63.886737 
1171.000000	63.871908 
1170.000000	63.863301 
1169.000000	63.860154 
1168.000000	63.861727 
1167.000000	63.867354 
1166.000000	63.876533 
1165.000000	63.888835 
1164.000000	63.903594 
1163.000000	63.919520 
1162.000000	63.934850 
1161.000000	63.947534 
1160.000000	63.955831 
1159.000000	63.958454 
1158.000000	63.955259 
1157.000000	63.947391 
1156.000000	63.937187 
1155.000000	63.927841 
1154.000000	63.922500 
1153.000000	63.923501 
1152.000000	63.931941 
1151.000000	63.947343 
1150.000000	63.967609 
1149.000000	63.989615 
1148.000000	64.009881 
1147.000000	64.025616 
1146.000000	64.034771 
1145.000000	64.036512 
1144.000000	64.031267 
1143.000000	64.020681 
1142.000000	64.007115 
1141.000000	63.993120 
1140.000000	63.981223 
1139.000000	63.973069 
1138.000000	63.969206 
1137.000000	63.968706 
1136.000000	63.969731 
1135.000000	63.969659 
1134.000000	63.966298 
1133.000000	63.958072 
1132.000000	63.944697 
1131.000000	63.927125 
1130.000000	63.907265 
1129.000000	63.887786 
1128.000000	63.871002 
1127.000000	63.859701 
1126.000000	63.856410 
1125.000000	63.863563 
1124.000000	63.882827 
1123.000000	63.914918 
1122.000000	63.959169 
1121.000000	64.013075 
1120.000000	64.072537 
1119.000000	64.132404 
1118.000000	64.187335 
1117.000000	64.232587 
1116.000000	64.264917 
1115.000000	64.283037 
1114.000000	64.287900 
1113.000000	64.282250 
1112.000000	64.269948 
1111.000000	64.255571 
1110.000000	64.242815 
1109.000000	64.234757 
1108.000000	64.232325 
1107.000000	64.234852 
1106.000000	64.239597 
1105.000000	64.243054 
1104.000000	64.241337 
1103.000000	64.231324 
1102.000000	64.211201 
1101.000000	64.181017 
1100.000000	64.142632 
1099.000000	64.099264 
1098.000000	64.054870 
1097.000000	64.013385 
1096.000000	63.977885 
1095.000000	63.950252 
1094.000000	63.930892 
1093.000000	63.918900 
1092.000000	63.912701 
1091.000000	63.910579 
1090.000000	63.910841 
1089.000000	63.912415 
1088.000000	63.914966 
1087.000000	63.918948 
1086.000000	63.924813 
1085.000000	63.932895 
1084.000000	63.943171 
1083.000000	63.954973 
1082.000000	63.967132 
1081.000000	63.977742 
1080.000000	63.985085 
1079.000000	63.987517 
1078.000000	63.984227 
1077.000000	63.975262 
1076.000000	63.961601 
1075.000000	63.945317 
1074.000000	63.928961 
1073.000000	63.915348 
1072.000000	63.906931 
1071.000000	63.905310 
1070.000000	63.911104 
1069.000000	63.923382 
1068.000000	63.939929 
1067.000000	63.957500 
1066.000000	63.972687 
1065.000000	63.982486 
1064.000000	63.984966 
1063.000000	63.979983 
1062.000000	63.969111 
1061.000000	63.955116 
1060.000000	63.941502 
1059.000000	63.931584 
1058.000000	63.927721 
1057.000000	63.930964 
1056.000000	63.940453 
1055.000000	63.953995 
1054.000000	63.968205 
1053.000000	63.979220 
1052.000000	63.983559 
1051.000000	63.978695 
1050.000000	63.963913 
1049.000000	63.940405 
1048.000000	63.911366 
1047.000000	63.881158 
1046.000000	63.854455 
1045.000000	63.835287 
1044.000000	63.826036 
1043.000000	63.827109 
1042.000000	63.836884 
1041.000000	63.852334 
1040.000000	63.869690 
1039.000000	63.885593 
1038.000000	63.897871 
1037.000000	63.905978 
1036.000000	63.910984 
1035.000000	63.915061 
1034.000000	63.920521 
1033.000000	63.929128 
1032.000000	63.941478 
1031.000000	63.956618 
1030.000000	63.972306 
1029.000000	63.985490 
1028.000000	63.993334 
1027.000000	63.993811 
1026.000000	63.986039 
1025.000000	63.970613 
1024.000000	63.949441 
1023.000000	63.925552 
1022.000000	63.902473 
1021.000000	63.883590 
1020.000000	63.871383 
1019.000000	63.867092 
1018.000000	63.870501 
1017.000000	63.879919 
1016.000000	63.892626 
1015.000000	63.905286 
1014.000000	63.914823 
1013.000000	63.919115 
1012.000000	63.917374 
1011.000000	63.910436 
1010.000000	63.900351 
1009.000000	63.890004 
1008.000000	63.882637 
1007.000000	63.881039 
1006.000000	63.887214 
1005.000000	63.901925 
1004.000000	63.924646 
1003.000000	63.954114 
1002.000000	63.988447 
1001.000000	64.025640 
1000.000000	64.063549 
999.000000	 64.100289 
998.000000	 64.133954 
997.000000	 64.162540 
996.000000	 64.183855 
995.000000	 64.196014 
994.000000	 64.197373 
993.000000	 64.187359 
992.000000	 64.166378 
991.000000	 64.136457 
990.000000	 64.101076 
989.000000	 64.065122 
988.000000	 64.034104 
987.000000	 64.013266 
986.000000	 64.006829 
985.000000	 64.016938 
984.000000	 64.043188 
983.000000	 64.082598 
982.000000	 64.129877 
981.000000	 64.178299 
980.000000	 64.221096 
979.000000	 64.252686 
978.000000	 64.269256 
977.000000	 64.269495 
976.000000	 64.254450 
975.000000	 64.226913 
974.000000	 64.190745 
973.000000	 64.149904 
972.000000	 64.108085 
971.000000	 64.067888 
970.000000	 64.031243 
969.000000	 63.999390 
968.000000	 63.973379 
967.000000	 63.954162 
966.000000	 63.942646 
965.000000	 63.939714 
964.000000	 63.945674 
963.000000	 63.960242 
962.000000	 63.982009 
961.000000	 64.008665 
960.000000	 64.037013 
959.000000	 64.063644 
958.000000	 64.085412 
957.000000	 64.099931 
956.000000	 64.105844 
955.000000	 64.102864 
954.000000	 64.091897 
953.000000	 64.074730 
952.000000	 64.053559 
951.000000	 64.030861 
950.000000	 64.008736 
949.000000	 63.989067 
948.000000	 63.973021 
947.000000	 63.961315 
946.000000	 63.954091 
945.000000	 63.951110 
944.000000	 63.952040 
943.000000	 63.956284 
942.000000	 63.963246 
941.000000	 63.972139 
940.000000	 63.982200 
939.000000	 63.992834 
938.000000	 64.003396 
937.000000	 64.013099 
936.000000	 64.021301 
935.000000	 64.027452 
934.000000	 64.031004 
933.000000	 64.031457 
932.000000	 64.028429 
931.000000	 64.021635 
930.000000	 64.010691 
929.000000	 63.995552 
928.000000	 63.976430 
927.000000	 63.954114 
926.000000	 63.930058 
925.000000	 63.906288 
924.000000	 63.885331 
923.000000	 63.869643 
922.000000	 63.861298 
921.000000	 63.861060 
920.000000	 63.868474 
919.000000	 63.881540 
918.000000	 63.896846 
917.000000	 63.910627 
916.000000	 63.919425 
915.000000	 63.921093 
914.000000	 63.915085 
913.000000	 63.903045 
912.000000	 63.888192 
911.000000	 63.874602 
910.000000	 63.865995 
909.000000	 63.864946 
908.000000	 63.872075 
907.000000	 63.886070 
906.000000	 63.904237 
905.000000	 63.923263 
904.000000	 63.939929 
903.000000	 63.952279 
902.000000	 63.959932 
901.000000	 63.964009 
900.000000	 63.966584 
899.000000	 63.969779 
898.000000	 63.975405 
897.000000	 63.984179 
896.000000	 63.995957 
895.000000	 64.009833 
894.000000	 64.024734 
893.000000	 64.039993 
892.000000	 64.055538 
891.000000	 64.072060 
890.000000	 64.090609 
889.000000	 64.112329 
888.000000	 64.137744 
887.000000	 64.166760 
886.000000	 64.198112 
885.000000	 64.230132 
884.000000	 64.260029 
883.000000	 64.284920 
882.000000	 64.301586 
881.000000	 64.307451 
880.000000	 64.300394 
879.000000	 64.279484 
878.000000	 64.245128 
877.000000	 64.199209 
876.000000	 64.145231 
875.000000	 64.088034 
874.000000	 64.033269 
873.000000	 63.986515 
872.000000	 63.952207 
871.000000	 63.932895 
870.000000	 63.928627 
869.000000	 63.936829 
868.000000	 63.952803 
867.000000	 63.970851 
866.000000	 63.985276 
865.000000	 63.992047 
864.000000	 63.989329 
863.000000	 63.978409 
862.000000	 63.962364 
861.000000	 63.946247 
860.000000	 63.935375 
859.000000	 63.934063 
858.000000	 63.944625 
857.000000	 63.966321 
856.000000	 63.995885 
855.000000	 64.027667 
854.000000	 64.055109 
853.000000	 64.072251 
852.000000	 64.074993 
851.000000	 64.061856 
850.000000	 64.034342 
849.000000	 63.996696 
848.000000	 63.955116 
847.000000	 63.916516 
846.000000	 63.887190 
845.000000	 63.871812 
844.000000	 63.872480 
843.000000	 63.889217 
842.000000	 63.919591 
841.000000	 63.959383 
840.000000	 64.003229 
839.000000	 64.045715 
838.000000	 64.082145 
837.000000	 64.108610 
836.000000	 64.123106 
835.000000	 64.125132 
834.000000	 64.116024 
833.000000	 64.098763 
832.000000	 64.077019 
831.000000	 64.054965 
830.000000	 64.035391 
829.000000	 64.019536 
828.000000	 64.006376 
827.000000	 63.993406 
826.000000	 63.977026 
825.000000	 63.953924 
824.000000	 63.922166 
823.000000	 63.882136 
822.000000	 63.836550 
821.000000	 63.790130 
820.000000	 63.748311 
819.000000	 63.716292 
818.000000	 63.697934 
817.000000	 63.694906 
816.000000	 63.706517 
815.000000	 63.730120 
814.000000	 63.761425 
813.000000	 63.795423 
812.000000	 63.827085 
811.000000	 63.852500 
810.000000	 63.868880 
809.000000	 63.875293 
808.000000	 63.871717 
807.000000	 63.859891 
806.000000	 63.842582 
805.000000	 63.823604 
804.000000	 63.807010 
803.000000	 63.796663 
802.000000	 63.795804 
801.000000	 63.806414 
800.000000	 63.828992 
799.000000	 63.862347 
798.000000	 63.903832 
797.000000	 63.949823 
796.000000	 63.996315 
795.000000	 64.039587 
794.000000	 64.076638 
793.000000	 64.105796 
792.000000	 64.126610 
791.000000	 64.139771 
790.000000	 64.146685 
789.000000	 64.149284 
788.000000	 64.149022 
787.000000	 64.146780 
786.000000	 64.142370 
785.000000	 64.135122 
784.000000	 64.123845 
783.000000	 64.107918 
782.000000	 64.087200 
781.000000	 64.062452 
780.000000	 64.035463 
779.000000	 64.009070 
778.000000	 63.986182 
777.000000	 63.969302 
776.000000	 63.959741 
775.000000	 63.957381 
774.000000	 63.960361 
773.000000	 63.965749 
772.000000	 63.969922 
771.000000	 63.969469 
770.000000	 63.961958 
769.000000	 63.946509 
768.000000	 63.923811 
767.000000	 63.896179 
766.000000	 63.866853 
765.000000	 63.839411 
764.000000	 63.817310 
763.000000	 63.803315 
762.000000	 63.798952 
761.000000	 63.804054 
760.000000	 63.817000 
759.000000	 63.834595 
758.000000	 63.852667 
757.000000	 63.866496 
756.000000	 63.871550 
755.000000	 63.864374 
754.000000	 63.843059 
753.000000	 63.808035 
752.000000	 63.762140 
751.000000	 63.710403 
750.000000	 63.659048 
749.000000	 63.614463 
748.000000	 63.581776 
747.000000	 63.564300 
746.000000	 63.563060 
745.000000	 63.576650 
744.000000	 63.601875 
743.000000	 63.634586 
742.000000	 63.670635 
741.000000	 63.706254 
740.000000	 63.738417 
739.000000	 63.765120 
738.000000	 63.785433 
737.000000	 63.799238 
736.000000	 63.806986 
735.000000	 63.809943 
734.000000	 63.809633 
733.000000	 63.807654 
732.000000	 63.804554 
731.000000	 63.800430 
730.000000	 63.793778 
729.000000	 63.782072 
728.000000	 63.762187 
727.000000	 63.731169 
726.000000	 63.688039 
725.000000	 63.634300 
724.000000	 63.574910 
723.000000	 63.517665 
722.000000	 63.471817 
721.000000	 63.445544 
720.000000	 63.444519 
719.000000	 63.470125 
718.000000	 63.519310 
717.000000	 63.585090 
716.000000	 63.658404 
715.000000	 63.730216 
714.000000	 63.794159 
713.000000	 63.847875 
712.000000	 63.892507 
711.000000	 63.931632 
710.000000	 63.970184 
709.000000	 64.011764 
708.000000	 64.057111 
707.000000	 64.102816 
706.000000	 64.142918 
705.000000	 64.169716 
704.000000	 64.176869 
703.000000	 64.160704 
702.000000	 64.121580 
701.000000	 64.064812 
700.000000	 63.999462 
699.000000	 63.937640 
698.000000	 63.891530 
697.000000	 63.871502 
696.000000	 63.884115 
695.000000	 63.929772 
694.000000	 64.003372 
693.000000	 64.093542 
692.000000	 64.185404 
691.000000	 64.262819 
690.000000	 64.311528 
689.000000	 64.321255 
688.000000	 64.287304 
687.000000	 64.210176 
686.000000	 64.095258 
685.000000	 63.951539 
684.000000	 63.790273 
683.000000	 63.623881 
682.000000	 63.465023 
681.000000	 63.325309 
680.000000	 63.214564 
679.000000	 63.140296 
678.000000	 63.107013 
677.000000	 63.114857 
676.000000	 63.160681 
675.000000	 63.237857 
674.000000	 63.337326 
673.000000	 63.448023 
672.000000	 63.558173 
671.000000	 63.656139 
670.000000	 63.731217 
669.000000	 63.774728 
668.000000	 63.780641 
667.000000	 63.746094 
666.000000	 63.672542 
665.000000	 63.565921 
664.000000	 63.437008 
663.000000	 63.300323 
662.000000	 63.173055 
661.000000	 63.072538 
660.000000	 63.013410 
659.000000	 63.004684 
658.000000	 63.048148 
657.000000	 63.137459 
656.000000	 63.258719 
655.000000	 63.393568 
654.000000	 63.522267 
653.000000	 63.628149 
652.000000	 63.699269 
651.000000	 63.731575 
650.000000	 63.728451 
649.000000	 63.699865 
648.000000	 63.659358 
647.000000	 63.620448 
646.000000	 63.594174 
645.000000	 63.585662 
644.000000	 63.594937 
643.000000	 63.616013 
642.000000	 63.640213 
641.000000	 63.657879 
640.000000	 63.661670 
639.000000	 63.648462 
638.000000	 63.619971 
637.000000	 63.582801 
636.000000	 63.546299 
635.000000	 63.520503 
634.000000	 63.513755 
633.000000	 63.530993 
632.000000	 63.572764 
631.000000	 63.635873 
630.000000	 63.714218 
629.000000	 63.800406 
628.000000	 63.886618 
627.000000	 63.966536 
626.000000	 64.034485 
625.000000	 64.086174 
624.000000	 64.117121 
623.000000	 64.122605 
622.000000	 64.098167 
621.000000	 64.040946 
620.000000	 63.951396 
619.000000	 63.833880 
618.000000	 63.698339 
617.000000	 63.559699 
616.000000	 63.436174 
615.000000	 63.346028 
614.000000	 63.303947 
613.000000	 63.317656 
612.000000	 63.385629 
611.000000	 63.496971 
610.000000	 63.632678 
609.000000	 63.769483 
608.000000	 63.884639 
607.000000	 63.960862 
606.000000	 63.989996 
605.000000	 63.974046 
604.000000	 63.924622 
603.000000	 63.858866 
602.000000	 63.794374 
601.000000	 63.744163 
600.000000	 63.714337 
599.000000	 63.702416 
598.000000	 63.700819 
597.000000	 63.698625 
596.000000	 63.686728 
595.000000	 63.659286 
594.000000	 63.615942 
593.000000	 63.560700 
592.000000	 63.499426 
591.000000	 63.439130 
590.000000	 63.384532 
589.000000	 63.338875 
588.000000	 63.302803 
587.000000	 63.276624 
586.000000	 63.260459 
585.000000	 63.256359 
584.000000	 63.267993 
583.000000	 63.300132 
582.000000	 63.356733 
581.000000	 63.439655 
580.000000	 63.546776 
579.000000	 63.672232 
578.000000	 63.806486 
577.000000	 63.937783 
576.000000	 64.053511 
575.000000	 64.143180 
574.000000	 64.199328 
573.000000	 64.218425 
572.000000	 64.201021 
571.000000	 64.151835 
570.000000	 64.078307 
569.000000	 63.990139 
568.000000	 63.897204 
567.000000	 63.808894 
566.000000	 63.732481 
565.000000	 63.673663 
564.000000	 63.635134 
563.000000	 63.617372 
562.000000	 63.618659 
561.000000	 63.635802 
560.000000	 63.664770 
559.000000	 63.700985 
558.000000	 63.740372 
557.000000	 63.779282 
556.000000	 63.814973 
555.000000	 63.845372 
554.000000	 63.868975 
553.000000	 63.884425 
552.000000	 63.891267 
551.000000	 63.889002 
550.000000	 63.877439 
549.000000	 63.855957 
548.000000	 63.823556 
547.000000	 63.778877 
546.000000	 63.720011 
545.000000	 63.645720 
544.000000	 63.557171 
543.000000	 63.458275 
542.000000	 63.355779 
541.000000	 63.258624 
540.000000	 63.175773 
539.000000	 63.115429 
538.000000	 63.082957 
537.000000	 63.080668 
536.000000	 63.106346 
535.000000	 63.154673 
534.000000	 63.218331 
533.000000	 63.288712 
532.000000	 63.356661 
531.000000	 63.413906 
530.000000	 63.453459 
529.000000	 63.471341 
528.000000	 63.466739 
527.000000	 63.442015 
526.000000	 63.401865 
525.000000	 63.352918 
524.000000	 63.302230 
523.000000	 63.255643 
522.000000	 63.216590 
521.000000	 63.184905 
520.000000	 63.157701 
519.000000	 63.130569 
518.000000	 63.100099 
517.000000	 63.064527 
516.000000	 63.026571 
515.000000	 62.993025 
514.000000	 62.974429 
513.000000	 62.981176 
512.000000	 63.021850 
511.000000	 63.100290 
510.000000	 63.213896 
509.000000	 63.353157 
508.000000	 63.502979 
507.000000	 63.646078 
506.000000	 63.765025 
505.000000	 63.846468 
504.000000	 63.881516 
503.000000	 63.867139 
502.000000	 63.805341 
501.000000	 63.702869 
500.000000	 63.568997 
499.000000	 63.414597 
498.000000	 63.252186 
497.000000	 63.095450 
496.000000	 62.958908 
495.000000	 62.856817 
494.000000	 62.801337 
493.000000	 62.801122 
492.000000	 62.858939 
491.000000	 62.971639 
490.000000	 63.128328 
489.000000	 63.313889 
488.000000	 63.509416 
487.000000	 63.697290 
486.000000	 63.864827 
485.000000	 64.004349 
484.000000	 64.113664 
483.000000	 64.192938 
482.000000	 64.243888 
481.000000	 64.265680 
480.000000	 64.255523 
479.000000	 64.207983 
478.000000	 64.118552 
477.000000	 63.985443 
476.000000	 63.814115 
475.000000	 63.615179 
474.000000	 63.404560 
473.000000	 63.199710 
472.000000	 63.017463 
471.000000	 62.871456 
470.000000	 62.771153 
469.000000	 62.721157 
468.000000	 62.721872 
467.000000	 62.771081 
466.000000	 62.863540 
465.000000	 62.992215 
464.000000	 63.145542 
463.000000	 63.307332 
462.000000	 63.455963 
461.000000	 63.565897 
460.000000	 63.612008 
459.000000	 63.572907 
458.000000	 63.438892 
457.000000	 63.213920 
456.000000	 62.919855 
455.000000	 62.592959 
454.000000	 62.279915 
453.000000	 62.028503 
452.000000	 61.879253 
451.000000	 61.857700 
450.000000	 61.967945 
449.000000	 62.192463 
448.000000	 62.493991 
447.000000	 62.823557 
446.000000	 63.128495 
445.000000	 63.362693 
444.000000	 63.495206 
443.000000	 63.515186 
442.000000	 63.430762 
441.000000	 63.265609 
440.000000	 63.053226 
439.000000	 62.829136 
438.000000	 62.624740 
437.000000	 62.461972 
436.000000	 62.352705 
435.000000	 62.298750 
434.000000	 62.295651 
433.000000	 62.335586 
432.000000	 62.412929 
431.000000	 62.523174 
430.000000	 62.658691 
429.000000	 62.812209 
428.000000	 62.976884 
427.000000	 63.143396 
426.000000	 63.296818 
425.000000	 63.422060 
424.000000	 63.506436 
423.000000	 63.541722 
422.000000	 63.529181 
421.000000	 63.469266 
420.000000	 63.359713 
419.000000	 63.200044 
418.000000	 62.993574 
417.000000	 62.736678 
416.000000	 62.423443 
415.000000	 62.053680 
414.000000	 61.637854 
413.000000	 61.202073 
412.000000	 60.785198 
411.000000	 60.430669 
410.000000	 60.175395 
409.000000	 60.050010 
408.000000	 60.058045 
407.000000	 60.172414 
406.000000	 60.330271 
405.000000	 60.454440 
404.000000	 60.455751 
403.000000	 60.244512 
402.000000	 59.760689 
401.000000	 58.991718 
400.000000	 57.982325 
399.000000	 56.810307 
398.000000	 55.609655 
397.000000	 54.534339 
396.000000	 53.762245 
395.000000	 53.458571 
394.000000	 53.753113 
393.000000	 54.701590 
392.000000	 56.302452 
391.000000	 58.485293 
390.000000	 61.086773 
389.000000	 63.862514 
388.000000	 66.514062 
387.000000	 68.728995 
386.000000	 70.240187 
385.000000	 70.861911 
384.000000	 70.531201 
383.000000	 69.298458 
382.000000	 67.333936 
381.000000	 64.859580 
380.000000	 62.138819 
379.000000	 59.381175 
378.000000	 56.752562 
377.000000	 54.303359 
376.000000	 52.027392 
375.000000	 49.839782 
374.000000	 47.587561 
373.000000	 45.182776 
372.000000	 42.591023 
371.000000	 40.000200 
370.000000	 37.752652 

