PE IR       SPECTRUM    SPECTRUM    ASCII       PEDS        1.60        
  -1
BZ6AA5~1.ASC
17/04/07
20:50:37.00
17/04/07
20:50:37.00
tln
$BZ1503107-1_t0092$<tbV0>[5.2,7.8,8.0,0.0,27,1,0]
370.000000
64









2002,4.07    
MIRTGS : RIGHTBACK : INTERNAL 2
MIR : ON : INTERNAL 2
OPTKBR

0.200000
8
8.000000
FILLER
RATIO
SPECTRUM
UNLOCKED 256

DOUBLE
64
COMBINED
1
0
0


1.000000
RATIO


1
0
TRUE
51149
0
LEFT NOT FITTED RIGHT NOT FITTED 0
NONE
NONE
15600
12.000000
4.427000
51148
TRUE
1 0 8 72 0 0 0 0 

15798.010000






#HDR
-1
-1
#GR
CM-1
%T
0.00002384185791015625
0.0
5000.000000
-1.000000
4631
8
78.521609
60.078620
#DATA
5000.000000	64.823484 
4999.000000	64.838504 
4998.000000	64.833140 
4997.000000	64.809727 
4996.000000	64.777374 
4995.000000	64.746999 
4994.000000	64.733529 
4993.000000	64.752483 
4992.000000	64.817690 
4991.000000	64.938449 
4990.000000	65.115618 
4989.000000	65.341472 
4988.000000	65.597033 
4987.000000	65.855169 
4986.000000	66.084098 
4985.000000	66.253805 
4984.000000	66.341400 
4983.000000	66.335487 
4982.000000	66.240215 
4981.000000	66.072607 
4980.000000	65.857052 
4979.000000	65.617418 
4978.000000	65.372323 
4977.000000	65.130519 
4976.000000	64.889216 
4975.000000	64.640092 
4974.000000	64.373922 
4973.000000	64.091157 
4972.000000	63.805842 
4971.000000	63.548111 
4970.000000	63.356804 
4969.000000	63.272142 
4968.000000	63.322734 
4967.000000	63.517069 
4966.000000	63.834023 
4965.000000	64.229607 
4964.000000	64.643549 
4963.000000	65.014863 
4962.000000	65.293097 
4961.000000	65.453433 
4960.000000	65.499949 
4959.000000	65.464425 
4958.000000	65.395355 
4957.000000	65.347409 
4956.000000	65.366125 
4955.000000	65.478253 
4954.000000	65.684676 
4953.000000	65.962958 
4952.000000	66.272139 
4951.000000	66.565585 
4950.000000	66.800737 
4949.000000	66.948080 
4948.000000	66.996264 
4947.000000	66.952586 
4946.000000	66.838693 
4945.000000	66.683578 
4944.000000	66.514945 
4943.000000	66.356325 
4942.000000	66.218757 
4941.000000	66.103506 
4940.000000	66.000628 
4939.000000	65.898346 
4938.000000	65.783429 
4937.000000	65.647196 
4936.000000	65.487527 
4935.000000	65.308904 
4934.000000	65.123271 
4933.000000	64.946460 
4932.000000	64.794969 
4931.000000	64.680910 
4930.000000	64.613509 
4929.000000	64.597320 
4928.000000	64.631485 
4927.000000	64.709663 
4926.000000	64.822435 
4925.000000	64.957356 
4924.000000	65.099763 
4923.000000	65.232872 
4922.000000	65.338635 
4921.000000	65.400409 
4920.000000	65.403008 
4919.000000	65.338826 
4918.000000	65.209722 
4917.000000	65.029954 
4916.000000	64.824914 
4915.000000	64.627099 
4914.000000	64.470386 
4913.000000	64.382314 
4912.000000	64.380717 
4911.000000	64.465761 
4910.000000	64.620089 
4909.000000	64.812421 
4908.000000	65.005373 
4907.000000	65.162968 
4906.000000	65.258121 
4905.000000	65.278935 
4904.000000	65.229940 
4903.000000	65.128564 
4902.000000	64.999008 
4901.000000	64.865851 
4900.000000	64.747595 
4899.000000	64.653539 
4898.000000	64.582848 
4897.000000	64.527869 
4896.000000	64.478325 
4895.000000	64.426088 
4894.000000	64.369440 
4893.000000	64.311552 
4892.000000	64.262771 
4891.000000	64.236068 
4890.000000	64.245700 
4889.000000	64.300084 
4888.000000	64.402389 
4887.000000	64.548063 
4886.000000	64.726877 
4885.000000	64.924216 
4884.000000	65.124583 
4883.000000	65.314006 
4882.000000	65.482306 
4881.000000	65.624308 
4880.000000	65.738797 
4879.000000	65.827441 
4878.000000	65.892934 
4877.000000	65.937757 
4876.000000	65.962624 
4875.000000	65.966224 
4874.000000	65.945887 
4873.000000	65.898489 
4872.000000	65.821504 
4871.000000	65.714144 
4870.000000	65.579128 
4869.000000	65.422606 
4868.000000	65.253257 
4867.000000	65.081453 
4866.000000	64.918208 
4865.000000	64.773440 
4864.000000	64.654302 
4863.000000	64.564228 
4862.000000	64.502453 
4861.000000	64.465022 
4860.000000	64.445447 
4859.000000	64.436674 
4858.000000	64.431166 
4857.000000	64.423799 
4856.000000	64.411091 
4855.000000	64.392995 
4854.000000	64.370417 
4853.000000	64.347243 
4852.000000	64.328503 
4851.000000	64.319801 
4850.000000	64.325404 
4849.000000	64.347910 
4848.000000	64.387392 
4847.000000	64.440846 
4846.000000	64.502644 
4845.000000	64.564967 
4844.000000	64.619636 
4843.000000	64.659547 
4842.000000	64.680361 
4841.000000	64.681363 
4840.000000	64.665532 
4839.000000	64.639520 
4838.000000	64.611339 
4837.000000	64.587569 
4836.000000	64.571809 
4835.000000	64.564824 
4834.000000	64.563894 
4833.000000	64.563989 
4832.000000	64.559912 
4831.000000	64.548468 
4830.000000	64.529299 
4829.000000	64.504528 
4828.000000	64.479231 
4827.000000	64.459252 
4826.000000	64.451098 
4825.000000	64.459919 
4824.000000	64.489078 
4823.000000	64.539217 
4822.000000	64.607572 
4821.000000	64.688324 
4820.000000	64.773201 
4819.000000	64.852929 
4818.000000	64.918184 
4817.000000	64.961671 
4816.000000	64.979338 
4815.000000	64.971280 
4814.000000	64.942049 
4813.000000	64.899325 
4812.000000	64.853143 
4811.000000	64.812660 
4810.000000	64.785122 
4809.000000	64.773416 
4808.000000	64.776468 
4807.000000	64.789462 
4806.000000	64.806079 
4805.000000	64.820003 
4804.000000	64.826869 
4803.000000	64.825201 
4802.000000	64.815735 
4801.000000	64.801716 
4800.000000	64.786744 
4799.000000	64.775323 
4798.000000	64.771413 
4797.000000	64.778518 
4796.000000	64.798879 
4795.000000	64.833354 
4794.000000	64.881300 
4793.000000	64.940023 
4792.000000	65.005159 
4791.000000	65.071749 
4790.000000	65.135049 
4789.000000	65.190672 
4788.000000	65.235590 
4787.000000	65.268921 
4786.000000	65.291500 
4785.000000	65.305542 
4784.000000	65.313291 
4783.000000	65.316390 
4782.000000	65.315294 
4781.000000	65.309762 
4780.000000	65.299129 
4779.000000	65.283226 
4778.000000	65.262651 
4777.000000	65.240168 
4776.000000	65.219235 
4775.000000	65.203523 
4774.000000	65.195298 
4773.000000	65.195059 
4772.000000	65.200781 
4771.000000	65.208697 
4770.000000	65.213847 
4769.000000	65.211343 
4768.000000	65.196800 
4767.000000	65.167093 
4766.000000	65.120625 
4765.000000	65.057730 
4764.000000	64.980173 
4763.000000	64.891648 
4762.000000	64.797163 
4761.000000	64.703392 
4760.000000	64.618301 
4759.000000	64.550733 
4758.000000	64.508652 
4757.000000	64.498186 
4756.000000	64.522004 
4755.000000	64.578676 
4754.000000	64.661812 
4753.000000	64.761662 
4752.000000	64.866042 
4751.000000	64.963150 
4750.000000	65.042972 
4749.000000	65.099573 
4748.000000	65.131282 
4747.000000	65.140771 
4746.000000	65.133738 
4745.000000	65.117192 
4744.000000	65.097689 
4743.000000	65.080428 
4742.000000	65.068411 
4741.000000	65.062713 
4740.000000	65.062928 
4739.000000	65.068006 
4738.000000	65.076899 
4737.000000	65.088438 
4736.000000	65.101957 
4735.000000	65.116333 
4734.000000	65.130734 
4733.000000	65.144348 
4732.000000	65.157008 
4731.000000	65.169358 
4730.000000	65.182757 
4729.000000	65.198874 
4728.000000	65.219116 
4727.000000	65.244245 
4726.000000	65.273809 
4725.000000	65.306472 
4724.000000	65.339541 
4723.000000	65.369677 
4722.000000	65.393543 
4721.000000	65.408897 
4720.000000	65.414404 
4719.000000	65.410113 
4718.000000	65.397071 
4717.000000	65.377211 
4716.000000	65.352725 
4715.000000	65.325856 
4714.000000	65.298199 
4713.000000	65.270757 
4712.000000	65.244150 
4711.000000	65.218758 
4710.000000	65.194272 
4709.000000	65.170192 
4708.000000	65.145730 
4707.000000	65.120649 
4706.000000	65.095472 
4705.000000	65.071439 
4704.000000	65.050530 
4703.000000	65.034532 
4702.000000	65.024304 
4701.000000	65.019035 
4700.000000	65.015864 
4699.000000	65.010595 
4698.000000	64.998650 
4697.000000	64.976620 
4696.000000	64.943003 
4695.000000	64.899802 
4694.000000	64.852285 
4693.000000	64.808583 
4692.000000	64.777278 
4691.000000	64.766550 
4690.000000	64.782047 
4689.000000	64.825654 
4688.000000	64.894890 
4687.000000	64.983725 
4686.000000	65.083742 
4685.000000	65.185952 
4684.000000	65.282297 
4683.000000	65.366387 
4682.000000	65.434265 
4681.000000	65.484499 
4680.000000	65.517926 
4679.000000	65.537500 
4678.000000	65.546822 
4677.000000	65.550565 
4676.000000	65.552258 
4675.000000	65.554547 
4674.000000	65.557360 
4673.000000	65.559673 
4672.000000	65.558147 
4671.000000	65.549278 
4670.000000	65.529394 
4669.000000	65.496563 
4668.000000	65.450286 
4667.000000	65.391802 
4666.000000	65.323829 
4665.000000	65.250539 
4664.000000	65.176963 
4663.000000	65.108299 
4662.000000	65.049815 
4661.000000	65.006232 
4660.000000	64.981460 
4659.000000	64.978051 
4658.000000	64.996266 
4657.000000	65.034031 
4656.000000	65.086698 
4655.000000	65.147876 
4654.000000	65.209174 
4653.000000	65.262079 
4652.000000	65.299916 
4651.000000	65.319037 
4650.000000	65.319061 
4649.000000	65.302944 
4648.000000	65.276050 
4647.000000	65.244698 
4646.000000	65.214896 
4645.000000	65.191006 
4644.000000	65.175580 
4643.000000	65.169262 
4642.000000	65.171718 
4641.000000	65.182065 
4640.000000	65.199398 
4639.000000	65.223121 
4638.000000	65.252876 
4637.000000	65.288019 
4636.000000	65.327072 
4635.000000	65.367412 
4634.000000	65.405321 
4633.000000	65.436267 
4632.000000	65.455627 
4631.000000	65.459585 
4630.000000	65.446186 
4629.000000	65.415239 
4628.000000	65.368819 
4627.000000	65.310907 
4626.000000	65.246891 
4625.000000	65.183162 
4624.000000	65.126061 
4623.000000	65.081024 
4622.000000	65.051913 
4621.000000	65.040564 
4620.000000	65.046811 
4619.000000	65.067839 
4618.000000	65.099930 
4617.000000	65.138506 
4616.000000	65.179514 
4615.000000	65.219688 
4614.000000	65.256810 
4613.000000	65.289211 
4612.000000	65.315532 
4611.000000	65.334153 
4610.000000	65.343117 
4609.000000	65.340518 
4608.000000	65.324592 
4607.000000	65.294528 
4606.000000	65.251350 
4605.000000	65.198326 
4604.000000	65.140581 
4603.000000	65.084362 
4602.000000	65.035963 
4601.000000	65.000534 
4600.000000	64.980649 
4599.000000	64.976000 
4598.000000	64.983367 
4597.000000	64.997863 
4596.000000	65.013980 
4595.000000	65.027523 
4594.000000	65.035724 
4593.000000	65.038919 
4592.000000	65.039658 
4591.000000	65.042567 
4590.000000	65.052556 
4589.000000	65.073299 
4588.000000	65.106344 
4587.000000	65.149402 
4586.000000	65.197372 
4585.000000	65.242218 
4584.000000	65.274953 
4583.000000	65.287494 
4582.000000	65.275049 
4581.000000	65.236806 
4580.000000	65.176510 
4579.000000	65.101432 
4578.000000	65.021038 
4577.000000	64.944815 
4576.000000	64.880561 
4575.000000	64.833164 
4574.000000	64.804458 
4573.000000	64.793610 
4572.000000	64.798283 
4571.000000	64.815282 
4570.000000	64.841699 
4569.000000	64.875340 
4568.000000	64.914774 
4567.000000	64.958667 
4566.000000	65.005373 
4565.000000	65.051984 
4564.000000	65.094256 
4563.000000	65.127229 
4562.000000	65.145635 
4561.000000	65.145611 
4560.000000	65.125155 
4559.000000	65.085077 
4558.000000	65.029001 
4557.000000	64.962959 
4556.000000	64.893698 
4555.000000	64.827537 
4554.000000	64.768934 
4553.000000	64.720034 
4552.000000	64.680790 
4551.000000	64.649724 
4550.000000	64.625310 
4549.000000	64.606881 
4548.000000	64.595270 
4547.000000	64.592766 
4546.000000	64.602136 
4545.000000	64.625501 
4544.000000	64.662766 
4543.000000	64.711070 
4542.000000	64.764285 
4541.000000	64.814567 
4540.000000	64.853572 
4539.000000	64.875268 
4538.000000	64.876818 
4537.000000	64.859962 
4536.000000	64.830899 
4535.000000	64.798784 
4534.000000	64.773488 
4533.000000	64.763045 
4532.000000	64.771962 
4531.000000	64.799737 
4530.000000	64.841270 
4529.000000	64.888691 
4528.000000	64.933824 
4527.000000	64.970231 
4526.000000	64.994835 
4525.000000	65.008401 
4524.000000	65.014648 
4523.000000	65.018653 
4522.000000	65.024614 
4521.000000	65.034699 
4520.000000	65.047645 
4519.000000	65.059590 
4518.000000	65.064430 
4517.000000	65.055751 
4516.000000	65.028405 
4515.000000	64.980387 
4514.000000	64.913558 
4513.000000	64.834022 
4512.000000	64.750647 
4511.000000	64.673233 
4510.000000	64.610123 
4509.000000	64.566588 
4508.000000	64.543104 
4507.000000	64.536166 
4506.000000	64.538168 
4505.000000	64.539551 
4504.000000	64.531087 
4503.000000	64.506506 
4502.000000	64.463281 
4501.000000	64.403057 
4500.000000	64.330792 
4499.000000	64.253449 
4498.000000	64.176797 
4497.000000	64.104223 
4496.000000	64.036035 
4495.000000	63.970422 
4494.000000	63.906550 
4493.000000	63.845658 
4492.000000	63.792705 
4491.000000	63.754534 
4490.000000	63.736820 
4489.000000	63.742280 
4488.000000	63.766384 
4487.000000	63.800811 
4486.000000	63.834857 
4485.000000	63.860106 
4484.000000	63.872170 
4483.000000	63.872957 
4482.000000	63.868594 
4481.000000	63.869261 
4480.000000	63.885116 
4479.000000	63.924765 
4478.000000	63.991093 
4477.000000	64.083266 
4476.000000	64.199137 
4475.000000	64.331054 
4474.000000	64.466142 
4473.000000	64.591383 
4472.000000	64.696192 
4471.000000	64.774107 
4470.000000	64.824604 
4469.000000	64.848446 
4468.000000	64.847254 
4467.000000	64.829802 
4466.000000	64.807486 
4465.000000	64.793562 
4464.000000	64.795994 
4463.000000	64.810633 
4462.000000	64.823079 
4461.000000	64.807653 
4460.000000	64.741015 
4459.000000	64.616012 
4458.000000	64.442467 
4457.000000	64.253902 
4456.000000	64.091324 
4455.000000	63.978052 
4454.000000	63.933205 
4453.000000	63.945055 
4452.000000	64.016771 
4451.000000	64.172649 
4450.000000	64.460897 
4449.000000	64.957785 
4448.000000	65.705966 
4447.000000	66.693329 
4446.000000	67.818641 
4445.000000	68.898081 
4444.000000	69.712018 
4443.000000	70.057439 
4442.000000	69.813203 
4441.000000	68.975782 
4440.000000	67.655920 
4439.000000	66.056895 
4438.000000	64.417243 
4437.000000	62.963891 
4436.000000	61.871457 
4435.000000	61.231374 
4434.000000	61.056709 
4433.000000	61.282706 
4432.000000	61.794853 
4431.000000	62.459135 
4430.000000	63.141775 
4429.000000	63.748788 
4428.000000	64.225673 
4427.000000	64.572215 
4426.000000	64.814686 
4425.000000	65.001869 
4424.000000	65.175437 
4423.000000	65.361857 
4422.000000	65.563368 
4421.000000	65.759992 
4420.000000	65.922474 
4419.000000	66.019344 
4418.000000	66.032624 
4417.000000	65.960359 
4416.000000	65.820455 
4415.000000	65.642905 
4414.000000	65.462613 
4413.000000	65.311336 
4412.000000	65.209770 
4411.000000	65.162968 
4410.000000	65.160727 
4409.000000	65.182900 
4408.000000	65.205168 
4407.000000	65.211200 
4406.000000	65.193009 
4405.000000	65.147638 
4404.000000	65.079236 
4403.000000	64.997172 
4402.000000	64.911508 
4401.000000	64.827704 
4400.000000	64.747047 
4399.000000	64.665246 
4398.000000	64.577293 
4397.000000	64.482545 
4396.000000	64.383745 
4395.000000	64.286994 
4394.000000	64.201617 
4393.000000	64.137768 
4392.000000	64.102983 
4391.000000	64.099192 
4390.000000	64.123106 
4389.000000	64.166450 
4388.000000	64.218020 
4387.000000	64.266562 
4386.000000	64.303421 
4385.000000	64.324712 
4384.000000	64.331102 
4383.000000	64.327716 
4382.000000	64.321208 
4381.000000	64.318752 
4380.000000	64.326500 
4379.000000	64.348554 
4378.000000	64.385890 
4377.000000	64.436602 
4376.000000	64.497184 
4375.000000	64.562845 
4374.000000	64.629054 
4373.000000	64.691805 
4372.000000	64.748072 
4371.000000	64.796185 
4370.000000	64.835357 
4369.000000	64.866018 
4368.000000	64.889740 
4367.000000	64.908123 
4366.000000	64.922642 
4365.000000	64.934134 
4364.000000	64.943027 
4363.000000	64.948534 
4362.000000	64.949250 
4361.000000	64.943957 
4360.000000	64.932250 
4359.000000	64.915108 
4358.000000	64.894986 
4357.000000	64.875864 
4356.000000	64.862132 
4355.000000	64.857649 
4354.000000	64.864397 
4353.000000	64.881730 
4352.000000	64.906191 
4351.000000	64.932417 
4350.000000	64.954066 
4349.000000	64.965271 
4348.000000	64.961934 
4347.000000	64.942693 
4346.000000	64.908957 
4345.000000	64.864230 
4344.000000	64.813446 
4343.000000	64.762258 
4342.000000	64.715719 
4341.000000	64.677214 
4340.000000	64.648747 
4339.000000	64.631056 
4338.000000	64.623355 
4337.000000	64.624094 
4336.000000	64.631319 
4335.000000	64.643096 
4334.000000	64.657688 
4333.000000	64.674139 
4332.000000	64.692401 
4331.000000	64.713382 
4330.000000	64.739012 
4329.000000	64.771175 
4328.000000	64.810848 
4327.000000	64.857077 
4326.000000	64.906811 
4325.000000	64.954972 
4324.000000	64.995336 
4323.000000	65.021538 
4322.000000	65.029096 
4321.000000	65.016031 
4320.000000	64.983582 
4319.000000	64.935827 
4318.000000	64.879274 
4317.000000	64.821028 
4316.000000	64.767765 
4315.000000	64.724016 
4314.000000	64.691925 
4313.000000	64.670562 
4312.000000	64.656925 
4311.000000	64.646863 
4310.000000	64.636754 
4309.000000	64.624691 
4308.000000	64.611124 
4307.000000	64.599108 
4306.000000	64.593338 
4305.000000	64.599370 
4304.000000	64.622044 
4303.000000	64.663767 
4302.000000	64.723730 
4301.000000	64.797830 
4300.000000	64.879131 
4299.000000	64.959049 
4298.000000	65.028929 
4297.000000	65.081834 
4296.000000	65.113997 
4295.000000	65.124964 
4294.000000	65.117716 
4293.000000	65.097665 
4292.000000	65.071272 
4291.000000	65.044832 
4290.000000	65.023040 
4289.000000	65.008759 
4288.000000	65.002346 
4287.000000	65.002942 
4286.000000	65.007877 
4285.000000	65.013742 
4284.000000	65.017056 
4283.000000	65.015292 
4282.000000	65.006947 
4281.000000	64.991807 
4280.000000	64.970827 
4279.000000	64.945697 
4278.000000	64.918327 
4277.000000	64.890074 
4276.000000	64.861655 
4275.000000	64.833235 
4274.000000	64.804387 
4273.000000	64.774775 
4272.000000	64.744663 
4271.000000	64.715099 
4270.000000	64.687919 
4269.000000	64.665627 
4268.000000	64.650082 
4267.000000	64.642858 
4266.000000	64.644241 
4265.000000	64.653778 
4264.000000	64.669466 
4263.000000	64.689350 
4262.000000	64.711809 
4261.000000	64.736151 
4260.000000	64.762496 
4259.000000	64.791226 
4258.000000	64.822292 
4257.000000	64.854836 
4256.000000	64.886736 
4255.000000	64.915108 
4254.000000	64.936995 
4253.000000	64.950442 
4252.000000	64.955091 
4251.000000	64.952516 
4250.000000	64.946150 
4249.000000	64.940571 
4248.000000	64.940452 
4247.000000	64.949440 
4246.000000	64.969253 
4245.000000	64.999651 
4244.000000	65.038108 
4243.000000	65.080523 
4242.000000	65.121507 
4241.000000	65.156173 
4240.000000	65.180397 
4239.000000	65.191292 
4238.000000	65.187764 
4237.000000	65.170407 
4236.000000	65.141654 
4235.000000	65.105152 
4234.000000	65.065169 
4233.000000	65.026164 
4232.000000	64.991664 
4231.000000	64.964103 
4230.000000	64.944005 
4229.000000	64.930224 
4228.000000	64.920401 
4227.000000	64.911842 
4226.000000	64.902281 
4225.000000	64.890623 
4224.000000	64.877438 
4223.000000	64.864969 
4222.000000	64.856290 
4221.000000	64.854741 
4220.000000	64.862799 
4219.000000	64.881467 
4218.000000	64.909839 
4217.000000	64.945387 
4216.000000	64.984464 
4215.000000	65.022873 
4214.000000	65.057086 
4213.000000	65.084576 
4212.000000	65.104246 
4211.000000	65.116095 
4210.000000	65.120768 
4209.000000	65.119266 
4208.000000	65.112280 
4207.000000	65.100193 
4206.000000	65.083408 
4205.000000	65.062403 
4204.000000	65.038275 
4203.000000	65.012979 
4202.000000	64.989304 
4201.000000	64.970040 
4200.000000	64.957404 
4199.000000	64.952588 
4198.000000	64.955830 
4197.000000	64.966344 
4196.000000	64.983034 
4195.000000	65.004849 
4194.000000	65.031099 
4193.000000	65.061545 
4192.000000	65.095949 
4191.000000	65.133595 
4190.000000	65.172743 
4189.000000	65.210747 
4188.000000	65.244269 
4187.000000	65.269684 
4186.000000	65.283942 
4185.000000	65.285682 
4184.000000	65.275216 
4183.000000	65.254926 
4182.000000	65.228796 
4181.000000	65.201902 
4180.000000	65.179300 
4179.000000	65.164804 
4178.000000	65.161061 
4177.000000	65.168905 
4176.000000	65.187549 
4175.000000	65.214943 
4174.000000	65.247821 
4173.000000	65.282320 
4172.000000	65.314292 
4171.000000	65.339994 
4170.000000	65.356326 
4169.000000	65.361094 
4168.000000	65.353751 
4167.000000	65.334868 
4166.000000	65.305805 
4165.000000	65.268325 
4164.000000	65.224552 
4163.000000	65.176630 
4162.000000	65.127015 
4161.000000	65.078043 
4160.000000	65.032458 
4159.000000	64.992547 
4158.000000	64.960312 
4157.000000	64.936590 
4156.000000	64.920926 
4155.000000	64.911293 
4154.000000	64.904475 
4153.000000	64.896774 
4152.000000	64.884400 
4151.000000	64.865016 
4150.000000	64.838123 
4149.000000	64.805936 
4148.000000	64.772486 
4147.000000	64.743256 
4146.000000	64.723563 
4145.000000	64.717698 
4144.000000	64.728116 
4143.000000	64.754915 
4142.000000	64.795923 
4141.000000	64.847517 
4140.000000	64.905261 
4139.000000	64.964652 
4138.000000	65.021705 
4137.000000	65.073108 
4136.000000	65.116739 
4135.000000	65.151643 
4134.000000	65.177845 
4133.000000	65.196323 
4132.000000	65.208005 
4131.000000	65.213823 
4130.000000	65.213894 
4129.000000	65.208458 
4128.000000	65.197229 
4127.000000	65.180039 
4126.000000	65.157198 
4125.000000	65.130066 
4124.000000	65.100789 
4123.000000	65.072369 
4122.000000	65.048313 
4121.000000	65.032267 
4120.000000	65.027880 
4119.000000	65.038204 
4118.000000	65.065169 
4117.000000	65.108776 
4116.000000	65.166950 
4115.000000	65.235352 
4114.000000	65.307497 
4113.000000	65.375518 
4112.000000	65.431118 
4111.000000	65.467095 
4110.000000	65.478634 
4109.000000	65.464329 
4108.000000	65.426850 
4107.000000	65.372347 
4106.000000	65.309596 
4105.000000	65.247893 
4104.000000	65.195751 
4103.000000	65.158772 
4102.000000	65.139412 
4101.000000	65.136408 
4100.000000	65.146088 
4099.000000	65.163183 
4098.000000	65.182447 
4097.000000	65.199041 
4096.000000	65.209484 
4095.000000	65.211248 
4094.000000	65.203022 
4093.000000	65.184354 
4092.000000	65.155649 
4091.000000	65.118241 
4090.000000	65.074396 
4089.000000	65.027666 
4088.000000	64.982533 
4087.000000	64.943909 
4086.000000	64.916419 
4085.000000	64.903521 
4084.000000	64.906859 
4083.000000	64.925432 
4082.000000	64.955997 
4081.000000	64.993929 
4080.000000	65.033960 
4079.000000	65.070819 
4078.000000	65.100502 
4077.000000	65.120553 
4076.000000	65.130639 
4075.000000	65.131783 
4074.000000	65.126395 
4073.000000	65.117549 
4072.000000	65.108537 
4071.000000	65.102791 
4070.000000	65.102648 
4069.000000	65.109157 
4068.000000	65.121626 
4067.000000	65.138006 
4066.000000	65.154719 
4065.000000	65.167450 
4064.000000	65.172052 
4063.000000	65.165710 
4062.000000	65.147542 
4061.000000	65.118980 
4060.000000	65.084028 
4059.000000	65.048122 
4058.000000	65.016722 
4057.000000	64.993786 
4056.000000	64.981126 
4055.000000	64.977550 
4054.000000	64.978981 
4053.000000	64.979672 
4052.000000	64.973783 
4051.000000	64.957094 
4050.000000	64.928293 
4049.000000	64.889645 
4048.000000	64.845848 
4047.000000	64.803767 
4046.000000	64.770293 
4045.000000	64.750957 
4044.000000	64.748215 
4043.000000	64.761543 
4042.000000	64.787697 
4041.000000	64.821767 
4040.000000	64.858651 
4039.000000	64.894294 
4038.000000	64.926409 
4037.000000	64.954900 
4036.000000	64.981222 
4035.000000	65.007758 
4034.000000	65.036797 
4033.000000	65.069699 
4032.000000	65.106296 
4031.000000	65.144920 
4030.000000	65.182471 
4029.000000	65.215682 
4028.000000	65.241289 
4027.000000	65.256881 
4026.000000	65.261197 
4025.000000	65.254592 
4024.000000	65.238523 
4023.000000	65.215587 
4022.000000	65.188622 
4021.000000	65.160846 
4020.000000	65.134978 
4019.000000	65.113234 
4018.000000	65.096879 
4017.000000	65.086531 
4016.000000	65.082073 
4015.000000	65.082812 
4014.000000	65.087842 
4013.000000	65.096259 
4012.000000	65.107226 
4011.000000	65.120029 
4010.000000	65.134096 
4009.000000	65.148830 
4008.000000	65.164065 
4007.000000	65.179848 
4006.000000	65.196180 
4005.000000	65.212655 
4004.000000	65.228605 
4003.000000	65.242719 
4002.000000	65.253305 
4001.000000	65.258455 
4000.000000	65.256547 
3999.000000	65.246796 
3998.000000	65.229153 
3997.000000	65.204882 
3996.000000	65.176391 
3995.000000	65.146708 
3994.000000	65.119075 
3993.000000	65.096497 
3992.000000	65.081262 
3991.000000	65.074753 
3990.000000	65.077304 
3989.000000	65.088129 
3988.000000	65.105557 
3987.000000	65.127277 
3986.000000	65.150570 
3985.000000	65.172243 
3984.000000	65.189027 
3983.000000	65.198016 
3982.000000	65.197253 
3981.000000	65.186595 
3980.000000	65.167713 
3979.000000	65.144205 
3978.000000	65.120577 
3977.000000	65.101718 
3976.000000	65.091490 
3975.000000	65.091943 
3974.000000	65.102553 
3973.000000	65.120315 
3972.000000	65.140390 
3971.000000	65.157771 
3970.000000	65.167975 
3969.000000	65.168023 
3968.000000	65.156793 
3967.000000	65.135288 
3966.000000	65.106129 
3965.000000	65.072369 
3964.000000	65.037584 
3963.000000	65.004539 
3962.000000	64.975976 
3961.000000	64.954423 
3960.000000	64.942002 
3959.000000	64.940619 
3958.000000	64.950966 
3957.000000	64.972305 
3956.000000	65.001535 
3955.000000	65.033435 
3954.000000	65.061235 
3953.000000	65.078425 
3952.000000	65.079641 
3951.000000	65.062904 
3950.000000	65.030527 
3949.000000	64.989233 
3948.000000	64.949083 
3947.000000	64.921331 
3946.000000	64.915919 
3945.000000	64.938926 
3944.000000	64.991331 
3943.000000	65.067672 
3942.000000	65.157890 
3941.000000	65.248250 
3940.000000	65.324997 
3939.000000	65.376496 
3938.000000	65.395450 
3937.000000	65.380191 
3936.000000	65.334534 
3935.000000	65.266680 
3934.000000	65.187001 
3933.000000	65.106272 
3932.000000	65.033841 
3931.000000	64.975929 
3930.000000	64.935064 
3929.000000	64.910602 
3928.000000	64.899563 
3927.000000	64.897584 
3926.000000	64.900517 
3925.000000	64.904642 
3924.000000	64.907932 
3923.000000	64.910006 
3922.000000	64.912271 
3921.000000	64.916419 
3920.000000	64.924454 
3919.000000	64.937758 
3918.000000	64.956736 
3917.000000	64.980387 
3916.000000	65.006756 
3915.000000	65.033602 
3914.000000	65.058898 
3913.000000	65.081286 
3912.000000	65.100288 
3911.000000	65.116405 
3910.000000	65.130710 
3909.000000	65.144419 
3908.000000	65.158534 
3907.000000	65.173554 
3906.000000	65.189290 
3905.000000	65.205049 
3904.000000	65.219545 
3903.000000	65.231084 
3902.000000	65.238094 
3901.000000	65.239238 
3900.000000	65.233278 
3899.000000	65.219116 
3898.000000	65.196228 
3897.000000	65.164756 
3896.000000	65.125513 
3895.000000	65.079998 
3894.000000	65.030574 
3893.000000	64.980030 
3892.000000	64.930915 
3891.000000	64.885711 
3890.000000	64.845991 
3889.000000	64.812946 
3888.000000	64.787364 
3887.000000	64.770293 
3886.000000	64.762663 
3885.000000	64.765954 
3884.000000	64.781618 
3883.000000	64.810848 
3882.000000	64.853429 
3881.000000	64.907932 
3880.000000	64.971184 
3879.000000	65.038442 
3878.000000	65.103769 
3877.000000	65.160799 
3876.000000	65.203905 
3875.000000	65.229201 
3874.000000	65.235328 
3873.000000	65.223932 
3872.000000	65.199398 
3871.000000	65.168309 
3870.000000	65.138030 
3869.000000	65.115499 
3868.000000	65.105724 
3867.000000	65.111231 
3866.000000	65.131187 
3865.000000	65.161895 
3864.000000	65.197324 
3863.000000	65.230822 
3862.000000	65.256547 
3861.000000	65.270400 
3860.000000	65.271115 
3859.000000	65.260100 
3858.000000	65.240716 
3857.000000	65.217232 
3856.000000	65.193629 
3855.000000	65.172719 
3854.000000	65.155744 
3853.000000	65.142774 
3852.000000	65.132737 
3851.000000	65.124487 
3850.000000	65.117073 
3849.000000	65.110206 
3848.000000	65.103936 
3847.000000	65.098476 
3846.000000	65.094065 
3845.000000	65.091037 
3844.000000	65.089297 
3843.000000	65.088582 
3842.000000	65.088939 
3841.000000	65.090298 
3840.000000	65.092992 
3839.000000	65.097284 
3838.000000	65.102910 
3837.000000	65.109300 
3836.000000	65.115118 
3835.000000	65.118980 
3834.000000	65.119576 
3833.000000	65.116548 
3832.000000	65.110373 
3831.000000	65.102529 
3830.000000	65.095210 
3829.000000	65.090751 
3828.000000	65.090990 
3827.000000	65.096664 
3826.000000	65.107035 
3825.000000	65.120220 
3824.000000	65.133738 
3823.000000	65.144777 
3822.000000	65.151023 
3821.000000	65.151166 
3820.000000	65.145254 
3819.000000	65.134596 
3818.000000	65.121316 
3817.000000	65.108180 
3816.000000	65.097761 
3815.000000	65.091991 
3814.000000	65.091705 
3813.000000	65.096592 
3812.000000	65.105009 
3811.000000	65.114569 
3810.000000	65.122199 
3809.000000	65.124773 
3808.000000	65.120053 
3807.000000	65.106606 
3806.000000	65.085053 
3805.000000	65.057468 
3804.000000	65.027713 
3803.000000	65.000534 
3802.000000	64.980840 
3801.000000	64.972639 
3800.000000	64.977955 
3799.000000	64.996409 
3798.000000	65.024995 
3797.000000	65.058755 
3796.000000	65.092182 
3795.000000	65.120196 
3794.000000	65.139508 
3793.000000	65.149235 
3792.000000	65.150904 
3791.000000	65.147781 
3790.000000	65.143847 
3789.000000	65.142297 
3788.000000	65.144777 
3787.000000	65.150713 
3786.000000	65.158104 
3785.000000	65.163946 
3784.000000	65.165615 
3783.000000	65.161681 
3782.000000	65.152716 
3781.000000	65.141010 
3780.000000	65.130019 
3779.000000	65.123248 
3778.000000	65.123081 
3777.000000	65.130114 
3776.000000	65.143132 
3775.000000	65.159153 
3774.000000	65.174460 
3773.000000	65.185236 
3772.000000	65.188527 
3771.000000	65.182757 
3770.000000	65.167903 
3769.000000	65.145540 
3768.000000	65.118336 
3767.000000	65.089654 
3766.000000	65.062665 
3765.000000	65.040278 
3764.000000	65.024733 
3763.000000	65.017294 
3762.000000	65.018224 
3761.000000	65.026950 
3760.000000	65.042185 
3759.000000	65.062069 
3758.000000	65.084457 
3757.000000	65.106892 
3756.000000	65.127277 
3755.000000	65.143966 
3754.000000	65.156149 
3753.000000	65.163516 
3752.000000	65.166831 
3751.000000	65.167331 
3750.000000	65.166687 
3749.000000	65.166401 
3748.000000	65.167403 
3747.000000	65.170121 
3746.000000	65.173959 
3745.000000	65.177583 
3744.000000	65.179014 
3743.000000	65.176272 
3742.000000	65.167760 
3741.000000	65.152764 
3740.000000	65.131568 
3739.000000	65.105652 
3738.000000	65.077400 
3737.000000	65.049767 
3736.000000	65.025639 
3735.000000	65.007638 
3734.000000	64.997386 
3733.000000	64.995789 
3732.000000	65.002584 
3731.000000	65.017008 
3730.000000	65.037655 
3729.000000	65.063238 
3728.000000	65.092468 
3727.000000	65.124392 
3726.000000	65.158033 
3725.000000	65.192389 
3724.000000	65.226221 
3723.000000	65.257906 
3722.000000	65.285611 
3721.000000	65.307044 
3720.000000	65.320253 
3719.000000	65.323662 
3718.000000	65.316390 
3717.000000	65.298628 
3716.000000	65.271759 
3715.000000	65.238237 
3714.000000	65.201258 
3713.000000	65.164279 
3712.000000	65.130615 
3711.000000	65.102648 
3710.000000	65.081763 
3709.000000	65.067863 
3708.000000	65.060043 
3707.000000	65.056657 
3706.000000	65.056276 
3705.000000	65.057826 
3704.000000	65.061378 
3703.000000	65.067577 
3702.000000	65.077900 
3701.000000	65.093612 
3700.000000	65.115380 
3699.000000	65.142679 
3698.000000	65.173649 
3697.000000	65.205001 
3696.000000	65.232753 
3695.000000	65.253233 
3694.000000	65.263485 
3693.000000	65.262150 
3692.000000	65.249609 
3691.000000	65.228128 
3690.000000	65.201091 
3689.000000	65.172195 
3688.000000	65.144824 
3687.000000	65.121555 
3686.000000	65.103793 
3685.000000	65.091824 
3684.000000	65.084958 
3683.000000	65.081977 
3682.000000	65.081906 
3681.000000	65.084028 
3680.000000	65.087985 
3679.000000	65.093898 
3678.000000	65.101909 
3677.000000	65.112352 
3676.000000	65.124988 
3675.000000	65.139102 
3674.000000	65.153598 
3673.000000	65.167045 
3672.000000	65.177917 
3671.000000	65.184736 
3670.000000	65.186619 
3669.000000	65.182828 
3668.000000	65.173029 
3667.000000	65.157365 
3666.000000	65.136265 
3665.000000	65.110635 
3664.000000	65.081882 
3663.000000	65.051770 
3662.000000	65.022397 
3661.000000	64.996075 
3660.000000	64.974927 
3659.000000	64.960622 
3658.000000	64.954209 
3657.000000	64.955854 
3656.000000	64.965033 
3655.000000	64.980530 
3654.000000	65.000820 
3653.000000	65.024232 
3652.000000	65.049171 
3651.000000	65.074086 
3650.000000	65.097618 
3649.000000	65.118360 
3648.000000	65.135216 
3647.000000	65.147089 
3646.000000	65.153479 
3645.000000	65.154552 
3644.000000	65.151286 
3643.000000	65.145421 
3642.000000	65.139222 
3641.000000	65.135121 
3640.000000	65.134882 
3639.000000	65.139293 
3638.000000	65.148019 
3637.000000	65.159583 
3636.000000	65.171885 
3635.000000	65.182781 
3634.000000	65.190720 
3633.000000	65.195155 
3632.000000	65.196657 
3631.000000	65.196728 
3630.000000	65.197086 
3629.000000	65.199041 
3628.000000	65.203261 
3627.000000	65.209412 
3626.000000	65.216326 
3625.000000	65.222287 
3624.000000	65.225887 
3623.000000	65.226149 
3622.000000	65.223073 
3621.000000	65.217185 
3620.000000	65.209245 
3619.000000	65.200018 
3618.000000	65.189981 
3617.000000	65.179061 
3616.000000	65.166592 
3615.000000	65.151453 
3614.000000	65.132689 
3613.000000	65.109825 
3612.000000	65.083146 
3611.000000	65.053844 
3610.000000	65.023779 
3609.000000	64.995408 
3608.000000	64.971113 
3607.000000	64.953017 
3606.000000	64.942622 
3605.000000	64.940690 
3604.000000	64.946985 
3603.000000	64.960765 
3602.000000	64.980745 
3601.000000	65.005397 
3600.000000	65.033078 
3599.000000	65.062236 
3598.000000	65.091419 
3597.000000	65.119123 
3596.000000	65.143775 
3595.000000	65.163493 
3594.000000	65.176486 
3593.000000	65.181136 
3592.000000	65.176510 
3591.000000	65.162920 
3590.000000	65.141820 
3589.000000	65.116238 
3588.000000	65.089774 
3587.000000	65.066289 
3586.000000	65.048861 
3585.000000	65.039277 
3584.000000	65.037512 
3583.000000	65.041851 
3582.000000	65.049314 
3581.000000	65.056705 
3580.000000	65.061497 
3579.000000	65.062594 
3578.000000	65.060639 
3577.000000	65.057802 
3576.000000	65.056896 
3575.000000	65.060472 
3574.000000	65.070080 
3573.000000	65.085721 
3572.000000	65.105772 
3571.000000	65.127468 
3570.000000	65.147781 
3569.000000	65.163922 
3568.000000	65.173959 
3567.000000	65.177416 
3566.000000	65.174698 
3565.000000	65.167188 
3564.000000	65.156602 
3563.000000	65.144705 
3562.000000	65.132999 
3561.000000	65.122413 
3560.000000	65.113592 
3559.000000	65.106320 
3558.000000	65.100407 
3557.000000	65.094971 
3556.000000	65.089011 
3555.000000	65.081262 
3554.000000	65.070676 
3553.000000	65.056562 
3552.000000	65.039086 
3551.000000	65.019202 
3550.000000	64.998698 
3549.000000	64.980125 
3548.000000	64.966344 
3547.000000	64.959478 
3546.000000	64.960670 
3545.000000	64.969635 
3544.000000	64.985156 
3543.000000	65.004801 
3542.000000	65.026021 
3541.000000	65.046715 
3540.000000	65.065789 
3539.000000	65.083146 
3538.000000	65.099906 
3537.000000	65.117430 
3536.000000	65.137052 
3535.000000	65.159368 
3534.000000	65.183925 
3533.000000	65.209317 
3532.000000	65.233492 
3531.000000	65.254616 
3530.000000	65.270972 
3529.000000	65.281891 
3528.000000	65.287184 
3527.000000	65.287542 
3526.000000	65.283513 
3525.000000	65.275406 
3524.000000	65.262913 
3523.000000	65.245294 
3522.000000	65.221476 
3521.000000	65.190625 
3520.000000	65.152740 
3519.000000	65.109109 
3518.000000	65.062165 
3517.000000	65.015459 
3516.000000	64.972925 
3515.000000	64.938449 
3514.000000	64.914703 
3513.000000	64.903259 
3512.000000	64.903712 
3511.000000	64.914441 
3510.000000	64.933156 
3509.000000	64.957213 
3508.000000	64.984059 
3507.000000	65.011572 
3506.000000	65.038108 
3505.000000	65.062451 
3504.000000	65.083289 
3503.000000	65.099644 
3502.000000	65.110421 
3501.000000	65.114712 
3500.000000	65.112161 
3499.000000	65.103077 
3498.000000	65.088534 
3497.000000	65.070390 
3496.000000	65.051102 
3495.000000	65.033459 
3494.000000	65.020132 
3493.000000	65.013217 
3492.000000	65.013837 
3491.000000	65.021872 
3490.000000	65.035867 
3489.000000	65.053439 
3488.000000	65.071654 
3487.000000	65.087270 
3486.000000	65.097761 
3485.000000	65.101671 
3484.000000	65.099263 
3483.000000	65.092182 
3482.000000	65.083193 
3481.000000	65.075635 
3480.000000	65.072655 
3479.000000	65.076518 
3478.000000	65.088105 
3477.000000	65.106534 
3476.000000	65.129566 
3475.000000	65.154433 
3474.000000	65.178132 
3473.000000	65.198206 
3472.000000	65.213012 
3471.000000	65.222001 
3470.000000	65.225100 
3469.000000	65.222764 
3468.000000	65.215373 
3467.000000	65.203237 
3466.000000	65.186786 
3465.000000	65.166807 
3464.000000	65.144896 
3463.000000	65.123510 
3462.000000	65.105867 
3461.000000	65.095305 
3460.000000	65.094804 
3459.000000	65.105748 
3458.000000	65.127277 
3457.000000	65.156102 
3456.000000	65.187072 
3455.000000	65.214037 
3454.000000	65.231013 
3453.000000	65.233802 
3452.000000	65.220952 
3451.000000	65.194106 
3450.000000	65.157628 
3449.000000	65.117526 
3448.000000	65.079784 
3447.000000	65.049290 
3446.000000	65.028905 
3445.000000	65.019035 
3444.000000	65.018224 
3443.000000	65.023946 
3442.000000	65.033507 
3441.000000	65.045022 
3440.000000	65.057444 
3439.000000	65.070509 
3438.000000	65.084218 
3437.000000	65.097999 
3436.000000	65.110588 
3435.000000	65.119671 
3434.000000	65.122771 
3433.000000	65.117740 
3432.000000	65.103602 
3431.000000	65.081167 
3430.000000	65.053057 
3429.000000	65.023040 
3428.000000	64.995479 
3427.000000	64.973998 
3426.000000	64.961194 
3425.000000	64.957928 
3424.000000	64.963579 
3423.000000	64.976406 
3422.000000	64.994144 
3421.000000	65.014600 
3420.000000	65.036225 
3419.000000	65.058088 
3418.000000	65.079712 
3417.000000	65.100812 
3416.000000	65.121221 
3415.000000	65.140485 
3414.000000	65.157938 
3413.000000	65.172696 
3412.000000	65.184068 
3411.000000	65.191483 
3410.000000	65.194869 
3409.000000	65.194344 
3408.000000	65.190243 
3407.000000	65.182828 
3406.000000	65.172553 
3405.000000	65.159535 
3404.000000	65.144205 
3403.000000	65.126729 
3402.000000	65.107560 
3401.000000	65.087175 
3400.000000	65.066313 
3399.000000	65.045714 
3398.000000	65.026140 
3397.000000	65.008401 
3396.000000	64.993286 
3395.000000	64.981460 
3394.000000	64.973235 
3393.000000	64.968657 
3392.000000	64.967489 
3391.000000	64.969301 
3390.000000	64.973521 
3389.000000	64.979195 
3388.000000	64.985179 
3387.000000	64.990186 
3386.000000	64.993214 
3385.000000	64.993333 
3384.000000	64.989924 
3383.000000	64.983081 
3382.000000	64.973449 
3381.000000	64.962077 
3380.000000	64.950370 
3379.000000	64.939761 
3378.000000	64.931440 
3377.000000	64.925932 
3376.000000	64.923262 
3375.000000	64.922690 
3374.000000	64.923381 
3373.000000	64.924478 
3372.000000	64.925861 
3371.000000	64.927983 
3370.000000	64.932179 
3369.000000	64.940118 
3368.000000	64.953207 
3367.000000	64.971804 
3366.000000	64.994740 
3365.000000	65.019440 
3364.000000	65.042138 
3363.000000	65.058660 
3362.000000	65.065646 
3361.000000	65.061163 
3360.000000	65.045523 
3359.000000	65.020966 
3358.000000	64.991331 
3357.000000	64.960789 
3356.000000	64.933109 
3355.000000	64.910507 
3354.000000	64.893460 
3353.000000	64.880895 
3352.000000	64.870834 
3351.000000	64.861345 
3350.000000	64.851498 
3349.000000	64.841628 
3348.000000	64.833211 
3347.000000	64.828634 
3346.000000	64.830207 
3345.000000	64.839458 
3344.000000	64.856433 
3343.000000	64.879703 
3342.000000	64.906549 
3341.000000	64.933562 
3340.000000	64.957308 
3339.000000	64.975285 
3338.000000	64.986133 
3337.000000	64.989876 
3336.000000	64.987444 
3335.000000	64.980340 
3334.000000	64.970135 
3333.000000	64.958071 
3332.000000	64.944720 
3331.000000	64.930200 
3330.000000	64.914274 
3329.000000	64.896798 
3328.000000	64.878058 
3327.000000	64.858913 
3326.000000	64.841032 
3325.000000	64.826583 
3324.000000	64.818191 
3323.000000	64.818000 
3322.000000	64.827489 
3321.000000	64.846897 
3320.000000	64.875102 
3319.000000	64.909529 
3318.000000	64.946866 
3317.000000	64.983510 
3316.000000	65.016269 
3315.000000	65.043067 
3314.000000	65.063047 
3313.000000	65.076637 
3312.000000	65.085363 
3311.000000	65.091133 
3310.000000	65.095496 
3309.000000	65.099358 
3308.000000	65.102553 
3307.000000	65.104246 
3306.000000	65.103030 
3305.000000	65.097641 
3304.000000	65.087461 
3303.000000	65.072584 
3302.000000	65.053892 
3301.000000	65.032696 
3300.000000	65.010452 
3299.000000	64.988446 
3298.000000	64.967322 
3297.000000	64.947390 
3296.000000	64.928722 
3295.000000	64.911293 
3294.000000	64.895272 
3293.000000	64.881014 
3292.000000	64.869022 
3291.000000	64.859986 
3290.000000	64.854407 
3289.000000	64.852547 
3288.000000	64.854240 
3287.000000	64.859223 
3286.000000	64.867162 
3285.000000	64.878129 
3284.000000	64.892244 
3283.000000	64.909791 
3282.000000	64.930963 
3281.000000	64.955520 
3280.000000	64.982557 
3279.000000	65.010333 
3278.000000	65.036535 
3277.000000	65.058517 
3276.000000	65.073823 
3275.000000	65.080833 
3274.000000	65.078806 
3273.000000	65.068554 
3272.000000	65.051937 
3271.000000	65.031790 
3270.000000	65.011167 
3269.000000	64.993095 
3268.000000	64.979696 
3267.000000	64.971971 
3266.000000	64.969706 
3265.000000	64.971756 
3264.000000	64.976358 
3263.000000	64.981651 
3262.000000	64.986252 
3261.000000	64.989399 
3260.000000	64.991450 
3259.000000	64.993453 
3258.000000	64.997053 
3257.000000	65.003752 
3256.000000	65.014600 
3255.000000	65.029692 
3254.000000	65.047883 
3253.000000	65.066885 
3252.000000	65.083861 
3251.000000	65.095925 
3250.000000	65.100574 
3249.000000	65.096330 
3248.000000	65.083241 
3247.000000	65.062856 
3246.000000	65.037870 
3245.000000	65.011835 
3244.000000	64.988446 
3243.000000	64.970755 
3242.000000	64.960956 
3241.000000	64.959597 
3240.000000	64.965724 
3239.000000	64.977121 
3238.000000	64.990639 
3237.000000	65.003347 
3236.000000	65.012836 
3235.000000	65.017843 
3234.000000	65.018177 
3233.000000	65.014863 
3232.000000	65.009546 
3231.000000	65.003800 
3230.000000	64.998602 
3229.000000	64.994120 
3228.000000	64.989614 
3227.000000	64.983868 
3226.000000	64.975595 
3225.000000	64.964008 
3224.000000	64.949226 
3223.000000	64.932322 
3222.000000	64.915370 
3221.000000	64.900755 
3220.000000	64.890885 
3219.000000	64.887356 
3218.000000	64.891028 
3217.000000	64.901590 
3216.000000	64.917850 
3215.000000	64.938139 
3214.000000	64.960408 
3213.000000	64.982652 
3212.000000	65.002989 
3211.000000	65.019965 
3210.000000	65.032219 
3209.000000	65.038561 
3208.000000	65.037798 
3207.000000	65.029168 
3206.000000	65.012049 
3205.000000	64.986467 
3204.000000	64.953160 
3203.000000	64.913797 
3202.000000	64.870858 
3201.000000	64.827394 
3200.000000	64.786958 
3199.000000	64.753031 
3198.000000	64.728546 
3197.000000	64.715600 
3196.000000	64.714837 
3195.000000	64.725518 
3194.000000	64.745473 
3193.000000	64.771342 
3192.000000	64.798998 
3191.000000	64.824438 
3190.000000	64.844107 
3189.000000	64.856004 
3188.000000	64.859676 
3187.000000	64.856553 
3186.000000	64.849543 
3185.000000	64.842534 
3184.000000	64.839220 
3183.000000	64.842534 
3182.000000	64.853930 
3181.000000	64.873027 
3180.000000	64.897823 
3179.000000	64.925241 
3178.000000	64.951992 
3177.000000	64.975428 
3176.000000	64.994072 
3175.000000	65.007758 
3174.000000	65.017294 
3173.000000	65.024089 
3172.000000	65.029525 
3171.000000	65.034246 
3170.000000	65.037870 
3169.000000	65.039396 
3168.000000	65.037369 
3167.000000	65.030717 
3166.000000	65.018796 
3165.000000	65.002226 
3164.000000	64.982295 
3163.000000	64.960837 
3162.000000	64.939546 
3161.000000	64.919495 
3160.000000	64.901113 
3159.000000	64.884161 
3158.000000	64.868164 
3157.000000	64.852523 
3156.000000	64.837217 
3155.000000	64.822840 
3154.000000	64.810585 
3153.000000	64.801669 
3152.000000	64.797425 
3151.000000	64.798617 
3150.000000	64.805459 
3149.000000	64.817214 
3148.000000	64.832711 
3147.000000	64.850592 
3146.000000	64.869427 
3145.000000	64.887857 
3144.000000	64.904761 
3143.000000	64.919161 
3142.000000	64.930200 
3141.000000	64.937329 
3140.000000	64.940118 
3139.000000	64.938545 
3138.000000	64.933252 
3137.000000	64.925289 
3136.000000	64.916133 
3135.000000	64.907336 
3134.000000	64.900231 
3133.000000	64.895725 
3132.000000	64.894080 
3131.000000	64.894628 
3130.000000	64.896392 
3129.000000	64.897751 
3128.000000	64.897012 
3127.000000	64.892578 
3126.000000	64.883422 
3125.000000	64.869117 
3124.000000	64.849877 
3123.000000	64.826822 
3122.000000	64.801812 
3121.000000	64.777350 
3120.000000	64.756488 
3119.000000	64.742183 
3118.000000	64.737081 
3117.000000	64.742946 
3116.000000	64.760470 
3115.000000	64.788579 
3114.000000	64.824724 
3113.000000	64.865350 
3112.000000	64.906644 
3111.000000	64.944767 
3110.000000	64.976620 
3109.000000	65.000343 
3108.000000	65.015363 
3107.000000	65.022397 
3106.000000	65.022945 
3105.000000	65.018939 
3104.000000	65.012359 
3103.000000	65.004968 
3102.000000	64.998197 
3101.000000	64.993095 
3100.000000	64.990592 
3099.000000	64.991545 
3098.000000	64.996719 
3097.000000	65.006923 
3096.000000	65.022563 
3095.000000	65.043401 
3094.000000	65.068173 
3093.000000	65.094566 
3092.000000	65.119242 
3091.000000	65.138363 
3090.000000	65.148019 
3089.000000	65.145063 
3088.000000	65.127682 
3087.000000	65.096187 
3086.000000	65.053009 
3085.000000	65.002536 
3084.000000	64.950466 
3083.000000	64.902663 
3082.000000	64.864468 
3081.000000	64.839291 
3080.000000	64.828491 
3079.000000	64.830756 
3078.000000	64.842963 
3077.000000	64.860463 
3076.000000	64.878034 
3075.000000	64.891099 
3074.000000	64.896082 
3073.000000	64.891529 
3072.000000	64.877462 
3071.000000	64.856052 
3070.000000	64.830398 
3069.000000	64.804458 
3068.000000	64.781999 
3067.000000	64.766168 
3066.000000	64.758920 
3065.000000	64.760851 
3064.000000	64.771103 
3063.000000	64.787983 
3062.000000	64.809131 
3061.000000	64.832067 
3060.000000	64.854741 
3059.000000	64.875793 
3058.000000	64.894819 
3057.000000	64.911866 
3056.000000	64.927506 
3055.000000	64.942240 
3054.000000	64.956259 
3053.000000	64.969468 
3052.000000	64.981174 
3051.000000	64.990520 
3050.000000	64.996743 
3049.000000	64.999794 
3048.000000	65.000295 
3047.000000	64.999437 
3046.000000	64.998698 
3045.000000	64.999628 
3044.000000	65.003275 
3043.000000	65.009832 
3042.000000	65.018200 
3041.000000	65.026521 
3040.000000	65.032362 
3039.000000	65.033388 
3038.000000	65.027832 
3037.000000	65.015149 
3036.000000	64.996147 
3035.000000	64.972853 
3034.000000	64.947962 
3033.000000	64.924216 
3032.000000	64.903807 
3031.000000	64.887833 
3030.000000	64.876055 
3029.000000	64.867210 
3028.000000	64.859604 
3027.000000	64.852023 
3026.000000	64.843702 
3025.000000	64.835190 
3024.000000	64.827919 
3023.000000	64.824151 
3022.000000	64.826035 
3021.000000	64.835095 
3020.000000	64.851593 
3019.000000	64.874434 
3018.000000	64.901304 
3017.000000	64.928817 
3016.000000	64.953541 
3015.000000	64.972233 
3014.000000	64.982724 
3013.000000	64.984059 
3012.000000	64.976477 
3011.000000	64.961504 
3010.000000	64.941120 
3009.000000	64.917755 
3008.000000	64.893627 
3007.000000	64.870643 
3006.000000	64.850163 
3005.000000	64.832973 
3004.000000	64.819264 
3003.000000	64.808917 
3002.000000	64.801597 
3001.000000	64.796829 
3000.000000	64.794182 
2999.000000	64.793133 
2998.000000	64.793133 
2997.000000	64.793658 
2996.000000	64.794206 
2995.000000	64.793992 
2994.000000	64.792609 
2993.000000	64.789867 
2992.000000	64.785885 
2991.000000	64.781141 
2990.000000	64.776444 
2989.000000	64.772820 
2988.000000	64.771223 
2987.000000	64.772248 
2986.000000	64.776110 
2985.000000	64.782595 
2984.000000	64.791035 
2983.000000	64.800572 
2982.000000	64.810204 
2981.000000	64.819240 
2980.000000	64.827275 
2979.000000	64.834117 
2978.000000	64.839720 
2977.000000	64.843869 
2976.000000	64.846396 
2975.000000	64.846754 
2974.000000	64.844012 
2973.000000	64.836883 
2972.000000	64.824628 
2971.000000	64.806628 
2970.000000	64.783120 
2969.000000	64.754915 
2968.000000	64.723682 
2967.000000	64.691376 
2966.000000	64.660024 
2965.000000	64.631342 
2964.000000	64.606380 
2963.000000	64.585661 
2962.000000	64.568948 
2961.000000	64.555811 
2960.000000	64.545559 
2959.000000	64.537739 
2958.000000	64.532184 
2957.000000	64.528965 
2956.000000	64.528489 
2955.000000	64.531040 
2954.000000	64.537096 
2953.000000	64.546895 
2952.000000	64.560627 
2951.000000	64.578557 
2950.000000	64.600872 
2949.000000	64.627718 
2948.000000	64.658784 
2947.000000	64.693188 
2946.000000	64.728999 
2945.000000	64.763712 
2944.000000	64.794254 
2943.000000	64.817714 
2942.000000	64.831948 
2941.000000	64.836311 
2940.000000	64.831781 
2939.000000	64.820814 
2938.000000	64.807033 
2937.000000	64.794611 
2936.000000	64.787197 
2935.000000	64.787244 
2934.000000	64.795470 
2933.000000	64.810991 
2932.000000	64.831566 
2931.000000	64.854192 
2930.000000	64.875650 
2929.000000	64.893245 
2928.000000	64.905118 
2927.000000	64.910602 
2926.000000	64.909982 
2925.000000	64.904284 
2924.000000	64.895367 
2923.000000	64.885187 
2922.000000	64.875817 
2921.000000	64.868807 
2920.000000	64.865088 
2919.000000	64.864659 
2918.000000	64.866733 
2917.000000	64.870142 
2916.000000	64.873719 
2915.000000	64.876985 
2914.000000	64.880013 
2913.000000	64.883589 
2912.000000	64.889192 
2911.000000	64.897942 
2910.000000	64.910316 
2909.000000	64.925289 
2908.000000	64.940404 
2907.000000	64.951944 
2906.000000	64.955782 
2905.000000	64.948225 
2904.000000	64.927220 
2903.000000	64.893078 
2902.000000	64.848709 
2901.000000	64.798998 
2900.000000	64.750146 
2899.000000	64.708161 
2898.000000	64.677691 
2897.000000	64.661407 
2896.000000	64.659523 
2895.000000	64.670109 
2894.000000	64.689660 
2893.000000	64.713907 
2892.000000	64.738750 
2891.000000	64.760780 
2890.000000	64.777898 
2889.000000	64.788842 
2888.000000	64.793658 
2887.000000	64.792919 
2886.000000	64.787721 
2885.000000	64.779353 
2884.000000	64.769196 
2883.000000	64.758610 
2882.000000	64.748859 
2881.000000	64.741015 
2880.000000	64.735817 
2879.000000	64.733600 
2878.000000	64.734053 
2877.000000	64.736485 
2876.000000	64.739823 
2875.000000	64.742803 
2874.000000	64.744353 
2873.000000	64.743709 
2872.000000	64.740705 
2871.000000	64.735722 
2870.000000	64.729595 
2869.000000	64.723420 
2868.000000	64.718389 
2867.000000	64.715695 
2866.000000	64.715981 
2865.000000	64.719724 
2864.000000	64.726901 
2863.000000	64.736986 
2862.000000	64.749312 
2861.000000	64.762711 
2860.000000	64.775776 
2859.000000	64.787054 
2858.000000	64.795017 
2857.000000	64.798641 
2856.000000	64.797329 
2855.000000	64.791393 
2854.000000	64.781951 
2853.000000	64.770770 
2852.000000	64.760088 
2851.000000	64.751887 
2850.000000	64.747571 
2849.000000	64.747619 
2848.000000	64.751267 
2847.000000	64.756870 
2846.000000	64.762187 
2845.000000	64.765024 
2844.000000	64.763736 
2843.000000	64.757490 
2842.000000	64.746665 
2841.000000	64.732408 
2840.000000	64.716696 
2839.000000	64.701652 
2838.000000	64.689350 
2837.000000	64.681363 
2836.000000	64.678812 
2835.000000	64.681959 
2834.000000	64.690685 
2833.000000	64.704275 
2832.000000	64.721751 
2831.000000	64.741802 
2830.000000	64.762830 
2829.000000	64.782977 
2828.000000	64.800477 
2827.000000	64.813756 
2826.000000	64.821648 
2825.000000	64.823508 
2824.000000	64.819526 
2823.000000	64.810609 
2822.000000	64.798307 
2821.000000	64.784622 
2820.000000	64.771556 
2819.000000	64.760851 
2818.000000	64.753818 
2817.000000	64.750933 
2816.000000	64.751887 
2815.000000	64.755535 
2814.000000	64.760327 
2813.000000	64.764595 
2812.000000	64.766979 
2811.000000	64.766812 
2810.000000	64.764332 
2809.000000	64.760565 
2808.000000	64.757227 
2807.000000	64.756083 
2806.000000	64.758610 
2805.000000	64.765501 
2804.000000	64.776444 
2803.000000	64.789843 
2802.000000	64.803314 
2801.000000	64.814066 
2800.000000	64.819693 
2799.000000	64.818525 
2798.000000	64.810109 
2797.000000	64.795398 
2796.000000	64.776492 
2795.000000	64.756274 
2794.000000	64.737844 
2793.000000	64.723992 
2792.000000	64.716696 
2791.000000	64.717030 
2790.000000	64.725089 
2789.000000	64.740347 
2788.000000	64.761590 
2787.000000	64.787244 
2786.000000	64.815783 
2785.000000	64.845490 
2784.000000	64.874768 
2783.000000	64.901900 
2782.000000	64.925074 
2781.000000	64.942693 
2780.000000	64.953136 
2779.000000	64.955401 
2778.000000	64.948940 
2777.000000	64.934062 
2776.000000	64.911770 
2775.000000	64.883852 
2774.000000	64.852738 
2773.000000	64.821028 
2772.000000	64.791297 
2771.000000	64.765930 
2770.000000	64.746761 
2769.000000	64.735078 
2768.000000	64.731407 
2767.000000	64.735388 
2766.000000	64.745950 
2765.000000	64.761209 
2764.000000	64.778637 
2763.000000	64.795351 
2762.000000	64.808392 
2761.000000	64.815330 
2760.000000	64.814424 
2759.000000	64.805388 
2758.000000	64.788985 
2757.000000	64.767408 
2756.000000	64.743447 
2755.000000	64.720344 
2754.000000	64.700818 
2753.000000	64.686989 
2752.000000	64.679646 
2751.000000	64.678668 
2750.000000	64.682912 
2749.000000	64.690971 
2748.000000	64.701294 
2747.000000	64.712762 
2746.000000	64.724826 
2745.000000	64.737415 
2744.000000	64.750504 
2743.000000	64.763951 
2742.000000	64.777183 
2741.000000	64.789199 
2740.000000	64.798688 
2739.000000	64.804482 
2738.000000	64.805912 
2737.000000	64.803147 
2736.000000	64.797449 
2735.000000	64.790630 
2734.000000	64.785075 
2733.000000	64.782810 
2732.000000	64.785170 
2731.000000	64.792609 
2730.000000	64.804458 
2729.000000	64.819312 
2728.000000	64.835286 
2727.000000	64.850568 
2726.000000	64.863801 
2725.000000	64.874172 
2724.000000	64.881372 
2723.000000	64.885473 
2722.000000	64.886593 
2721.000000	64.884829 
2720.000000	64.880108 
2719.000000	64.872384 
2718.000000	64.861750 
2717.000000	64.848685 
2716.000000	64.834094 
2715.000000	64.819240 
2714.000000	64.805459 
2713.000000	64.793896 
2712.000000	64.785361 
2711.000000	64.780139 
2710.000000	64.777994 
2709.000000	64.778208 
2708.000000	64.779925 
2707.000000	64.782428 
2706.000000	64.785075 
2705.000000	64.787673 
2704.000000	64.790272 
2703.000000	64.793157 
2702.000000	64.796471 
2701.000000	64.799952 
2700.000000	64.803147 
2699.000000	64.805221 
2698.000000	64.805126 
2697.000000	64.802122 
2696.000000	64.795804 
2695.000000	64.786577 
2694.000000	64.775395 
2693.000000	64.764022 
2692.000000	64.754629 
2691.000000	64.749431 
2690.000000	64.750051 
2689.000000	64.757227 
2688.000000	64.770460 
2687.000000	64.788174 
2686.000000	64.808106 
2685.000000	64.827704 
2684.000000	64.844822 
2683.000000	64.858222 
2682.000000	64.867734 
2681.000000	64.873766 
2680.000000	64.877176 
2679.000000	64.878845 
2678.000000	64.879226 
2677.000000	64.878392 
2676.000000	64.875841 
2675.000000	64.871025 
2674.000000	64.863610 
2673.000000	64.853835 
2672.000000	64.842391 
2671.000000	64.830493 
2670.000000	64.819478 
2669.000000	64.810299 
2668.000000	64.803528 
2667.000000	64.798855 
2666.000000	64.795494 
2665.000000	64.792680 
2664.000000	64.789819 
2663.000000	64.786720 
2662.000000	64.783716 
2661.000000	64.781546 
2660.000000	64.780950 
2659.000000	64.782500 
2658.000000	64.786624 
2657.000000	64.793300 
2656.000000	64.802432 
2655.000000	64.813613 
2654.000000	64.826369 
2653.000000	64.839863 
2652.000000	64.853119 
2651.000000	64.864969 
2650.000000	64.874243 
2649.000000	64.879918 
2648.000000	64.881348 
2647.000000	64.878129 
2646.000000	64.870548 
2645.000000	64.859175 
2644.000000	64.845156 
2643.000000	64.829587 
2642.000000	64.813613 
2641.000000	64.797997 
2640.000000	64.783287 
2639.000000	64.769697 
2638.000000	64.757323 
2637.000000	64.746332 
2636.000000	64.736866 
2635.000000	64.729404 
2634.000000	64.724397 
2633.000000	64.722037 
2632.000000	64.722299 
2631.000000	64.725041 
2630.000000	64.729738 
2629.000000	64.735579 
2628.000000	64.741635 
2627.000000	64.746975 
2626.000000	64.750957 
2625.000000	64.753055 
2624.000000	64.753222 
2623.000000	64.751839 
2622.000000	64.749956 
2621.000000	64.748764 
2620.000000	64.749646 
2619.000000	64.753723 
2618.000000	64.761757 
2617.000000	64.773917 
2616.000000	64.789605 
2615.000000	64.807391 
2614.000000	64.825320 
2613.000000	64.841294 
2612.000000	64.853310 
2611.000000	64.859604 
2610.000000	64.859271 
2609.000000	64.852118 
2608.000000	64.838790 
2607.000000	64.820480 
2606.000000	64.798903 
2605.000000	64.775919 
2604.000000	64.753127 
2603.000000	64.731693 
2602.000000	64.712429 
2601.000000	64.695549 
2600.000000	64.680647 
2599.000000	64.667057 
2598.000000	64.653944 
2597.000000	64.640784 
2596.000000	64.627528 
2595.000000	64.614772 
2594.000000	64.603471 
2593.000000	64.595246 
2592.000000	64.591717 
2591.000000	64.594364 
2590.000000	64.603972 
2589.000000	64.620351 
2588.000000	64.642429 
2587.000000	64.668202 
2586.000000	64.695048 
2585.000000	64.720273 
2584.000000	64.741516 
2583.000000	64.757084 
2582.000000	64.766120 
2581.000000	64.768695 
2580.000000	64.765715 
2579.000000	64.758586 
2578.000000	64.749050 
2577.000000	64.738941 
2576.000000	64.730000 
2575.000000	64.723753 
2574.000000	64.721202 
2573.000000	64.722585 
2572.000000	64.727210 
2571.000000	64.733529 
2570.000000	64.739465 
2569.000000	64.742398 
2568.000000	64.739871 
2567.000000	64.730262 
2566.000000	64.713239 
2565.000000	64.689898 
2564.000000	64.662837 
2563.000000	64.635539 
2562.000000	64.611959 
2561.000000	64.595293 
2560.000000	64.587640 
2559.000000	64.589405 
2558.000000	64.599299 
2557.000000	64.614915 
2556.000000	64.632964 
2555.000000	64.650201 
2554.000000	64.663815 
2553.000000	64.671707 
2552.000000	64.672803 
2551.000000	64.666891 
2550.000000	64.654660 
2549.000000	64.637613 
2548.000000	64.617800 
2547.000000	64.597654 
2546.000000	64.579820 
2545.000000	64.566564 
2544.000000	64.559698 
2543.000000	64.560031 
2542.000000	64.567303 
2541.000000	64.580297 
2540.000000	64.596581 
2539.000000	64.613556 
2538.000000	64.628815 
2537.000000	64.640641 
2536.000000	64.648318 
2535.000000	64.652109 
2534.000000	64.652991 
2533.000000	64.652180 
2532.000000	64.650893 
2531.000000	64.649939 
2530.000000	64.649486 
2529.000000	64.649486 
2528.000000	64.649820 
2527.000000	64.650559 
2526.000000	64.652109 
2525.000000	64.655137 
2524.000000	64.660477 
2523.000000	64.668607 
2522.000000	64.679503 
2521.000000	64.692306 
2520.000000	64.705419 
2519.000000	64.716720 
2518.000000	64.723801 
2517.000000	64.724755 
2516.000000	64.718389 
2515.000000	64.704632 
2514.000000	64.684486 
2513.000000	64.659929 
2512.000000	64.633560 
2511.000000	64.608263 
2510.000000	64.586758 
2509.000000	64.571166 
2508.000000	64.562773 
2507.000000	64.561963 
2506.000000	64.568114 
2505.000000	64.579749 
2504.000000	64.594745 
2503.000000	64.610743 
2502.000000	64.625549 
2501.000000	64.637446 
2500.000000	64.645671 
2499.000000	64.650511 
2498.000000	64.653444 
2497.000000	64.656543 
2496.000000	64.662170 
2495.000000	64.672183 
2494.000000	64.687538 
2493.000000	64.707684 
2492.000000	64.730668 
2491.000000	64.753341 
2490.000000	64.771962 
2489.000000	64.783120 
2488.000000	64.784479 
2487.000000	64.775514 
2486.000000	64.757347 
2485.000000	64.732933 
2484.000000	64.706158 
2483.000000	64.681315 
2482.000000	64.662075 
2481.000000	64.650893 
2480.000000	64.648890 
2479.000000	64.655637 
2478.000000	64.669704 
2477.000000	64.688634 
2476.000000	64.709877 
2475.000000	64.730882 
2474.000000	64.749526 
2473.000000	64.764404 
2472.000000	64.774894 
2471.000000	64.781069 
2470.000000	64.783406 
2469.000000	64.782691 
2468.000000	64.779782 
2467.000000	64.775514 
2466.000000	64.770317 
2465.000000	64.764428 
2464.000000	64.757752 
2463.000000	64.750242 
2462.000000	64.741611 
2461.000000	64.732003 
2460.000000	64.721369 
2459.000000	64.710021 
2458.000000	64.698147 
2457.000000	64.685964 
2456.000000	64.673686 
2455.000000	64.661216 
2454.000000	64.648580 
2453.000000	64.635634 
2452.000000	64.622664 
2451.000000	64.610219 
2450.000000	64.598965 
2449.000000	64.589715 
2448.000000	64.583086 
2447.000000	64.579463 
2446.000000	64.578914 
2445.000000	64.581012 
2444.000000	64.585018 
2443.000000	64.589762 
2442.000000	64.594030 
2441.000000	64.596939 
2440.000000	64.597845 
2439.000000	64.596629 
2438.000000	64.593696 
2437.000000	64.589929 
2436.000000	64.586591 
2435.000000	64.584779 
2434.000000	64.585494 
2433.000000	64.589071 
2432.000000	64.595413 
2431.000000	64.603519 
2430.000000	64.612078 
2429.000000	64.619660 
2428.000000	64.624977 
2427.000000	64.627504 
2426.000000	64.627289 
2425.000000	64.625430 
2424.000000	64.623379 
2423.000000	64.622831 
2422.000000	64.625048 
2421.000000	64.630579 
2420.000000	64.639043 
2419.000000	64.649224 
2418.000000	64.659476 
2417.000000	64.668107 
2416.000000	64.673805 
2415.000000	64.675903 
2414.000000	64.674258 
2413.000000	64.669275 
2412.000000	64.661526 
2411.000000	64.651346 
2410.000000	64.638757 
2409.000000	64.623427 
2408.000000	64.605069 
2407.000000	64.583587 
2406.000000	64.559650 
2405.000000	64.534711 
2404.000000	64.510941 
2403.000000	64.490795 
2402.000000	64.476680 
2401.000000	64.470100 
2400.000000	64.471602 
2399.000000	64.480233 
2398.000000	64.494013 
2397.000000	64.510107 
2396.000000	64.525556 
2395.000000	64.537692 
2394.000000	64.544701 
2393.000000	64.545822 
2392.000000	64.541530 
2391.000000	64.533257 
2390.000000	64.523124 
2389.000000	64.513540 
2388.000000	64.506578 
2387.000000	64.503765 
2386.000000	64.505672 
2385.000000	64.511990 
2384.000000	64.521479 
2383.000000	64.532303 
2382.000000	64.542222 
2381.000000	64.549279 
2380.000000	64.551901 
2379.000000	64.549589 
2378.000000	64.542865 
2377.000000	64.533209 
2376.000000	64.522671 
2375.000000	64.513707 
2374.000000	64.508461 
2373.000000	64.508485 
2372.000000	64.514327 
2371.000000	64.525651 
2370.000000	64.541244 
2369.000000	64.559531 
2368.000000	64.578747 
2367.000000	64.597487 
2366.000000	64.614772 
2365.000000	64.630317 
2364.000000	64.644289 
2363.000000	64.657044 
2362.000000	64.668822 
2361.000000	64.679479 
2360.000000	64.688205 
2359.000000	64.693880 
2358.000000	64.695286 
2357.000000	64.691376 
2356.000000	64.681696 
2355.000000	64.666748 
2354.000000	64.647984 
2353.000000	64.627480 
2352.000000	64.607477 
2351.000000	64.589905 
2350.000000	64.576029 
2349.000000	64.566302 
2348.000000	64.560270 
2347.000000	64.556717 
2346.000000	64.554190 
2345.000000	64.551329 
2344.000000	64.547204 
2343.000000	64.541506 
2342.000000	64.534616 
2341.000000	64.527463 
2340.000000	64.521265 
2339.000000	64.516997 
2338.000000	64.515423 
2337.000000	64.516854 
2336.000000	64.521050 
2335.000000	64.527344 
2334.000000	64.534926 
2333.000000	64.542961 
2332.000000	64.550900 
2331.000000	64.558434 
2330.000000	64.565587 
2329.000000	64.572548 
2328.000000	64.579534 
2327.000000	64.586496 
2326.000000	64.592838 
2325.000000	64.597606 
2324.000000	64.599490 
2323.000000	64.597415 
2322.000000	64.590764 
2321.000000	64.579796 
2320.000000	64.565753 
2319.000000	64.550709 
2318.000000	64.537024 
2317.000000	64.526796 
2316.000000	64.521431 
2315.000000	64.521145 
2314.000000	64.525151 
2313.000000	64.531540 
2312.000000	64.538097 
2311.000000	64.542555 
2310.000000	64.543247 
2309.000000	64.539456 
2308.000000	64.531588 
2307.000000	64.520835 
2306.000000	64.509105 
2305.000000	64.498424 
2304.000000	64.490580 
2303.000000	64.486932 
2302.000000	64.488148 
2301.000000	64.494109 
2300.000000	64.503979 
2299.000000	64.516305 
2298.000000	64.529371 
2297.000000	64.541077 
2296.000000	64.549732 
2295.000000	64.553928 
2294.000000	64.553046 
2293.000000	64.547324 
2292.000000	64.537453 
2291.000000	64.524555 
2290.000000	64.509963 
2289.000000	64.494967 
2288.000000	64.480662 
2287.000000	64.467930 
2286.000000	64.457631 
2285.000000	64.450573 
2284.000000	64.447402 
2283.000000	64.448785 
2282.000000	64.455056 
2281.000000	64.466118 
2280.000000	64.481258 
2279.000000	64.499258 
2278.000000	64.518284 
2277.000000	64.536309 
2276.000000	64.551353 
2275.000000	64.561891 
2274.000000	64.567089 
2273.000000	64.566731 
2272.000000	64.561343 
2271.000000	64.551758 
2270.000000	64.538908 
2269.000000	64.523887 
2268.000000	64.507722 
2267.000000	64.491319 
2266.000000	64.475679 
2265.000000	64.461755 
2264.000000	64.450502 
2263.000000	64.442682 
2262.000000	64.438796 
2261.000000	64.438939 
2260.000000	64.442849 
2259.000000	64.449787 
2258.000000	64.458751 
2257.000000	64.468693 
2256.000000	64.478397 
2255.000000	64.487075 
2254.000000	64.494013 
2253.000000	64.498710 
2252.000000	64.500856 
2251.000000	64.500164 
2250.000000	64.496374 
2249.000000	64.489555 
2248.000000	64.479804 
2247.000000	64.467644 
2246.000000	64.453959 
2245.000000	64.439892 
2244.000000	64.426684 
2243.000000	64.415526 
2242.000000	64.407181 
2241.000000	64.401912 
2240.000000	64.399623 
2239.000000	64.399623 
2238.000000	64.401102 
2237.000000	64.403223 
2236.000000	64.405465 
2235.000000	64.407610 
2234.000000	64.409971 
2233.000000	64.412975 
2232.000000	64.417219 
2231.000000	64.423084 
2230.000000	64.430713 
2229.000000	64.439868 
2228.000000	64.449906 
2227.000000	64.459943 
2226.000000	64.469075 
2225.000000	64.476752 
2224.000000	64.482450 
2223.000000	64.486145 
2222.000000	64.488053 
2221.000000	64.488625 
2220.000000	64.488410 
2219.000000	64.487862 
2218.000000	64.487218 
2217.000000	64.486384 
2216.000000	64.485096 
2215.000000	64.482951 
2214.000000	64.479541 
2213.000000	64.474487 
2212.000000	64.467835 
2211.000000	64.459848 
2210.000000	64.451169 
2209.000000	64.442610 
2208.000000	64.435076 
2207.000000	64.429306 
2206.000000	64.425587 
2205.000000	64.423727 
2204.000000	64.423108 
2203.000000	64.422678 
2202.000000	64.421105 
2201.000000	64.417099 
2200.000000	64.409732 
2199.000000	64.398360 
2198.000000	64.383006 
2197.000000	64.364218 
2196.000000	64.343070 
2195.000000	64.321017 
2194.000000	64.299941 
2193.000000	64.281702 
2192.000000	64.268088 
2191.000000	64.260458 
2190.000000	64.259767 
2189.000000	64.266085 
2188.000000	64.278841 
2187.000000	64.296460 
2186.000000	64.316797 
2185.000000	64.337348 
2184.000000	64.355802 
2183.000000	64.370274 
2182.000000	64.379787 
2181.000000	64.384293 
2180.000000	64.384794 
2179.000000	64.382910 
2178.000000	64.380478 
2177.000000	64.379215 
2176.000000	64.380335 
2175.000000	64.384341 
2174.000000	64.390993 
2173.000000	64.399504 
2172.000000	64.408802 
2171.000000	64.417648 
2170.000000	64.424920 
2169.000000	64.430022 
2168.000000	64.432525 
2167.000000	64.432263 
2166.000000	64.429473 
2165.000000	64.424443 
2164.000000	64.417648 
2163.000000	64.409613 
2162.000000	64.401078 
2161.000000	64.392757 
2160.000000	64.385390 
2159.000000	64.379549 
2158.000000	64.375710 
2157.000000	64.373874 
2156.000000	64.373993 
2155.000000	64.375567 
2154.000000	64.377832 
2153.000000	64.379906 
2152.000000	64.380955 
2151.000000	64.380359 
2150.000000	64.377593 
2149.000000	64.372420 
2148.000000	64.365124 
2147.000000	64.356207 
2146.000000	64.346528 
2145.000000	64.337086 
2144.000000	64.328908 
2143.000000	64.322900 
2142.000000	64.319825 
2141.000000	64.319992 
2140.000000	64.323449 
2139.000000	64.329743 
2138.000000	64.338421 
2137.000000	64.348745 
2136.000000	64.360046 
2135.000000	64.371585 
2134.000000	64.382839 
2133.000000	64.393115 
2132.000000	64.401745 
2131.000000	64.407944 
2130.000000	64.410901 
2129.000000	64.409732 
2128.000000	64.403939 
2127.000000	64.393568 
2126.000000	64.379310 
2125.000000	64.362621 
2124.000000	64.345502 
2123.000000	64.330148 
2122.000000	64.318656 
2121.000000	64.312505 
2120.000000	64.312171 
2119.000000	64.317107 
2118.000000	64.325976 
2117.000000	64.336991 
2116.000000	64.348268 
2115.000000	64.358401 
2114.000000	64.366459 
2113.000000	64.372324 
2112.000000	64.376378 
2111.000000	64.379215 
2110.000000	64.381289 
2109.000000	64.382815 
2108.000000	64.383625 
2107.000000	64.383244 
2106.000000	64.381408 
2105.000000	64.377999 
2104.000000	64.373540 
2103.000000	64.368939 
2102.000000	64.365482 
2101.000000	64.364290 
2100.000000	64.366221 
2099.000000	64.371275 
2098.000000	64.378595 
2097.000000	64.386630 
2096.000000	64.393448 
2095.000000	64.397192 
2094.000000	64.396476 
2093.000000	64.390754 
2092.000000	64.380574 
2091.000000	64.367103 
2090.000000	64.351844 
2089.000000	64.336490 
2088.000000	64.322304 
2087.000000	64.310073 
2086.000000	64.300036 
2085.000000	64.291977 
2084.000000	64.285349 
2083.000000	64.279484 
2082.000000	64.273905 
2081.000000	64.268088 
2080.000000	64.261865 
2079.000000	64.255523 
2078.000000	64.249658 
2077.000000	64.245080 
2076.000000	64.242696 
2075.000000	64.243197 
2074.000000	64.247131 
2073.000000	64.254379 
2072.000000	64.264655 
2071.000000	64.277482 
2070.000000	64.292240 
2069.000000	64.308404 
2068.000000	64.325404 
2067.000000	64.342570 
2066.000000	64.359450 
2065.000000	64.375543 
2064.000000	64.390587 
2063.000000	64.404511 
2062.000000	64.417576 
2061.000000	64.430141 
2060.000000	64.442420 
2059.000000	64.454317 
2058.000000	64.465308 
2057.000000	64.474272 
2056.000000	64.479637 
2055.000000	64.479565 
2054.000000	64.472746 
2053.000000	64.458394 
2052.000000	64.436960 
2051.000000	64.409899 
2050.000000	64.379811 
2049.000000	64.349818 
2048.000000	64.322972 
2047.000000	64.301848 
2046.000000	64.287853 
2045.000000	64.281487 
2044.000000	64.282059 
2043.000000	64.288330 
2042.000000	64.298462 
2041.000000	64.310669 
2040.000000	64.323306 
2039.000000	64.334940 
2038.000000	64.344167 
2037.000000	64.350056 
2036.000000	64.351987 
2035.000000	64.349651 
2034.000000	64.343190 
2033.000000	64.333224 
2032.000000	64.320659 
2031.000000	64.306855 
2030.000000	64.293026 
2029.000000	64.280438 
2028.000000	64.269900 
2027.000000	64.261817 
2026.000000	64.256215 
2025.000000	64.252829 
2024.000000	64.251399 
2023.000000	64.251780 
2022.000000	64.253926 
2021.000000	64.257740 
2020.000000	64.263081 
2019.000000	64.269685 
2018.000000	64.277029 
2017.000000	64.284443 
2016.000000	64.291119 
2015.000000	64.296507 
2014.000000	64.300012 
2013.000000	64.301252 
2012.000000	64.300060 
2011.000000	64.296579 
2010.000000	64.291095 
2009.000000	64.284181 
2008.000000	64.276647 
2007.000000	64.269280 
2006.000000	64.262986 
2005.000000	64.258646 
2004.000000	64.256906 
2003.000000	64.258217 
2002.000000	64.262843 
2001.000000	64.270639 
2000.000000	64.281463 
1999.000000	64.294886 
1998.000000	64.310455 
1997.000000	64.327645 
1996.000000	64.345812 
1995.000000	64.364099 
1994.000000	64.381194 
1993.000000	64.395523 
1992.000000	64.405345 
1991.000000	64.409184 
1990.000000	64.405965 
1989.000000	64.395642 
1988.000000	64.379262 
1987.000000	64.358735 
1986.000000	64.336705 
1985.000000	64.315986 
1984.000000	64.298963 
1983.000000	64.287233 
1982.000000	64.281320 
1981.000000	64.280676 
1980.000000	64.283752 
1979.000000	64.288568 
1978.000000	64.293122 
1977.000000	64.295625 
1976.000000	64.295053 
1975.000000	64.291119 
1974.000000	64.284157 
1973.000000	64.275050 
1972.000000	64.264845 
1971.000000	64.254522 
1970.000000	64.244914 
1969.000000	64.236617 
1968.000000	64.229869 
1967.000000	64.224743 
1966.000000	64.221167 
1965.000000	64.218926 
1964.000000	64.217615 
1963.000000	64.216876 
1962.000000	64.216208 
1961.000000	64.215016 
1960.000000	64.212632 
1959.000000	64.208579 
1958.000000	64.202594 
1957.000000	64.194798 
1956.000000	64.185595 
1955.000000	64.175724 
1954.000000	64.166212 
1953.000000	64.157938 
1952.000000	64.151382 
1951.000000	64.146757 
1950.000000	64.143776 
1949.000000	64.141941 
1948.000000	64.140844 
1947.000000	64.140415 
1946.000000	64.141035 
1945.000000	64.143538 
1944.000000	64.148640 
1943.000000	64.156913 
1942.000000	64.168453 
1941.000000	64.182496 
1940.000000	64.197349 
1939.000000	64.210915 
1938.000000	64.221143 
1937.000000	64.226341 
1936.000000	64.225769 
1935.000000	64.219689 
1934.000000	64.209365 
1933.000000	64.196515 
1932.000000	64.183068 
1931.000000	64.170527 
1930.000000	64.159703 
1929.000000	64.150595 
1928.000000	64.142584 
1927.000000	64.134716 
1926.000000	64.126253 
1925.000000	64.116597 
1924.000000	64.105820 
1923.000000	64.094376 
1922.000000	64.083361 
1921.000000	64.073753 
1920.000000	64.066863 
1919.000000	64.063668 
1918.000000	64.064955 
1917.000000	64.071035 
1916.000000	64.082050 
1915.000000	64.097571 
1914.000000	64.116883 
1913.000000	64.139032 
1912.000000	64.162802 
1911.000000	64.186692 
1910.000000	64.209246 
1909.000000	64.229011 
1908.000000	64.244985 
1907.000000	64.256381 
1906.000000	64.263057 
1905.000000	64.265465 
1904.000000	64.264607 
1903.000000	64.261746 
1902.000000	64.258146 
1901.000000	64.254856 
1900.000000	64.252710 
1899.000000	64.251923 
1898.000000	64.252161 
1897.000000	64.252758 
1896.000000	64.252781 
1895.000000	64.251422 
1894.000000	64.247965 
1893.000000	64.241909 
1892.000000	64.233279 
1891.000000	64.222383 
1890.000000	64.209842 
1889.000000	64.196372 
1888.000000	64.182853 
1887.000000	64.170002 
1886.000000	64.158487 
1885.000000	64.148712 
1884.000000	64.140820 
1883.000000	64.134693 
1882.000000	64.130139 
1881.000000	64.126706 
1880.000000	64.123773 
1879.000000	64.120936 
1878.000000	64.117980 
1877.000000	64.114856 
1876.000000	64.111590 
1875.000000	64.108276 
1874.000000	64.105105 
1873.000000	64.102220 
1872.000000	64.099645 
1871.000000	64.097547 
1870.000000	64.096164 
1869.000000	64.096117 
1868.000000	64.098262 
1867.000000	64.103627 
1866.000000	64.112925 
1865.000000	64.126777 
1864.000000	64.145112 
1863.000000	64.167094 
1862.000000	64.191007 
1861.000000	64.214754 
1860.000000	64.235806 
1859.000000	64.251804 
1858.000000	64.260911 
1857.000000	64.262127 
1856.000000	64.255213 
1855.000000	64.240598 
1854.000000	64.219379 
1853.000000	64.193105 
1852.000000	64.163541 
1851.000000	64.132404 
1850.000000	64.101505 
1849.000000	64.072775 
1848.000000	64.048147 
1847.000000	64.029598 
1846.000000	64.018845 
1845.000000	64.017105 
1844.000000	64.024758 
1843.000000	64.041447 
1842.000000	64.065504 
1841.000000	64.094638 
1840.000000	64.125776 
1839.000000	64.156031 
1838.000000	64.182758 
1837.000000	64.203834 
1836.000000	64.218044 
1835.000000	64.225006 
1834.000000	64.224910 
1833.000000	64.218544 
1832.000000	64.207172 
1831.000000	64.192199 
1830.000000	64.175367 
1829.000000	64.158320 
1828.000000	64.142847 
1827.000000	64.130568 
1826.000000	64.122867 
1825.000000	64.120602 
1824.000000	64.123964 
1823.000000	64.132452 
1822.000000	64.144849 
1821.000000	64.159202 
1820.000000	64.173388 
1819.000000	64.185237 
1818.000000	64.192914 
1817.000000	64.195442 
1816.000000	64.192485 
1815.000000	64.184689 
1814.000000	64.173316 
1813.000000	64.160203 
1812.000000	64.147233 
1811.000000	64.136195 
1810.000000	64.128088 
1809.000000	64.123463 
1808.000000	64.122128 
1807.000000	64.123058 
1806.000000	64.124870 
1805.000000	64.126181 
1804.000000	64.125847 
1803.000000	64.123082 
1802.000000	64.117908 
1801.000000	64.110994 
1800.000000	64.103484 
1799.000000	64.096808 
1798.000000	64.092302 
1797.000000	64.090847 
1796.000000	64.092636 
1795.000000	64.097118 
1794.000000	64.103174 
1793.000000	64.109206 
1792.000000	64.113521 
1791.000000	64.114713 
1790.000000	64.111924 
1789.000000	64.105010 
1788.000000	64.094424 
1787.000000	64.081144 
1786.000000	64.066433 
1785.000000	64.051556 
1784.000000	64.037275 
1783.000000	64.024233 
1782.000000	64.012622 
1781.000000	64.002609 
1780.000000	63.994097 
1779.000000	63.987183 
1778.000000	63.981890 
1777.000000	63.978457 
1776.000000	63.976907 
1775.000000	63.977527 
1774.000000	63.980555 
1773.000000	63.986158 
1772.000000	63.994288 
1771.000000	64.004516 
1770.000000	64.016056 
1769.000000	64.027571 
1768.000000	64.037442 
1767.000000	64.043974 
1766.000000	64.045763 
1765.000000	64.042043 
1764.000000	64.032745 
1763.000000	64.018630 
1762.000000	64.000964 
1761.000000	63.981389 
1760.000000	63.961291 
1759.000000	63.941788 
1758.000000	63.923096 
1757.000000	63.905000 
1756.000000	63.886904 
1755.000000	63.868260 
1754.000000	63.848686 
1753.000000	63.828611 
1752.000000	63.808751 
1751.000000	63.790011 
1750.000000	63.773202 
1749.000000	63.758897 
1748.000000	63.747191 
1747.000000	63.737750 
1746.000000	63.729929 
1745.000000	63.723278 
1744.000000	63.717436 
1743.000000	63.712406 
1742.000000	63.708305 
1741.000000	63.705468 
1740.000000	63.704109 
1739.000000	63.704013 
1738.000000	63.704872 
1737.000000	63.705968 
1736.000000	63.706731 
1735.000000	63.706707 
1734.000000	63.705897 
1733.000000	63.704586 
1732.000000	63.703417 
1731.000000	63.703083 
1730.000000	63.704109 
1729.000000	63.706946 
1728.000000	63.711500 
1727.000000	63.717818 
1726.000000	63.725686 
1725.000000	63.735151 
1724.000000	63.746285 
1723.000000	63.759136 
1722.000000	63.773870 
1721.000000	63.790488 
1720.000000	63.808608 
1719.000000	63.827729 
1718.000000	63.847088 
1717.000000	63.865756 
1716.000000	63.882732 
1715.000000	63.897323 
1714.000000	63.909149 
1713.000000	63.918113 
1712.000000	63.924360 
1711.000000	63.928270 
1710.000000	63.930082 
1709.000000	63.929963 
1708.000000	63.927745 
1707.000000	63.923239 
1706.000000	63.916134 
1705.000000	63.906311 
1704.000000	63.893938 
1703.000000	63.879752 
1702.000000	63.865017 
1701.000000	63.851070 
1700.000000	63.839483 
1699.000000	63.831520 
1698.000000	63.827896 
1697.000000	63.828516 
1696.000000	63.832545 
1695.000000	63.838481 
1694.000000	63.844704 
1693.000000	63.849663 
1692.000000	63.852381 
1691.000000	63.852405 
1690.000000	63.850212 
1689.000000	63.846802 
1688.000000	63.843512 
1687.000000	63.841319 
1686.000000	63.840913 
1685.000000	63.842415 
1684.000000	63.845324 
1683.000000	63.848543 
1682.000000	63.851022 
1681.000000	63.851857 
1680.000000	63.850617 
1679.000000	63.847637 
1678.000000	63.843894 
1677.000000	63.840842 
1676.000000	63.840007 
1675.000000	63.842749 
1674.000000	63.849854 
1673.000000	63.861298 
1672.000000	63.876199 
1671.000000	63.893151 
1670.000000	63.910245 
1669.000000	63.925647 
1668.000000	63.937878 
1667.000000	63.945913 
1666.000000	63.949441 
1665.000000	63.948607 
1664.000000	63.943910 
1663.000000	63.935923 
1662.000000	63.925313 
1661.000000	63.912487 
1660.000000	63.897848 
1659.000000	63.882040 
1658.000000	63.866114 
1657.000000	63.851475 
1656.000000	63.839817 
1655.000000	63.832831 
1654.000000	63.832116 
1653.000000	63.838410 
1652.000000	63.851690 
1651.000000	63.870835 
1650.000000	63.893985 
1649.000000	63.918900 
1648.000000	63.943171 
1647.000000	63.964962 
1646.000000	63.982796 
1645.000000	63.996028 
1644.000000	64.004373 
1643.000000	64.007830 
1642.000000	64.006495 
1641.000000	64.000415 
1640.000000	63.989639 
1639.000000	63.974571 
1638.000000	63.955760 
1637.000000	63.934445 
1636.000000	63.912153 
1635.000000	63.890671 
1634.000000	63.871526 
1633.000000	63.855838 
1632.000000	63.844060 
1631.000000	63.835906 
1630.000000	63.830590 
1629.000000	63.827228 
1628.000000	63.824939 
1627.000000	63.823485 
1626.000000	63.823008 
1625.000000	63.824319 
1624.000000	63.828277 
1623.000000	63.835573 
1622.000000	63.846373 
1621.000000	63.860154 
1620.000000	63.875555 
1619.000000	63.890862 
1618.000000	63.903999 
1617.000000	63.913106 
1616.000000	63.917255 
1615.000000	63.916134 
1614.000000	63.910341 
1613.000000	63.901090 
1612.000000	63.890218 
1611.000000	63.879561 
1610.000000	63.870549 
1609.000000	63.863945 
1608.000000	63.859844 
1607.000000	63.857698 
1606.000000	63.856720 
1605.000000	63.855934 
1604.000000	63.854742 
1603.000000	63.853120 
1602.000000	63.851785 
1601.000000	63.851881 
1600.000000	63.854670 
1599.000000	63.861250 
1598.000000	63.872122 
1597.000000	63.886857 
1596.000000	63.903951 
1595.000000	63.921260 
1594.000000	63.936042 
1593.000000	63.946008 
1592.000000	63.949394 
1591.000000	63.945484 
1590.000000	63.934302 
1589.000000	63.916635 
1588.000000	63.893580 
1587.000000	63.866257 
1586.000000	63.835835 
1585.000000	63.803529 
1584.000000	63.770627 
1583.000000	63.738775 
1582.000000	63.709902 
1581.000000	63.686251 
1580.000000	63.669991 
1579.000000	63.662695 
1578.000000	63.665223 
1577.000000	63.677263 
1576.000000	63.697242 
1575.000000	63.722610 
1574.000000	63.749933 
1573.000000	63.775372 
1572.000000	63.795304 
1571.000000	63.806843 
1570.000000	63.808107 
1569.000000	63.798689 
1568.000000	63.779520 
1567.000000	63.752818 
1566.000000	63.721895 
1565.000000	63.690519 
1564.000000	63.662481 
1563.000000	63.640975 
1562.000000	63.628244 
1561.000000	63.624835 
1560.000000	63.629961 
1559.000000	63.641166 
1558.000000	63.654875 
1557.000000	63.667273 
1556.000000	63.674902 
1555.000000	63.675570 
1554.000000	63.668727 
1553.000000	63.655805 
1552.000000	63.639688 
1551.000000	63.624119 
1550.000000	63.612580 
1549.000000	63.607645 
1548.000000	63.610029 
1547.000000	63.618755 
1546.000000	63.631200 
1545.000000	63.644075 
1544.000000	63.654136 
1543.000000	63.658952 
1542.000000	63.657593 
1541.000000	63.650393 
1540.000000	63.639187 
1539.000000	63.626289 
1538.000000	63.614153 
1537.000000	63.604664 
1536.000000	63.598871 
1535.000000	63.596868 
1534.000000	63.598132 
1533.000000	63.601875 
1532.000000	63.607549 
1531.000000	63.614940 
1530.000000	63.624167 
1529.000000	63.635468 
1528.000000	63.648843 
1527.000000	63.663601 
1526.000000	63.678336 
1525.000000	63.690972 
1524.000000	63.699555 
1523.000000	63.702583 
1522.000000	63.699674 
1521.000000	63.691782 
1520.000000	63.681077 
1519.000000	63.670539 
1518.000000	63.663148 
1517.000000	63.661360 
1516.000000	63.666367 
1515.000000	63.678145 
1514.000000	63.695287 
1513.000000	63.715791 
1512.000000	63.737392 
1511.000000	63.758301 
1510.000000	63.777375 
1509.000000	63.794112 
1508.000000	63.808536 
1507.000000	63.820838 
1506.000000	63.831019 
1505.000000	63.838624 
1504.000000	63.842916 
1503.000000	63.842916 
1502.000000	63.837957 
1501.000000	63.827800 
1500.000000	63.812756 
1499.000000	63.793873 
1498.000000	63.772749 
1497.000000	63.751506 
1496.000000	63.732290 
1495.000000	63.716983 
1494.000000	63.706874 
1493.000000	63.702464 
1492.000000	63.703417 
1491.000000	63.708543 
1490.000000	63.716125 
1489.000000	63.724422 
1488.000000	63.731980 
1487.000000	63.737773 
1486.000000	63.741469 
1485.000000	63.743472 
1484.000000	63.744473 
1483.000000	63.745236 
1482.000000	63.746285 
1481.000000	63.747978 
1480.000000	63.750028 
1479.000000	63.751959 
1478.000000	63.753056 
1477.000000	63.752794 
1476.000000	63.750815 
1475.000000	63.747167 
1474.000000	63.742041 
1473.000000	63.735961 
1472.000000	63.729119 
1471.000000	63.721632 
1470.000000	63.713145 
1469.000000	63.703298 
1468.000000	63.691663 
1467.000000	63.678216 
1466.000000	63.663387 
1465.000000	63.648104 
1464.000000	63.633608 
1463.000000	63.620972 
1462.000000	63.610649 
1461.000000	63.602352 
1460.000000	63.594579 
1459.000000	63.585782 
1458.000000	63.574457 
1457.000000	63.560318 
1456.000000	63.544225 
1455.000000	63.528537 
1454.000000	63.516569 
1453.000000	63.511753 
1452.000000	63.516616 
1451.000000	63.532090 
1450.000000	63.556861 
1449.000000	63.587641 
1448.000000	63.619804 
1447.000000	63.648486 
1446.000000	63.669705 
1445.000000	63.681197 
1444.000000	63.682913 
1443.000000	63.676786 
1442.000000	63.665843 
1441.000000	63.653659 
1440.000000	63.643360 
1439.000000	63.636827 
1438.000000	63.634467 
1437.000000	63.635659 
1436.000000	63.638830 
1435.000000	63.641953 
1434.000000	63.642978 
1433.000000	63.640427 
1432.000000	63.633728 
1431.000000	63.622999 
1430.000000	63.609385 
1429.000000	63.594436 
1428.000000	63.580179 
1427.000000	63.568615 
1426.000000	63.561534 
1425.000000	63.559937 
1424.000000	63.563942 
1423.000000	63.572788 
1422.000000	63.584995 
1421.000000	63.598418 
1420.000000	63.610959 
1419.000000	63.621020 
1418.000000	63.627719 
1417.000000	63.631176 
1416.000000	63.632464 
1415.000000	63.633346 
1414.000000	63.635849 
1413.000000	63.641524 
1412.000000	63.651418 
1411.000000	63.665437 
1410.000000	63.682746 
1409.000000	63.701558 
1408.000000	63.719463 
1407.000000	63.733911 
1406.000000	63.742613 
1405.000000	63.743710 
1404.000000	63.736033 
1403.000000	63.719129 
1402.000000	63.693547 
1401.000000	63.660430 
1400.000000	63.621687 
1399.000000	63.579607 
1398.000000	63.536906 
1397.000000	63.496351 
1396.000000	63.460326 
1395.000000	63.430690 
1394.000000	63.408637 
1393.000000	63.394546 
1392.000000	63.388013 
1391.000000	63.388013 
1390.000000	63.393115 
1389.000000	63.401770 
1388.000000	63.412714 
1387.000000	63.424682 
1386.000000	63.436794 
1385.000000	63.448548 
1384.000000	63.459706 
1383.000000	63.470077 
1382.000000	63.479590 
1381.000000	63.488173 
1380.000000	63.495898 
1379.000000	63.502669 
1378.000000	63.508677 
1377.000000	63.514256 
1376.000000	63.520145 
1375.000000	63.526868 
1374.000000	63.534951 
1373.000000	63.544654 
1372.000000	63.555741 
1371.000000	63.567709 
1370.000000	63.579559 
1369.000000	63.590264 
1368.000000	63.598942 
1367.000000	63.605260 
1366.000000	63.609433 
1365.000000	63.612127 
1364.000000	63.614416 
1363.000000	63.617444 
1362.000000	63.621735 
1361.000000	63.627219 
1360.000000	63.633108 
1359.000000	63.638234 
1358.000000	63.641333 
1357.000000	63.641548 
1356.000000	63.638782 
1355.000000	63.633418 
1354.000000	63.626289 
1353.000000	63.618254 
1352.000000	63.609862 
1351.000000	63.600921 
1350.000000	63.590836 
1349.000000	63.578534 
1348.000000	63.563179 
1347.000000	63.544416 
1346.000000	63.522696 
1345.000000	63.499307 
1344.000000	63.475942 
1343.000000	63.454580 
1342.000000	63.436913 
1341.000000	63.424086 
1340.000000	63.416409 
1339.000000	63.413929 
1338.000000	63.416457 
1337.000000	63.423728 
1336.000000	63.435339 
1335.000000	63.450717 
1334.000000	63.468933 
1333.000000	63.488364 
1332.000000	63.506793 
1331.000000	63.521575 
1330.000000	63.530611 
1329.000000	63.532662 
1328.000000	63.528013 
1327.000000	63.518571 
1326.000000	63.507556 
1325.000000	63.498997 
1324.000000	63.496446 
1323.000000	63.502359 
1322.000000	63.516926 
1321.000000	63.538432 
1320.000000	63.563299 
1319.000000	63.587188 
1318.000000	63.605833 
1317.000000	63.616180 
1316.000000	63.616895 
1315.000000	63.608407 
1314.000000	63.592553 
1313.000000	63.572025 
1312.000000	63.549399 
1311.000000	63.526773 
1310.000000	63.505434 
1309.000000	63.485860 
1308.000000	63.468074 
1307.000000	63.452148 
1306.000000	63.438248 
1305.000000	63.427090 
1304.000000	63.419628 
1303.000000	63.417172 
1302.000000	63.420486 
1301.000000	63.429903 
1300.000000	63.445091 
1299.000000	63.464951 
1298.000000	63.487744 
1297.000000	63.511300 
1296.000000	63.533353 
1295.000000	63.551592 
1294.000000	63.564252 
1293.000000	63.569951 
1292.000000	63.568115 
1291.000000	63.559126 
1290.000000	63.544178 
1289.000000	63.525080 
1288.000000	63.504076 
1287.000000	63.483428 
1286.000000	63.465046 
1285.000000	63.449954 
1284.000000	63.438296 
1283.000000	63.429164 
1282.000000	63.421201 
1281.000000	63.412737 
1280.000000	63.402438 
1279.000000	63.389658 
1278.000000	63.374614 
1277.000000	63.358092 
1276.000000	63.341426 
1275.000000	63.325905 
1274.000000	63.312721 
1273.000000	63.302707 
1272.000000	63.296103 
1271.000000	63.292956 
1270.000000	63.292980 
1269.000000	63.295698 
1268.000000	63.300728 
1267.000000	63.307237 
1266.000000	63.314604 
1265.000000	63.322091 
1264.000000	63.329052 
1263.000000	63.334870 
1262.000000	63.339257 
1261.000000	63.342261 
1260.000000	63.344407 
1259.000000	63.346552 
1258.000000	63.349509 
1257.000000	63.353872 
1256.000000	63.359880 
1255.000000	63.367295 
1254.000000	63.375353 
1253.000000	63.382935 
1252.000000	63.388991 
1251.000000	63.392758 
1250.000000	63.393878 
1249.000000	63.392472 
1248.000000	63.388872 
1247.000000	63.383650 
1246.000000	63.377189 
1245.000000	63.369774 
1244.000000	63.361430 
1243.000000	63.352131 
1242.000000	63.341832 
1241.000000	63.330626 
1240.000000	63.319015 
1239.000000	63.307714 
1238.000000	63.297748 
1237.000000	63.290047 
1236.000000	63.285183 
1235.000000	63.283228 
1234.000000	63.283872 
1233.000000	63.286375 
1232.000000	63.289690 
1231.000000	63.293242 
1230.000000	63.297009 
1229.000000	63.301658 
1228.000000	63.308334 
1227.000000	63.318324 
1226.000000	63.332509 
1225.000000	63.350915 
1224.000000	63.372492 
1223.000000	63.395285 
1222.000000	63.416695 
1221.000000	63.434219 
1220.000000	63.445639 
1219.000000	63.449883 
1218.000000	63.446879 
1217.000000	63.437747 
1216.000000	63.424205 
1215.000000	63.408231 
1214.000000	63.391447 
1213.000000	63.375020 
1212.000000	63.359308 
1211.000000	63.344240 
1210.000000	63.329458 
1209.000000	63.314771 
1208.000000	63.300251 
1207.000000	63.286471 
1206.000000	63.274359 
1205.000000	63.264966 
1204.000000	63.259506 
1203.000000	63.258767 
1202.000000	63.263177 
1201.000000	63.272404 
1200.000000	63.285255 
1199.000000	63.299798 
1198.000000	63.313531 
1197.000000	63.323879 
1196.000000	63.328504 
1195.000000	63.326001 
1194.000000	63.315939 
1193.000000	63.299179 
1192.000000	63.277673 
1191.000000	63.253879 
1190.000000	63.230443 
1189.000000	63.209271 
1188.000000	63.191509 
1187.000000	63.176894 
1186.000000	63.164424 
1185.000000	63.152360 
1184.000000	63.139009 
1183.000000	63.123083 
1182.000000	63.104391 
1181.000000	63.083720 
1180.000000	63.062477 
1179.000000	63.042497 
1178.000000	63.025450 
1177.000000	63.012576 
1176.000000	63.004374 
1175.000000	63.000750 
1174.000000	63.001012 
1173.000000	63.004231 
1172.000000	63.009476 
1171.000000	63.015866 
1170.000000	63.022637 
1169.000000	63.029336 
1168.000000	63.035583 
1167.000000	63.040947 
1166.000000	63.045191 
1165.000000	63.048195 
1164.000000	63.050246 
1163.000000	63.051867 
1162.000000	63.054084 
1161.000000	63.057994 
1160.000000	63.064599 
1159.000000	63.074684 
1158.000000	63.088345 
1157.000000	63.105010 
1156.000000	63.123345 
1155.000000	63.141798 
1154.000000	63.158631 
1153.000000	63.172531 
1152.000000	63.182783 
1151.000000	63.189554 
1150.000000	63.193678 
1149.000000	63.196539 
1148.000000	63.199567 
1147.000000	63.203740 
1146.000000	63.209438 
1145.000000	63.216042 
1144.000000	63.222384 
1143.000000	63.226914 
1142.000000	63.228368 
1141.000000	63.226056 
1140.000000	63.220000 
1139.000000	63.211107 
1138.000000	63.200902 
1137.000000	63.191080 
1136.000000	63.182878 
1135.000000	63.176870 
1134.000000	63.173031 
1133.000000	63.170647 
1132.000000	63.168859 
1131.000000	63.166928 
1130.000000	63.164877 
1129.000000	63.163375 
1128.000000	63.163590 
1127.000000	63.166666 
1126.000000	63.173389 
1125.000000	63.183617 
1124.000000	63.196253 
1123.000000	63.209509 
1122.000000	63.221359 
1121.000000	63.230228 
1120.000000	63.235306 
1119.000000	63.236856 
1118.000000	63.236165 
1117.000000	63.234829 
1116.000000	63.234329 
1115.000000	63.235235 
1114.000000	63.236784 
1113.000000	63.237333 
1112.000000	63.234519 
1111.000000	63.226270 
1110.000000	63.211178 
1109.000000	63.189482 
1108.000000	63.162899 
1107.000000	63.134074 
1106.000000	63.106226 
1105.000000	63.082194 
1104.000000	63.064026 
1103.000000	63.052630 
1102.000000	63.047671 
1101.000000	63.048076 
1100.000000	63.052463 
1099.000000	63.059329 
1098.000000	63.067698 
1097.000000	63.076686 
1096.000000	63.085794 
1095.000000	63.094663 
1094.000000	63.102722 
1093.000000	63.109278 
1092.000000	63.113713 
1091.000000	63.115620 
1090.000000	63.115000 
1089.000000	63.112330 
1088.000000	63.108611 
1087.000000	63.105058 
1086.000000	63.102984 
1085.000000	63.103532 
1084.000000	63.107562 
1083.000000	63.115525 
1082.000000	63.127350 
1081.000000	63.142490 
1080.000000	63.159918 
1079.000000	63.178348 
1078.000000	63.196134 
1077.000000	63.211584 
1076.000000	63.223123 
1075.000000	63.229537 
1074.000000	63.230490 
1073.000000	63.226199 
1072.000000	63.217592 
1071.000000	63.206171 
1070.000000	63.193655 
1069.000000	63.181591 
1068.000000	63.171100 
1067.000000	63.162517 
1066.000000	63.155698 
1065.000000	63.150095 
1064.000000	63.145136 
1063.000000	63.140535 
1062.000000	63.136243 
1061.000000	63.132429 
1060.000000	63.129186 
1059.000000	63.126182 
1058.000000	63.122725 
1057.000000	63.117575 
1056.000000	63.109397 
1055.000000	63.096904 
1054.000000	63.079833 
1053.000000	63.059186 
1052.000000	63.037204 
1051.000000	63.017201 
1050.000000	63.002729 
1049.000000	62.996840 
1048.000000	63.001179 
1047.000000	63.015460 
1046.000000	63.037681 
1045.000000	63.064599 
1044.000000	63.092517 
1043.000000	63.117957 
1042.000000	63.138175 
1041.000000	63.151550 
1040.000000	63.157725 
1039.000000	63.157391 
1038.000000	63.152098 
1037.000000	63.143849 
1036.000000	63.134932 
1035.000000	63.127422 
1034.000000	63.122868 
1033.000000	63.121867 
1032.000000	63.124179 
1031.000000	63.128709 
1030.000000	63.133621 
1029.000000	63.136935 
1028.000000	63.136863 
1027.000000	63.132023 
1026.000000	63.121867 
1025.000000	63.106560 
1024.000000	63.086915 
1023.000000	63.064265 
1022.000000	63.039803 
1021.000000	63.014984 
1020.000000	62.991023 
1019.000000	62.969446 
1018.000000	62.951707 
1017.000000	62.939763 
1016.000000	62.935543 
1015.000000	62.940621 
1014.000000	62.955403 
1013.000000	62.978911 
1012.000000	63.008666 
1011.000000	63.040661 
1010.000000	63.070106 
1009.000000	63.092350 
1008.000000	63.103842 
1007.000000	63.102746 
1006.000000	63.089513 
1005.000000	63.066601 
1004.000000	63.038015 
1003.000000	63.008236 
1002.000000	62.981581 
1001.000000	62.961006 
1000.000000	62.948131 
999.000000	 62.943029 
998.000000	 62.944555 
997.000000	 62.950944 
996.000000	 62.960267 
995.000000	 62.970948 
994.000000	 62.982058 
993.000000	 62.993049 
992.000000	 63.004541 
991.000000	 63.017511 
990.000000	 63.033676 
989.000000	 63.054585 
988.000000	 63.081741 
987.000000	 63.115835 
986.000000	 63.156461 
985.000000	 63.202095 
984.000000	 63.249635 
983.000000	 63.294839 
982.000000	 63.333106 
981.000000	 63.360047 
980.000000	 63.372540 
979.000000	 63.369107 
978.000000	 63.350558 
977.000000	 63.319706 
976.000000	 63.280630 
975.000000	 63.238072 
974.000000	 63.196706 
973.000000	 63.160014 
972.000000	 63.130378 
971.000000	 63.108539 
970.000000	 63.094520 
969.000000	 63.087177 
968.000000	 63.084602 
967.000000	 63.084673 
966.000000	 63.085150 
965.000000	 63.084149 
964.000000	 63.080120 
963.000000	 63.072419 
962.000000	 63.061022 
961.000000	 63.046860 
960.000000	 63.031578 
959.000000	 63.017249 
958.000000	 63.005995 
957.000000	 62.999463 
956.000000	 62.998628 
955.000000	 63.003373 
954.000000	 63.012433 
953.000000	 63.023853 
952.000000	 63.035440 
951.000000	 63.045120 
950.000000	 63.051462 
949.000000	 63.054013 
948.000000	 63.053393 
947.000000	 63.050961 
946.000000	 63.048410 
945.000000	 63.047432 
944.000000	 63.049149 
943.000000	 63.054132 
942.000000	 63.061833 
941.000000	 63.070845 
940.000000	 63.079118 
939.000000	 63.084793 
938.000000	 63.086509 
937.000000	 63.083553 
936.000000	 63.076424 
935.000000	 63.066482 
934.000000	 63.055753 
933.000000	 63.046455 
932.000000	 63.040304 
931.000000	 63.038229 
930.000000	 63.039994 
929.000000	 63.044261 
928.000000	 63.049006 
927.000000	 63.052034 
926.000000	 63.051843 
925.000000	 63.047885 
924.000000	 63.040614 
923.000000	 63.031291 
922.000000	 63.021492 
921.000000	 63.012599 
920.000000	 63.005185 
919.000000	 62.999272 
918.000000	 62.994003 
917.000000	 62.988686 
916.000000	 62.982940 
915.000000	 62.977123 
914.000000	 62.972426 
913.000000	 62.970280 
912.000000	 62.971973 
911.000000	 62.977886 
910.000000	 62.987279 
909.000000	 62.998008 
908.000000	 63.007164 
907.000000	 63.011908 
906.000000	 63.010239 
905.000000	 63.001656 
904.000000	 62.987351 
903.000000	 62.969398 
902.000000	 62.949895 
901.000000	 62.930297 
900.000000	 62.910962 
899.000000	 62.891149 
898.000000	 62.869524 
897.000000	 62.845230 
896.000000	 62.818646 
895.000000	 62.791776 
894.000000	 62.768197 
893.000000	 62.751984 
892.000000	 62.746977 
891.000000	 62.755489 
890.000000	 62.777161 
889.000000	 62.808847 
888.000000	 62.844991 
887.000000	 62.878489 
886.000000	 62.902617 
885.000000	 62.912702 
884.000000	 62.907361 
883.000000	 62.888836 
882.000000	 62.862944 
881.000000	 62.837314 
880.000000	 62.819862 
879.000000	 62.816715 
878.000000	 62.830829 
877.000000	 62.861394 
876.000000	 62.904191 
875.000000	 62.952804 
874.000000	 63.000154 
873.000000	 63.040208 
872.000000	 63.069176 
871.000000	 63.085865 
870.000000	 63.091516 
869.000000	 63.088726 
868.000000	 63.079977 
867.000000	 63.067102 
866.000000	 63.050770 
865.000000	 63.030815 
864.000000	 63.006901 
863.000000	 62.979388 
862.000000	 62.950158 
861.000000	 62.922334 
860.000000	 62.900018 
859.000000	 62.886881 
858.000000	 62.885141 
857.000000	 62.894940 
856.000000	 62.914133 
855.000000	 62.938594 
854.000000	 62.963271 
853.000000	 62.983679 
852.000000	 62.996983 
851.000000	 63.002490 
850.000000	 63.001632 
849.000000	 62.997150 
848.000000	 62.992024 
847.000000	 62.988376 
846.000000	 62.986993 
845.000000	 62.987160 
844.000000	 62.987112 
843.000000	 62.984895 
842.000000	 62.979149 
841.000000	 62.969756 
840.000000	 62.957787 
839.000000	 62.945199 
838.000000	 62.934184 
837.000000	 62.926173 
836.000000	 62.921762 
835.000000	 62.920188 
834.000000	 62.919783 
833.000000	 62.918233 
832.000000	 62.913560 
831.000000	 62.904787 
830.000000	 62.892270 
829.000000	 62.877511 
828.000000	 62.863016 
827.000000	 62.851643 
826.000000	 62.845516 
825.000000	 62.845253 
824.000000	 62.850069 
823.000000	 62.857913 
822.000000	 62.866139 
821.000000	 62.872338 
820.000000	 62.875080 
819.000000	 62.874126 
818.000000	 62.870311 
817.000000	 62.865304 
816.000000	 62.860751 
815.000000	 62.858152 
814.000000	 62.858605 
813.000000	 62.862253 
812.000000	 62.868762 
811.000000	 62.877202 
810.000000	 62.886357 
809.000000	 62.895202 
808.000000	 62.902355 
807.000000	 62.907528 
806.000000	 62.911152 
805.000000	 62.914824 
804.000000	 62.920832 
803.000000	 62.931752 
802.000000	 62.949943 
801.000000	 62.976670 
800.000000	 63.011693 
799.000000	 63.053011 
798.000000	 63.096976 
797.000000	 63.139033 
796.000000	 63.174581 
795.000000	 63.200068 
794.000000	 63.213634 
793.000000	 63.215613 
792.000000	 63.208079 
791.000000	 63.194274 
790.000000	 63.177466 
789.000000	 63.160490 
788.000000	 63.144493 
787.000000	 63.129663 
786.000000	 63.114404 
785.000000	 63.096928 
784.000000	 63.074755 
783.000000	 63.045811 
782.000000	 63.008260 
781.000000	 62.961125 
780.000000	 62.904858 
779.000000	 62.841153 
778.000000	 62.773585 
777.000000	 62.706613 
776.000000	 62.645959 
775.000000	 62.597155 
774.000000	 62.564969 
773.000000	 62.552261 
772.000000	 62.559223 
771.000000	 62.583231 
770.000000	 62.619018 
769.000000	 62.659740 
768.000000	 62.698292 
767.000000	 62.728762 
766.000000	 62.747240 
765.000000	 62.752556 
764.000000	 62.746095 
763.000000	 62.731194 
762.000000	 62.711906 
761.000000	 62.692308 
760.000000	 62.675786 
759.000000	 62.664365 
758.000000	 62.659358 
757.000000	 62.660527 
756.000000	 62.667202 
755.000000	 62.677907 
754.000000	 62.690901 
753.000000	 62.704610 
752.000000	 62.717485 
751.000000	 62.728810 
750.000000	 62.738394 
749.000000	 62.747049 
748.000000	 62.756013 
747.000000	 62.767291 
746.000000	 62.783050 
745.000000	 62.804937 
744.000000	 62.833571 
743.000000	 62.868475 
742.000000	 62.907767 
741.000000	 62.948441 
740.000000	 62.986850 
739.000000	 63.019490 
738.000000	 63.043546 
737.000000	 63.057470 
736.000000	 63.061094 
735.000000	 63.055562 
734.000000	 63.042640 
733.000000	 63.024568 
732.000000	 63.003110 
731.000000	 62.979602 
730.000000	 62.954401 
729.000000	 62.927532 
728.000000	 62.898659 
727.000000	 62.867712 
726.000000	 62.835049 
725.000000	 62.801980 
724.000000	 62.770199 
723.000000	 62.741851 
722.000000	 62.718915 
721.000000	 62.702608 
720.000000	 62.693142 
719.000000	 62.689495 
718.000000	 62.689852 
717.000000	 62.691855 
716.000000	 62.693119 
715.000000	 62.691855 
714.000000	 62.687301 
713.000000	 62.680101 
712.000000	 62.671661 
711.000000	 62.664151 
710.000000	 62.660121 
709.000000	 62.661743 
708.000000	 62.670087 
707.000000	 62.684559 
706.000000	 62.702870 
705.000000	 62.721157 
704.000000	 62.734842 
703.000000	 62.739539 
702.000000	 62.731742 
701.000000	 62.710380 
700.000000	 62.676835 
699.000000	 62.635374 
698.000000	 62.592244 
697.000000	 62.554526 
696.000000	 62.528586 
695.000000	 62.518548 
694.000000	 62.525749 
693.000000	 62.547993 
692.000000	 62.580323 
691.000000	 62.615990 
690.000000	 62.647843 
689.000000	 62.669754 
688.000000	 62.677597 
687.000000	 62.669301 
686.000000	 62.645125 
685.000000	 62.606835 
684.000000	 62.557458 
683.000000	 62.500715 
682.000000	 62.440776 
681.000000	 62.382602 
680.000000	 62.331414 
679.000000	 62.292313 
678.000000	 62.269449 
677.000000	 62.265872 
676.000000	 62.281966 
675.000000	 62.314558 
674.000000	 62.357378 
673.000000	 62.401747 
672.000000	 62.438321 
671.000000	 62.458801 
670.000000	 62.458038 
669.000000	 62.435197 
668.000000	 62.393856 
667.000000	 62.341094 
666.000000	 62.285447 
665.000000	 62.235331 
664.000000	 62.196636 
663.000000	 62.171840 
662.000000	 62.159657 
661.000000	 62.155985 
660.000000	 62.155604 
659.000000	 62.154269 
658.000000	 62.149405 
657.000000	 62.141561 
656.000000	 62.133955 
655.000000	 62.132263 
654.000000	 62.142157 
653.000000	 62.168788 
652.000000	 62.215209 
651.000000	 62.281608 
650.000000	 62.365579 
649.000000	 62.461781 
648.000000	 62.563300 
647.000000	 62.662029 
646.000000	 62.750434 
645.000000	 62.822270 
644.000000	 62.873649 
643.000000	 62.903094 
642.000000	 62.912130 
641.000000	 62.903714 
640.000000	 62.881875 
639.000000	 62.850069 
638.000000	 62.811517 
637.000000	 62.767505 
636.000000	 62.718176 
635.000000	 62.662816 
634.000000	 62.601161 
633.000000	 62.533974 
632.000000	 62.463927 
631.000000	 62.395215 
630.000000	 62.333035 
629.000000	 62.282228 
628.000000	 62.246322 
627.000000	 62.225985 
626.000000	 62.219381 
625.000000	 62.222599 
624.000000	 62.230801 
623.000000	 62.239122 
622.000000	 62.243986 
621.000000	 62.243294 
620.000000	 62.237477 
619.000000	 62.227773 
618.000000	 62.217545 
617.000000	 62.210607 
616.000000	 62.211561 
615.000000	 62.224054 
614.000000	 62.251043 
613.000000	 62.294435 
612.000000	 62.353706 
611.000000	 62.425637 
610.000000	 62.504076 
609.000000	 62.580561 
608.000000	 62.645626 
607.000000	 62.690401 
606.000000	 62.708806 
605.000000	 62.698841 
604.000000	 62.664222 
603.000000	 62.613201 
602.000000	 62.555980 
601.000000	 62.502360 
600.000000	 62.460160 
599.000000	 62.433552 
598.000000	 62.422633 
597.000000	 62.424373 
596.000000	 62.434816 
595.000000	 62.450242 
594.000000	 62.468934 
593.000000	 62.490725 
592.000000	 62.516593 
591.000000	 62.547230 
590.000000	 62.581777 
589.000000	 62.616825 
588.000000	 62.646579 
587.000000	 62.663578 
586.000000	 62.660455 
585.000000	 62.632107 
584.000000	 62.577486 
583.000000	 62.500166 
582.000000	 62.408137 
581.000000	 62.312602 
580.000000	 62.226152 
579.000000	 62.161278 
578.000000	 62.128210 
577.000000	 62.133336 
576.000000	 62.177872 
575.000000	 62.258625 
574.000000	 62.367749 
573.000000	 62.493157 
572.000000	 62.620091 
571.000000	 62.733173 
570.000000	 62.818741 
569.000000	 62.865805 
568.000000	 62.869167 
567.000000	 62.829804 
566.000000	 62.755537 
565.000000	 62.659263 
564.000000	 62.557029 
563.000000	 62.464976 
562.000000	 62.396621 
561.000000	 62.361025 
560.000000	 62.361502 
559.000000	 62.396097 
558.000000	 62.458801 
557.000000	 62.541317 
556.000000	 62.634277 
555.000000	 62.728500 
554.000000	 62.815213 
553.000000	 62.886238 
552.000000	 62.934398 
551.000000	 62.953305 
550.000000	 62.937998 
549.000000	 62.885117 
548.000000	 62.794232 
547.000000	 62.667274 
546.000000	 62.510395 
545.000000	 62.331962 
544.000000	 62.142157 
543.000000	 61.951351 
542.000000	 61.769270 
541.000000	 61.604189 
540.000000	 61.461853 
539.000000	 61.346769 
538.000000	 61.260843 
537.000000	 61.206007 
536.000000	 61.183452 
535.000000	 61.194467 
534.000000	 61.237788 
533.000000	 61.310768 
532.000000	 61.407947 
531.000000	 61.520767 
530.000000	 61.637187 
529.000000	 61.743712 
528.000000	 61.827063 
527.000000	 61.876106 
526.000000	 61.883735 
525.000000	 61.846923 
524.000000	 61.767387 
523.000000	 61.651921 
522.000000	 61.512327 
521.000000	 61.363029 
520.000000	 61.220383 
519.000000	 61.102008 
518.000000	 61.023974 
517.000000	 60.998344 
516.000000	 61.030936 
515.000000	 61.120390 
514.000000	 61.257338 
513.000000	 61.426687 
512.000000	 61.607861 
511.000000	 61.779284 
510.000000	 61.918354 
509.000000	 62.004566 
508.000000	 62.021803 
507.000000	 61.961650 
506.000000	 61.823725 
505.000000	 61.615633 
504.000000	 61.354351 
503.000000	 61.064314 
502.000000	 60.775303 
501.000000	 60.518646 
500.000000	 60.323715 
499.000000	 60.213851 
498.000000	 60.206079 
497.000000	 60.308623 
496.000000	 60.519146 
495.000000	 60.824108 
494.000000	 61.199283 
493.000000	 61.611247 
492.000000	 62.020683 
491.000000	 62.386202 
490.000000	 62.668251 
489.000000	 62.835693 
488.000000	 62.870693 
487.000000	 62.772727 
486.000000	 62.558269 
485.000000	 62.260603 
484.000000	 61.925435 
483.000000	 61.603856 
482.000000	 61.345577 
481.000000	 61.189055 
480.000000	 61.157321 
479.000000	 61.252427 
478.000000	 61.458873 
477.000000	 61.742591 
476.000000	 62.058949 
475.000000	 62.357521 
474.000000	 62.591171 
473.000000	 62.723970 
472.000000	 62.737417 
471.000000	 62.634134 
470.000000	 62.437057 
469.000000	 62.186384 
468.000000	 61.930847 
467.000000	 61.718463 
466.000000	 61.585903 
465.000000	 61.553001 
464.000000	 61.618781 
463.000000	 61.765146 
462.000000	 61.961698 
461.000000	 62.173438 
460.000000	 62.369394 
459.000000	 62.530803 
458.000000	 62.650585 
457.000000	 62.731099 
456.000000	 62.778806 
455.000000	 62.796950 
454.000000	 62.784790 
453.000000	 62.735605 
452.000000	 62.643337 
451.000000	 62.507057 
450.000000	 62.337064 
449.000000	 62.157940 
448.000000	 62.000775 
447.000000	 61.897349 
446.000000	 61.868476 
445.000000	 61.917853 
444.000000	 62.032580 
443.000000	 62.186241 
442.000000	 62.344694 
441.000000	 62.475419 
440.000000	 62.557339 
439.000000	 62.584519 
438.000000	 62.565922 
437.000000	 62.520360 
436.000000	 62.466526 
435.000000	 62.418627 
434.000000	 62.382698 
433.000000	 62.356257 
432.000000	 62.331223 
431.000000	 62.298822 
430.000000	 62.255811 
429.000000	 62.206053 
428.000000	 62.161588 
427.000000	 62.138032 
426.000000	 62.149620 
425.000000	 62.203454 
424.000000	 62.294077 
423.000000	 62.407493 
422.000000	 62.526965 
421.000000	 62.627744 
420.000000	 62.681436 
419.000000	 62.664341 
418.000000	 62.563824 
417.000000	 62.371325 
416.000000	 62.086844 
415.000000	 61.724209 
414.000000	 61.313223 
413.000000	 60.892915 
412.000000	 60.511612 
411.000000	 60.223722 
410.000000	 60.078620 
409.000000	 60.116386 
408.000000	 60.350942 
407.000000	 60.759639 
406.000000	 61.286139 
405.000000	 61.850881 
404.000000	 62.367916 
403.000000	 62.748098 
402.000000	 62.940120 
401.000000	 62.934684 
400.000000	 62.784028 
399.000000	 62.578415 
398.000000	 62.446856 
397.000000	 62.522459 
396.000000	 62.917470 
395.000000	 63.692092 
394.000000	 64.844465 
393.000000	 66.310262 
392.000000	 67.972970 
391.000000	 69.688582 
390.000000	 71.333765 
389.000000	 72.824645 
388.000000	 74.139022 
387.000000	 75.296163 
386.000000	 76.318502 
385.000000	 77.198052 
384.000000	 77.911090 
383.000000	 78.385734 
382.000000	 78.521609 
381.000000	 78.200030 
380.000000	 77.351903 
379.000000	 75.955176 
378.000000	 74.080252 
377.000000	 71.861958 
376.000000	 69.464874 
375.000000	 67.083191 
374.000000	 64.926695 
373.000000	 63.173723 
372.000000	 61.947894 
371.000000	 61.291408 
370.000000	 61.179137 

