PE IR       SPECTRUM    SPECTRUM    ASCII       PEDS        1.60        
  -1
BZ6AA6~1.ASC
17/04/07
19:11:09.00
17/04/07
19:11:09.00
tln
$BZ1503107-1_t0072$<tbV0>[0.0,2.6,8.0,0.0,27,1,0]
370.000000
64









2002,4.07    
MIRTGS : RIGHTBACK : INTERNAL 2
MIR : ON : INTERNAL 2
OPTKBR

0.200000
8
8.000000
FILLER
RATIO
SPECTRUM
UNLOCKED 256

DOUBLE
64
COMBINED
1
0
0


1.000000
RATIO


1
0
TRUE
51149
0
LEFT NOT FITTED RIGHT NOT FITTED 0
NONE
NONE
15600
12.000000
4.427000
51148
TRUE
1 0 8 72 0 0 0 0 

15798.010000






#HDR
-1
-1
#GR
CM-1
%T
0.00002384185791015625
0.0
5000.000000
-1.000000
4631
8
73.292493
51.117873
#DATA
5000.000000	64.817667 
4999.000000	64.950370 
4998.000000	65.077066 
4997.000000	65.196156 
4996.000000	65.306091 
4995.000000	65.405178 
4994.000000	65.489792 
4993.000000	65.556311 
4992.000000	65.599370 
4991.000000	65.614724 
4990.000000	65.598702 
4989.000000	65.551280 
4988.000000	65.474557 
4987.000000	65.373706 
4986.000000	65.255904 
4985.000000	65.130162 
4984.000000	65.005040 
4983.000000	64.887833 
4982.000000	64.783525 
4981.000000	64.694786 
4980.000000	64.622807 
4979.000000	64.567565 
4978.000000	64.528393 
4977.000000	64.504265 
4976.000000	64.493441 
4975.000000	64.493846 
4974.000000	64.501571 
4973.000000	64.512562 
4972.000000	64.521884 
4971.000000	64.525818 
4970.000000	64.521169 
4969.000000	64.507436 
4968.000000	64.486646 
4967.000000	64.463376 
4966.000000	64.442896 
4965.000000	64.430689 
4964.000000	64.430594 
4963.000000	64.444351 
4962.000000	64.470863 
4961.000000	64.507436 
4960.000000	64.550447 
4959.000000	64.596176 
4958.000000	64.641499 
4957.000000	64.682984 
4956.000000	64.717102 
4955.000000	64.739871 
4954.000000	64.747190 
4953.000000	64.735317 
4952.000000	64.701890 
4951.000000	64.648127 
4950.000000	64.578700 
4949.000000	64.501285 
4948.000000	64.425301 
4947.000000	64.360761 
4946.000000	64.316105 
4945.000000	64.295816 
4944.000000	64.300465 
4943.000000	64.326691 
4942.000000	64.369106 
4941.000000	64.421510 
4940.000000	64.478802 
4939.000000	64.537596 
4938.000000	64.596199 
4937.000000	64.654064 
4936.000000	64.710211 
4935.000000	64.761853 
4934.000000	64.804959 
4933.000000	64.834856 
4932.000000	64.847183 
4931.000000	64.839267 
4930.000000	64.811182 
4929.000000	64.766192 
4928.000000	64.710092 
4927.000000	64.650535 
4926.000000	64.595293 
4925.000000	64.551401 
4924.000000	64.524126 
4923.000000	64.516735 
4922.000000	64.530420 
4921.000000	64.564704 
4920.000000	64.618253 
4919.000000	64.688420 
4918.000000	64.771151 
4917.000000	64.860868 
4916.000000	64.950942 
4915.000000	65.033483 
4914.000000	65.100479 
4913.000000	65.143942 
4912.000000	65.158510 
4911.000000	65.140509 
4910.000000	65.089201 
4909.000000	65.006208 
4908.000000	64.896106 
4907.000000	64.766025 
4906.000000	64.625430 
4905.000000	64.485430 
4904.000000	64.357638 
4903.000000	64.253258 
4902.000000	64.181733 
4901.000000	64.149236 
4900.000000	64.157772 
4899.000000	64.204955 
4898.000000	64.284563 
4897.000000	64.386630 
4896.000000	64.499926 
4895.000000	64.613294 
4894.000000	64.717769 
4893.000000	64.806914 
4892.000000	64.877796 
4891.000000	64.930152 
4890.000000	64.966416 
4889.000000	64.989924 
4888.000000	65.004634 
4887.000000	65.015244 
4886.000000	65.025210 
4885.000000	65.037965 
4884.000000	65.054464 
4883.000000	65.074586 
4882.000000	65.095639 
4881.000000	65.113472 
4880.000000	65.123653 
4879.000000	65.122723 
4878.000000	65.109515 
4877.000000	65.085554 
4876.000000	65.054988 
4875.000000	65.023279 
4874.000000	64.996099 
4873.000000	64.977478 
4872.000000	64.968013 
4871.000000	64.964580 
4870.000000	64.961409 
4869.000000	64.951324 
4868.000000	64.927721 
4867.000000	64.886808 
4866.000000	64.829015 
4865.000000	64.759254 
4864.000000	64.685821 
4863.000000	64.618682 
4862.000000	64.566516 
4861.000000	64.535260 
4860.000000	64.527654 
4859.000000	64.541625 
4858.000000	64.571619 
4857.000000	64.608979 
4856.000000	64.644026 
4855.000000	64.667415 
4854.000000	64.671635 
4853.000000	64.652514 
4852.000000	64.609336 
4851.000000	64.545178 
4850.000000	64.465832 
4849.000000	64.378666 
4848.000000	64.291167 
4847.000000	64.210176 
4846.000000	64.141607 
4845.000000	64.090085 
4844.000000	64.059519 
4843.000000	64.053297 
4842.000000	64.074230 
4841.000000	64.124345 
4840.000000	64.203882 
4839.000000	64.310216 
4838.000000	64.436841 
4837.000000	64.573335 
4836.000000	64.706349 
4835.000000	64.821004 
4834.000000	64.903879 
4833.000000	64.945602 
4832.000000	64.942812 
4831.000000	64.899635 
4830.000000	64.826178 
4829.000000	64.736509 
4828.000000	64.645814 
4827.000000	64.567661 
4826.000000	64.511895 
4825.000000	64.483714 
4824.000000	64.483785 
4823.000000	64.509439 
4822.000000	64.555764 
4821.000000	64.617061 
4820.000000	64.687514 
4819.000000	64.761495 
4818.000000	64.833259 
4817.000000	64.896798 
4816.000000	64.946007 
4815.000000	64.975094 
4814.000000	64.979553 
4813.000000	64.956951 
4812.000000	64.908123 
4811.000000	64.837098 
4810.000000	64.751243 
4809.000000	64.659261 
4808.000000	64.570307 
4807.000000	64.491724 
4806.000000	64.428472 
4805.000000	64.382076 
4804.000000	64.350962 
4803.000000	64.331459 
4802.000000	64.319181 
4801.000000	64.310431 
4800.000000	64.302682 
4799.000000	64.295530 
4798.000000	64.289903 
4797.000000	64.288067 
4796.000000	64.292192 
4795.000000	64.303731 
4794.000000	64.322018 
4793.000000	64.345026 
4792.000000	64.369106 
4791.000000	64.389753 
4790.000000	64.402270 
4789.000000	64.402604 
4788.000000	64.387822 
4787.000000	64.356780 
4786.000000	64.310574 
4785.000000	64.251947 
4784.000000	64.185905 
4783.000000	64.118719 
4782.000000	64.057707 
4781.000000	64.010000 
4780.000000	63.981676 
4779.000000	63.976359 
4778.000000	63.995122 
4777.000000	64.035487 
4776.000000	64.092731 
4775.000000	64.159917 
4774.000000	64.230275 
4773.000000	64.297628 
4772.000000	64.358115 
4771.000000	64.410185 
4770.000000	64.454698 
4769.000000	64.493703 
4768.000000	64.529228 
4767.000000	64.562058 
4766.000000	64.591383 
4765.000000	64.614701 
4764.000000	64.628505 
4763.000000	64.629459 
4762.000000	64.616107 
4761.000000	64.589476 
4760.000000	64.553356 
4759.000000	64.513349 
4758.000000	64.476203 
4757.000000	64.447903 
4756.000000	64.432024 
4755.000000	64.428973 
4754.000000	64.436364 
4753.000000	64.449024 
4752.000000	64.460515 
4751.000000	64.464497 
4750.000000	64.456725 
4749.000000	64.435648 
4748.000000	64.402461 
4747.000000	64.361286 
4746.000000	64.317584 
4745.000000	64.277529 
4744.000000	64.246606 
4743.000000	64.228510 
4742.000000	64.224433 
4741.000000	64.233541 
4740.000000	64.253735 
4739.000000	64.281439 
4738.000000	64.312624 
4737.000000	64.343786 
4736.000000	64.372634 
4735.000000	64.397859 
4734.000000	64.419579 
4733.000000	64.439153 
4732.000000	64.458847 
4731.000000	64.481139 
4730.000000	64.508199 
4729.000000	64.541053 
4728.000000	64.579391 
4727.000000	64.621758 
4726.000000	64.665961 
4725.000000	64.709615 
4724.000000	64.750623 
4723.000000	64.787936 
4722.000000	64.821028 
4721.000000	64.850282 
4720.000000	64.875411 
4719.000000	64.895653 
4718.000000	64.908695 
4717.000000	64.911174 
4716.000000	64.898920 
4715.000000	64.868521 
4714.000000	64.818024 
4713.000000	64.748239 
4712.000000	64.663124 
4711.000000	64.569592 
4710.000000	64.476180 
4709.000000	64.391946 
4708.000000	64.324402 
4707.000000	64.278841 
4706.000000	64.257788 
4705.000000	64.260864 
4704.000000	64.285135 
4703.000000	64.325618 
4702.000000	64.376306 
4701.000000	64.430713 
4700.000000	64.482188 
4699.000000	64.524722 
4698.000000	64.553022 
4697.000000	64.563536 
4696.000000	64.554452 
4695.000000	64.526247 
4694.000000	64.481925 
4693.000000	64.426255 
4692.000000	64.365434 
4691.000000	64.305615 
4690.000000	64.252066 
4689.000000	64.208412 
4688.000000	64.176368 
4687.000000	64.156341 
4686.000000	64.147806 
4685.000000	64.149951 
4684.000000	64.161849 
4683.000000	64.182090 
4682.000000	64.208698 
4681.000000	64.238572 
4680.000000	64.268016 
4679.000000	64.292597 
4678.000000	64.308619 
4677.000000	64.313983 
4676.000000	64.309191 
4675.000000	64.297151 
4674.000000	64.282846 
4673.000000	64.272356 
4672.000000	64.271163 
4671.000000	64.282631 
4670.000000	64.307308 
4669.000000	64.342784 
4668.000000	64.384579 
4667.000000	64.427876 
4666.000000	64.468264 
4665.000000	64.503288 
4664.000000	64.531826 
4663.000000	64.553761 
4662.000000	64.569211 
4661.000000	64.577746 
4660.000000	64.578294 
4659.000000	64.569258 
4658.000000	64.549612 
4657.000000	64.519739 
4656.000000	64.481639 
4655.000000	64.439010 
4654.000000	64.396548 
4653.000000	64.359188 
4652.000000	64.330816 
4651.000000	64.313864 
4650.000000	64.308643 
4649.000000	64.313888 
4648.000000	64.327526 
4647.000000	64.347505 
4646.000000	64.372277 
4645.000000	64.400959 
4644.000000	64.432525 
4643.000000	64.465856 
4642.000000	64.498925 
4641.000000	64.529252 
4640.000000	64.554190 
4639.000000	64.571523 
4638.000000	64.580392 
4637.000000	64.581274 
4636.000000	64.576172 
4635.000000	64.567661 
4634.000000	64.558362 
4633.000000	64.549970 
4632.000000	64.542961 
4631.000000	64.536452 
4630.000000	64.528608 
4629.000000	64.517116 
4628.000000	64.500141 
4627.000000	64.477133 
4626.000000	64.449548 
4625.000000	64.420342 
4624.000000	64.394164 
4623.000000	64.375972 
4622.000000	64.370918 
4621.000000	64.382886 
4620.000000	64.414072 
4619.000000	64.464330 
4618.000000	64.530611 
4617.000000	64.607381 
4616.000000	64.687132 
4615.000000	64.761161 
4614.000000	64.821577 
4613.000000	64.862489 
4612.000000	64.881253 
4611.000000	64.878916 
4610.000000	64.859771 
4609.000000	64.830374 
4608.000000	64.798092 
4607.000000	64.769911 
4606.000000	64.751172 
4605.000000	64.744925 
4604.000000	64.752006 
4603.000000	64.771437 
4602.000000	64.801120 
4601.000000	64.838218 
4600.000000	64.879703 
4599.000000	64.922356 
4598.000000	64.962720 
4597.000000	64.997076 
4596.000000	65.021538 
4595.000000	65.032720 
4594.000000	65.028429 
4593.000000	65.008401 
4592.000000	64.974546 
4591.000000	64.930915 
4590.000000	64.883065 
4589.000000	64.837098 
4588.000000	64.798259 
4587.000000	64.770841 
4586.000000	64.757609 
4585.000000	64.759850 
4584.000000	64.777207 
4583.000000	64.808130 
4582.000000	64.850306 
4581.000000	64.900493 
4580.000000	64.954805 
4579.000000	65.008926 
4578.000000	65.058302 
4577.000000	65.098714 
4576.000000	65.126514 
4575.000000	65.139150 
4574.000000	65.135383 
4573.000000	65.116000 
4572.000000	65.083479 
4571.000000	65.042018 
4570.000000	64.996218 
4569.000000	64.950990 
4568.000000	64.909911 
4567.000000	64.875555 
4566.000000	64.848279 
4565.000000	64.826869 
4564.000000	64.808607 
4563.000000	64.790129 
4562.000000	64.768648 
4561.000000	64.742088 
4560.000000	64.710783 
4559.000000	64.677214 
4558.000000	64.645791 
4557.000000	64.621591 
4556.000000	64.609050 
4555.000000	64.610052 
4554.000000	64.624023 
4553.000000	64.647531 
4552.000000	64.675974 
4551.000000	64.704608 
4550.000000	64.730048 
4549.000000	64.751005 
4548.000000	64.768218 
4547.000000	64.783692 
4546.000000	64.799213 
4545.000000	64.815545 
4544.000000	64.832139 
4543.000000	64.846992 
4542.000000	64.858078 
4541.000000	64.863419 
4540.000000	64.862251 
4539.000000	64.854741 
4538.000000	64.842772 
4537.000000	64.828443 
4536.000000	64.812994 
4535.000000	64.796757 
4534.000000	64.778494 
4533.000000	64.757084 
4532.000000	64.731860 
4531.000000	64.704322 
4530.000000	64.678502 
4529.000000	64.660334 
4528.000000	64.656019 
4527.000000	64.670610 
4526.000000	64.706516 
4525.000000	64.762234 
4524.000000	64.832377 
4523.000000	64.908576 
4522.000000	64.981126 
4521.000000	65.040349 
4520.000000	65.079021 
4519.000000	65.093278 
4518.000000	65.084362 
4517.000000	65.058565 
4516.000000	65.025901 
4515.000000	64.998602 
4514.000000	64.987301 
4513.000000	64.999508 
4512.000000	65.036392 
4511.000000	65.092992 
4510.000000	65.158891 
4509.000000	65.221548 
4508.000000	65.269231 
4507.000000	65.293502 
4506.000000	65.292501 
4505.000000	65.271067 
4504.000000	65.239882 
4503.000000	65.211915 
4502.000000	65.199685 
4501.000000	65.211820 
4500.000000	65.250802 
4499.000000	65.312433 
4498.000000	65.387511 
4497.000000	65.464448 
4496.000000	65.532493 
4495.000000	65.584349 
4494.000000	65.617537 
4493.000000	65.634346 
4492.000000	65.639829 
4491.000000	65.639710 
4490.000000	65.638923 
4489.000000	65.638875 
4488.000000	65.638494 
4487.000000	65.632629 
4486.000000	65.614700 
4485.000000	65.577459 
4484.000000	65.516471 
4483.000000	65.430855 
4482.000000	65.324521 
4481.000000	65.204954 
4480.000000	65.082335 
4479.000000	64.966225 
4478.000000	64.863371 
4477.000000	64.776277 
4476.000000	64.702606 
4475.000000	64.638185 
4474.000000	64.578962 
4473.000000	64.523482 
4472.000000	64.474129 
4471.000000	64.435172 
4470.000000	64.411139 
4469.000000	64.404273 
4468.000000	64.413237 
4467.000000	64.432930 
4466.000000	64.455866 
4465.000000	64.475154 
4464.000000	64.487099 
4463.000000	64.489579 
4462.000000	64.484715 
4461.000000	64.479923 
4460.000000	64.485239 
4459.000000	64.511656 
4458.000000	64.566755 
4457.000000	64.649343 
4456.000000	64.751219 
4455.000000	64.862823 
4454.000000	64.970493 
4453.000000	65.058469 
4452.000000	65.113353 
4451.000000	65.126991 
4450.000000	65.099382 
4449.000000	65.035724 
4448.000000	64.953541 
4447.000000	64.881849 
4446.000000	64.847350 
4445.000000	64.867496 
4444.000000	64.944624 
4443.000000	65.066671 
4442.000000	65.205907 
4441.000000	65.331697 
4440.000000	65.426731 
4439.000000	65.495967 
4438.000000	65.583872 
4437.000000	65.753388 
4436.000000	66.063117 
4435.000000	66.534852 
4434.000000	67.149662 
4433.000000	67.826032 
4432.000000	68.427848 
4431.000000	68.793320 
4430.000000	68.780970 
4429.000000	68.304061 
4428.000000	67.364525 
4427.000000	66.051340 
4426.000000	64.536714 
4425.000000	63.016939 
4424.000000	61.678957 
4423.000000	60.632109 
4422.000000	59.893131 
4421.000000	59.371519 
4420.000000	58.906388 
4419.000000	58.313345 
4418.000000	57.445812 
4417.000000	56.252551 
4416.000000	54.806089 
4415.000000	53.294968 
4414.000000	51.988673 
4413.000000	51.179313 
4412.000000	51.117873 
4411.000000	51.946973 
4410.000000	53.672289 
4409.000000	56.163597 
4408.000000	59.178876 
4407.000000	62.415122 
4406.000000	65.559363 
4405.000000	68.342399 
4404.000000	70.570540 
4403.000000	72.139334 
4402.000000	73.030328 
4401.000000	73.292493 
4400.000000	73.016905 
4399.000000	72.327280 
4398.000000	71.342778 
4397.000000	70.186042 
4396.000000	68.958401 
4395.000000	67.767953 
4394.000000	66.695284 
4393.000000	65.806984 
4392.000000	65.143704 
4391.000000	64.727687 
4390.000000	64.550423 
4389.000000	64.577627 
4388.000000	64.756202 
4387.000000	65.024185 
4386.000000	65.319919 
4385.000000	65.592360 
4384.000000	65.803599 
4383.000000	65.934228 
4382.000000	65.978050 
4381.000000	65.942549 
4380.000000	65.840697 
4379.000000	65.689516 
4378.000000	65.511369 
4377.000000	65.327763 
4376.000000	65.153169 
4375.000000	64.998340 
4374.000000	64.881467 
4373.000000	64.814972 
4372.000000	64.799165 
4371.000000	64.828133 
4370.000000	64.892840 
4369.000000	64.980340 
4368.000000	65.075445 
4367.000000	65.164065 
4366.000000	65.233182 
4365.000000	65.277218 
4364.000000	65.298700 
4363.000000	65.303707 
4362.000000	65.298724 
4361.000000	65.292429 
4360.000000	65.292716 
4359.000000	65.303230 
4358.000000	65.322732 
4357.000000	65.347456 
4356.000000	65.371727 
4355.000000	65.390467 
4354.000000	65.399789 
4353.000000	65.397596 
4352.000000	65.383648 
4351.000000	65.359735 
4350.000000	65.328383 
4349.000000	65.292310 
4348.000000	65.253734 
4347.000000	65.213727 
4346.000000	65.172934 
4345.000000	65.132403 
4344.000000	65.093159 
4343.000000	65.056395 
4342.000000	65.023469 
4341.000000	64.995813 
4340.000000	64.974617 
4339.000000	64.960479 
4338.000000	64.952898 
4337.000000	64.950084 
4336.000000	64.949822 
4335.000000	64.949870 
4334.000000	64.948010 
4333.000000	64.942574 
4332.000000	64.933204 
4331.000000	64.921355 
4330.000000	64.909529 
4329.000000	64.901518 
4328.000000	64.901614 
4327.000000	64.913964 
4326.000000	64.941382 
4325.000000	64.984631 
4324.000000	65.041613 
4323.000000	65.107393 
4322.000000	65.175294 
4321.000000	65.237760 
4320.000000	65.288138 
4319.000000	65.321254 
4318.000000	65.335464 
4317.000000	65.331149 
4316.000000	65.310621 
4315.000000	65.276503 
4314.000000	65.231490 
4313.000000	65.177559 
4312.000000	65.116524 
4311.000000	65.050196 
4310.000000	64.981317 
4309.000000	64.913415 
4308.000000	64.851045 
4307.000000	64.798641 
4306.000000	64.759945 
4305.000000	64.736628 
4304.000000	64.728093 
4303.000000	64.731025 
4302.000000	64.740896 
4301.000000	64.752864 
4300.000000	64.764070 
4299.000000	64.773583 
4298.000000	64.783716 
4297.000000	64.798712 
4296.000000	64.823842 
4295.000000	64.862942 
4294.000000	64.917206 
4293.000000	64.984393 
4292.000000	65.057945 
4291.000000	65.129041 
4290.000000	65.187120 
4289.000000	65.222764 
4288.000000	65.229058 
4287.000000	65.203452 
4286.000000	65.148138 
4285.000000	65.069532 
4284.000000	64.977455 
4283.000000	64.883232 
4282.000000	64.797711 
4281.000000	64.729356 
4280.000000	64.683532 
4279.000000	64.661860 
4278.000000	64.662218 
4277.000000	64.679694 
4276.000000	64.707875 
4275.000000	64.740204 
4274.000000	64.770460 
4273.000000	64.794349 
4272.000000	64.809298 
4271.000000	64.815068 
4270.000000	64.812970 
4269.000000	64.805793 
4268.000000	64.796566 
4267.000000	64.788198 
4266.000000	64.783263 
4265.000000	64.783310 
4264.000000	64.788889 
4263.000000	64.799690 
4262.000000	64.815330 
4261.000000	64.835000 
4260.000000	64.857649 
4259.000000	64.882016 
4258.000000	64.906740 
4257.000000	64.929890 
4256.000000	64.949321 
4255.000000	64.962649 
4254.000000	64.967846 
4253.000000	64.964127 
4252.000000	64.952397 
4251.000000	64.935302 
4250.000000	64.916968 
4249.000000	64.902806 
4248.000000	64.898061 
4247.000000	64.906859 
4246.000000	64.930891 
4245.000000	64.969062 
4244.000000	65.016961 
4243.000000	65.068578 
4242.000000	65.116333 
4241.000000	65.153288 
4240.000000	65.173554 
4239.000000	65.173745 
4238.000000	65.152859 
4237.000000	65.112352 
4236.000000	65.056037 
4235.000000	64.989089 
4234.000000	64.917778 
4233.000000	64.848518 
4232.000000	64.787364 
4231.000000	64.739561 
4230.000000	64.708805 
4229.000000	64.696884 
4228.000000	64.703369 
4227.000000	64.725899 
4226.000000	64.759874 
4225.000000	64.799261 
4224.000000	64.837336 
4223.000000	64.867877 
4222.000000	64.885926 
4221.000000	64.888763 
4220.000000	64.876174 
4219.000000	64.850783 
4218.000000	64.817070 
4217.000000	64.780640 
4216.000000	64.747381 
4215.000000	64.722013 
4214.000000	64.707589 
4213.000000	64.704895 
4212.000000	64.712762 
4211.000000	64.728188 
4210.000000	64.747285 
4209.000000	64.765834 
4208.000000	64.780092 
4207.000000	64.787387 
4206.000000	64.786386 
4205.000000	64.776754 
4204.000000	64.758777 
4203.000000	64.733576 
4202.000000	64.702892 
4201.000000	64.668941 
4200.000000	64.634227 
4199.000000	64.601755 
4198.000000	64.574599 
4197.000000	64.555382 
4196.000000	64.545798 
4195.000000	64.546203 
4194.000000	64.555501 
4193.000000	64.571475 
4192.000000	64.591169 
4191.000000	64.611148 
4190.000000	64.628386 
4189.000000	64.640331 
4188.000000	64.645981 
4187.000000	64.644932 
4186.000000	64.638543 
4185.000000	64.629125 
4184.000000	64.620447 
4183.000000	64.616513 
4182.000000	64.621472 
4181.000000	64.638996 
4180.000000	64.671015 
4179.000000	64.717531 
4178.000000	64.775896 
4177.000000	64.841341 
4176.000000	64.907288 
4175.000000	64.966487 
4174.000000	65.012812 
4173.000000	65.042495 
4172.000000	65.054893 
4171.000000	65.052366 
4170.000000	65.039873 
4169.000000	65.023350 
4168.000000	65.008497 
4167.000000	64.999079 
4166.000000	64.996671 
4165.000000	64.999985 
4164.000000	65.006399 
4163.000000	65.011930 
4162.000000	65.012550 
4161.000000	65.004777 
4160.000000	64.986920 
4159.000000	64.959096 
4158.000000	64.923048 
4157.000000	64.881849 
4156.000000	64.839410 
4155.000000	64.799642 
4154.000000	64.765620 
4153.000000	64.739179 
4152.000000	64.720916 
4151.000000	64.709591 
4150.000000	64.702653 
4149.000000	64.696455 
4148.000000	64.686894 
4147.000000	64.670038 
4146.000000	64.642977 
4145.000000	64.603924 
4144.000000	64.552879 
4143.000000	64.491963 
4142.000000	64.425468 
4141.000000	64.358854 
4140.000000	64.298653 
4139.000000	64.251542 
4138.000000	64.223933 
4137.000000	64.220428 
4136.000000	64.243435 
4135.000000	64.292311 
4134.000000	64.364027 
4133.000000	64.452719 
4132.000000	64.551734 
4131.000000	64.653587 
4130.000000	64.751935 
4129.000000	64.841890 
4128.000000	64.920496 
4127.000000	64.986515 
4126.000000	65.039706 
4125.000000	65.080785 
4124.000000	65.110039 
4123.000000	65.127611 
4122.000000	65.133070 
4121.000000	65.126657 
4120.000000	65.108418 
4119.000000	65.079236 
4118.000000	65.040850 
4117.000000	64.995789 
4116.000000	64.946746 
4115.000000	64.896345 
4114.000000	64.846563 
4113.000000	64.799404 
4112.000000	64.756059 
4111.000000	64.718103 
4110.000000	64.687180 
4109.000000	64.665913 
4108.000000	64.656925 
4107.000000	64.662766 
4106.000000	64.684796 
4105.000000	64.722418 
4104.000000	64.772534 
4103.000000	64.829683 
4102.000000	64.886164 
4101.000000	64.933943 
4100.000000	64.966297 
4099.000000	64.979028 
4098.000000	64.971137 
4097.000000	64.945268 
4096.000000	64.907217 
4095.000000	64.864444 
4094.000000	64.824318 
4093.000000	64.792847 
4092.000000	64.773631 
4091.000000	64.767765 
4090.000000	64.774060 
4089.000000	64.789509 
4088.000000	64.810562 
4087.000000	64.833688 
4086.000000	64.856243 
4085.000000	64.876508 
4084.000000	64.893817 
4083.000000	64.907932 
4082.000000	64.919304 
4081.000000	64.928531 
4080.000000	64.936375 
4079.000000	64.943575 
4078.000000	64.950466 
4077.000000	64.957141 
4076.000000	64.962959 
4075.000000	64.966845 
4074.000000	64.967298 
4073.000000	64.962935 
4072.000000	64.952993 
4071.000000	64.937710 
4070.000000	64.918756 
4069.000000	64.899039 
4068.000000	64.882397 
4067.000000	64.872694 
4066.000000	64.872741 
4065.000000	64.883470 
4064.000000	64.903593 
4063.000000	64.929580 
4062.000000	64.955902 
4061.000000	64.976167 
4060.000000	64.984703 
4059.000000	64.977502 
4058.000000	64.953231 
4057.000000	64.913392 
4056.000000	64.861607 
4055.000000	64.802932 
4054.000000	64.742827 
4053.000000	64.685893 
4052.000000	64.635157 
4051.000000	64.592242 
4050.000000	64.557528 
4049.000000	64.531111 
4048.000000	64.512872 
4047.000000	64.503455 
4046.000000	64.503574 
4045.000000	64.514422 
4044.000000	64.536237 
4043.000000	64.568805 
4042.000000	64.610600 
4041.000000	64.659357 
4040.000000	64.712047 
4039.000000	64.765810 
4038.000000	64.817881 
4037.000000	64.866352 
4036.000000	64.909958 
4035.000000	64.947581 
4034.000000	64.977836 
4033.000000	64.999151 
4032.000000	65.009689 
4031.000000	65.007925 
4030.000000	64.992904 
4029.000000	64.965224 
4028.000000	64.926910 
4027.000000	64.882087 
4026.000000	64.835882 
4025.000000	64.793968 
4024.000000	64.761090 
4023.000000	64.740371 
4022.000000	64.732742 
4021.000000	64.737057 
4020.000000	64.750313 
4019.000000	64.768576 
4018.000000	64.788079 
4017.000000	64.806032 
4016.000000	64.821338 
4015.000000	64.834260 
4014.000000	64.846587 
4013.000000	64.860463 
4012.000000	64.878106 
4011.000000	64.900946 
4010.000000	64.929533 
4009.000000	64.962863 
4008.000000	64.999055 
4007.000000	65.035033 
4006.000000	65.067410 
4005.000000	65.092301 
4004.000000	65.106225 
4003.000000	65.106225 
4002.000000	65.090513 
4001.000000	65.058708 
4000.000000	65.012288 
3999.000000	64.954733 
3998.000000	64.890980 
3997.000000	64.826869 
3996.000000	64.768505 
3995.000000	64.720988 
3994.000000	64.687728 
3993.000000	64.669990 
3992.000000	64.666843 
3991.000000	64.675784 
3990.000000	64.693140 
3989.000000	64.715480 
3988.000000	64.740014 
3987.000000	64.765334 
3986.000000	64.790892 
3985.000000	64.817380 
3984.000000	64.845800 
3983.000000	64.876937 
3982.000000	64.910650 
3981.000000	64.945936 
3980.000000	64.980840 
3979.000000	65.013241 
3978.000000	65.041041 
3977.000000	65.062856 
3976.000000	65.077805 
3975.000000	65.086007 
3974.000000	65.087914 
3973.000000	65.084338 
3972.000000	65.075802 
3971.000000	65.062713 
3970.000000	65.044713 
3969.000000	65.021610 
3968.000000	64.993023 
3967.000000	64.959526 
3966.000000	64.922451 
3965.000000	64.883995 
3964.000000	64.846825 
3963.000000	64.813876 
3962.000000	64.787530 
3961.000000	64.769053 
3960.000000	64.758372 
3959.000000	64.754176 
3958.000000	64.754962 
3957.000000	64.759278 
3956.000000	64.766573 
3955.000000	64.777064 
3954.000000	64.792013 
3953.000000	64.812731 
3952.000000	64.840054 
3951.000000	64.872956 
3950.000000	64.908432 
3949.000000	64.941453 
3948.000000	64.966034 
3947.000000	64.976382 
3946.000000	64.968514 
3945.000000	64.941191 
3944.000000	64.896845 
3943.000000	64.840745 
3942.000000	64.780402 
3941.000000	64.723443 
3940.000000	64.676380 
3939.000000	64.642882 
3938.000000	64.623546 
3937.000000	64.615869 
3936.000000	64.615559 
3935.000000	64.617371 
3934.000000	64.616560 
3933.000000	64.610004 
3932.000000	64.596915 
3931.000000	64.578318 
3930.000000	64.556479 
3929.000000	64.534473 
3928.000000	64.515304 
3927.000000	64.501833 
3926.000000	64.496326 
3925.000000	64.500594 
3924.000000	64.515852 
3923.000000	64.542508 
3922.000000	64.579868 
3921.000000	64.626026 
3920.000000	64.677691 
3919.000000	64.730477 
3918.000000	64.779043 
3917.000000	64.818024 
3916.000000	64.842963 
3915.000000	64.851069 
3914.000000	64.841985 
3913.000000	64.817810 
3912.000000	64.783453 
3911.000000	64.745473 
3910.000000	64.711761 
3909.000000	64.690065 
3908.000000	64.686584 
3907.000000	64.704847 
3906.000000	64.744853 
3905.000000	64.803242 
3904.000000	64.873147 
3903.000000	64.945459 
3902.000000	65.010428 
3901.000000	65.059638 
3900.000000	65.087795 
3899.000000	65.093851 
3898.000000	65.081477 
3897.000000	65.057826 
3896.000000	65.032148 
3895.000000	65.012860 
3894.000000	65.006136 
3893.000000	65.013504 
3892.000000	65.032243 
3891.000000	65.055346 
3890.000000	65.074205 
3889.000000	65.080571 
3888.000000	65.069055 
3887.000000	65.038466 
3886.000000	64.991927 
3885.000000	64.936494 
3884.000000	64.881134 
3883.000000	64.834666 
3882.000000	64.803123 
3881.000000	64.789175 
3880.000000	64.791774 
3879.000000	64.806890 
3878.000000	64.829039 
3877.000000	64.852833 
3876.000000	64.874553 
3875.000000	64.892411 
3874.000000	64.906525 
3873.000000	64.918255 
3872.000000	64.929556 
3871.000000	64.941334 
3870.000000	64.953517 
3869.000000	64.965152 
3868.000000	64.974999 
3867.000000	64.982366 
3866.000000	64.987397 
3865.000000	64.991617 
3864.000000	64.997172 
3863.000000	65.006399 
3862.000000	65.020632 
3861.000000	65.039610 
3860.000000	65.060806 
3859.000000	65.080118 
3858.000000	65.092539 
3857.000000	65.093708 
3856.000000	65.080666 
3855.000000	65.053200 
3854.000000	65.013599 
3853.000000	64.966249 
3852.000000	64.916491 
3851.000000	64.869618 
3850.000000	64.829635 
3849.000000	64.798474 
3848.000000	64.776301 
3847.000000	64.761972 
3846.000000	64.753866 
3845.000000	64.750790 
3844.000000	64.752364 
3843.000000	64.759039 
3842.000000	64.771294 
3841.000000	64.789080 
3840.000000	64.810991 
3839.000000	64.833950 
3838.000000	64.853763 
3837.000000	64.865636 
3836.000000	64.865565 
3835.000000	64.851570 
3834.000000	64.824080 
3833.000000	64.786410 
3832.000000	64.743900 
3831.000000	64.703035 
3830.000000	64.669752 
3829.000000	64.648532 
3828.000000	64.641165 
3827.000000	64.646625 
3826.000000	64.661478 
3825.000000	64.680886 
3824.000000	64.700078 
3823.000000	64.715480 
3822.000000	64.725518 
3821.000000	64.730954 
3820.000000	64.734411 
3819.000000	64.739274 
3818.000000	64.748525 
3817.000000	64.764022 
3816.000000	64.785766 
3815.000000	64.811825 
3814.000000	64.838957 
3813.000000	64.863419 
3812.000000	64.881968 
3811.000000	64.892673 
3810.000000	64.895129 
3809.000000	64.890551 
3808.000000	64.881134 
3807.000000	64.869260 
3806.000000	64.857101 
3805.000000	64.846062 
3804.000000	64.836955 
3803.000000	64.830231 
3802.000000	64.826035 
3801.000000	64.824914 
3800.000000	64.827346 
3799.000000	64.833521 
3798.000000	64.843249 
3797.000000	64.855670 
3796.000000	64.869451 
3795.000000	64.882946 
3794.000000	64.894533 
3793.000000	64.902901 
3792.000000	64.907622 
3791.000000	64.909100 
3790.000000	64.908194 
3789.000000	64.906024 
3788.000000	64.903521 
3787.000000	64.901304 
3786.000000	64.899611 
3785.000000	64.898443 
3784.000000	64.897966 
3783.000000	64.898538 
3782.000000	64.901065 
3781.000000	64.906549 
3780.000000	64.915800 
3779.000000	64.928960 
3778.000000	64.945220 
3777.000000	64.962840 
3776.000000	64.979505 
3775.000000	64.992690 
3774.000000	65.000510 
3773.000000	65.001320 
3772.000000	64.994144 
3771.000000	64.978694 
3770.000000	64.955425 
3769.000000	64.925265 
3768.000000	64.889717 
3767.000000	64.850735 
3766.000000	64.810872 
3765.000000	64.772510 
3764.000000	64.737868 
3763.000000	64.708662 
3762.000000	64.686107 
3761.000000	64.670658 
3760.000000	64.662098 
3759.000000	64.659714 
3758.000000	64.662480 
3757.000000	64.669585 
3756.000000	64.680171 
3755.000000	64.693236 
3754.000000	64.707636 
3753.000000	64.722037 
3752.000000	64.735150 
3751.000000	64.745330 
3750.000000	64.751744 
3749.000000	64.754581 
3748.000000	64.755368 
3747.000000	64.756608 
3746.000000	64.761185 
3745.000000	64.771795 
3744.000000	64.790010 
3743.000000	64.815735 
3742.000000	64.847493 
3741.000000	64.882850 
3740.000000	64.919209 
3739.000000	64.954519 
3738.000000	64.987659 
3737.000000	65.018248 
3736.000000	65.046739 
3735.000000	65.073394 
3734.000000	65.097498 
3733.000000	65.116834 
3732.000000	65.128421 
3731.000000	65.128636 
3730.000000	65.114712 
3729.000000	65.084958 
3728.000000	65.040445 
3727.000000	64.984226 
3726.000000	64.921188 
3725.000000	64.856839 
3724.000000	64.796400 
3723.000000	64.744067 
3722.000000	64.702463 
3721.000000	64.672803 
3720.000000	64.655065 
3719.000000	64.648365 
3718.000000	64.651632 
3717.000000	64.663505 
3716.000000	64.682292 
3715.000000	64.706277 
3714.000000	64.733505 
3713.000000	64.761924 
3712.000000	64.789390 
3711.000000	64.814591 
3710.000000	64.836907 
3709.000000	64.856529 
3708.000000	64.874291 
3707.000000	64.891242 
3706.000000	64.908027 
3705.000000	64.924526 
3704.000000	64.939761 
3703.000000	64.952325 
3702.000000	64.960598 
3701.000000	64.963674 
3700.000000	64.961361 
3699.000000	64.954924 
3698.000000	64.946150 
3697.000000	64.937376 
3696.000000	64.930486 
3695.000000	64.926600 
3694.000000	64.925861 
3693.000000	64.927744 
3692.000000	64.931273 
3691.000000	64.935421 
3690.000000	64.939689 
3689.000000	64.944434 
3688.000000	64.949965 
3687.000000	64.956498 
3686.000000	64.963436 
3685.000000	64.969587 
3684.000000	64.972972 
3683.000000	64.971613 
3682.000000	64.964222 
3681.000000	64.950728 
3680.000000	64.932703 
3679.000000	64.912891 
3678.000000	64.894580 
3677.000000	64.880609 
3676.000000	64.872503 
3675.000000	64.869809 
3674.000000	64.870238 
3673.000000	64.870190 
3672.000000	64.865875 
3671.000000	64.854407 
3670.000000	64.834761 
3669.000000	64.808058 
3668.000000	64.777112 
3667.000000	64.746046 
3666.000000	64.718556 
3665.000000	64.697742 
3664.000000	64.685201 
3663.000000	64.681315 
3662.000000	64.685368 
3661.000000	64.696240 
3660.000000	64.713168 
3659.000000	64.735627 
3658.000000	64.763474 
3657.000000	64.796566 
3656.000000	64.834237 
3655.000000	64.874553 
3654.000000	64.914488 
3653.000000	64.950013 
3652.000000	64.976978 
3651.000000	64.992094 
3650.000000	64.993739 
3649.000000	64.982914 
3648.000000	64.962935 
3647.000000	64.939069 
3646.000000	64.916944 
3645.000000	64.901494 
3644.000000	64.895367 
3643.000000	64.898920 
3642.000000	64.909863 
3641.000000	64.924192 
3640.000000	64.937138 
3639.000000	64.944982 
3638.000000	64.945459 
3637.000000	64.938521 
3636.000000	64.925813 
3635.000000	64.910221 
3634.000000	64.894700 
3633.000000	64.881467 
3632.000000	64.871454 
3631.000000	64.864373 
3630.000000	64.859175 
3629.000000	64.854454 
3628.000000	64.849185 
3627.000000	64.842844 
3626.000000	64.835548 
3625.000000	64.827752 
3624.000000	64.819669 
3623.000000	64.811396 
3622.000000	64.802956 
3621.000000	64.794445 
3620.000000	64.786124 
3619.000000	64.778971 
3618.000000	64.774322 
3617.000000	64.773988 
3616.000000	64.779400 
3615.000000	64.791822 
3614.000000	64.811325 
3613.000000	64.837169 
3612.000000	64.867472 
3611.000000	64.899682 
3610.000000	64.931249 
3609.000000	64.959764 
3608.000000	64.983391 
3607.000000	65.001225 
3606.000000	65.013289 
3605.000000	65.020275 
3604.000000	65.023398 
3603.000000	65.024113 
3602.000000	65.023899 
3601.000000	65.024018 
3600.000000	65.025544 
3599.000000	65.028929 
3598.000000	65.033936 
3597.000000	65.039753 
3596.000000	65.045309 
3595.000000	65.049600 
3594.000000	65.051865 
3593.000000	65.051889 
3592.000000	65.050315 
3591.000000	65.048098 
3590.000000	65.046381 
3589.000000	65.046119 
3588.000000	65.047502 
3587.000000	65.050029 
3586.000000	65.052175 
3585.000000	65.051960 
3584.000000	65.047168 
3583.000000	65.035963 
3582.000000	65.017437 
3581.000000	64.991855 
3580.000000	64.960908 
3579.000000	64.927482 
3578.000000	64.894914 
3577.000000	64.866423 
3576.000000	64.844441 
3575.000000	64.830255 
3574.000000	64.823555 
3573.000000	64.822936 
3572.000000	64.826083 
3571.000000	64.830517 
3570.000000	64.834070 
3569.000000	64.835500 
3568.000000	64.834427 
3567.000000	64.831471 
3566.000000	64.827680 
3565.000000	64.824295 
3564.000000	64.822125 
3563.000000	64.821386 
3562.000000	64.821815 
3561.000000	64.822864 
3560.000000	64.823937 
3559.000000	64.824700 
3558.000000	64.825463 
3557.000000	64.826869 
3556.000000	64.829611 
3555.000000	64.834356 
3554.000000	64.841389 
3553.000000	64.850258 
3552.000000	64.860224 
3551.000000	64.870285 
3550.000000	64.879560 
3549.000000	64.887452 
3548.000000	64.893603 
3547.000000	64.898228 
3546.000000	64.901852 
3545.000000	64.904975 
3544.000000	64.908027 
3543.000000	64.911198 
3542.000000	64.914679 
3541.000000	64.918470 
3540.000000	64.922595 
3539.000000	64.927315 
3538.000000	64.932847 
3537.000000	64.939713 
3536.000000	64.948177 
3535.000000	64.958071 
3534.000000	64.968609 
3533.000000	64.978551 
3532.000000	64.986205 
3531.000000	64.989781 
3530.000000	64.988183 
3529.000000	64.981365 
3528.000000	64.970469 
3527.000000	64.957857 
3526.000000	64.946484 
3525.000000	64.939427 
3524.000000	64.938926 
3523.000000	64.946007 
3522.000000	64.960265 
3521.000000	64.980006 
3520.000000	65.002584 
3519.000000	65.025091 
3518.000000	65.044856 
3517.000000	65.059971 
3516.000000	65.069365 
3515.000000	65.072941 
3514.000000	65.071249 
3513.000000	65.065264 
3512.000000	65.056061 
3511.000000	65.044498 
3510.000000	65.031433 
3509.000000	65.017414 
3508.000000	65.003037 
3507.000000	64.988684 
3506.000000	64.974761 
3505.000000	64.961481 
3504.000000	64.948964 
3503.000000	64.937114 
3502.000000	64.925670 
3501.000000	64.914155 
3500.000000	64.902210 
3499.000000	64.889383 
3498.000000	64.875411 
3497.000000	64.860439 
3496.000000	64.844918 
3495.000000	64.829730 
3494.000000	64.816141 
3493.000000	64.805603 
3492.000000	64.799451 
3491.000000	64.798641 
3490.000000	64.803266 
3489.000000	64.812374 
3488.000000	64.824104 
3487.000000	64.835858 
3486.000000	64.844894 
3485.000000	64.848756 
3484.000000	64.845800 
3483.000000	64.835762 
3482.000000	64.820075 
3481.000000	64.801192 
3480.000000	64.782786 
3479.000000	64.768314 
3478.000000	64.760828 
3477.000000	64.762401 
3476.000000	64.773678 
3475.000000	64.793920 
3474.000000	64.821219 
3473.000000	64.853072 
3472.000000	64.886617 
3471.000000	64.919209 
3470.000000	64.948725 
3469.000000	64.973497 
3468.000000	64.992690 
3467.000000	65.005850 
3466.000000	65.013122 
3465.000000	65.014958 
3464.000000	65.012240 
3463.000000	65.005731 
3462.000000	64.996504 
3461.000000	64.985227 
3460.000000	64.972352 
3459.000000	64.958119 
3458.000000	64.942526 
3457.000000	64.925885 
3456.000000	64.908957 
3455.000000	64.893054 
3454.000000	64.880132 
3453.000000	64.872241 
3452.000000	64.871382 
3451.000000	64.878654 
3450.000000	64.893889 
3449.000000	64.915394 
3448.000000	64.940142 
3447.000000	64.964437 
3446.000000	64.984536 
3445.000000	64.997386 
3444.000000	65.001344 
3443.000000	64.996123 
3442.000000	64.982843 
3441.000000	64.963459 
3440.000000	64.940285 
3439.000000	64.915394 
3438.000000	64.890193 
3437.000000	64.865708 
3436.000000	64.842653 
3435.000000	64.821863 
3434.000000	64.804387 
3433.000000	64.791369 
3432.000000	64.784026 
3431.000000	64.783096 
3430.000000	64.788436 
3429.000000	64.798736 
3428.000000	64.811921 
3427.000000	64.825153 
3426.000000	64.835619 
3425.000000	64.840865 
3424.000000	64.839601 
3423.000000	64.831924 
3422.000000	64.819240 
3421.000000	64.803838 
3420.000000	64.788293 
3419.000000	64.774918 
3418.000000	64.765238 
3417.000000	64.759802 
3416.000000	64.758253 
3415.000000	64.759421 
3414.000000	64.762020 
3413.000000	64.764976 
3412.000000	64.767527 
3411.000000	64.769577 
3410.000000	64.771413 
3409.000000	64.773726 
3408.000000	64.777040 
3407.000000	64.781999 
3406.000000	64.788532 
3405.000000	64.796590 
3404.000000	64.805841 
3403.000000	64.815998 
3402.000000	64.827203 
3401.000000	64.839696 
3400.000000	64.854097 
3399.000000	64.870810 
3398.000000	64.889788 
3397.000000	64.910340 
3396.000000	64.930987 
3395.000000	64.949369 
3394.000000	64.962983 
3393.000000	64.969444 
3392.000000	64.967203 
3391.000000	64.955806 
3390.000000	64.936280 
3389.000000	64.911103 
3388.000000	64.883661 
3387.000000	64.857745 
3386.000000	64.836716 
3385.000000	64.822864 
3384.000000	64.817309 
3383.000000	64.819812 
3382.000000	64.828872 
3381.000000	64.842128 
3380.000000	64.856696 
3379.000000	64.869713 
3378.000000	64.878797 
3377.000000	64.882111 
3376.000000	64.878988 
3375.000000	64.869809 
3374.000000	64.856171 
3373.000000	64.840531 
3372.000000	64.825677 
3371.000000	64.814376 
3370.000000	64.808630 
3369.000000	64.809536 
3368.000000	64.816737 
3367.000000	64.828777 
3366.000000	64.843487 
3365.000000	64.858365 
3364.000000	64.871478 
3363.000000	64.881777 
3362.000000	64.889073 
3361.000000	64.893889 
3360.000000	64.896965 
3359.000000	64.898753 
3358.000000	64.899039 
3357.000000	64.897060 
3356.000000	64.891695 
3355.000000	64.881968 
3354.000000	64.867806 
3353.000000	64.849948 
3352.000000	64.830160 
3351.000000	64.810800 
3350.000000	64.793801 
3349.000000	64.780759 
3348.000000	64.772272 
3347.000000	64.768099 
3346.000000	64.767169 
3345.000000	64.768552 
3344.000000	64.771723 
3343.000000	64.776992 
3342.000000	64.785337 
3341.000000	64.798069 
3340.000000	64.816069 
3339.000000	64.839220 
3338.000000	64.865922 
3337.000000	64.893245 
3336.000000	64.917278 
3335.000000	64.934229 
3334.000000	64.941239 
3333.000000	64.937305 
3332.000000	64.923477 
3331.000000	64.902853 
3330.000000	64.879417 
3329.000000	64.857244 
3328.000000	64.839196 
3327.000000	64.826631 
3326.000000	64.818549 
3325.000000	64.812588 
3324.000000	64.805412 
3323.000000	64.794301 
3322.000000	64.777779 
3321.000000	64.756274 
3320.000000	64.732027 
3319.000000	64.708447 
3318.000000	64.689373 
3317.000000	64.677667 
3316.000000	64.674615 
3315.000000	64.679503 
3314.000000	64.689922 
3313.000000	64.702558 
3312.000000	64.713907 
3311.000000	64.721417 
3310.000000	64.723777 
3309.000000	64.721179 
3308.000000	64.714956 
3307.000000	64.707088 
3306.000000	64.699673 
3305.000000	64.694309 
3304.000000	64.691972 
3303.000000	64.692974 
3302.000000	64.697146 
3301.000000	64.704036 
3300.000000	64.713263 
3299.000000	64.724373 
3298.000000	64.736747 
3297.000000	64.749479 
3296.000000	64.761447 
3295.000000	64.771413 
3294.000000	64.778017 
3293.000000	64.780020 
3292.000000	64.776778 
3291.000000	64.768433 
3290.000000	64.755678 
3289.000000	64.739799 
3288.000000	64.722442 
3287.000000	64.705276 
3286.000000	64.689779 
3285.000000	64.676976 
3284.000000	64.667725 
3283.000000	64.662408 
3282.000000	64.661002 
3281.000000	64.663124 
3280.000000	64.668130 
3279.000000	64.674973 
3278.000000	64.682602 
3277.000000	64.689707 
3276.000000	64.695191 
3275.000000	64.698266 
3274.000000	64.698743 
3273.000000	64.697098 
3272.000000	64.694333 
3271.000000	64.691662 
3270.000000	64.690184 
3269.000000	64.690709 
3268.000000	64.693331 
3267.000000	64.697456 
3266.000000	64.701938 
3265.000000	64.705491 
3264.000000	64.707088 
3263.000000	64.706254 
3262.000000	64.703345 
3261.000000	64.699339 
3260.000000	64.695882 
3259.000000	64.694595 
3258.000000	64.696931 
3257.000000	64.703679 
3256.000000	64.714932 
3255.000000	64.730238 
3254.000000	64.748764 
3253.000000	64.769196 
3252.000000	64.790081 
3251.000000	64.809918 
3250.000000	64.827132 
3249.000000	64.840364 
3248.000000	64.848709 
3247.000000	64.852070 
3246.000000	64.850926 
3245.000000	64.846682 
3244.000000	64.841508 
3243.000000	64.837694 
3242.000000	64.837503 
3241.000000	64.842534 
3240.000000	64.853429 
3239.000000	64.869618 
3238.000000	64.889502 
3237.000000	64.910626 
3236.000000	64.930272 
3235.000000	64.945912 
3234.000000	64.955520 
3233.000000	64.957809 
3232.000000	64.952397 
3231.000000	64.939689 
3230.000000	64.920687 
3229.000000	64.896988 
3228.000000	64.870524 
3227.000000	64.843630 
3226.000000	64.818763 
3225.000000	64.798140 
3224.000000	64.783501 
3223.000000	64.775609 
3222.000000	64.774465 
3221.000000	64.779090 
3220.000000	64.788079 
3219.000000	64.799261 
3218.000000	64.810562 
3217.000000	64.820170 
3216.000000	64.827013 
3215.000000	64.830374 
3214.000000	64.830350 
3213.000000	64.827370 
3212.000000	64.822077 
3211.000000	64.814949 
3210.000000	64.806246 
3209.000000	64.795947 
3208.000000	64.783978 
3207.000000	64.770293 
3206.000000	64.755558 
3205.000000	64.741134 
3204.000000	64.729094 
3203.000000	64.721965 
3202.000000	64.722275 
3201.000000	64.731788 
3200.000000	64.751005 
3199.000000	64.778685 
3198.000000	64.811706 
3197.000000	64.845466 
3196.000000	64.874982 
3195.000000	64.895582 
3194.000000	64.903879 
3193.000000	64.898252 
3192.000000	64.879608 
3191.000000	64.850807 
3190.000000	64.815783 
3189.000000	64.778852 
3188.000000	64.743781 
3187.000000	64.713335 
3186.000000	64.688873 
3185.000000	64.670562 
3184.000000	64.657950 
3183.000000	64.650297 
3182.000000	64.647293 
3181.000000	64.649128 
3180.000000	64.655971 
3179.000000	64.667987 
3178.000000	64.684653 
3177.000000	64.704632 
3176.000000	64.725565 
3175.000000	64.744758 
3174.000000	64.759683 
3173.000000	64.768600 
3172.000000	64.771223 
3171.000000	64.768767 
3170.000000	64.763784 
3169.000000	64.759421 
3168.000000	64.758706 
3167.000000	64.764118 
3166.000000	64.776802 
3165.000000	64.796566 
3164.000000	64.821767 
3163.000000	64.850044 
3162.000000	64.878559 
3161.000000	64.904642 
3160.000000	64.926004 
3159.000000	64.941048 
3158.000000	64.948868 
3157.000000	64.949297 
3156.000000	64.942836 
3155.000000	64.930367 
3154.000000	64.913320 
3153.000000	64.893746 
3152.000000	64.873790 
3151.000000	64.855575 
3150.000000	64.840745 
3149.000000	64.830446 
3148.000000	64.824628 
3147.000000	64.821982 
3146.000000	64.820241 
3145.000000	64.816689 
3144.000000	64.808797 
3143.000000	64.795017 
3142.000000	64.774990 
3141.000000	64.749908 
3140.000000	64.722061 
3139.000000	64.694261 
3138.000000	64.669156 
3137.000000	64.648532 
3136.000000	64.633059 
3135.000000	64.622497 
3134.000000	64.615464 
3133.000000	64.610433 
3132.000000	64.605927 
3131.000000	64.601564 
3130.000000	64.597344 
3129.000000	64.594507 
3128.000000	64.594793 
3127.000000	64.600419 
3126.000000	64.612865 
3125.000000	64.633107 
3124.000000	64.661121 
3123.000000	64.695954 
3122.000000	64.735794 
3121.000000	64.778375 
3120.000000	64.821290 
3119.000000	64.862298 
3118.000000	64.899730 
3117.000000	64.932322 
3116.000000	64.958882 
3115.000000	64.978671 
3114.000000	64.990782 
3113.000000	64.994168 
3112.000000	64.987611 
3111.000000	64.970374 
3110.000000	64.942312 
3109.000000	64.904403 
3108.000000	64.858746 
3107.000000	64.808988 
3106.000000	64.759564 
3105.000000	64.715075 
3104.000000	64.679145 
3103.000000	64.654302 
3102.000000	64.640974 
3101.000000	64.637589 
3100.000000	64.641237 
3099.000000	64.648127 
3098.000000	64.654755 
3097.000000	64.658641 
3096.000000	64.658880 
3095.000000	64.656043 
3094.000000	64.651751 
3093.000000	64.647984 
3092.000000	64.646387 
3091.000000	64.647603 
3090.000000	64.651370 
3089.000000	64.656686 
3088.000000	64.662146 
3087.000000	64.666557 
3086.000000	64.669632 
3085.000000	64.672040 
3084.000000	64.674925 
3083.000000	64.679694 
3082.000000	64.687466 
3081.000000	64.698600 
3080.000000	64.712476 
3079.000000	64.727854 
3078.000000	64.743232 
3077.000000	64.757227 
3076.000000	64.769411 
3075.000000	64.779829 
3074.000000	64.789104 
3073.000000	64.797949 
3072.000000	64.807128 
3071.000000	64.816999 
3070.000000	64.827346 
3069.000000	64.837837 
3068.000000	64.848160 
3067.000000	64.858436 
3066.000000	64.869117 
3065.000000	64.880967 
3064.000000	64.894604 
3063.000000	64.910078 
3062.000000	64.926457 
3061.000000	64.941906 
3060.000000	64.953851 
3059.000000	64.959549 
3058.000000	64.956784 
3057.000000	64.944577 
3056.000000	64.923334 
3055.000000	64.894843 
3054.000000	64.862060 
3053.000000	64.828181 
3052.000000	64.796400 
3051.000000	64.769482 
3050.000000	64.749264 
3049.000000	64.736890 
3048.000000	64.732670 
3047.000000	64.736485 
3046.000000	64.747691 
3045.000000	64.765238 
3044.000000	64.787745 
3043.000000	64.813494 
3042.000000	64.840602 
3041.000000	64.866828 
3040.000000	64.890027 
3039.000000	64.908242 
3038.000000	64.919972 
3037.000000	64.924287 
3036.000000	64.920783 
3035.000000	64.909720 
3034.000000	64.891886 
3033.000000	64.868521 
3032.000000	64.841651 
3031.000000	64.813494 
3030.000000	64.786601 
3029.000000	64.763474 
3028.000000	64.746093 
3027.000000	64.735579 
3026.000000	64.731812 
3025.000000	64.733624 
3024.000000	64.738726 
3023.000000	64.744520 
3022.000000	64.748334 
3021.000000	64.748311 
3020.000000	64.743542 
3019.000000	64.734315 
3018.000000	64.722084 
3017.000000	64.708995 
3016.000000	64.697313 
3015.000000	64.689040 
3014.000000	64.685297 
3013.000000	64.686274 
3012.000000	64.691233 
3011.000000	64.698863 
3010.000000	64.707517 
3009.000000	64.715528 
3008.000000	64.721632 
3007.000000	64.724898 
3006.000000	64.724969 
3005.000000	64.722061 
3004.000000	64.716696 
3003.000000	64.709687 
3002.000000	64.701938 
3001.000000	64.694190 
3000.000000	64.686894 
2999.000000	64.680457 
2998.000000	64.675068 
2997.000000	64.670825 
2996.000000	64.667749 
2995.000000	64.665818 
2994.000000	64.665055 
2993.000000	64.665293 
2992.000000	64.666318 
2991.000000	64.667606 
2990.000000	64.668989 
2989.000000	64.670515 
2988.000000	64.672851 
2987.000000	64.677166 
2986.000000	64.685106 
2985.000000	64.698147 
2984.000000	64.717388 
2983.000000	64.742755 
2982.000000	64.772725 
2981.000000	64.804148 
2980.000000	64.832568 
2979.000000	64.853239 
2978.000000	64.861798 
2977.000000	64.855718 
2976.000000	64.834666 
2975.000000	64.801096 
2974.000000	64.759778 
2973.000000	64.716744 
2972.000000	64.678263 
2971.000000	64.649224 
2970.000000	64.632391 
2969.000000	64.627528 
2968.000000	64.631986 
2967.000000	64.641213 
2966.000000	64.650130 
2965.000000	64.654493 
2964.000000	64.651703 
2963.000000	64.641547 
2962.000000	64.625787 
2961.000000	64.607763 
2960.000000	64.590978 
2959.000000	64.578580 
2958.000000	64.572024 
2957.000000	64.571094 
2956.000000	64.574170 
2955.000000	64.578771 
2954.000000	64.582252 
2953.000000	64.582777 
2952.000000	64.579629 
2951.000000	64.573407 
2950.000000	64.565849 
2949.000000	64.558744 
2948.000000	64.553809 
2947.000000	64.551949 
2946.000000	64.553284 
2945.000000	64.556956 
2944.000000	64.561438 
2943.000000	64.565348 
2942.000000	64.567661 
2941.000000	64.567995 
2940.000000	64.566922 
2939.000000	64.565205 
2938.000000	64.563846 
2937.000000	64.563608 
2936.000000	64.565038 
2935.000000	64.568185 
2934.000000	64.572930 
2933.000000	64.578914 
2932.000000	64.586138 
2931.000000	64.595031 
2930.000000	64.606285 
2929.000000	64.620637 
2928.000000	64.638566 
2927.000000	64.659905 
2926.000000	64.683699 
2925.000000	64.708161 
2924.000000	64.730906 
2923.000000	64.749264 
2922.000000	64.760875 
2921.000000	64.764022 
2920.000000	64.757752 
2919.000000	64.742469 
2918.000000	64.719533 
2917.000000	64.691424 
2916.000000	64.661431 
2915.000000	64.633297 
2914.000000	64.610552 
2913.000000	64.596271 
2912.000000	64.592361 
2911.000000	64.599084 
2910.000000	64.614844 
2909.000000	64.636445 
2908.000000	64.659547 
2907.000000	64.679551 
2906.000000	64.692330 
2905.000000	64.695358 
2904.000000	64.688086 
2903.000000	64.672160 
2902.000000	64.651036 
2901.000000	64.628958 
2900.000000	64.610195 
2899.000000	64.597678 
2898.000000	64.592933 
2897.000000	64.595746 
2896.000000	64.604783 
2895.000000	64.617943 
2894.000000	64.633178 
2893.000000	64.648914 
2892.000000	64.664244 
2891.000000	64.678764 
2890.000000	64.692139 
2889.000000	64.703679 
2888.000000	64.712285 
2887.000000	64.716362 
2886.000000	64.714336 
2885.000000	64.704942 
2884.000000	64.687991 
2883.000000	64.664793 
2882.000000	64.637970 
2881.000000	64.611196 
2880.000000	64.588379 
2879.000000	64.572906 
2878.000000	64.566946 
2877.000000	64.571094 
2876.000000	64.583992 
2875.000000	64.602756 
2874.000000	64.623713 
2873.000000	64.643192 
2872.000000	64.658093 
2871.000000	64.666438 
2870.000000	64.667963 
2869.000000	64.663934 
2868.000000	64.656877 
2867.000000	64.649653 
2866.000000	64.645051 
2865.000000	64.645051 
2864.000000	64.650654 
2863.000000	64.661383 
2862.000000	64.675951 
2861.000000	64.692211 
2860.000000	64.707803 
2859.000000	64.720726 
2858.000000	64.729547 
2857.000000	64.733719 
2856.000000	64.733552 
2855.000000	64.729881 
2854.000000	64.723658 
2853.000000	64.715814 
2852.000000	64.707112 
2851.000000	64.697813 
2850.000000	64.687728 
2849.000000	64.676451 
2848.000000	64.663505 
2847.000000	64.648294 
2846.000000	64.630198 
2845.000000	64.608764 
2844.000000	64.584064 
2843.000000	64.556908 
2842.000000	64.528703 
2841.000000	64.501500 
2840.000000	64.477801 
2839.000000	64.460062 
2838.000000	64.450383 
2837.000000	64.449620 
2836.000000	64.457821 
2835.000000	64.473509 
2834.000000	64.494752 
2833.000000	64.518928 
2832.000000	64.543819 
2831.000000	64.567875 
2830.000000	64.590716 
2829.000000	64.612650 
2828.000000	64.634728 
2827.000000	64.657926 
2826.000000	64.682793 
2825.000000	64.709115 
2824.000000	64.735817 
2823.000000	64.761328 
2822.000000	64.783859 
2821.000000	64.802098 
2820.000000	64.815139 
2819.000000	64.822769 
2818.000000	64.825534 
2817.000000	64.824199 
2816.000000	64.819836 
2815.000000	64.813137 
2814.000000	64.804792 
2813.000000	64.794969 
2812.000000	64.783668 
2811.000000	64.770483 
2810.000000	64.755368 
2809.000000	64.738345 
2808.000000	64.719796 
2807.000000	64.700484 
2806.000000	64.681243 
2805.000000	64.663195 
2804.000000	64.647412 
2803.000000	64.634895 
2802.000000	64.626049 
2801.000000	64.620876 
2800.000000	64.618921 
2799.000000	64.619278 
2798.000000	64.620828 
2797.000000	64.622616 
2796.000000	64.624166 
2795.000000	64.625453 
2794.000000	64.627051 
2793.000000	64.629697 
2792.000000	64.633941 
2791.000000	64.640116 
2790.000000	64.647936 
2789.000000	64.656877 
2788.000000	64.666152 
2787.000000	64.675164 
2786.000000	64.683246 
2785.000000	64.690136 
2784.000000	64.695549 
2783.000000	64.699268 
2782.000000	64.701080 
2781.000000	64.700698 
2780.000000	64.697933 
2779.000000	64.692854 
2778.000000	64.685797 
2777.000000	64.677405 
2776.000000	64.668607 
2775.000000	64.660525 
2774.000000	64.654159 
2773.000000	64.650082 
2772.000000	64.648509 
2771.000000	64.649367 
2770.000000	64.652490 
2769.000000	64.657807 
2768.000000	64.665555 
2767.000000	64.676189 
2766.000000	64.690279 
2765.000000	64.708209 
2764.000000	64.729785 
2763.000000	64.753675 
2762.000000	64.777827 
2761.000000	64.799475 
2760.000000	64.815640 
2759.000000	64.823532 
2758.000000	64.821290 
2757.000000	64.808249 
2756.000000	64.785242 
2755.000000	64.754366 
2754.000000	64.718890 
2753.000000	64.682626 
2752.000000	64.649534 
2751.000000	64.622879 
2750.000000	64.605021 
2749.000000	64.597153 
2748.000000	64.599180 
2747.000000	64.609742 
2746.000000	64.626741 
2745.000000	64.647459 
2744.000000	64.669179 
2743.000000	64.689660 
2742.000000	64.707255 
2741.000000	64.721250 
2740.000000	64.731478 
2739.000000	64.738440 
2738.000000	64.742612 
2737.000000	64.744544 
2736.000000	64.744520 
2735.000000	64.742636 
2734.000000	64.738941 
2733.000000	64.733576 
2732.000000	64.726829 
2731.000000	64.719486 
2730.000000	64.712429 
2729.000000	64.706611 
2728.000000	64.702510 
2727.000000	64.700460 
2726.000000	64.700174 
2725.000000	64.701008 
2724.000000	64.702105 
2723.000000	64.702796 
2722.000000	64.702820 
2721.000000	64.702558 
2720.000000	64.702701 
2719.000000	64.704132 
2718.000000	64.707493 
2717.000000	64.713001 
2716.000000	64.720320 
2715.000000	64.728498 
2714.000000	64.736151 
2713.000000	64.741992 
2712.000000	64.745163 
2711.000000	64.745545 
2710.000000	64.743661 
2709.000000	64.740633 
2708.000000	64.738106 
2707.000000	64.737558 
2706.000000	64.739966 
2705.000000	64.745378 
2704.000000	64.753031 
2703.000000	64.761233 
2702.000000	64.767932 
2701.000000	64.771080 
2700.000000	64.769244 
2699.000000	64.761996 
2698.000000	64.749932 
2697.000000	64.734840 
2696.000000	64.719152 
2695.000000	64.705538 
2694.000000	64.696145 
2693.000000	64.692378 
2692.000000	64.694452 
2691.000000	64.701414 
2690.000000	64.711475 
2689.000000	64.722394 
2688.000000	64.732050 
2687.000000	64.738821 
2686.000000	64.741778 
2685.000000	64.740657 
2684.000000	64.735746 
2683.000000	64.727616 
2682.000000	64.716935 
2681.000000	64.704322 
2680.000000	64.690351 
2679.000000	64.675712 
2678.000000	64.661097 
2677.000000	64.647293 
2676.000000	64.635300 
2675.000000	64.625811 
2674.000000	64.619445 
2673.000000	64.616370 
2672.000000	64.616179 
2671.000000	64.617967 
2670.000000	64.620614 
2669.000000	64.622640 
2668.000000	64.622807 
2667.000000	64.620137 
2666.000000	64.614272 
2665.000000	64.605283 
2664.000000	64.593935 
2663.000000	64.581298 
2662.000000	64.568686 
2661.000000	64.557433 
2660.000000	64.548754 
2659.000000	64.543652 
2658.000000	64.542865 
2657.000000	64.546751 
2656.000000	64.555191 
2655.000000	64.567613 
2654.000000	64.582657 
2653.000000	64.598584 
2652.000000	64.613223 
2651.000000	64.624404 
2650.000000	64.630270 
2649.000000	64.629769 
2648.000000	64.622998 
2647.000000	64.611434 
2646.000000	64.597558 
2645.000000	64.584612 
2644.000000	64.575910 
2643.000000	64.573860 
2642.000000	64.579653 
2641.000000	64.592719 
2640.000000	64.611005 
2639.000000	64.631319 
2638.000000	64.650297 
2637.000000	64.664912 
2636.000000	64.673328 
2635.000000	64.674973 
2634.000000	64.670610 
2633.000000	64.661788 
2632.000000	64.650607 
2631.000000	64.639091 
2630.000000	64.628863 
2629.000000	64.621162 
2628.000000	64.616751 
2627.000000	64.615797 
2626.000000	64.618229 
2625.000000	64.623689 
2624.000000	64.631605 
2623.000000	64.641070 
2622.000000	64.651060 
2621.000000	64.660215 
2620.000000	64.667344 
2619.000000	64.671683 
2618.000000	64.672970 
2617.000000	64.671516 
2616.000000	64.668202 
2615.000000	64.664220 
2614.000000	64.660763 
2613.000000	64.658689 
2612.000000	64.658236 
2611.000000	64.658880 
2610.000000	64.659619 
2609.000000	64.659142 
2608.000000	64.656090 
2607.000000	64.649629 
2606.000000	64.639520 
2605.000000	64.626097 
2604.000000	64.610362 
2603.000000	64.593720 
2602.000000	64.577627 
2601.000000	64.563560 
2600.000000	64.552760 
2599.000000	64.546084 
2598.000000	64.544129 
2597.000000	64.546751 
2596.000000	64.553022 
2595.000000	64.561367 
2594.000000	64.569616 
2593.000000	64.575648 
2592.000000	64.577579 
2591.000000	64.574551 
2590.000000	64.566731 
2589.000000	64.555525 
2588.000000	64.543080 
2587.000000	64.531922 
2586.000000	64.524221 
2585.000000	64.521431 
2584.000000	64.523839 
2583.000000	64.530706 
2582.000000	64.540624 
2581.000000	64.551782 
2580.000000	64.562487 
2579.000000	64.571404 
2578.000000	64.577817 
2577.000000	64.581370 
2576.000000	64.582109 
2575.000000	64.579987 
2574.000000	64.575123 
2573.000000	64.567661 
2572.000000	64.557909 
2571.000000	64.546775 
2570.000000	64.535450 
2569.000000	64.525413 
2568.000000	64.518117 
2567.000000	64.514493 
2566.000000	64.515185 
2565.000000	64.519762 
2564.000000	64.527440 
2563.000000	64.536786 
2562.000000	64.546346 
2561.000000	64.554882 
2560.000000	64.561796 
2559.000000	64.566874 
2558.000000	64.570498 
2557.000000	64.573192 
2556.000000	64.575505 
2555.000000	64.577770 
2554.000000	64.579963 
2553.000000	64.581680 
2552.000000	64.582490 
2551.000000	64.582157 
2550.000000	64.580821 
2549.000000	64.579176 
2548.000000	64.578199 
2547.000000	64.578962 
2546.000000	64.582562 
2545.000000	64.589548 
2544.000000	64.599752 
2543.000000	64.612197 
2542.000000	64.625263 
2541.000000	64.636874 
2540.000000	64.644861 
2539.000000	64.647459 
2538.000000	64.643383 
2537.000000	64.632344 
2536.000000	64.614915 
2535.000000	64.592647 
2534.000000	64.567661 
2533.000000	64.542603 
2532.000000	64.520263 
2531.000000	64.503216 
2530.000000	64.493727 
2529.000000	64.493203 
2528.000000	64.502191 
2527.000000	64.519929 
2526.000000	64.544415 
2525.000000	64.572572 
2524.000000	64.600515 
2523.000000	64.623880 
2522.000000	64.638710 
2521.000000	64.641904 
2520.000000	64.631748 
2519.000000	64.608359 
2518.000000	64.573574 
2517.000000	64.530825 
2516.000000	64.484405 
2515.000000	64.439129 
2514.000000	64.399337 
2513.000000	64.368605 
2512.000000	64.349269 
2511.000000	64.342308 
2510.000000	64.347338 
2509.000000	64.362931 
2508.000000	64.386892 
2507.000000	64.416432 
2506.000000	64.448809 
2505.000000	64.481282 
2504.000000	64.511847 
2503.000000	64.538836 
2502.000000	64.561438 
2501.000000	64.579415 
2500.000000	64.592909 
2499.000000	64.602303 
2498.000000	64.607882 
2497.000000	64.609789 
2496.000000	64.607954 
2495.000000	64.602041 
2494.000000	64.591789 
2493.000000	64.577198 
2492.000000	64.558792 
2491.000000	64.537692 
2490.000000	64.515566 
2489.000000	64.494633 
2488.000000	64.476966 
2487.000000	64.464354 
2486.000000	64.458036 
2485.000000	64.458608 
2484.000000	64.466023 
2483.000000	64.479708 
2482.000000	64.498853 
2481.000000	64.522361 
2480.000000	64.548897 
2479.000000	64.576721 
2478.000000	64.603805 
2477.000000	64.627981 
2476.000000	64.647078 
2475.000000	64.659214 
2474.000000	64.663028 
2473.000000	64.658236 
2472.000000	64.645838 
2471.000000	64.627909 
2470.000000	64.607429 
2469.000000	64.587664 
2468.000000	64.571809 
2467.000000	64.562368 
2466.000000	64.560747 
2465.000000	64.567160 
2464.000000	64.580702 
2463.000000	64.599490 
2462.000000	64.621162 
2461.000000	64.642858 
2460.000000	64.661931 
2459.000000	64.675903 
2458.000000	64.683318 
2457.000000	64.683341 
2456.000000	64.676427 
2455.000000	64.663982 
2454.000000	64.648318 
2453.000000	64.632129 
2452.000000	64.617919 
2451.000000	64.607763 
2450.000000	64.602565 
2449.000000	64.602041 
2448.000000	64.604759 
2447.000000	64.608478 
2446.000000	64.610981 
2445.000000	64.610767 
2444.000000	64.607262 
2443.000000	64.601063 
2442.000000	64.593791 
2441.000000	64.587426 
2440.000000	64.583778 
2439.000000	64.583778 
2438.000000	64.587306 
2437.000000	64.593267 
2436.000000	64.599776 
2435.000000	64.604973 
2434.000000	64.607286 
2433.000000	64.606094 
2432.000000	64.601635 
2431.000000	64.595174 
2430.000000	64.588642 
2429.000000	64.584136 
2428.000000	64.583325 
2427.000000	64.587092 
2426.000000	64.595508 
2425.000000	64.607477 
2424.000000	64.621376 
2423.000000	64.634966 
2422.000000	64.646029 
2421.000000	64.652800 
2420.000000	64.654231 
2419.000000	64.650177 
2418.000000	64.641213 
2417.000000	64.628601 
2416.000000	64.613986 
2415.000000	64.598894 
2414.000000	64.584589 
2413.000000	64.571738 
2412.000000	64.560484 
2411.000000	64.550495 
2410.000000	64.541220 
2409.000000	64.532160 
2408.000000	64.523124 
2407.000000	64.514088 
2406.000000	64.505314 
2405.000000	64.497113 
2404.000000	64.489579 
2403.000000	64.482617 
2402.000000	64.475703 
2401.000000	64.468073 
2400.000000	64.458918 
2399.000000	64.447760 
2398.000000	64.434695 
2397.000000	64.420366 
2396.000000	64.406204 
2395.000000	64.393830 
2394.000000	64.384818 
2393.000000	64.380192 
2392.000000	64.380216 
2391.000000	64.384245 
2390.000000	64.390826 
2389.000000	64.398097 
2388.000000	64.404296 
2387.000000	64.408397 
2386.000000	64.410161 
2385.000000	64.410233 
2384.000000	64.409995 
2383.000000	64.411091 
2382.000000	64.415025 
2381.000000	64.422416 
2380.000000	64.433026 
2379.000000	64.445638 
2378.000000	64.458584 
2377.000000	64.470124 
2376.000000	64.479041 
2375.000000	64.484667 
2374.000000	64.487433 
2373.000000	64.488315 
2372.000000	64.488410 
2371.000000	64.488720 
2370.000000	64.489650 
2369.000000	64.491105 
2368.000000	64.492464 
2367.000000	64.492988 
2366.000000	64.492249 
2365.000000	64.490032 
2364.000000	64.486455 
2363.000000	64.481878 
2362.000000	64.476585 
2361.000000	64.470601 
2360.000000	64.463758 
2359.000000	64.455580 
2358.000000	64.445662 
2357.000000	64.434075 
2356.000000	64.421486 
2355.000000	64.409184 
2354.000000	64.398908 
2353.000000	64.392518 
2352.000000	64.391469 
2351.000000	64.396405 
2350.000000	64.406943 
2349.000000	64.421772 
2348.000000	64.438986 
2347.000000	64.456486 
2346.000000	64.472508 
2345.000000	64.485955 
2344.000000	64.496684 
2343.000000	64.505171 
2342.000000	64.512538 
2341.000000	64.520001 
2340.000000	64.528417 
2339.000000	64.538049 
2338.000000	64.548254 
2337.000000	64.557623 
2336.000000	64.564347 
2335.000000	64.566516 
2334.000000	64.562463 
2333.000000	64.551448 
2332.000000	64.533543 
2331.000000	64.509868 
2330.000000	64.482378 
2329.000000	64.453554 
2328.000000	64.425921 
2327.000000	64.401721 
2326.000000	64.382696 
2325.000000	64.369893 
2324.000000	64.363718 
2323.000000	64.364027 
2322.000000	64.370465 
2321.000000	64.382553 
2320.000000	64.399623 
2319.000000	64.421010 
2318.000000	64.445471 
2317.000000	64.471602 
2316.000000	64.497399 
2315.000000	64.520812 
2314.000000	64.539837 
2313.000000	64.553093 
2312.000000	64.559984 
2311.000000	64.560842 
2310.000000	64.556789 
2309.000000	64.549636 
2308.000000	64.541125 
2307.000000	64.532470 
2306.000000	64.523911 
2305.000000	64.514756 
2304.000000	64.503455 
2303.000000	64.488339 
2302.000000	64.468050 
2301.000000	64.442229 
2300.000000	64.411807 
2299.000000	64.378976 
2298.000000	64.347052 
2297.000000	64.319562 
2296.000000	64.299798 
2295.000000	64.289951 
2294.000000	64.290952 
2293.000000	64.302134 
2292.000000	64.321613 
2291.000000	64.346551 
2290.000000	64.373898 
2289.000000	64.400601 
2288.000000	64.424443 
2287.000000	64.444088 
2286.000000	64.459133 
2285.000000	64.469933 
2284.000000	64.477658 
2283.000000	64.483618 
2282.000000	64.489293 
2281.000000	64.495706 
2280.000000	64.503431 
2279.000000	64.512491 
2278.000000	64.522242 
2277.000000	64.531421 
2276.000000	64.538526 
2275.000000	64.542102 
2274.000000	64.540934 
2273.000000	64.534592 
2272.000000	64.523220 
2271.000000	64.507699 
2270.000000	64.489579 
2269.000000	64.470815 
2268.000000	64.453148 
2267.000000	64.438056 
2266.000000	64.426374 
2265.000000	64.418339 
2264.000000	64.413332 
2263.000000	64.410471 
2262.000000	64.408779 
2261.000000	64.407515 
2260.000000	64.406323 
2259.000000	64.405488 
2258.000000	64.405465 
2257.000000	64.406728 
2256.000000	64.409351 
2255.000000	64.412832 
2254.000000	64.415812 
2253.000000	64.416503 
2252.000000	64.413142 
2251.000000	64.404416 
2250.000000	64.389967 
2249.000000	64.370656 
2248.000000	64.348530 
2247.000000	64.326477 
2246.000000	64.307451 
2245.000000	64.293909 
2244.000000	64.287209 
2243.000000	64.287137 
2242.000000	64.292407 
2241.000000	64.300894 
2240.000000	64.310383 
2239.000000	64.319133 
2238.000000	64.326405 
2237.000000	64.332294 
2236.000000	64.337849 
2235.000000	64.344358 
2234.000000	64.353060 
2233.000000	64.364576 
2232.000000	64.378690 
2231.000000	64.394450 
2230.000000	64.410281 
2229.000000	64.424419 
2228.000000	64.435148 
2227.000000	64.441394 
2226.000000	64.442706 
2225.000000	64.439225 
2224.000000	64.431691 
2223.000000	64.421200 
2222.000000	64.408826 
2221.000000	64.395880 
2220.000000	64.383482 
2219.000000	64.372658 
2218.000000	64.364266 
2217.000000	64.359045 
2216.000000	64.357471 
2215.000000	64.359879 
2214.000000	64.366006 
2213.000000	64.375138 
2212.000000	64.386177 
2211.000000	64.397478 
2210.000000	64.407253 
2209.000000	64.413547 
2208.000000	64.414691 
2207.000000	64.409518 
2206.000000	64.397859 
2205.000000	64.380264 
2204.000000	64.358139 
2203.000000	64.333558 
2202.000000	64.308857 
2201.000000	64.286351 
2200.000000	64.267754 
2199.000000	64.253973 
2198.000000	64.245057 
2197.000000	64.240217 
2196.000000	64.238214 
2195.000000	64.237689 
2194.000000	64.237833 
2193.000000	64.238405 
2192.000000	64.239788 
2191.000000	64.242911 
2190.000000	64.248776 
2189.000000	64.257979 
2188.000000	64.270305 
2187.000000	64.284491 
2186.000000	64.298224 
2185.000000	64.308929 
2184.000000	64.313745 
2183.000000	64.310717 
2182.000000	64.298820 
2181.000000	64.278602 
2180.000000	64.251947 
2179.000000	64.221620 
2178.000000	64.190959 
2177.000000	64.163112 
2176.000000	64.140963 
2175.000000	64.126420 
2174.000000	64.120674 
2173.000000	64.124035 
2172.000000	64.135789 
2171.000000	64.154529 
2170.000000	64.177966 
2169.000000	64.203429 
2168.000000	64.228057 
2167.000000	64.249134 
2166.000000	64.264559 
2165.000000	64.273190 
2164.000000	64.274907 
2163.000000	64.270758 
2162.000000	64.262723 
2161.000000	64.253330 
2160.000000	64.245128 
2159.000000	64.240121 
2158.000000	64.239645 
2157.000000	64.243793 
2156.000000	64.251708 
2155.000000	64.261746 
2154.000000	64.272069 
2153.000000	64.281034 
2152.000000	64.287924 
2151.000000	64.292883 
2150.000000	64.296793 
2149.000000	64.300990 
2148.000000	64.306545 
2147.000000	64.314150 
2146.000000	64.323544 
2145.000000	64.333629 
2144.000000	64.342641 
2143.000000	64.348793 
2142.000000	64.350771 
2141.000000	64.348006 
2140.000000	64.340806 
2139.000000	64.330482 
2138.000000	64.318943 
2137.000000	64.308404 
2136.000000	64.301061 
2135.000000	64.298534 
2134.000000	64.301538 
2133.000000	64.310050 
2132.000000	64.322948 
2131.000000	64.338541 
2130.000000	64.354348 
2129.000000	64.367771 
2128.000000	64.376306 
2127.000000	64.377903 
2126.000000	64.371418 
2125.000000	64.356851 
2124.000000	64.335393 
2123.000000	64.309263 
2122.000000	64.281487 
2121.000000	64.255404 
2120.000000	64.234137 
2119.000000	64.219999 
2118.000000	64.214348 
2117.000000	64.217543 
2116.000000	64.228725 
2115.000000	64.246177 
2114.000000	64.267635 
2113.000000	64.290595 
2112.000000	64.312481 
2111.000000	64.331007 
2110.000000	64.344239 
2109.000000	64.350891 
2108.000000	64.350390 
2107.000000	64.343070 
2106.000000	64.329981 
2105.000000	64.313030 
2104.000000	64.294815 
2103.000000	64.277958 
2102.000000	64.264869 
2101.000000	64.257240 
2100.000000	64.255785 
2099.000000	64.260196 
2098.000000	64.269232 
2097.000000	64.281034 
2096.000000	64.293360 
2095.000000	64.303922 
2094.000000	64.310789 
2093.000000	64.312553 
2092.000000	64.308500 
2091.000000	64.298629 
2090.000000	64.283800 
2089.000000	64.265418 
2088.000000	64.245486 
2087.000000	64.226174 
2086.000000	64.209651 
2085.000000	64.197683 
2084.000000	64.191460 
2083.000000	64.191699 
2082.000000	64.198231 
2081.000000	64.210247 
2080.000000	64.226412 
2079.000000	64.245223 
2078.000000	64.265251 
2077.000000	64.285039 
2076.000000	64.303445 
2075.000000	64.319586 
2074.000000	64.332747 
2073.000000	64.342570 
2072.000000	64.348959 
2071.000000	64.352011 
2070.000000	64.351987 
2069.000000	64.349627 
2068.000000	64.345574 
2067.000000	64.340329 
2066.000000	64.334201 
2065.000000	64.327120 
2064.000000	64.318776 
2063.000000	64.308810 
2062.000000	64.296913 
2061.000000	64.282941 
2060.000000	64.267182 
2059.000000	64.250326 
2058.000000	64.233350 
2057.000000	64.217424 
2056.000000	64.203524 
2055.000000	64.192461 
2054.000000	64.184522 
2053.000000	64.179730 
2052.000000	64.177727 
2051.000000	64.178061 
2050.000000	64.180183 
2049.000000	64.183831 
2048.000000	64.188861 
2047.000000	64.195609 
2046.000000	64.204120 
2045.000000	64.214468 
2044.000000	64.226460 
2043.000000	64.239549 
2042.000000	64.252710 
2041.000000	64.264631 
2040.000000	64.273929 
2039.000000	64.279341 
2038.000000	64.279913 
2037.000000	64.275383 
2036.000000	64.266061 
2035.000000	64.252877 
2034.000000	64.237236 
2033.000000	64.220690 
2032.000000	64.204716 
2031.000000	64.190554 
2030.000000	64.179062 
2029.000000	64.170622 
2028.000000	64.165258 
2027.000000	64.162683 
2026.000000	64.162421 
2025.000000	64.163732 
2024.000000	64.165782 
2023.000000	64.167737 
2022.000000	64.168882 
2021.000000	64.168643 
2020.000000	64.166808 
2019.000000	64.163422 
2018.000000	64.158821 
2017.000000	64.153456 
2016.000000	64.147758 
2015.000000	64.142060 
2014.000000	64.136481 
2013.000000	64.130878 
2012.000000	64.124989 
2011.000000	64.118599 
2010.000000	64.111566 
2009.000000	64.104104 
2008.000000	64.096617 
2007.000000	64.089703 
2006.000000	64.083981 
2005.000000	64.080047 
2004.000000	64.078116 
2003.000000	64.078164 
2002.000000	64.079666 
2001.000000	64.082098 
2000.000000	64.084887 
1999.000000	64.087629 
1998.000000	64.090061 
1997.000000	64.092278 
1996.000000	64.094638 
1995.000000	64.097332 
1994.000000	64.100575 
1993.000000	64.104247 
1992.000000	64.107990 
1991.000000	64.111351 
1990.000000	64.113903 
1989.000000	64.115405 
1988.000000	64.116024 
1987.000000	64.116358 
1986.000000	64.117097 
1985.000000	64.118957 
1984.000000	64.122438 
1983.000000	64.127564 
1982.000000	64.134097 
1981.000000	64.141345 
1980.000000	64.148259 
1979.000000	64.154028 
1978.000000	64.158153 
1977.000000	64.160585 
1976.000000	64.161682 
1975.000000	64.162158 
1974.000000	64.163017 
1973.000000	64.165115 
1972.000000	64.169120 
1971.000000	64.175367 
1970.000000	64.183855 
1969.000000	64.194250 
1968.000000	64.206027 
1967.000000	64.218449 
1966.000000	64.230823 
1965.000000	64.242553 
1964.000000	64.253211 
1963.000000	64.262485 
1962.000000	64.270138 
1961.000000	64.276027 
1960.000000	64.279770 
1959.000000	64.280700 
1958.000000	64.277911 
1957.000000	64.270353 
1956.000000	64.257121 
1955.000000	64.237785 
1954.000000	64.212703 
1953.000000	64.183163 
1952.000000	64.151358 
1951.000000	64.120268 
1950.000000	64.092969 
1949.000000	64.072179 
1948.000000	64.059615 
1947.000000	64.055752 
1946.000000	64.059495 
1945.000000	64.068746 
1944.000000	64.080786 
1943.000000	64.093208 
1942.000000	64.104008 
1941.000000	64.112520 
1940.000000	64.119076 
1939.000000	64.124965 
1938.000000	64.131712 
1937.000000	64.140701 
1936.000000	64.152669 
1935.000000	64.167404 
1934.000000	64.183735 
1933.000000	64.199876 
1932.000000	64.213991 
1931.000000	64.224386 
1930.000000	64.230084 
1929.000000	64.230990 
1928.000000	64.227747 
1927.000000	64.221715 
1926.000000	64.214324 
1925.000000	64.206814 
1924.000000	64.200067 
1923.000000	64.194607 
1922.000000	64.190506 
1921.000000	64.187693 
1920.000000	64.185881 
1919.000000	64.185023 
1918.000000	64.185214 
1917.000000	64.186501 
1916.000000	64.188861 
1915.000000	64.192008 
1914.000000	64.195466 
1913.000000	64.198398 
1912.000000	64.199900 
1911.000000	64.199328 
1910.000000	64.196324 
1909.000000	64.190888 
1908.000000	64.183545 
1907.000000	64.174938 
1906.000000	64.165449 
1905.000000	64.155340 
1904.000000	64.144372 
1903.000000	64.132118 
1902.000000	64.118242 
1901.000000	64.103126 
1900.000000	64.087748 
1899.000000	64.073944 
1898.000000	64.064002 
1897.000000	64.060187 
1896.000000	64.064073 
1895.000000	64.075851 
1894.000000	64.094161 
1893.000000	64.116358 
1892.000000	64.138698 
1891.000000	64.157533 
1890.000000	64.169907 
1889.000000	64.174413 
1888.000000	64.171433 
1887.000000	64.162945 
1886.000000	64.151811 
1885.000000	64.141106 
1884.000000	64.133381 
1883.000000	64.129853 
1882.000000	64.130544 
1881.000000	64.134120 
1880.000000	64.138770 
1879.000000	64.142417 
1878.000000	64.143419 
1877.000000	64.140772 
1876.000000	64.134478 
1875.000000	64.125442 
1874.000000	64.115118 
1873.000000	64.105176 
1872.000000	64.097261 
1871.000000	64.092516 
1870.000000	64.091539 
1869.000000	64.094305 
1868.000000	64.100003 
1867.000000	64.107418 
1866.000000	64.115118 
1865.000000	64.121556 
1864.000000	64.125537 
1863.000000	64.126372 
1862.000000	64.124035 
1861.000000	64.119148 
1860.000000	64.112854 
1859.000000	64.106464 
1858.000000	64.101314 
1857.000000	64.098381 
1856.000000	64.098143 
1855.000000	64.100432 
1854.000000	64.104509 
1853.000000	64.109420 
1852.000000	64.113783 
1851.000000	64.116287 
1850.000000	64.115881 
1849.000000	64.111948 
1848.000000	64.104294 
1847.000000	64.093184 
1846.000000	64.079332 
1845.000000	64.063715 
1844.000000	64.047288 
1843.000000	64.031100 
1842.000000	64.016008 
1841.000000	64.002704 
1840.000000	63.991618 
1839.000000	63.983035 
1838.000000	63.977098 
1837.000000	63.974070 
1836.000000	63.974165 
1835.000000	63.977766 
1834.000000	63.985013 
1833.000000	63.995718 
1832.000000	64.009308 
1831.000000	64.024496 
1830.000000	64.039564 
1829.000000	64.052748 
1828.000000	64.062285 
1827.000000	64.067077 
1826.000000	64.066910 
1825.000000	64.062619 
1824.000000	64.055728 
1823.000000	64.048337 
1822.000000	64.042377 
1821.000000	64.039254 
1820.000000	64.039683 
1819.000000	64.043331 
1818.000000	64.049100 
1817.000000	64.055705 
1816.000000	64.061903 
1815.000000	64.066791 
1814.000000	64.070129 
1813.000000	64.072060 
1812.000000	64.073133 
1811.000000	64.073729 
1810.000000	64.074373 
1809.000000	64.075112 
1808.000000	64.075946 
1807.000000	64.076972 
1806.000000	64.078330 
1805.000000	64.080405 
1804.000000	64.083647 
1803.000000	64.088535 
1802.000000	64.095330 
1801.000000	64.103913 
1800.000000	64.113640 
1799.000000	64.123368 
1798.000000	64.131760 
1797.000000	64.137363 
1796.000000	64.138984 
1795.000000	64.135766 
1794.000000	64.127397 
1793.000000	64.114236 
1792.000000	64.097046 
1791.000000	64.077067 
1790.000000	64.055728 
1789.000000	64.034700 
1788.000000	64.015555 
1787.000000	63.999724 
1786.000000	63.988566 
1785.000000	63.982915 
1784.000000	63.982844 
1783.000000	63.987827 
1782.000000	63.996839 
1781.000000	64.008641 
1780.000000	64.021539 
1779.000000	64.034342 
1778.000000	64.046120 
1777.000000	64.056730 
1776.000000	64.066433 
1775.000000	64.075803 
1774.000000	64.085316 
1773.000000	64.094972 
1772.000000	64.104247 
1771.000000	64.111995 
1770.000000	64.116811 
1769.000000	64.117431 
1768.000000	64.113211 
1767.000000	64.104270 
1766.000000	64.091634 
1765.000000	64.077186 
1764.000000	64.063048 
1763.000000	64.051008 
1762.000000	64.041948 
1761.000000	64.035820 
1760.000000	64.031386 
1759.000000	64.026451 
1758.000000	64.018416 
1757.000000	64.005231 
1756.000000	63.985586 
1755.000000	63.959574 
1754.000000	63.928699 
1753.000000	63.895559 
1752.000000	63.863205 
1751.000000	63.834452 
1750.000000	63.811445 
1749.000000	63.795089 
1748.000000	63.785052 
1747.000000	63.780188 
1746.000000	63.778877 
1745.000000	63.779425 
1744.000000	63.780665 
1743.000000	63.782095 
1742.000000	63.783669 
1741.000000	63.785791 
1740.000000	63.789057 
1739.000000	63.793921 
1738.000000	63.800597 
1737.000000	63.809061 
1736.000000	63.819098 
1735.000000	63.830304 
1734.000000	63.842463 
1733.000000	63.855123 
1732.000000	63.867545 
1731.000000	63.878965 
1730.000000	63.888430 
1729.000000	63.895130 
1728.000000	63.898348 
1727.000000	63.897919 
1726.000000	63.894486 
1725.000000	63.889217 
1724.000000	63.883614 
1723.000000	63.879251 
1722.000000	63.877487 
1721.000000	63.879108 
1720.000000	63.884210 
1719.000000	63.892292 
1718.000000	63.902521 
1717.000000	63.913941 
1716.000000	63.925528 
1715.000000	63.936519 
1714.000000	63.946223 
1713.000000	63.954043 
1712.000000	63.959312 
1711.000000	63.961219 
1710.000000	63.959002 
1709.000000	63.952088 
1708.000000	63.940286 
1707.000000	63.924050 
1706.000000	63.904523 
1705.000000	63.883471 
1704.000000	63.863110 
1703.000000	63.845467 
1702.000000	63.832330 
1701.000000	63.824987 
1700.000000	63.824009 
1699.000000	63.829398 
1698.000000	63.840270 
1697.000000	63.855290 
1696.000000	63.872528 
1695.000000	63.889908 
1694.000000	63.905024 
1693.000000	63.915610 
1692.000000	63.919758 
1691.000000	63.916182 
1690.000000	63.904547 
1689.000000	63.885498 
1688.000000	63.860821 
1687.000000	63.833212 
1686.000000	63.805794 
1685.000000	63.781762 
1684.000000	63.763594 
1683.000000	63.752627 
1682.000000	63.748884 
1681.000000	63.750958 
1680.000000	63.756418 
1679.000000	63.762640 
1678.000000	63.767051 
1677.000000	63.768124 
1676.000000	63.765358 
1675.000000	63.759565 
1674.000000	63.752341 
1673.000000	63.745713 
1672.000000	63.741469 
1671.000000	63.740730 
1670.000000	63.743686 
1669.000000	63.749718 
1668.000000	63.757562 
1667.000000	63.765716 
1666.000000	63.773059 
1665.000000	63.779020 
1664.000000	63.783550 
1663.000000	63.787078 
1662.000000	63.789987 
1661.000000	63.792681 
1660.000000	63.795304 
1659.000000	63.797807 
1658.000000	63.799810 
1657.000000	63.801383 
1656.000000	63.802814 
1655.000000	63.804721 
1654.000000	63.807606 
1653.000000	63.812041 
1652.000000	63.818168 
1651.000000	63.825392 
1650.000000	63.832330 
1649.000000	63.837313 
1648.000000	63.838529 
1647.000000	63.834738 
1646.000000	63.825225 
1645.000000	63.810324 
1644.000000	63.790941 
1643.000000	63.768529 
1642.000000	63.744950 
1641.000000	63.721585 
1640.000000	63.700032 
1639.000000	63.681793 
1638.000000	63.668608 
1637.000000	63.662147 
1636.000000	63.664174 
1635.000000	63.675975 
1634.000000	63.698148 
1633.000000	63.730049 
1632.000000	63.769555 
1631.000000	63.813471 
1630.000000	63.857841 
1629.000000	63.898706 
1628.000000	63.932943 
1627.000000	63.958764 
1626.000000	63.976120 
1625.000000	63.986349 
1624.000000	63.992023 
1623.000000	63.995814 
1622.000000	64.000177 
1621.000000	64.005851 
1620.000000	64.012551 
1619.000000	64.018321 
1618.000000	64.020848 
1617.000000	64.017343 
1616.000000	64.005851 
1615.000000	63.985371 
1614.000000	63.956427 
1613.000000	63.921022 
1612.000000	63.882160 
1611.000000	63.843560 
1610.000000	63.808774 
1609.000000	63.780927 
1608.000000	63.762092 
1607.000000	63.753342 
1606.000000	63.754415 
1605.000000	63.764023 
1604.000000	63.780093 
1603.000000	63.799881 
1602.000000	63.820242 
1601.000000	63.837862 
1600.000000	63.849830 
1599.000000	63.853526 
1598.000000	63.847565 
1597.000000	63.832092 
1596.000000	63.809013 
1595.000000	63.781523 
1594.000000	63.753914 
1593.000000	63.730859 
1592.000000	63.716316 
1591.000000	63.712882 
1590.000000	63.721203 
1589.000000	63.739919 
1588.000000	63.765811 
1587.000000	63.794636 
1586.000000	63.821816 
1585.000000	63.843321 
1584.000000	63.856339 
1583.000000	63.859629 
1582.000000	63.853669 
1581.000000	63.840198 
1580.000000	63.822054 
1579.000000	63.802433 
1578.000000	63.784456 
1577.000000	63.770413 
1576.000000	63.761711 
1575.000000	63.758921 
1574.000000	63.761425 
1573.000000	63.767695 
1572.000000	63.775610 
1571.000000	63.782835 
1570.000000	63.787007 
1569.000000	63.786435 
1568.000000	63.779973 
1567.000000	63.767766 
1566.000000	63.750982 
1565.000000	63.731813 
1564.000000	63.713097 
1563.000000	63.697481 
1562.000000	63.687038 
1561.000000	63.682532 
1560.000000	63.683438 
1559.000000	63.687992 
1558.000000	63.693666 
1557.000000	63.697862 
1556.000000	63.698554 
1555.000000	63.694763 
1554.000000	63.686943 
1553.000000	63.676643 
1552.000000	63.666248 
1551.000000	63.658452 
1550.000000	63.655734 
1549.000000	63.659858 
1548.000000	63.671636 
1547.000000	63.690662 
1546.000000	63.715291 
1545.000000	63.743400 
1544.000000	63.772273 
1543.000000	63.799142 
1542.000000	63.821673 
1541.000000	63.837981 
1540.000000	63.847017 
1539.000000	63.848638 
1538.000000	63.843607 
1537.000000	63.833427 
1536.000000	63.819909 
1535.000000	63.804960 
1534.000000	63.790154 
1533.000000	63.776731 
1532.000000	63.765335 
1531.000000	63.756203 
1530.000000	63.749265 
1529.000000	63.744211 
1528.000000	63.740634 
1527.000000	63.738036 
1526.000000	63.736033 
1525.000000	63.734221 
1524.000000	63.732695 
1523.000000	63.731765 
1522.000000	63.732147 
1521.000000	63.734626 
1520.000000	63.739991 
1519.000000	63.748621 
1518.000000	63.760256 
1517.000000	63.773965 
1516.000000	63.788342 
1515.000000	63.801741 
1514.000000	63.812637 
1513.000000	63.819766 
1512.000000	63.822746 
1511.000000	63.821935 
1510.000000	63.818097 
1509.000000	63.812232 
1508.000000	63.805413 
1507.000000	63.798308 
1506.000000	63.791108 
1505.000000	63.783383 
1504.000000	63.774514 
1503.000000	63.763666 
1502.000000	63.750457 
1501.000000	63.735055 
1500.000000	63.718247 
1499.000000	63.701462 
1498.000000	63.686370 
1497.000000	63.674569 
1496.000000	63.667416 
1495.000000	63.665556 
1494.000000	63.668823 
1493.000000	63.676428 
1492.000000	63.687062 
1491.000000	63.699173 
1490.000000	63.711190 
1489.000000	63.721609 
1488.000000	63.729238 
1487.000000	63.733267 
1486.000000	63.733434 
1485.000000	63.729906 
1484.000000	63.723421 
1483.000000	63.715076 
1482.000000	63.706088 
1481.000000	63.697552 
1480.000000	63.690137 
1479.000000	63.684105 
1478.000000	63.679122 
1477.000000	63.674497 
1476.000000	63.669300 
1475.000000	63.662648 
1474.000000	63.653731 
1473.000000	63.642144 
1472.000000	63.628005 
1471.000000	63.611865 
1470.000000	63.594722 
1469.000000	63.578009 
1468.000000	63.563394 
1467.000000	63.552784 
1466.000000	63.548040 
1465.000000	63.550853 
1464.000000	63.562202 
1463.000000	63.582062 
1462.000000	63.608980 
1461.000000	63.640117 
1460.000000	63.671660 
1459.000000	63.699388 
1458.000000	63.719820 
1457.000000	63.730645 
1456.000000	63.731622 
1455.000000	63.724017 
1454.000000	63.710594 
1453.000000	63.694500 
1452.000000	63.678598 
1451.000000	63.664770 
1450.000000	63.653683 
1449.000000	63.644838 
1448.000000	63.637185 
1447.000000	63.629531 
1446.000000	63.621401 
1445.000000	63.612985 
1444.000000	63.605189 
1443.000000	63.599252 
1442.000000	63.596320 
1441.000000	63.596844 
1440.000000	63.600540 
1439.000000	63.606476 
1438.000000	63.613724 
1437.000000	63.621473 
1436.000000	63.629508 
1435.000000	63.638138 
1434.000000	63.647985 
1433.000000	63.659548 
1432.000000	63.672900 
1431.000000	63.687658 
1430.000000	63.702654 
1429.000000	63.716483 
1428.000000	63.727402 
1427.000000	63.733959 
1426.000000	63.734984 
1425.000000	63.730239 
1424.000000	63.720273 
1423.000000	63.706326 
1422.000000	63.690018 
1421.000000	63.673186 
1420.000000	63.657379 
1419.000000	63.643527 
1418.000000	63.631796 
1417.000000	63.621807 
1416.000000	63.612747 
1415.000000	63.603711 
1414.000000	63.593959 
1413.000000	63.583207 
1412.000000	63.571810 
1411.000000	63.560628 
1410.000000	63.550686 
1409.000000	63.543009 
1408.000000	63.538098 
1407.000000	63.536071 
1406.000000	63.536310 
1405.000000	63.537931 
1404.000000	63.540124 
1403.000000	63.542604 
1402.000000	63.545560 
1401.000000	63.549900 
1400.000000	63.556599 
1399.000000	63.566493 
1398.000000	63.579773 
1397.000000	63.595843 
1396.000000	63.613128 
1395.000000	63.629555 
1394.000000	63.642883 
1393.000000	63.651013 
1392.000000	63.652563 
1391.000000	63.647150 
1390.000000	63.635373 
1389.000000	63.618707 
1388.000000	63.599038 
1387.000000	63.578462 
1386.000000	63.558602 
1385.000000	63.540482 
1384.000000	63.524127 
1383.000000	63.509058 
1382.000000	63.494467 
1381.000000	63.479566 
1380.000000	63.464236 
1379.000000	63.448929 
1378.000000	63.435101 
1377.000000	63.424587 
1376.000000	63.419556 
1375.000000	63.421559 
1374.000000	63.431429 
1373.000000	63.448691 
1372.000000	63.471579 
1371.000000	63.497424 
1370.000000	63.523077 
1369.000000	63.545560 
1368.000000	63.562726 
1367.000000	63.573408 
1366.000000	63.577651 
1365.000000	63.576412 
1364.000000	63.571143 
1363.000000	63.563466 
1362.000000	63.554811 
1361.000000	63.546299 
1360.000000	63.538718 
1359.000000	63.532519 
1358.000000	63.527870 
1357.000000	63.524699 
1356.000000	63.523054 
1355.000000	63.522768 
1354.000000	63.523530 
1353.000000	63.525032 
1352.000000	63.526701 
1351.000000	63.528108 
1350.000000	63.528990 
1349.000000	63.529276 
1348.000000	63.529205 
1347.000000	63.529300 
1346.000000	63.530302 
1345.000000	63.533067 
1344.000000	63.538265 
1343.000000	63.546252 
1342.000000	63.556885 
1341.000000	63.569498 
1340.000000	63.582897 
1339.000000	63.595461 
1338.000000	63.605499 
1337.000000	63.611483 
1336.000000	63.612365 
1335.000000	63.608193 
1334.000000	63.600254 
1333.000000	63.590884 
1332.000000	63.583111 
1331.000000	63.580036 
1330.000000	63.583874 
1329.000000	63.595557 
1328.000000	63.614010 
1327.000000	63.636708 
1326.000000	63.659548 
1325.000000	63.678216 
1324.000000	63.688540 
1323.000000	63.687849 
1322.000000	63.675427 
1321.000000	63.652515 
1320.000000	63.622403 
1319.000000	63.589501 
1318.000000	63.558506 
1317.000000	63.533568 
1316.000000	63.517379 
1315.000000	63.510847 
1314.000000	63.512921 
1313.000000	63.521218 
1312.000000	63.532614 
1311.000000	63.544082 
1310.000000	63.553214 
1309.000000	63.558721 
1308.000000	63.560509 
1307.000000	63.559508 
1306.000000	63.557124 
1305.000000	63.554501 
1304.000000	63.552308 
1303.000000	63.550257 
1302.000000	63.547420 
1301.000000	63.542461 
1300.000000	63.534307 
1299.000000	63.522529 
1298.000000	63.507795 
1297.000000	63.491797 
1296.000000	63.476872 
1295.000000	63.465738 
1294.000000	63.460230 
1293.000000	63.461399 
1292.000000	63.468861 
1291.000000	63.481163 
1290.000000	63.496017 
1289.000000	63.510894 
1288.000000	63.523578 
1287.000000	63.532805 
1286.000000	63.538265 
1285.000000	63.540434 
1284.000000	63.540005 
1283.000000	63.537764 
1282.000000	63.534188 
1281.000000	63.529491 
1280.000000	63.523554 
1279.000000	63.516497 
1278.000000	63.508510 
1277.000000	63.500261 
1276.000000	63.492727 
1275.000000	63.486814 
1274.000000	63.483190 
1273.000000	63.481879 
1272.000000	63.482284 
1271.000000	63.483214 
1270.000000	63.483047 
1269.000000	63.480186 
1268.000000	63.473391 
1267.000000	63.462138 
1266.000000	63.446855 
1265.000000	63.428592 
1264.000000	63.409066 
1263.000000	63.390302 
1262.000000	63.374233 
1261.000000	63.362503 
1260.000000	63.356328 
1259.000000	63.356161 
1258.000000	63.361787 
1257.000000	63.372230 
1256.000000	63.385891 
1255.000000	63.400673 
1254.000000	63.414359 
1253.000000	63.425016 
1252.000000	63.431096 
1251.000000	63.431930 
1250.000000	63.427758 
1249.000000	63.419651 
1248.000000	63.409328 
1247.000000	63.398814 
1246.000000	63.389968 
1245.000000	63.384222 
1244.000000	63.382411 
1243.000000	63.384509 
1242.000000	63.389968 
1241.000000	63.397789 
1240.000000	63.406801 
1239.000000	63.416075 
1238.000000	63.424706 
1237.000000	63.432288 
1236.000000	63.438606 
1235.000000	63.443732 
1234.000000	63.447785 
1233.000000	63.451147 
1232.000000	63.454174 
1231.000000	63.457298 
1230.000000	63.460803 
1229.000000	63.464879 
1228.000000	63.469481 
1227.000000	63.474178 
1226.000000	63.478088 
1225.000000	63.479948 
1224.000000	63.478493 
1223.000000	63.472723 
1222.000000	63.462543 
1221.000000	63.448476 
1220.000000	63.432073 
1219.000000	63.415503 
1218.000000	63.401246 
1217.000000	63.391447 
1216.000000	63.387393 
1215.000000	63.389372 
1214.000000	63.396406 
1213.000000	63.406777 
1212.000000	63.418197 
1211.000000	63.428473 
1210.000000	63.435959 
1209.000000	63.439846 
1208.000000	63.440108 
1207.000000	63.437414 
1206.000000	63.432908 
1205.000000	63.427639 
1204.000000	63.422632 
1203.000000	63.418626 
1202.000000	63.416004 
1201.000000	63.414716 
1200.000000	63.414168 
1199.000000	63.413429 
1198.000000	63.411068 
1197.000000	63.405704 
1196.000000	63.396167 
1195.000000	63.381910 
1194.000000	63.363432 
1193.000000	63.342118 
1192.000000	63.320350 
1191.000000	63.300991 
1190.000000	63.286709 
1189.000000	63.279604 
1188.000000	63.280391 
1187.000000	63.288307 
1186.000000	63.301467 
1185.000000	63.317155 
1184.000000	63.332557 
1183.000000	63.345241 
1182.000000	63.353919 
1181.000000	63.358116 
1180.000000	63.358163 
1179.000000	63.354635 
1178.000000	63.348197 
1177.000000	63.339257 
1176.000000	63.327980 
1175.000000	63.314652 
1174.000000	63.299727 
1173.000000	63.283872 
1172.000000	63.267922 
1171.000000	63.252997 
1170.000000	63.240122 
1169.000000	63.229751 
1168.000000	63.221859 
1167.000000	63.215899 
1166.000000	63.211011 
1165.000000	63.206434 
1164.000000	63.201880 
1163.000000	63.197612 
1162.000000	63.194608 
1161.000000	63.194131 
1160.000000	63.197445 
1159.000000	63.205265 
1158.000000	63.217496 
1157.000000	63.233137 
1156.000000	63.250422 
1155.000000	63.267087 
1154.000000	63.280892 
1153.000000	63.290095 
1152.000000	63.293838 
1151.000000	63.292264 
1150.000000	63.286805 
1149.000000	63.279652 
1148.000000	63.273715 
1147.000000	63.271689 
1146.000000	63.275694 
1145.000000	63.286828 
1144.000000	63.304972 
1143.000000	63.328623 
1142.000000	63.355207 
1141.000000	63.381624 
1140.000000	63.404631 
1139.000000	63.421654 
1138.000000	63.431382 
1137.000000	63.433575 
1136.000000	63.429403 
1135.000000	63.420510 
1134.000000	63.408756 
1133.000000	63.395285 
1132.000000	63.380813 
1131.000000	63.365483 
1130.000000	63.349628 
1129.000000	63.333773 
1128.000000	63.319206 
1127.000000	63.307237 
1126.000000	63.299059 
1125.000000	63.295030 
1124.000000	63.294434 
1123.000000	63.296008 
1122.000000	63.298034 
1121.000000	63.299036 
1120.000000	63.298296 
1119.000000	63.295555 
1118.000000	63.291072 
1117.000000	63.285326 
1116.000000	63.278579 
1115.000000	63.271069 
1114.000000	63.262677 
1113.000000	63.253235 
1112.000000	63.242602 
1111.000000	63.230752 
1110.000000	63.217949 
1109.000000	63.204336 
1108.000000	63.190364 
1107.000000	63.176560 
1106.000000	63.163685 
1105.000000	63.152337 
1104.000000	63.143110 
1103.000000	63.136196 
1102.000000	63.131618 
1101.000000	63.129019 
1100.000000	63.128042 
1099.000000	63.128113 
1098.000000	63.128972 
1097.000000	63.130569 
1096.000000	63.133358 
1095.000000	63.137888 
1094.000000	63.145017 
1093.000000	63.155460 
1092.000000	63.169646 
1091.000000	63.187432 
1090.000000	63.207912 
1089.000000	63.229346 
1088.000000	63.249516 
1087.000000	63.265824 
1086.000000	63.276028 
1085.000000	63.278412 
1084.000000	63.272213 
1083.000000	63.257765 
1082.000000	63.236522 
1081.000000	63.210725 
1080.000000	63.183164 
1079.000000	63.156676 
1078.000000	63.133740 
1077.000000	63.116002 
1076.000000	63.104343 
1075.000000	63.098764 
1074.000000	63.098597 
1073.000000	63.102984 
1072.000000	63.111042 
1071.000000	63.122057 
1070.000000	63.135504 
1069.000000	63.151001 
1068.000000	63.168120 
1067.000000	63.186001 
1066.000000	63.203525 
1065.000000	63.219213 
1064.000000	63.231396 
1063.000000	63.238906 
1062.000000	63.240981 
1061.000000	63.237643 
1060.000000	63.229417 
1059.000000	63.217425 
1058.000000	63.203072 
1057.000000	63.187694 
1056.000000	63.172411 
1055.000000	63.157844 
1054.000000	63.144350 
1053.000000	63.132166 
1052.000000	63.121628 
1051.000000	63.113141 
1050.000000	63.107299 
1049.000000	63.104557 
1048.000000	63.105201 
1047.000000	63.108873 
1046.000000	63.114762 
1045.000000	63.121294 
1044.000000	63.126730 
1043.000000	63.129496 
1042.000000	63.128519 
1041.000000	63.123846 
1040.000000	63.116550 
1039.000000	63.108992 
1038.000000	63.104319 
1037.000000	63.105845 
1036.000000	63.116264 
1035.000000	63.136720 
1034.000000	63.166451 
1033.000000	63.202261 
1032.000000	63.239240 
1031.000000	63.271474 
1030.000000	63.293552 
1029.000000	63.301444 
1028.000000	63.293528 
1027.000000	63.270878 
1026.000000	63.236927 
1025.000000	63.196659 
1024.000000	63.155698 
1023.000000	63.119339 
1022.000000	63.091301 
1021.000000	63.073515 
1020.000000	63.066387 
1019.000000	63.068723 
1018.000000	63.078212 
1017.000000	63.092160 
1016.000000	63.107991 
1015.000000	63.123369 
1014.000000	63.136458 
1013.000000	63.146042 
1012.000000	63.151550 
1011.000000	63.153338 
1010.000000	63.152289 
1009.000000	63.149905 
1008.000000	63.147640 
1007.000000	63.146758 
1006.000000	63.147687 
1005.000000	63.149738 
1004.000000	63.151240 
1003.000000	63.149929 
1002.000000	63.143754 
1001.000000	63.131403 
1000.000000	63.113021 
999.000000	 63.090300 
998.000000	 63.066506 
997.000000	 63.045644 
996.000000	 63.031864 
995.000000	 63.028287 
994.000000	 63.036680 
993.000000	 63.056874 
992.000000	 63.087129 
991.000000	 63.124561 
990.000000	 63.165688 
989.000000	 63.207507 
988.000000	 63.247752 
987.000000	 63.284778 
986.000000	 63.317513 
985.000000	 63.345026 
984.000000	 63.366293 
983.000000	 63.379907 
982.000000	 63.384103 
981.000000	 63.376998 
980.000000	 63.357353 
979.000000	 63.324928 
978.000000	 63.281106 
977.000000	 63.228988 
976.000000	 63.173174 
975.000000	 63.119387 
974.000000	 63.073563 
973.000000	 63.041019 
972.000000	 63.025212 
971.000000	 63.027524 
970.000000	 63.046741 
969.000000	 63.079667 
968.000000	 63.121056 
967.000000	 63.165259 
966.000000	 63.206648 
965.000000	 63.241338 
964.000000	 63.267135 
963.000000	 63.284039 
962.000000	 63.293647 
961.000000	 63.298082 
960.000000	 63.299226 
959.000000	 63.297629 
958.000000	 63.292288 
957.000000	 63.280916 
956.000000	 63.260650 
955.000000	 63.229060 
954.000000	 63.185238 
953.000000	 63.130664 
952.000000	 63.069534 
951.000000	 63.007831 
950.000000	 62.952613 
949.000000	 62.910652 
948.000000	 62.887382 
947.000000	 62.885427 
946.000000	 62.904644 
945.000000	 62.941741 
944.000000	 62.991547 
943.000000	 63.047456 
942.000000	 63.103199 
941.000000	 63.153171 
940.000000	 63.193988 
939.000000	 63.223767 
938.000000	 63.242983 
937.000000	 63.253808 
936.000000	 63.259363 
935.000000	 63.262915 
934.000000	 63.266968 
933.000000	 63.272833 
932.000000	 63.280272 
931.000000	 63.287615 
930.000000	 63.292455 
929.000000	 63.292074 
928.000000	 63.284420 
927.000000	 63.268661 
926.000000	 63.244986 
925.000000	 63.214969 
924.000000	 63.181066 
923.000000	 63.146424 
922.000000	 63.114094 
921.000000	 63.086652 
920.000000	 63.066053 
919.000000	 63.053131 
918.000000	 63.047623 
917.000000	 63.048148 
916.000000	 63.052415 
915.000000	 63.057971 
914.000000	 63.062238 
913.000000	 63.063478 
912.000000	 63.060474 
911.000000	 63.053631 
910.000000	 63.044667 
909.000000	 63.036203 
908.000000	 63.031029 
907.000000	 63.031029 
906.000000	 63.036608 
905.000000	 63.046550 
904.000000	 63.058304 
903.000000	 63.068914 
902.000000	 63.075995 
901.000000	 63.078808 
900.000000	 63.078379 
899.000000	 63.077092 
898.000000	 63.077783 
897.000000	 63.082671 
896.000000	 63.092398 
895.000000	 63.105726 
894.000000	 63.119506 
893.000000	 63.129758 
892.000000	 63.132429 
891.000000	 63.124513 
890.000000	 63.104987 
889.000000	 63.075137 
888.000000	 63.038468 
887.000000	 62.999510 
886.000000	 62.963533 
885.000000	 62.935042 
884.000000	 62.917709 
883.000000	 62.913870 
882.000000	 62.924528 
881.000000	 62.949252 
880.000000	 62.986516 
879.000000	 63.033914 
878.000000	 63.088154 
877.000000	 63.145470 
876.000000	 63.202095 
875.000000	 63.254451 
874.000000	 63.299727 
873.000000	 63.335657 
872.000000	 63.360404 
871.000000	 63.372516 
870.000000	 63.371205 
869.000000	 63.356423 
868.000000	 63.329172 
867.000000	 63.291764 
866.000000	 63.248229 
865.000000	 63.203430 
864.000000	 63.162970 
863.000000	 63.131570 
862.000000	 63.112640 
861.000000	 63.107180 
860.000000	 63.113689 
859.000000	 63.128471 
858.000000	 63.146376 
857.000000	 63.162136 
856.000000	 63.171482 
855.000000	 63.172340 
854.000000	 63.165163 
853.000000	 63.152408 
852.000000	 63.137388 
851.000000	 63.123750 
850.000000	 63.114118 
849.000000	 63.110136 
848.000000	 63.112306 
847.000000	 63.120198 
846.000000	 63.132882 
845.000000	 63.149523 
844.000000	 63.169431 
843.000000	 63.192057 
842.000000	 63.216686 
841.000000	 63.242864 
840.000000	 63.269495 
839.000000	 63.295149 
838.000000	 63.317441 
837.000000	 63.333392 
836.000000	 63.340163 
835.000000	 63.335251 
834.000000	 63.317942 
833.000000	 63.289237 
832.000000	 63.252973 
831.000000	 63.214945 
830.000000	 63.182592 
829.000000	 63.163757 
828.000000	 63.164663 
827.000000	 63.188767 
826.000000	 63.235449 
825.000000	 63.299965 
824.000000	 63.374042 
823.000000	 63.447475 
822.000000	 63.511133 
821.000000	 63.558483 
820.000000	 63.587141 
819.000000	 63.598585 
818.000000	 63.596701 
817.000000	 63.586282 
816.000000	 63.571047 
815.000000	 63.552880 
814.000000	 63.532352 
813.000000	 63.508439 
812.000000	 63.481140 
811.000000	 63.450646 
810.000000	 63.418579 
809.000000	 63.387012 
808.000000	 63.357949 
807.000000	 63.332962 
806.000000	 63.312411 
805.000000	 63.295531 
804.000000	 63.280606 
803.000000	 63.265705 
802.000000	 63.249516 
801.000000	 63.231420 
800.000000	 63.211560 
799.000000	 63.190674 
798.000000	 63.169646 
797.000000	 63.148999 
796.000000	 63.128566 
795.000000	 63.108110 
794.000000	 63.087558 
793.000000	 63.066959 
792.000000	 63.046741 
791.000000	 63.027811 
790.000000	 63.011312 
789.000000	 62.997698 
788.000000	 62.987184 
787.000000	 62.979674 
786.000000	 62.975478 
785.000000	 62.974977 
784.000000	 62.978911 
783.000000	 62.988543 
782.000000	 63.004255 
781.000000	 63.025617 
780.000000	 63.050222 
779.000000	 63.073730 
778.000000	 63.090467 
777.000000	 63.094615 
776.000000	 63.081693 
775.000000	 63.049817 
774.000000	 63.000702 
773.000000	 62.940001 
772.000000	 62.875223 
771.000000	 62.814283 
770.000000	 62.763309 
769.000000	 62.725424 
768.000000	 62.700057 
767.000000	 62.683510 
766.000000	 62.670612 
765.000000	 62.656188 
764.000000	 62.636542 
763.000000	 62.610125 
762.000000	 62.577700 
761.000000	 62.541675 
760.000000	 62.504363 
759.000000	 62.467455 
758.000000	 62.430787 
757.000000	 62.393283 
756.000000	 62.352609 
755.000000	 62.307286 
754.000000	 62.257266 
753.000000	 62.205338 
752.000000	 62.156367 
751.000000	 62.117099 
750.000000	 62.094044 
749.000000	 62.092328 
748.000000	 62.114119 
747.000000	 62.157845 
746.000000	 62.217998 
745.000000	 62.286329 
744.000000	 62.353682 
743.000000	 62.411475 
742.000000	 62.453699 
741.000000	 62.477731 
740.000000	 62.484669 
739.000000	 62.478852 
738.000000	 62.466740 
737.000000	 62.454891 
736.000000	 62.448525 
735.000000	 62.451553 
734.000000	 62.465333 
733.000000	 62.488627 
732.000000	 62.518095 
731.000000	 62.550497 
730.000000	 62.582635 
729.000000	 62.612295 
728.000000	 62.637972 
727.000000	 62.659287 
726.000000	 62.675642 
725.000000	 62.685728 
724.000000	 62.687397 
723.000000	 62.678217 
722.000000	 62.655687 
721.000000	 62.618112 
720.000000	 62.565875 
719.000000	 62.502455 
718.000000	 62.433266 
717.000000	 62.364816 
716.000000	 62.303447 
715.000000	 62.254166 
714.000000	 62.219786 
713.000000	 62.201213 
712.000000	 62.197470 
711.000000	 62.207770 
710.000000	 62.233018 
709.000000	 62.276506 
708.000000	 62.343120 
707.000000	 62.437319 
706.000000	 62.561178 
705.000000	 62.711548 
704.000000	 62.878465 
703.000000	 63.045930 
702.000000	 63.194441 
701.000000	 63.305544 
700.000000	 63.365030 
699.000000	 63.368391 
698.000000	 63.322401 
697.000000	 63.244462 
696.000000	 63.158726 
695.000000	 63.091135 
694.000000	 63.063931 
693.000000	 63.089895 
692.000000	 63.170433 
691.000000	 63.294577 
690.000000	 63.442301 
689.000000	 63.589358 
688.000000	 63.713383 
687.000000	 63.798761 
686.000000	 63.839507 
685.000000	 63.839149 
684.000000	 63.808417 
683.000000	 63.760733 
682.000000	 63.707971 
681.000000	 63.657569 
680.000000	 63.610577 
679.000000	 63.564801 
678.000000	 63.514447 
677.000000	 63.455438 
676.000000	 63.384437 
675.000000	 63.301372 
674.000000	 63.208031 
673.000000	 63.105988 
672.000000	 62.998104 
671.000000	 62.887215 
670.000000	 62.777686 
669.000000	 62.673735 
668.000000	 62.581992 
667.000000	 62.510633 
666.000000	 62.467813 
665.000000	 62.459564 
664.000000	 62.487173 
663.000000	 62.545919 
662.000000	 62.625074 
661.000000	 62.709450 
660.000000	 62.782168 
659.000000	 62.828183 
658.000000	 62.837576 
657.000000	 62.807822 
656.000000	 62.743592 
655.000000	 62.655591 
654.000000	 62.557411 
653.000000	 62.462401 
652.000000	 62.381243 
651.000000	 62.319898 
650.000000	 62.280821 
649.000000	 62.261676 
648.000000	 62.257599 
647.000000	 62.261128 
646.000000	 62.265396 
645.000000	 62.263703 
644.000000	 62.249302 
643.000000	 62.217736 
642.000000	 62.166285 
641.000000	 62.096357 
640.000000	 62.012481 
639.000000	 61.924004 
638.000000	 61.843276 
637.000000	 61.784029 
636.000000	 61.758470 
635.000000	 61.774611 
634.000000	 61.834049 
633.000000	 61.931490 
632.000000	 62.055492 
631.000000	 62.190318 
630.000000	 62.319469 
629.000000	 62.428855 
628.000000	 62.509918 
627.000000	 62.559437 
626.000000	 62.580323 
625.000000	 62.580084 
624.000000	 62.568759 
623.000000	 62.556433 
622.000000	 62.551474 
621.000000	 62.559628 
620.000000	 62.583088 
619.000000	 62.622642 
618.000000	 62.676095 
617.000000	 62.740516 
616.000000	 62.810897 
615.000000	 62.882256 
614.000000	 62.948203 
613.000000	 63.001799 
612.000000	 63.036417 
611.000000	 63.047218 
610.000000	 63.031625 
609.000000	 62.990021 
608.000000	 62.926340 
607.000000	 62.847518 
606.000000	 62.761092 
605.000000	 62.673592 
604.000000	 62.589597 
603.000000	 62.510824 
602.000000	 62.436580 
601.000000	 62.364339 
600.000000	 62.291622 
599.000000	 62.216830 
598.000000	 62.140250 
597.000000	 62.064242 
596.000000	 61.991381 
595.000000	 61.925172 
594.000000	 61.868190 
593.000000	 61.823105 
592.000000	 61.790537 
591.000000	 61.771678 
590.000000	 61.767077 
589.000000	 61.778450 
588.000000	 61.806917 
587.000000	 61.853885 
586.000000	 61.919498 
585.000000	 62.002325 
584.000000	 62.098169 
583.000000	 62.201619 
582.000000	 62.306427 
581.000000	 62.406659 
580.000000	 62.497377 
579.000000	 62.575864 
578.000000	 62.641406 
577.000000	 62.695193 
576.000000	 62.739396 
575.000000	 62.776541 
574.000000	 62.808537 
573.000000	 62.837600 
572.000000	 62.864637 
571.000000	 62.889599 
570.000000	 62.910771 
569.000000	 62.926721 
568.000000	 62.935376 
567.000000	 62.935256 
566.000000	 62.925362 
565.000000	 62.906217 
564.000000	 62.879204 
563.000000	 62.846302 
562.000000	 62.810182 
561.000000	 62.774038 
560.000000	 62.740778 
559.000000	 62.712955 
558.000000	 62.691760 
557.000000	 62.677407 
556.000000	 62.667775 
555.000000	 62.658905 
554.000000	 62.645316 
553.000000	 62.621331 
552.000000	 62.583160 
551.000000	 62.530374 
550.000000	 62.465953 
549.000000	 62.396287 
548.000000	 62.330508 
547.000000	 62.278318 
546.000000	 62.246942 
545.000000	 62.239766 
544.000000	 62.255215 
543.000000	 62.287402 
542.000000	 62.326645 
541.000000	 62.363362 
540.000000	 62.390184 
539.000000	 62.404513 
538.000000	 62.407898 
537.000000	 62.406563 
536.000000	 62.408065 
535.000000	 62.420415 
534.000000	 62.448596 
533.000000	 62.494850 
532.000000	 62.558317 
531.000000	 62.635421 
530.000000	 62.721610 
529.000000	 62.810254 
528.000000	 62.893748 
527.000000	 62.963747 
526.000000	 63.012576 
525.000000	 63.033843 
524.000000	 63.023662 
523.000000	 62.982892 
522.000000	 62.916612 
521.000000	 62.833905 
520.000000	 62.745499 
519.000000	 62.662339 
518.000000	 62.592267 
517.000000	 62.538886 
516.000000	 62.500691 
515.000000	 62.471866 
514.000000	 62.444400 
513.000000	 62.410736 
512.000000	 62.366104 
511.000000	 62.309789 
510.000000	 62.245607 
509.000000	 62.180233 
508.000000	 62.121748 
507.000000	 62.075567 
506.000000	 62.045502 
505.000000	 62.032628 
504.000000	 62.036323 
503.000000	 62.054562 
502.000000	 62.085747 
501.000000	 62.129116 
500.000000	 62.184953 
499.000000	 62.253570 
498.000000	 62.334966 
497.000000	 62.427210 
496.000000	 62.526082 
495.000000	 62.624526 
494.000000	 62.712478 
493.000000	 62.778377 
492.000000	 62.812042 
491.000000	 62.806892 
490.000000	 62.762188 
489.000000	 62.683439 
488.000000	 62.583184 
487.000000	 62.476730 
486.000000	 62.379479 
485.000000	 62.302112 
484.000000	 62.250280 
483.000000	 62.221145 
482.000000	 62.205052 
481.000000	 62.188196 
480.000000	 62.156987 
479.000000	 62.102127 
478.000000	 62.021160 
477.000000	 61.920094 
476.000000	 61.811280 
475.000000	 61.711454 
474.000000	 61.636877 
473.000000	 61.600828 
472.000000	 61.610341 
471.000000	 61.666798 
470.000000	 61.765933 
469.000000	 61.899781 
468.000000	 62.057924 
467.000000	 62.228512 
466.000000	 62.399387 
465.000000	 62.556743 
464.000000	 62.688231 
463.000000	 62.783765 
462.000000	 62.838602 
461.000000	 62.853193 
460.000000	 62.834620 
459.000000	 62.795805 
458.000000	 62.752413 
457.000000	 62.722277 
456.000000	 62.718343 
455.000000	 62.746667 
454.000000	 62.803721 
453.000000	 62.878537 
452.000000	 62.954664 
451.000000	 63.015007 
450.000000	 63.046383 
449.000000	 63.042545 
448.000000	 63.007330 
447.000000	 62.953448 
446.000000	 62.899661 
445.000000	 62.864899 
444.000000	 62.864923 
443.000000	 62.906885 
442.000000	 62.987017 
441.000000	 63.089799 
440.000000	 63.191175 
439.000000	 63.263440 
438.000000	 63.280010 
437.000000	 63.223838 
436.000000	 63.091254 
435.000000	 62.896466 
434.000000	 62.665081 
433.000000	 62.434005 
432.000000	 62.247824 
431.000000	 62.144947 
430.000000	 62.149500 
429.000000	 62.262964 
428.000000	 62.465071 
427.000000	 62.714576 
426.000000	 62.959384 
425.000000	 63.147473 
424.000000	 63.238763 
423.000000	 63.214159 
422.000000	 63.079142 
421.000000	 62.859129 
420.000000	 62.591266 
419.000000	 62.313008 
418.000000	 62.052512 
417.000000	 61.823129 
416.000000	 61.623644 
415.000000	 61.444258 
414.000000	 61.272311 
413.000000	 61.107754 
412.000000	 60.957956 
411.000000	 60.835576 
410.000000	 60.746097 
409.000000	 60.679531 
408.000000	 60.605669 
407.000000	 60.479426 
406.000000	 60.251426 
405.000000	 59.870529 
404.000000	 59.316658 
403.000000	 58.609580 
402.000000	 57.817220 
401.000000	 57.051682 
400.000000	 56.434917 
399.000000	 56.059503 
398.000000	 55.976176 
397.000000	 56.183600 
396.000000	 56.619620 
395.000000	 57.167863 
394.000000	 57.711434 
393.000000	 58.161544 
392.000000	 58.476376 
391.000000	 58.662605 
390.000000	 58.748173 
389.000000	 58.757591 
388.000000	 58.683586 
387.000000	 58.488869 
386.000000	 58.083415 
385.000000	 57.386398 
384.000000	 56.391406 
383.000000	 55.200791 
382.000000	 54.010581 
381.000000	 53.089118 
380.000000	 52.743411 
379.000000	 53.199362 
378.000000	 54.564738 
377.000000	 56.710863 
376.000000	 59.318804 
375.000000	 61.855626 
374.000000	 63.679456 
373.000000	 64.185500 
372.000000	 62.963438 
371.000000	 59.905242 
370.000000	 55.250215 

