PE IR       SPECTRUM    SPECTRUM    ASCII       PEDS        1.60        
  -1
BZ69A0~1.ASC
17/04/07
15:46:48.00
17/04/07
15:46:48.00
tln
$BZ1503107-1_t0031$<tbV0>[-7.8,-7.8,8.0,0.0,27,1,0]
370.000000
64









2002,4.07    
MIRTGS : RIGHTBACK : INTERNAL 2
MIR : ON : INTERNAL 2
OPTKBR

0.200000
8
8.000000
FILLER
RATIO
SPECTRUM
UNLOCKED 256

DOUBLE
64
COMBINED
1
0
0


1.000000
RATIO


1
0
TRUE
51149
0
LEFT NOT FITTED RIGHT NOT FITTED 0
NONE
NONE
15600
12.000000
4.427000
51148
TRUE
1 0 8 72 0 0 0 0 

15798.010000






#HDR
-1
-1
#GR
CM-1
%T
0.00002384185791015625
0.0
5000.000000
-1.000000
4631
8
87.686300
44.256567
#DATA
5000.000000	64.780426 
4999.000000	64.697527 
4998.000000	64.610815 
4997.000000	64.525580 
4996.000000	64.446973 
4995.000000	64.379453 
4994.000000	64.326763 
4993.000000	64.290523 
4992.000000	64.271759 
4991.000000	64.270663 
4990.000000	64.287042 
4989.000000	64.319252 
4988.000000	64.365553 
4987.000000	64.423561 
4986.000000	64.490795 
4985.000000	64.564156 
4984.000000	64.640927 
4983.000000	64.718365 
4982.000000	64.793848 
4981.000000	64.864420 
4980.000000	64.926600 
4979.000000	64.976429 
4978.000000	65.010547 
4977.000000	65.026426 
4976.000000	65.023422 
4975.000000	65.003228 
4974.000000	64.970612 
4973.000000	64.932489 
4972.000000	64.896655 
4971.000000	64.870262 
4970.000000	64.858984 
4969.000000	64.865350 
4968.000000	64.888858 
4967.000000	64.925694 
4966.000000	64.970445 
4965.000000	65.016365 
4964.000000	65.057301 
4963.000000	65.087842 
4962.000000	65.104126 
4961.000000	65.103840 
4960.000000	65.086221 
4959.000000	65.052080 
4958.000000	65.003633 
4957.000000	64.944958 
4956.000000	64.881801 
4955.000000	64.820981 
4954.000000	64.769530 
4953.000000	64.733314 
4952.000000	64.716076 
4951.000000	64.718031 
4950.000000	64.736509 
4949.000000	64.766764 
4948.000000	64.803528 
4947.000000	64.842200 
4946.000000	64.879488 
4945.000000	64.914345 
4944.000000	64.946722 
4943.000000	64.976763 
4942.000000	65.003013 
4941.000000	65.021967 
4940.000000	65.027976 
4939.000000	65.014743 
4938.000000	64.976739 
4937.000000	64.911556 
4936.000000	64.821100 
4935.000000	64.712858 
4934.000000	64.598369 
4933.000000	64.491128 
4932.000000	64.404010 
4931.000000	64.346504 
4930.000000	64.323139 
4929.000000	64.332866 
4928.000000	64.369869 
4927.000000	64.424991 
4926.000000	64.487791 
4925.000000	64.548659 
4924.000000	64.600181 
4923.000000	64.638161 
4922.000000	64.660906 
4921.000000	64.668869 
4920.000000	64.663934 
4919.000000	64.648342 
4918.000000	64.624214 
4917.000000	64.593148 
4916.000000	64.556670 
4915.000000	64.516377 
4914.000000	64.474678 
4913.000000	64.434766 
4912.000000	64.400458 
4911.000000	64.375901 
4910.000000	64.364695 
4909.000000	64.369392 
4908.000000	64.390468 
4907.000000	64.425992 
4906.000000	64.471530 
4905.000000	64.520668 
4904.000000	64.565920 
4903.000000	64.600086 
4902.000000	64.617562 
4901.000000	64.616012 
4900.000000	64.596962 
4899.000000	64.565777 
4898.000000	64.530587 
4897.000000	64.501285 
4896.000000	64.486813 
4895.000000	64.493250 
4894.000000	64.521980 
4893.000000	64.569830 
4892.000000	64.629173 
4891.000000	64.689660 
4890.000000	64.740705 
4889.000000	64.774131 
4888.000000	64.785933 
4887.000000	64.776897 
4886.000000	64.752292 
4885.000000	64.720153 
4884.000000	64.689135 
4883.000000	64.666247 
4882.000000	64.654731 
4881.000000	64.653849 
4880.000000	64.659166 
4879.000000	64.664673 
4878.000000	64.664196 
4877.000000	64.653539 
4876.000000	64.631748 
4875.000000	64.601373 
4874.000000	64.567780 
4873.000000	64.538025 
4872.000000	64.519309 
4871.000000	64.518070 
4870.000000	64.538407 
4869.000000	64.581966 
4868.000000	64.648199 
4867.000000	64.734649 
4866.000000	64.837360 
4865.000000	64.951086 
4864.000000	65.069484 
4863.000000	65.185475 
4862.000000	65.291523 
4861.000000	65.380334 
4860.000000	65.446138 
4859.000000	65.484166 
4858.000000	65.492653 
4857.000000	65.471220 
4856.000000	65.421915 
4855.000000	65.348076 
4854.000000	65.254950 
4853.000000	65.149092 
4852.000000	65.038442 
4851.000000	64.931964 
4850.000000	64.839220 
4849.000000	64.768934 
4848.000000	64.727830 
4847.000000	64.718818 
4846.000000	64.740490 
4845.000000	64.787197 
4844.000000	64.850449 
4843.000000	64.919543 
4842.000000	64.984536 
4841.000000	65.037965 
4840.000000	65.076208 
4839.000000	65.099239 
4838.000000	65.110015 
4837.000000	65.112853 
4836.000000	65.111780 
4835.000000	65.108919 
4834.000000	65.104341 
4833.000000	65.097069 
4832.000000	65.085697 
4831.000000	65.070247 
4830.000000	65.052413 
4829.000000	65.036487 
4828.000000	65.027332 
4827.000000	65.029215 
4826.000000	65.044093 
4825.000000	65.070557 
4824.000000	65.103554 
4823.000000	65.135526 
4822.000000	65.157771 
4821.000000	65.162658 
4820.000000	65.145993 
4819.000000	65.108156 
4818.000000	65.053653 
4817.000000	64.989709 
4816.000000	64.924812 
4815.000000	64.866352 
4814.000000	64.818572 
4813.000000	64.782595 
4812.000000	64.756488 
4811.000000	64.737296 
4810.000000	64.723014 
4809.000000	64.713859 
4808.000000	64.712333 
4807.000000	64.722418 
4806.000000	64.747619 
4805.000000	64.789032 
4804.000000	64.843487 
4803.000000	64.903783 
4802.000000	64.959645 
4801.000000	65.000247 
4800.000000	65.017056 
4799.000000	65.006351 
4798.000000	64.970374 
4797.000000	64.917278 
4796.000000	64.858913 
4795.000000	64.807987 
4794.000000	64.774942 
4793.000000	64.765739 
4792.000000	64.780735 
4791.000000	64.815831 
4790.000000	64.863777 
4789.000000	64.916944 
4788.000000	64.969086 
4787.000000	65.015888 
4786.000000	65.055608 
4785.000000	65.088152 
4784.000000	65.114569 
4783.000000	65.135693 
4782.000000	65.151739 
4781.000000	65.162396 
4780.000000	65.166378 
4779.000000	65.162515 
4778.000000	65.149474 
4777.000000	65.126895 
4776.000000	65.095400 
4775.000000	65.057325 
4774.000000	65.015959 
4773.000000	64.975261 
4772.000000	64.939141 
4771.000000	64.910769 
4770.000000	64.891624 
4769.000000	64.881467 
4768.000000	64.877986 
4767.000000	64.877820 
4766.000000	64.877295 
4765.000000	64.873743 
4764.000000	64.866685 
4763.000000	64.858198 
4762.000000	64.852714 
4761.000000	64.855623 
4760.000000	64.871382 
4759.000000	64.901542 
4758.000000	64.943742 
4757.000000	64.991760 
4756.000000	65.037250 
4755.000000	65.071272 
4754.000000	65.086722 
4753.000000	65.079617 
4752.000000	65.050315 
4751.000000	65.002727 
4750.000000	64.943814 
4749.000000	64.881467 
4748.000000	64.822673 
4747.000000	64.772677 
4746.000000	64.734816 
4745.000000	64.710259 
4744.000000	64.698624 
4743.000000	64.698886 
4742.000000	64.710092 
4741.000000	64.731168 
4740.000000	64.760780 
4739.000000	64.797043 
4738.000000	64.837455 
4737.000000	64.879369 
4736.000000	64.920139 
4735.000000	64.957666 
4734.000000	64.990234 
4733.000000	65.016722 
4732.000000	65.036177 
4731.000000	65.047121 
4730.000000	65.048027 
4729.000000	65.038013 
4728.000000	65.017294 
4727.000000	64.987540 
4726.000000	64.952898 
4725.000000	64.919400 
4724.000000	64.894914 
4723.000000	64.887189 
4722.000000	64.902925 
4721.000000	64.946198 
4720.000000	65.017151 
4719.000000	65.111660 
4718.000000	65.221667 
4717.000000	65.336179 
4716.000000	65.443396 
4715.000000	65.532732 
4714.000000	65.596318 
4713.000000	65.630054 
4712.000000	65.634202 
4711.000000	65.612435 
4710.000000	65.570926 
4709.000000	65.516209 
4708.000000	65.454363 
4707.000000	65.389227 
4706.000000	65.322566 
4705.000000	65.253996 
4704.000000	65.182256 
4703.000000	65.106511 
4702.000000	65.027928 
4701.000000	64.950251 
4700.000000	64.879131 
4699.000000	64.821505 
4698.000000	64.783596 
4697.000000	64.769673 
4696.000000	64.779758 
4695.000000	64.810514 
4694.000000	64.854955 
4693.000000	64.904499 
4692.000000	64.950275 
4691.000000	64.985322 
4690.000000	65.005683 
4689.000000	65.011048 
4688.000000	65.004110 
4687.000000	64.989948 
4686.000000	64.974355 
4685.000000	64.962387 
4684.000000	64.957094 
4683.000000	64.959454 
4682.000000	64.967989 
4681.000000	64.979743 
4680.000000	64.990711 
4679.000000	64.996695 
4678.000000	64.994430 
4677.000000	64.982342 
4676.000000	64.960861 
4675.000000	64.931917 
4674.000000	64.898991 
4673.000000	64.866542 
4672.000000	64.838743 
4671.000000	64.818549 
4670.000000	64.806985 
4669.000000	64.803266 
4668.000000	64.805030 
4667.000000	64.809036 
4666.000000	64.812302 
4665.000000	64.813041 
4664.000000	64.811372 
4663.000000	64.809060 
4662.000000	64.808964 
4661.000000	64.813733 
4660.000000	64.824938 
4659.000000	64.842391 
4658.000000	64.863586 
4657.000000	64.884543 
4656.000000	64.900875 
4655.000000	64.909267 
4654.000000	64.908599 
4653.000000	64.900588 
4652.000000	64.889264 
4651.000000	64.879918 
4650.000000	64.877820 
4649.000000	64.886474 
4648.000000	64.906382 
4647.000000	64.935040 
4646.000000	64.967846 
4645.000000	64.998674 
4644.000000	65.021967 
4643.000000	65.033435 
4642.000000	65.031814 
4641.000000	65.017914 
4640.000000	64.994215 
4639.000000	64.964008 
4638.000000	64.930629 
4637.000000	64.896893 
4636.000000	64.864659 
4635.000000	64.835238 
4634.000000	64.809727 
4633.000000	64.789295 
4632.000000	64.775466 
4631.000000	64.769196 
4630.000000	64.770603 
4629.000000	64.778637 
4628.000000	64.791250 
4627.000000	64.805078 
4626.000000	64.816832 
4625.000000	64.824366 
4624.000000	64.827489 
4623.000000	64.828014 
4622.000000	64.829611 
4621.000000	64.836525 
4620.000000	64.852833 
4619.000000	64.880347 
4618.000000	64.918923 
4617.000000	64.966225 
4616.000000	65.018796 
4615.000000	65.072894 
4614.000000	65.125250 
4613.000000	65.174221 
4612.000000	65.218782 
4611.000000	65.258932 
4610.000000	65.293741 
4609.000000	65.321063 
4608.000000	65.337252 
4607.000000	65.338134 
4606.000000	65.319585 
4605.000000	65.279245 
4604.000000	65.217757 
4603.000000	65.139484 
4602.000000	65.051984 
4601.000000	64.964485 
4600.000000	64.886331 
4599.000000	64.824914 
4598.000000	64.784336 
4597.000000	64.764785 
4596.000000	64.762711 
4595.000000	64.771723 
4594.000000	64.784455 
4593.000000	64.794278 
4592.000000	64.795875 
4591.000000	64.787244 
4590.000000	64.768552 
4589.000000	64.743494 
4588.000000	64.716410 
4587.000000	64.693212 
4586.000000	64.679455 
4585.000000	64.679741 
4584.000000	64.696478 
4583.000000	64.729642 
4582.000000	64.776945 
4581.000000	64.833450 
4580.000000	64.892435 
4579.000000	64.946532 
4578.000000	64.988875 
4577.000000	65.014410 
4576.000000	65.020775 
4575.000000	65.008258 
4574.000000	64.979410 
4573.000000	64.938950 
4572.000000	64.892435 
4571.000000	64.845132 
4570.000000	64.801192 
4569.000000	64.763903 
4568.000000	64.735221 
4567.000000	64.715909 
4566.000000	64.705538 
4565.000000	64.703702 
4564.000000	64.709115 
4563.000000	64.719915 
4562.000000	64.733266 
4561.000000	64.745378 
4560.000000	64.751911 
4559.000000	64.748287 
4558.000000	64.731025 
4557.000000	64.698481 
4556.000000	64.651679 
4555.000000	64.594459 
4554.000000	64.533329 
4553.000000	64.476299 
4552.000000	64.431810 
4551.000000	64.406895 
4550.000000	64.405894 
4549.000000	64.429426 
4548.000000	64.474487 
4547.000000	64.535093 
4546.000000	64.603447 
4545.000000	64.671492 
4544.000000	64.732289 
4543.000000	64.781188 
4542.000000	64.816117 
4541.000000	64.837551 
4540.000000	64.847373 
4539.000000	64.848256 
4538.000000	64.843106 
4537.000000	64.834356 
4536.000000	64.824104 
4535.000000	64.813876 
4534.000000	64.805555 
4533.000000	64.800524 
4532.000000	64.800667 
4531.000000	64.806866 
4530.000000	64.819097 
4529.000000	64.835762 
4528.000000	64.854121 
4527.000000	64.870309 
4526.000000	64.880156 
4525.000000	64.880585 
4524.000000	64.870476 
4523.000000	64.851450 
4522.000000	64.827680 
4521.000000	64.805054 
4520.000000	64.789891 
4519.000000	64.787602 
4518.000000	64.801239 
4517.000000	64.830851 
4516.000000	64.873099 
4515.000000	64.922261 
4514.000000	64.971160 
4513.000000	65.012955 
4512.000000	65.041923 
4511.000000	65.054726 
4510.000000	65.050172 
4509.000000	65.029287 
4508.000000	64.994192 
4507.000000	64.947628 
4506.000000	64.892148 
4505.000000	64.830470 
4504.000000	64.764618 
4503.000000	64.696836 
4502.000000	64.628815 
4501.000000	64.562058 
4500.000000	64.498090 
4499.000000	64.438629 
4498.000000	64.385724 
4497.000000	64.341831 
4496.000000	64.309597 
4495.000000	64.291548 
4494.000000	64.288902 
4493.000000	64.301490 
4492.000000	64.326906 
4491.000000	64.361763 
4490.000000	64.402198 
4489.000000	64.445161 
4488.000000	64.489221 
4487.000000	64.534020 
4486.000000	64.579868 
4485.000000	64.626193 
4484.000000	64.670705 
4483.000000	64.708971 
4482.000000	64.735507 
4481.000000	64.744424 
4480.000000	64.731478 
4479.000000	64.695024 
4478.000000	64.636635 
4477.000000	64.562225 
4476.000000	64.480710 
4475.000000	64.404320 
4474.000000	64.346146 
4473.000000	64.318370 
4472.000000	64.329743 
4471.000000	64.381861 
4470.000000	64.468574 
4469.000000	64.577770 
4468.000000	64.694237 
4467.000000	64.802742 
4466.000000	64.891123 
4465.000000	64.954924 
4464.000000	64.996576 
4463.000000	65.020728 
4462.000000	65.032267 
4461.000000	65.037822 
4460.000000	65.041422 
4459.000000	65.036797 
4458.000000	65.015363 
4457.000000	64.977121 
4456.000000	64.925718 
4455.000000	64.869165 
4454.000000	64.817619 
4453.000000	64.775466 
4452.000000	64.746761 
4451.000000	64.743113 
4450.000000	64.766979 
4449.000000	64.802789 
4448.000000	64.835238 
4447.000000	64.854192 
4446.000000	64.859700 
4445.000000	64.863824 
4444.000000	64.887666 
4443.000000	64.955615 
4442.000000	65.085268 
4441.000000	65.283703 
4440.000000	65.543246 
4439.000000	65.849423 
4438.000000	66.182255 
4437.000000	66.537404 
4436.000000	66.913080 
4435.000000	67.341709 
4434.000000	67.878937 
4433.000000	68.606424 
4432.000000	69.644212 
4431.000000	71.063780 
4430.000000	72.914195 
4429.000000	75.083494 
4428.000000	77.310705 
4427.000000	79.176831 
4426.000000	80.179882 
4425.000000	79.875326 
4424.000000	78.006839 
4423.000000	74.608325 
4422.000000	70.049023 
4421.000000	64.942312 
4420.000000	60.021376 
4419.000000	55.965590 
4418.000000	53.246712 
4417.000000	52.063655 
4416.000000	52.324533 
4415.000000	53.713250 
4414.000000	55.793452 
4413.000000	58.109307 
4412.000000	60.299324 
4411.000000	62.118077 
4410.000000	63.486289 
4409.000000	64.448094 
4408.000000	65.142869 
4407.000000	65.721702 
4406.000000	66.301155 
4405.000000	66.929173 
4404.000000	67.568564 
4403.000000	68.139791 
4402.000000	68.532299 
4401.000000	68.679118 
4400.000000	68.551874 
4399.000000	68.197441 
4398.000000	67.701601 
4397.000000	67.168879 
4396.000000	66.690659 
4395.000000	66.317248 
4394.000000	66.060733 
4393.000000	65.900850 
4392.000000	65.802597 
4391.000000	65.739798 
4390.000000	65.688014 
4389.000000	65.631484 
4388.000000	65.567898 
4387.000000	65.506100 
4386.000000	65.448546 
4385.000000	65.391898 
4384.000000	65.333914 
4383.000000	65.272855 
4382.000000	65.213704 
4381.000000	65.164947 
4380.000000	65.126657 
4379.000000	65.096688 
4378.000000	65.077304 
4377.000000	65.071296 
4376.000000	65.078306 
4375.000000	65.097141 
4374.000000	65.126061 
4373.000000	65.162181 
4372.000000	65.200996 
4371.000000	65.237593 
4370.000000	65.268349 
4369.000000	65.289640 
4368.000000	65.297722 
4367.000000	65.289998 
4366.000000	65.264797 
4365.000000	65.224099 
4364.000000	65.174126 
4363.000000	65.121722 
4362.000000	65.072941 
4361.000000	65.032267 
4360.000000	65.001964 
4359.000000	64.981579 
4358.000000	64.968514 
4357.000000	64.959502 
4356.000000	64.951682 
4355.000000	64.943003 
4354.000000	64.933252 
4353.000000	64.923191 
4352.000000	64.915251 
4351.000000	64.912223 
4350.000000	64.916896 
4349.000000	64.931154 
4348.000000	64.955353 
4347.000000	64.987635 
4346.000000	65.024423 
4345.000000	65.060734 
4344.000000	65.091824 
4343.000000	65.114331 
4342.000000	65.126919 
4341.000000	65.130686 
4340.000000	65.128111 
4339.000000	65.122461 
4338.000000	65.116381 
4337.000000	65.110993 
4336.000000	65.105628 
4335.000000	65.098428 
4334.000000	65.087032 
4333.000000	65.069651 
4332.000000	65.045309 
4331.000000	65.014195 
4330.000000	64.977955 
4329.000000	64.939236 
4328.000000	64.900875 
4327.000000	64.865469 
4326.000000	64.835238 
4325.000000	64.811491 
4324.000000	64.794278 
4323.000000	64.782714 
4322.000000	64.775466 
4321.000000	64.770817 
4320.000000	64.767193 
4319.000000	64.763426 
4318.000000	64.758443 
4317.000000	64.751720 
4316.000000	64.742636 
4315.000000	64.731001 
4314.000000	64.716410 
4313.000000	64.699196 
4312.000000	64.680361 
4311.000000	64.661669 
4310.000000	64.645433 
4309.000000	64.633822 
4308.000000	64.628434 
4307.000000	64.629864 
4306.000000	64.637613 
4305.000000	64.650011 
4304.000000	64.665126 
4303.000000	64.681172 
4302.000000	64.697504 
4301.000000	64.714503 
4300.000000	64.733839 
4299.000000	64.757895 
4298.000000	64.788866 
4297.000000	64.827966 
4296.000000	64.874482 
4295.000000	64.926004 
4294.000000	64.978122 
4293.000000	65.025687 
4292.000000	65.063571 
4291.000000	65.087771 
4290.000000	65.096330 
4289.000000	65.089702 
4288.000000	65.070748 
4287.000000	65.044069 
4286.000000	65.015316 
4285.000000	64.990234 
4284.000000	64.973354 
4283.000000	64.967632 
4282.000000	64.973568 
4281.000000	64.989638 
4280.000000	65.012478 
4279.000000	65.037894 
4278.000000	65.061974 
4277.000000	65.081977 
4276.000000	65.096831 
4275.000000	65.107083 
4274.000000	65.114688 
4273.000000	65.121889 
4272.000000	65.130519 
4271.000000	65.140652 
4270.000000	65.151000 
4269.000000	65.158700 
4268.000000	65.160131 
4267.000000	65.152096 
4266.000000	65.132927 
4265.000000	65.103030 
4264.000000	65.065217 
4263.000000	65.023756 
4262.000000	64.983582 
4261.000000	64.948940 
4260.000000	64.922285 
4259.000000	64.903855 
4258.000000	64.892101 
4257.000000	64.884066 
4256.000000	64.876532 
4255.000000	64.866733 
4254.000000	64.853215 
4253.000000	64.835834 
4252.000000	64.815855 
4251.000000	64.795231 
4250.000000	64.776158 
4249.000000	64.760375 
4248.000000	64.748787 
4247.000000	64.741468 
4246.000000	64.737701 
4245.000000	64.736366 
4244.000000	64.736390 
4243.000000	64.736843 
4242.000000	64.737582 
4241.000000	64.738535 
4240.000000	64.740514 
4239.000000	64.744305 
4238.000000	64.750885 
4237.000000	64.760947 
4236.000000	64.774513 
4235.000000	64.790987 
4234.000000	64.808797 
4233.000000	64.826250 
4232.000000	64.841246 
4231.000000	64.851784 
4230.000000	64.856529 
4229.000000	64.855217 
4228.000000	64.848446 
4227.000000	64.837360 
4226.000000	64.823698 
4225.000000	64.809346 
4224.000000	64.796280 
4223.000000	64.786267 
4222.000000	64.780712 
4221.000000	64.780521 
4220.000000	64.786219 
4219.000000	64.797639 
4218.000000	64.813876 
4217.000000	64.833521 
4216.000000	64.854454 
4215.000000	64.874601 
4214.000000	64.891862 
4213.000000	64.904952 
4212.000000	64.913225 
4211.000000	64.917373 
4210.000000	64.919042 
4209.000000	64.920830 
4208.000000	64.925622 
4207.000000	64.935946 
4206.000000	64.953327 
4205.000000	64.977622 
4204.000000	65.007138 
4203.000000	65.038609 
4202.000000	65.067911 
4201.000000	65.090799 
4200.000000	65.103816 
4199.000000	65.104985 
4198.000000	65.093946 
4197.000000	65.071749 
4196.000000	65.040349 
4195.000000	65.002202 
4194.000000	64.959907 
4193.000000	64.915919 
4192.000000	64.872527 
4191.000000	64.832043 
4190.000000	64.796924 
4189.000000	64.769887 
4188.000000	64.753437 
4187.000000	64.749526 
4186.000000	64.758896 
4185.000000	64.780545 
4184.000000	64.811658 
4183.000000	64.847517 
4182.000000	64.882445 
4181.000000	64.910793 
4180.000000	64.927935 
4179.000000	64.930987 
4178.000000	64.919805 
4177.000000	64.896631 
4176.000000	64.866089 
4175.000000	64.834141 
4174.000000	64.806914 
4173.000000	64.789581 
4172.000000	64.785695 
4171.000000	64.796519 
4170.000000	64.820766 
4169.000000	64.854741 
4168.000000	64.893150 
4167.000000	64.929962 
4166.000000	64.959239 
4165.000000	64.976763 
4164.000000	64.980101 
4163.000000	64.969801 
4162.000000	64.949131 
4161.000000	64.923167 
4160.000000	64.898490 
4159.000000	64.880442 
4158.000000	64.872431 
4157.000000	64.874291 
4156.000000	64.882898 
4155.000000	64.892792 
4154.000000	64.897847 
4153.000000	64.893627 
4152.000000	64.878273 
4151.000000	64.854645 
4150.000000	64.829158 
4149.000000	64.810991 
4148.000000	64.809417 
4147.000000	64.831590 
4146.000000	64.880347 
4145.000000	64.953374 
4144.000000	65.043163 
4143.000000	65.138339 
4142.000000	65.225958 
4141.000000	65.294337 
4140.000000	65.335297 
4139.000000	65.345406 
4138.000000	65.326714 
4137.000000	65.285587 
4136.000000	65.231275 
4135.000000	65.174436 
4134.000000	65.124487 
4133.000000	65.088820 
4132.000000	65.070652 
4131.000000	65.070176 
4130.000000	65.083622 
4129.000000	65.105652 
4128.000000	65.129733 
4127.000000	65.149712 
4126.000000	65.161156 
4125.000000	65.161705 
4124.000000	65.151858 
4123.000000	65.134167 
4122.000000	65.112948 
4121.000000	65.092730 
4120.000000	65.077662 
4119.000000	65.070796 
4118.000000	65.073347 
4117.000000	65.084624 
4116.000000	65.102720 
4115.000000	65.124797 
4114.000000	65.147948 
4113.000000	65.169262 
4112.000000	65.186643 
4111.000000	65.198636 
4110.000000	65.204071 
4109.000000	65.202260 
4108.000000	65.192770 
4107.000000	65.175819 
4106.000000	65.152192 
4105.000000	65.123748 
4104.000000	65.093159 
4103.000000	65.063762 
4102.000000	65.039253 
4101.000000	65.022635 
4100.000000	65.015649 
4099.000000	65.018081 
4098.000000	65.027785 
4097.000000	65.041041 
4096.000000	65.053462 
4095.000000	65.060997 
4094.000000	65.060639 
4093.000000	65.051484 
4092.000000	65.034723 
4091.000000	65.013003 
4090.000000	64.989900 
4089.000000	64.968729 
4088.000000	64.952158 
4087.000000	64.941859 
4086.000000	64.938521 
4085.000000	64.942646 
4084.000000	64.954614 
4083.000000	64.975118 
4082.000000	65.004658 
4081.000000	65.042996 
4080.000000	65.088367 
4079.000000	65.136981 
4078.000000	65.183472 
4077.000000	65.221476 
4076.000000	65.245223 
4075.000000	65.250658 
4074.000000	65.236711 
4073.000000	65.205931 
4072.000000	65.163707 
4071.000000	65.117549 
4070.000000	65.074563 
4069.000000	65.040111 
4068.000000	65.016412 
4067.000000	65.002584 
4066.000000	64.995360 
4065.000000	64.990472 
4064.000000	64.984154 
4063.000000	64.974474 
4062.000000	64.961791 
4061.000000	64.948725 
4060.000000	64.938831 
4059.000000	64.935660 
4058.000000	64.941716 
4057.000000	64.957737 
4056.000000	64.982724 
4055.000000	65.013694 
4054.000000	65.046739 
4053.000000	65.077066 
4052.000000	65.100336 
4051.000000	65.112853 
4050.000000	65.111923 
4049.000000	65.096616 
4048.000000	65.067625 
4047.000000	65.027952 
4046.000000	64.982676 
4045.000000	64.938473 
4044.000000	64.902734 
4043.000000	64.881730 
4042.000000	64.879369 
4041.000000	64.896082 
4040.000000	64.928483 
4039.000000	64.969921 
4038.000000	65.011835 
4037.000000	65.045881 
4036.000000	65.065789 
4035.000000	65.068268 
4034.000000	65.053820 
4033.000000	65.026164 
4032.000000	64.991307 
4031.000000	64.955902 
4030.000000	64.925813 
4029.000000	64.905238 
4028.000000	64.895987 
4027.000000	64.897704 
4026.000000	64.908027 
4025.000000	64.924049 
4024.000000	64.942669 
4023.000000	64.961242 
4022.000000	64.978075 
4021.000000	64.991974 
4020.000000	65.002608 
4019.000000	65.009903 
4018.000000	65.014219 
4017.000000	65.016031 
4016.000000	65.015745 
4015.000000	65.013432 
4014.000000	65.009164 
4013.000000	65.003061 
4012.000000	64.995503 
4011.000000	64.987301 
4010.000000	64.979577 
4009.000000	64.973831 
4008.000000	64.971661 
4007.000000	64.974331 
4006.000000	64.982628 
4005.000000	64.996457 
4004.000000	65.015220 
4003.000000	65.037798 
4002.000000	65.062475 
4001.000000	65.087199 
4000.000000	65.109777 
3999.000000	65.128469 
3998.000000	65.141868 
3997.000000	65.149688 
3996.000000	65.152525 
3995.000000	65.152311 
3994.000000	65.151715 
3993.000000	65.153837 
3992.000000	65.161633 
3991.000000	65.176773 
3990.000000	65.199327 
3989.000000	65.227341 
3988.000000	65.257382 
3987.000000	65.284895 
3986.000000	65.305399 
3985.000000	65.315651 
3984.000000	65.314292 
3983.000000	65.302371 
3982.000000	65.282702 
3981.000000	65.258955 
3980.000000	65.234541 
3979.000000	65.211629 
3978.000000	65.190505 
3977.000000	65.169715 
3976.000000	65.146851 
3975.000000	65.119576 
3974.000000	65.086889 
3973.000000	65.049695 
3972.000000	65.010833 
3971.000000	64.974403 
3970.000000	64.944863 
3969.000000	64.925622 
3968.000000	64.918160 
3967.000000	64.921164 
3966.000000	64.931011 
3965.000000	64.942359 
3964.000000	64.949655 
3963.000000	64.948487 
3962.000000	64.936590 
3961.000000	64.914488 
3960.000000	64.885354 
3959.000000	64.853882 
3958.000000	64.825654 
3957.000000	64.805436 
3956.000000	64.796376 
3955.000000	64.799141 
3954.000000	64.812159 
3953.000000	64.832210 
3952.000000	64.855051 
3951.000000	64.876627 
3950.000000	64.893841 
3949.000000	64.905571 
3948.000000	64.912247 
3947.000000	64.915966 
3946.000000	64.919519 
3945.000000	64.925885 
3944.000000	64.937210 
3943.000000	64.954543 
3942.000000	64.977598 
3941.000000	65.004801 
3940.000000	65.034008 
3939.000000	65.062737 
3938.000000	65.088772 
3937.000000	65.110564 
3936.000000	65.127658 
3935.000000	65.140390 
3934.000000	65.149593 
3933.000000	65.156292 
3932.000000	65.161299 
3931.000000	65.164732 
3930.000000	65.165996 
3929.000000	65.163779 
3928.000000	65.156579 
3927.000000	65.142846 
3926.000000	65.121507 
3925.000000	65.092658 
3924.000000	65.057659 
3923.000000	65.019035 
3922.000000	64.979934 
3921.000000	64.943861 
3920.000000	64.913535 
3919.000000	64.890599 
3918.000000	64.875102 
3917.000000	64.865469 
3916.000000	64.859080 
3915.000000	64.853143 
3914.000000	64.845585 
3913.000000	64.835453 
3912.000000	64.823627 
3911.000000	64.812207 
3910.000000	64.804410 
3909.000000	64.803194 
3908.000000	64.810609 
3907.000000	64.827084 
3906.000000	64.851021 
3905.000000	64.879250 
3904.000000	64.907717 
3903.000000	64.932703 
3902.000000	64.951467 
3901.000000	64.963078 
3900.000000	64.968347 
3899.000000	64.969730 
3898.000000	64.970445 
3897.000000	64.973711 
3896.000000	64.982080 
3895.000000	64.996528 
3894.000000	65.017056 
3893.000000	65.041923 
3892.000000	65.068221 
3891.000000	65.092587 
3890.000000	65.111756 
3889.000000	65.123558 
3888.000000	65.127062 
3887.000000	65.123033 
3886.000000	65.113759 
3885.000000	65.102720 
3884.000000	65.093755 
3883.000000	65.090179 
3882.000000	65.094208 
3881.000000	65.106081 
3880.000000	65.124225 
3879.000000	65.145277 
3878.000000	65.165019 
3877.000000	65.179300 
3876.000000	65.185022 
3875.000000	65.180635 
3874.000000	65.166568 
3873.000000	65.144848 
3872.000000	65.118908 
3871.000000	65.092492 
3870.000000	65.069103 
3869.000000	65.051722 
3868.000000	65.042424 
3867.000000	65.042424 
3866.000000	65.051484 
3865.000000	65.068554 
3864.000000	65.091419 
3863.000000	65.117096 
3862.000000	65.142059 
3861.000000	65.162611 
3860.000000	65.175747 
3859.000000	65.179395 
3858.000000	65.173053 
3857.000000	65.158081 
3856.000000	65.137195 
3855.000000	65.114188 
3854.000000	65.092515 
3853.000000	65.074801 
3852.000000	65.061950 
3851.000000	65.053415 
3850.000000	65.047430 
3849.000000	65.041875 
3848.000000	65.035080 
3847.000000	65.026426 
3846.000000	65.016293 
3845.000000	65.006017 
3844.000000	64.996814 
3843.000000	64.989542 
3842.000000	64.984083 
3841.000000	64.979767 
3840.000000	64.975333 
3839.000000	64.969992 
3838.000000	64.963650 
3837.000000	64.957451 
3836.000000	64.953756 
3835.000000	64.955496 
3834.000000	64.965009 
3833.000000	64.983487 
3832.000000	65.010166 
3831.000000	65.042567 
3830.000000	65.076828 
3829.000000	65.108823 
3828.000000	65.135049 
3827.000000	65.153479 
3826.000000	65.163755 
3825.000000	65.167164 
3824.000000	65.166282 
3823.000000	65.163969 
3822.000000	65.162706 
3821.000000	65.164184 
3820.000000	65.168738 
3819.000000	65.175652 
3818.000000	65.183305 
3817.000000	65.189719 
3816.000000	65.193033 
3815.000000	65.192389 
3814.000000	65.188169 
3813.000000	65.181589 
3812.000000	65.174937 
3811.000000	65.170598 
3810.000000	65.170812 
3809.000000	65.177083 
3808.000000	65.189743 
3807.000000	65.208005 
3806.000000	65.229940 
3805.000000	65.253329 
3804.000000	65.275788 
3803.000000	65.295362 
3802.000000	65.310978 
3801.000000	65.322637 
3800.000000	65.331149 
3799.000000	65.337634 
3798.000000	65.343022 
3797.000000	65.347671 
3796.000000	65.350723 
3795.000000	65.350174 
3794.000000	65.343141 
3793.000000	65.326452 
3792.000000	65.297341 
3791.000000	65.254330 
3790.000000	65.197849 
3789.000000	65.130782 
3788.000000	65.058088 
3787.000000	64.986658 
3786.000000	64.923477 
3785.000000	64.875197 
3784.000000	64.846491 
3783.000000	64.839482 
3782.000000	64.852976 
3781.000000	64.883375 
3780.000000	64.924979 
3779.000000	64.971899 
3778.000000	65.018153 
3777.000000	65.059924 
3776.000000	65.095257 
3775.000000	65.124750 
3774.000000	65.150117 
3773.000000	65.173840 
3772.000000	65.198063 
3771.000000	65.223884 
3770.000000	65.250921 
3769.000000	65.277528 
3768.000000	65.301346 
3767.000000	65.320110 
3766.000000	65.332174 
3765.000000	65.336751 
3764.000000	65.333914 
3763.000000	65.324616 
3762.000000	65.310406 
3761.000000	65.292835 
3760.000000	65.273451 
3759.000000	65.254044 
3758.000000	65.236210 
3757.000000	65.221095 
3756.000000	65.209293 
3755.000000	65.201234 
3754.000000	65.196681 
3753.000000	65.194582 
3752.000000	65.193414 
3751.000000	65.191268 
3750.000000	65.186309 
3749.000000	65.177178 
3748.000000	65.163302 
3747.000000	65.144944 
3746.000000	65.123605 
3745.000000	65.101838 
3744.000000	65.082454 
3743.000000	65.068030 
3742.000000	65.060186 
3741.000000	65.059399 
3740.000000	65.064692 
3739.000000	65.074038 
3738.000000	65.085124 
3737.000000	65.096020 
3736.000000	65.105628 
3735.000000	65.114116 
3734.000000	65.122795 
3733.000000	65.133643 
3732.000000	65.148472 
3731.000000	65.168213 
3730.000000	65.192270 
3729.000000	65.218353 
3728.000000	65.243172 
3727.000000	65.262913 
3726.000000	65.274405 
3725.000000	65.275716 
3724.000000	65.266942 
3723.000000	65.249896 
3722.000000	65.227413 
3721.000000	65.203070 
3720.000000	65.180110 
3719.000000	65.161323 
3718.000000	65.148568 
3717.000000	65.142846 
3716.000000	65.144348 
3715.000000	65.152502 
3714.000000	65.166163 
3713.000000	65.183401 
3712.000000	65.201759 
3711.000000	65.218520 
3710.000000	65.231084 
3709.000000	65.237426 
3708.000000	65.236568 
3707.000000	65.228867 
3706.000000	65.216088 
3705.000000	65.200972 
3704.000000	65.186429 
3703.000000	65.174961 
3702.000000	65.167880 
3701.000000	65.165209 
3700.000000	65.165996 
3699.000000	65.168666 
3698.000000	65.171885 
3697.000000	65.175104 
3696.000000	65.178608 
3695.000000	65.183568 
3694.000000	65.190815 
3693.000000	65.200638 
3692.000000	65.211844 
3691.000000	65.221953 
3690.000000	65.227460 
3689.000000	65.224814 
3688.000000	65.211200 
3687.000000	65.185570 
3686.000000	65.149188 
3685.000000	65.105605 
3684.000000	65.059995 
3683.000000	65.018177 
3682.000000	64.985299 
3681.000000	64.965057 
3680.000000	64.959025 
3679.000000	64.967107 
3678.000000	64.987230 
3677.000000	65.016841 
3676.000000	65.053200 
3675.000000	65.094232 
3674.000000	65.138220 
3673.000000	65.183901 
3672.000000	65.229916 
3671.000000	65.274405 
3670.000000	65.314888 
3669.000000	65.348458 
3668.000000	65.372228 
3667.000000	65.383982 
3666.000000	65.383195 
3665.000000	65.370988 
3664.000000	65.350127 
3663.000000	65.324807 
3662.000000	65.299820 
3661.000000	65.279483 
3660.000000	65.266799 
3659.000000	65.263175 
3658.000000	65.267968 
3657.000000	65.278720 
3656.000000	65.291929 
3655.000000	65.303659 
3654.000000	65.310525 
3653.000000	65.309858 
3652.000000	65.300607 
3651.000000	65.283155 
3650.000000	65.259242 
3649.000000	65.231466 
3648.000000	65.202569 
3647.000000	65.175485 
3646.000000	65.152430 
3645.000000	65.134763 
3644.000000	65.122914 
3643.000000	65.116596 
3642.000000	65.115237 
3641.000000	65.118288 
3640.000000	65.125465 
3639.000000	65.136599 
3638.000000	65.151596 
3637.000000	65.170049 
3636.000000	65.190839 
3635.000000	65.212059 
3634.000000	65.231084 
3633.000000	65.245199 
3632.000000	65.252065 
3631.000000	65.250325 
3630.000000	65.239858 
3629.000000	65.222024 
3628.000000	65.199255 
3627.000000	65.174651 
3626.000000	65.151381 
3625.000000	65.132045 
3624.000000	65.118169 
3623.000000	65.110492 
3622.000000	65.109062 
3621.000000	65.113544 
3620.000000	65.123486 
3619.000000	65.138626 
3618.000000	65.158700 
3617.000000	65.183401 
3616.000000	65.211892 
3615.000000	65.242838 
3614.000000	65.274095 
3613.000000	65.303134 
3612.000000	65.327429 
3611.000000	65.344977 
3610.000000	65.354681 
3609.000000	65.356588 
3608.000000	65.351700 
3607.000000	65.341734 
3606.000000	65.328717 
3605.000000	65.314316 
3604.000000	65.299677 
3603.000000	65.285301 
3602.000000	65.271258 
3601.000000	65.257501 
3600.000000	65.244102 
3599.000000	65.231537 
3598.000000	65.220642 
3597.000000	65.212321 
3596.000000	65.207195 
3595.000000	65.205121 
3594.000000	65.205192 
3593.000000	65.205669 
3592.000000	65.204787 
3591.000000	65.200924 
3590.000000	65.193367 
3589.000000	65.182495 
3588.000000	65.169525 
3587.000000	65.156245 
3586.000000	65.144371 
3585.000000	65.134882 
3584.000000	65.128040 
3583.000000	65.123081 
3582.000000	65.118741 
3581.000000	65.113592 
3580.000000	65.106582 
3579.000000	65.097546 
3578.000000	65.087080 
3577.000000	65.076231 
3576.000000	65.066313 
3575.000000	65.058422 
3574.000000	65.053057 
3573.000000	65.050029 
3572.000000	65.048718 
3571.000000	65.048170 
3570.000000	65.047550 
3569.000000	65.046358 
3568.000000	65.044474 
3567.000000	65.042233 
3566.000000	65.040063 
3565.000000	65.038871 
3564.000000	65.039515 
3563.000000	65.043139 
3562.000000	65.050768 
3561.000000	65.063142 
3560.000000	65.080642 
3559.000000	65.102672 
3558.000000	65.127849 
3557.000000	65.153765 
3556.000000	65.177536 
3555.000000	65.196013 
3554.000000	65.206623 
3553.000000	65.207719 
3552.000000	65.199041 
3551.000000	65.181875 
3550.000000	65.158891 
3549.000000	65.133476 
3548.000000	65.109014 
3547.000000	65.088343 
3546.000000	65.073060 
3545.000000	65.063357 
3544.000000	65.058016 
3543.000000	65.055251 
3542.000000	65.052795 
3541.000000	65.048646 
3540.000000	65.041518 
3539.000000	65.031123 
3538.000000	65.018057 
3537.000000	65.003418 
3536.000000	64.988565 
3535.000000	64.974617 
3534.000000	64.962291 
3533.000000	64.951634 
3532.000000	64.942288 
3531.000000	64.933371 
3530.000000	64.924168 
3529.000000	64.914441 
3528.000000	64.904475 
3527.000000	64.895057 
3526.000000	64.887499 
3525.000000	64.883232 
3524.000000	64.883375 
3523.000000	64.888477 
3522.000000	64.898133 
3521.000000	64.911150 
3520.000000	64.925646 
3519.000000	64.939737 
3518.000000	64.951825 
3517.000000	64.961242 
3516.000000	64.968442 
3515.000000	64.975237 
3514.000000	64.983916 
3513.000000	64.997076 
3512.000000	65.016603 
3511.000000	65.043163 
3510.000000	65.075731 
3509.000000	65.111351 
3508.000000	65.146017 
3507.000000	65.174889 
3506.000000	65.193414 
3505.000000	65.198302 
3504.000000	65.188288 
3503.000000	65.164351 
3502.000000	65.129470 
3501.000000	65.088367 
3500.000000	65.046572 
3499.000000	65.009617 
3498.000000	64.981961 
3497.000000	64.966487 
3496.000000	64.964032 
3495.000000	64.973306 
3494.000000	64.991593 
3493.000000	65.014767 
3492.000000	65.038490 
3491.000000	65.059041 
3490.000000	65.073823 
3489.000000	65.081548 
3488.000000	65.082550 
3487.000000	65.078520 
3486.000000	65.071868 
3485.000000	65.065217 
3484.000000	65.060901 
3483.000000	65.060544 
3482.000000	65.064930 
3481.000000	65.073990 
3480.000000	65.087008 
3479.000000	65.102839 
3478.000000	65.120196 
3477.000000	65.137887 
3476.000000	65.154886 
3475.000000	65.170216 
3474.000000	65.183067 
3473.000000	65.192604 
3472.000000	65.197730 
3471.000000	65.197539 
3470.000000	65.191221 
3469.000000	65.178442 
3468.000000	65.159273 
3467.000000	65.134501 
3466.000000	65.105438 
3465.000000	65.074086 
3464.000000	65.042686 
3463.000000	65.013623 
3462.000000	64.988899 
3461.000000	64.969921 
3460.000000	64.957666 
3459.000000	64.952492 
3458.000000	64.954113 
3457.000000	64.962077 
3456.000000	64.975500 
3455.000000	64.993691 
3454.000000	65.015673 
3453.000000	65.040302 
3452.000000	65.066289 
3451.000000	65.092110 
3450.000000	65.115833 
3449.000000	65.135765 
3448.000000	65.150523 
3447.000000	65.159344 
3446.000000	65.162086 
3445.000000	65.159296 
3444.000000	65.152072 
3443.000000	65.141630 
3442.000000	65.129208 
3441.000000	65.115356 
3440.000000	65.100216 
3439.000000	65.083456 
3438.000000	65.064907 
3437.000000	65.044450 
3436.000000	65.022921 
3435.000000	65.001916 
3434.000000	64.984202 
3433.000000	64.972925 
3432.000000	64.970993 
3431.000000	64.980602 
3430.000000	65.002155 
3429.000000	65.034317 
3428.000000	65.073633 
3427.000000	65.115165 
3426.000000	65.153121 
3425.000000	65.181875 
3424.000000	65.197014 
3423.000000	65.196037 
3422.000000	65.178942 
3421.000000	65.148115 
3420.000000	65.108108 
3419.000000	65.064573 
3418.000000	65.023469 
3417.000000	64.989948 
3416.000000	64.967918 
3415.000000	64.959716 
3414.000000	64.965939 
3413.000000	64.985799 
3412.000000	65.017509 
3411.000000	65.058398 
3410.000000	65.105366 
3409.000000	65.154790 
3408.000000	65.202665 
3407.000000	65.244889 
3406.000000	65.277457 
3405.000000	65.297031 
3404.000000	65.301561 
3403.000000	65.290784 
3402.000000	65.266513 
3401.000000	65.232253 
3400.000000	65.193009 
3399.000000	65.154147 
3398.000000	65.120625 
3397.000000	65.096044 
3396.000000	65.082049 
3395.000000	65.078878 
3394.000000	65.085530 
3393.000000	65.100646 
3392.000000	65.122866 
3391.000000	65.151143 
3390.000000	65.184617 
3389.000000	65.222430 
3388.000000	65.263056 
3387.000000	65.303945 
3386.000000	65.341472 
3385.000000	65.371417 
3384.000000	65.389657 
3383.000000	65.393424 
3382.000000	65.381765 
3381.000000	65.356230 
3380.000000	65.320372 
3379.000000	65.279436 
3378.000000	65.238952 
3377.000000	65.203547 
3376.000000	65.176105 
3375.000000	65.157365 
3374.000000	65.145874 
3373.000000	65.138912 
3372.000000	65.133118 
3371.000000	65.125679 
3370.000000	65.115237 
3369.000000	65.101671 
3368.000000	65.086841 
3367.000000	65.073466 
3366.000000	65.064644 
3365.000000	65.062904 
3364.000000	65.069651 
3363.000000	65.084719 
3362.000000	65.106081 
3361.000000	65.130281 
3360.000000	65.153074 
3359.000000	65.170264 
3358.000000	65.178179 
3357.000000	65.174770 
3356.000000	65.159821 
3355.000000	65.135574 
3354.000000	65.106010 
3353.000000	65.076637 
3352.000000	65.053200 
3351.000000	65.040779 
3350.000000	65.042853 
3349.000000	65.060472 
3348.000000	65.092134 
3347.000000	65.133905 
3346.000000	65.180277 
3345.000000	65.225028 
3344.000000	65.262389 
3343.000000	65.287876 
3342.000000	65.299057 
3341.000000	65.295600 
3340.000000	65.279173 
3339.000000	65.252590 
3338.000000	65.219211 
3337.000000	65.182232 
3336.000000	65.144109 
3335.000000	65.106534 
3334.000000	65.070629 
3333.000000	65.037512 
3332.000000	65.008521 
3331.000000	64.985466 
3330.000000	64.970588 
3329.000000	64.965891 
3328.000000	64.972662 
3327.000000	64.990735 
3326.000000	65.018320 
3325.000000	65.051984 
3324.000000	65.087103 
3323.000000	65.118765 
3322.000000	65.142726 
3321.000000	65.155673 
3320.000000	65.156269 
3319.000000	65.144991 
3318.000000	65.124154 
3317.000000	65.097284 
3316.000000	65.068411 
3315.000000	65.041208 
3314.000000	65.018486 
3313.000000	65.001749 
3312.000000	64.990949 
3311.000000	64.984655 
3310.000000	64.980554 
3309.000000	64.976191 
3308.000000	64.969444 
3307.000000	64.959311 
3306.000000	64.946007 
3305.000000	64.931058 
3304.000000	64.916944 
3303.000000	64.906835 
3302.000000	64.903593 
3301.000000	64.909338 
3300.000000	64.924836 
3299.000000	64.949560 
3298.000000	64.981412 
3297.000000	65.017294 
3296.000000	65.053606 
3295.000000	65.086889 
3294.000000	65.114426 
3293.000000	65.134477 
3292.000000	65.146207 
3291.000000	65.149784 
3290.000000	65.146136 
3289.000000	65.136599 
3288.000000	65.122509 
3287.000000	65.105414 
3286.000000	65.087080 
3285.000000	65.069341 
3284.000000	65.054416 
3283.000000	65.044164 
3282.000000	65.040063 
3281.000000	65.042805 
3280.000000	65.052247 
3279.000000	65.066862 
3278.000000	65.084004 
3277.000000	65.100598 
3276.000000	65.113496 
3275.000000	65.120339 
3274.000000	65.119886 
3273.000000	65.112352 
3272.000000	65.099334 
3271.000000	65.083146 
3270.000000	65.066409 
3269.000000	65.051269 
3268.000000	65.038967 
3267.000000	65.029764 
3266.000000	65.022778 
3265.000000	65.016436 
3264.000000	65.008831 
3263.000000	64.998412 
3262.000000	64.984321 
3261.000000	64.966392 
3260.000000	64.945578 
3259.000000	64.923548 
3258.000000	64.902901 
3257.000000	64.886474 
3256.000000	64.877104 
3255.000000	64.877033 
3254.000000	64.887833 
3253.000000	64.909863 
3252.000000	64.942193 
3251.000000	64.982509 
3250.000000	65.027356 
3249.000000	65.072655 
3248.000000	65.114355 
3247.000000	65.149021 
3246.000000	65.174412 
3245.000000	65.189695 
3244.000000	65.195775 
3243.000000	65.194487 
3242.000000	65.188431 
3241.000000	65.179753 
3240.000000	65.170121 
3239.000000	65.159654 
3238.000000	65.147972 
3237.000000	65.133810 
3236.000000	65.116071 
3235.000000	65.094566 
3234.000000	65.070247 
3233.000000	65.045785 
3232.000000	65.024900 
3231.000000	65.011715 
3230.000000	65.009665 
3229.000000	65.020513 
3228.000000	65.043711 
3227.000000	65.076327 
3226.000000	65.113425 
3225.000000	65.149259 
3224.000000	65.178418 
3223.000000	65.196824 
3222.000000	65.202617 
3221.000000	65.196013 
3220.000000	65.179395 
3219.000000	65.155887 
3218.000000	65.129280 
3217.000000	65.103197 
3216.000000	65.080547 
3215.000000	65.063476 
3214.000000	65.052771 
3213.000000	65.048551 
3212.000000	65.049743 
3211.000000	65.054821 
3210.000000	65.061688 
3209.000000	65.067744 
3208.000000	65.070676 
3207.000000	65.068626 
3206.000000	65.060544 
3205.000000	65.046262 
3204.000000	65.026855 
3203.000000	65.004372 
3202.000000	64.981317 
3201.000000	64.960193 
3200.000000	64.943075 
3199.000000	64.931368 
3198.000000	64.925432 
3197.000000	64.924907 
3196.000000	64.928746 
3195.000000	64.935660 
3194.000000	64.944148 
3193.000000	64.952850 
3192.000000	64.960360 
3191.000000	64.965677 
3190.000000	64.967942 
3189.000000	64.967060 
3188.000000	64.963364 
3187.000000	64.957737 
3186.000000	64.951515 
3185.000000	64.946436 
3184.000000	64.944291 
3183.000000	64.946842 
3182.000000	64.955401 
3181.000000	64.970636 
3180.000000	64.992237 
3179.000000	65.019130 
3178.000000	65.049505 
3177.000000	65.081119 
3176.000000	65.111565 
3175.000000	65.138626 
3174.000000	65.160751 
3173.000000	65.177059 
3172.000000	65.187454 
3171.000000	65.192365 
3170.000000	65.192365 
3169.000000	65.188264 
3168.000000	65.180754 
3167.000000	65.170502 
3166.000000	65.158128 
3165.000000	65.144658 
3164.000000	65.131354 
3163.000000	65.119862 
3162.000000	65.111756 
3161.000000	65.108680 
3160.000000	65.111398 
3159.000000	65.119791 
3158.000000	65.132331 
3157.000000	65.146517 
3156.000000	65.158915 
3155.000000	65.166139 
3154.000000	65.165281 
3153.000000	65.154623 
3152.000000	65.134024 
3151.000000	65.104985 
3150.000000	65.070319 
3149.000000	65.033626 
3148.000000	64.998793 
3147.000000	64.969348 
3146.000000	64.947700 
3145.000000	64.934873 
3144.000000	64.930438 
3143.000000	64.933037 
3142.000000	64.940285 
3141.000000	64.949941 
3140.000000	64.960432 
3139.000000	64.971470 
3138.000000	64.983868 
3137.000000	64.999604 
3136.000000	65.021061 
3135.000000	65.049982 
3134.000000	65.086960 
3133.000000	65.130615 
3132.000000	65.177416 
3131.000000	65.222144 
3130.000000	65.259122 
3129.000000	65.283274 
3128.000000	65.291500 
3127.000000	65.283322 
3126.000000	65.261387 
3125.000000	65.230345 
3124.000000	65.195989 
3123.000000	65.163707 
3122.000000	65.137386 
3121.000000	65.118861 
3120.000000	65.107846 
3119.000000	65.102434 
3118.000000	65.100049 
3117.000000	65.097975 
3116.000000	65.094184 
3115.000000	65.087652 
3114.000000	65.078687 
3113.000000	65.068340 
3112.000000	65.058231 
3111.000000	65.050101 
3110.000000	65.045475 
3109.000000	65.045452 
3108.000000	65.050411 
3107.000000	65.060043 
3106.000000	65.073347 
3105.000000	65.088796 
3104.000000	65.104436 
3103.000000	65.118074 
3102.000000	65.127658 
3101.000000	65.132021 
3100.000000	65.130686 
3099.000000	65.124154 
3098.000000	65.113353 
3097.000000	65.099549 
3096.000000	65.083789 
3095.000000	65.066957 
3094.000000	65.049505 
3093.000000	65.031790 
3092.000000	65.014386 
3091.000000	64.998459 
3090.000000	64.985489 
3089.000000	64.977073 
3088.000000	64.974689 
3087.000000	64.979219 
3086.000000	64.990615 
3085.000000	65.007829 
3084.000000	65.028929 
3083.000000	65.051293 
3082.000000	65.072345 
3081.000000	65.089559 
3080.000000	65.101432 
3079.000000	65.107035 
3078.000000	65.106272 
3077.000000	65.099668 
3076.000000	65.087938 
3075.000000	65.072298 
3074.000000	65.054154 
3073.000000	65.035200 
3072.000000	65.017437 
3071.000000	65.003085 
3070.000000	64.994382 
3069.000000	64.993238 
3068.000000	65.000724 
3067.000000	65.017151 
3066.000000	65.041661 
3065.000000	65.072393 
3064.000000	65.106630 
3063.000000	65.141344 
3062.000000	65.173578 
3061.000000	65.200877 
3060.000000	65.221619 
3059.000000	65.235280 
3058.000000	65.242099 
3057.000000	65.243244 
3056.000000	65.240049 
3055.000000	65.233850 
3054.000000	65.225458 
3053.000000	65.215468 
3052.000000	65.203785 
3051.000000	65.190601 
3050.000000	65.175962 
3049.000000	65.160393 
3048.000000	65.144562 
3047.000000	65.129613 
3046.000000	65.116715 
3045.000000	65.106844 
3044.000000	65.100574 
3043.000000	65.097737 
3042.000000	65.097737 
3041.000000	65.099287 
3040.000000	65.100860 
3039.000000	65.100669 
3038.000000	65.097093 
3037.000000	65.089130 
3036.000000	65.076303 
3035.000000	65.058946 
3034.000000	65.038132 
3033.000000	65.015578 
3032.000000	64.993619 
3031.000000	64.974617 
3030.000000	64.960670 
3029.000000	64.952898 
3028.000000	64.951491 
3027.000000	64.955425 
3026.000000	64.962601 
3025.000000	64.970493 
3024.000000	64.976716 
3023.000000	64.979672 
3022.000000	64.978981 
3021.000000	64.975523 
3020.000000	64.971017 
3019.000000	64.967656 
3018.000000	64.967298 
3017.000000	64.971113 
3016.000000	64.979147 
3015.000000	64.990544 
3014.000000	65.003681 
3013.000000	65.016794 
3012.000000	65.028429 
3011.000000	65.037727 
3010.000000	65.044641 
3009.000000	65.049815 
3008.000000	65.054416 
3007.000000	65.059685 
3006.000000	65.066456 
3005.000000	65.074944 
3004.000000	65.084934 
3003.000000	65.095758 
3002.000000	65.106749 
3001.000000	65.117168 
3000.000000	65.126848 
2999.000000	65.135884 
2998.000000	65.144920 
2997.000000	65.154623 
2996.000000	65.165448 
2995.000000	65.177536 
2994.000000	65.190386 
2993.000000	65.203022 
2992.000000	65.213894 
2991.000000	65.221405 
2990.000000	65.224099 
2989.000000	65.220952 
2988.000000	65.211629 
2987.000000	65.196537 
2986.000000	65.176630 
2985.000000	65.153098 
2984.000000	65.127229 
2983.000000	65.100288 
2982.000000	65.073370 
2981.000000	65.047597 
2980.000000	65.023970 
2979.000000	65.003323 
2978.000000	64.986157 
2977.000000	64.972615 
2976.000000	64.962291 
2975.000000	64.954423 
2974.000000	64.948034 
2973.000000	64.942240 
2972.000000	64.936208 
2971.000000	64.929628 
2970.000000	64.922571 
2969.000000	64.915680 
2968.000000	64.909625 
2967.000000	64.905405 
2966.000000	64.903616 
2965.000000	64.904928 
2964.000000	64.909625 
2963.000000	64.917659 
2962.000000	64.928817 
2961.000000	64.942502 
2960.000000	64.957833 
2959.000000	64.973258 
2958.000000	64.986896 
2957.000000	64.996695 
2956.000000	65.000915 
2955.000000	64.998650 
2954.000000	64.990115 
2953.000000	64.977049 
2952.000000	64.962339 
2951.000000	64.949250 
2950.000000	64.940428 
2949.000000	64.937353 
2948.000000	64.939928 
2947.000000	64.946341 
2946.000000	64.953541 
2945.000000	64.958262 
2944.000000	64.958095 
2943.000000	64.951968 
2942.000000	64.940857 
2941.000000	64.927244 
2940.000000	64.914679 
2939.000000	64.906525 
2938.000000	64.905548 
2937.000000	64.912748 
2936.000000	64.927721 
2935.000000	64.948725 
2934.000000	64.973449 
2933.000000	64.999556 
2932.000000	65.025043 
2931.000000	65.048503 
2930.000000	65.068960 
2929.000000	65.085911 
2928.000000	65.099072 
2927.000000	65.108084 
2926.000000	65.112948 
2925.000000	65.113639 
2924.000000	65.110540 
2923.000000	65.104174 
2922.000000	65.095424 
2921.000000	65.084934 
2920.000000	65.073394 
2919.000000	65.061187 
2918.000000	65.048456 
2917.000000	65.035581 
2916.000000	65.022921 
2915.000000	65.011167 
2914.000000	65.001273 
2913.000000	64.994263 
2912.000000	64.990949 
2911.000000	64.991664 
2910.000000	64.995789 
2909.000000	65.002489 
2908.000000	65.010571 
2907.000000	65.019273 
2906.000000	65.028119 
2905.000000	65.037584 
2904.000000	65.048575 
2903.000000	65.062046 
2902.000000	65.078258 
2901.000000	65.096521 
2900.000000	65.115118 
2899.000000	65.131068 
2898.000000	65.141105 
2897.000000	65.142440 
2896.000000	65.133786 
2895.000000	65.115785 
2894.000000	65.091466 
2893.000000	65.065360 
2892.000000	65.042805 
2891.000000	65.028667 
2890.000000	65.026402 
2889.000000	65.037107 
2888.000000	65.059399 
2887.000000	65.089821 
2886.000000	65.123462 
2885.000000	65.155363 
2884.000000	65.181303 
2883.000000	65.198612 
2882.000000	65.206599 
2881.000000	65.206384 
2880.000000	65.200209 
2879.000000	65.190625 
2878.000000	65.179729 
2877.000000	65.168595 
2876.000000	65.157127 
2875.000000	65.144371 
2874.000000	65.128970 
2873.000000	65.110015 
2872.000000	65.087532 
2871.000000	65.062928 
2870.000000	65.038847 
2869.000000	65.018868 
2868.000000	65.006303 
2867.000000	65.003609 
2866.000000	65.011477 
2865.000000	65.028572 
2864.000000	65.051484 
2863.000000	65.075802 
2862.000000	65.096783 
2861.000000	65.110611 
2860.000000	65.115308 
2859.000000	65.110802 
2858.000000	65.098690 
2857.000000	65.081739 
2856.000000	65.062928 
2855.000000	65.044760 
2854.000000	65.028882 
2853.000000	65.015792 
2852.000000	65.004944 
2851.000000	64.995527 
2850.000000	64.987063 
2849.000000	64.979481 
2848.000000	64.973211 
2847.000000	64.969182 
2846.000000	64.968276 
2845.000000	64.970946 
2844.000000	64.976906 
2843.000000	64.984941 
2842.000000	64.993238 
2841.000000	64.999794 
2840.000000	65.003061 
2839.000000	65.001893 
2838.000000	64.996695 
2837.000000	64.988684 
2836.000000	64.980363 
2835.000000	64.974451 
2834.000000	64.973807 
2833.000000	64.980530 
2832.000000	64.995551 
2831.000000	65.018367 
2830.000000	65.046834 
2829.000000	65.077686 
2828.000000	65.106582 
2827.000000	65.129065 
2826.000000	65.141296 
2825.000000	65.140867 
2824.000000	65.127134 
2823.000000	65.101361 
2822.000000	65.066766 
2821.000000	65.027952 
2820.000000	64.989948 
2819.000000	64.957451 
2818.000000	64.934039 
2817.000000	64.921593 
2816.000000	64.920425 
2815.000000	64.929103 
2814.000000	64.945244 
2813.000000	64.965724 
2812.000000	64.987468 
2811.000000	65.007758 
2810.000000	65.024328 
2809.000000	65.035724 
2808.000000	65.040969 
2807.000000	65.039992 
2806.000000	65.033221 
2805.000000	65.021991 
2804.000000	65.008187 
2803.000000	64.994454 
2802.000000	64.983701 
2801.000000	64.978647 
2800.000000	64.981293 
2799.000000	64.992475 
2798.000000	65.011763 
2797.000000	65.037560 
2796.000000	65.067434 
2795.000000	65.098667 
2794.000000	65.128493 
2793.000000	65.154504 
2792.000000	65.174794 
2791.000000	65.188097 
2790.000000	65.193700 
2789.000000	65.191268 
2788.000000	65.180897 
2787.000000	65.163445 
2786.000000	65.140366 
2785.000000	65.113639 
2784.000000	65.085792 
2783.000000	65.059733 
2782.000000	65.038156 
2781.000000	65.023326 
2780.000000	65.016460 
2779.000000	65.017724 
2778.000000	65.026211 
2777.000000	65.040278 
2776.000000	65.057897 
2775.000000	65.077114 
2774.000000	65.096211 
2773.000000	65.114045 
2772.000000	65.129780 
2771.000000	65.142989 
2770.000000	65.153431 
2769.000000	65.161013 
2768.000000	65.165805 
2767.000000	65.167880 
2766.000000	65.167617 
2765.000000	65.165519 
2764.000000	65.162158 
2763.000000	65.158128 
2762.000000	65.154075 
2761.000000	65.150475 
2760.000000	65.147662 
2759.000000	65.145754 
2758.000000	65.144753 
2757.000000	65.144729 
2756.000000	65.145993 
2755.000000	65.148901 
2754.000000	65.153717 
2753.000000	65.160655 
2752.000000	65.169692 
2751.000000	65.180397 
2750.000000	65.191864 
2749.000000	65.202927 
2748.000000	65.212273 
2747.000000	65.218734 
2746.000000	65.221500 
2745.000000	65.220165 
2744.000000	65.214705 
2743.000000	65.205407 
2742.000000	65.192842 
2741.000000	65.177440 
2740.000000	65.159559 
2739.000000	65.139460 
2738.000000	65.117526 
2737.000000	65.094351 
2736.000000	65.070867 
2735.000000	65.048384 
2734.000000	65.028595 
2733.000000	65.013194 
2732.000000	65.003705 
2731.000000	65.001153 
2730.000000	65.005803 
2729.000000	65.017104 
2728.000000	65.033888 
2727.000000	65.054297 
2726.000000	65.076303 
2725.000000	65.097832 
2724.000000	65.117001 
2723.000000	65.132164 
2722.000000	65.141916 
2721.000000	65.145134 
2720.000000	65.140795 
2719.000000	65.128350 
2718.000000	65.107583 
2717.000000	65.079069 
2716.000000	65.044212 
2715.000000	65.005254 
2714.000000	64.965248 
2713.000000	64.927673 
2712.000000	64.896178 
2711.000000	64.873814 
2710.000000	64.862656 
2709.000000	64.863491 
2708.000000	64.875459 
2707.000000	64.896416 
2706.000000	64.923191 
2705.000000	64.952325 
2704.000000	64.980649 
2703.000000	65.005803 
2702.000000	65.026402 
2701.000000	65.041899 
2700.000000	65.052175 
2699.000000	65.057468 
2698.000000	65.057921 
2697.000000	65.053558 
2696.000000	65.044546 
2695.000000	65.031337 
2694.000000	65.015029 
2693.000000	64.997386 
2692.000000	64.980530 
2691.000000	64.966750 
2690.000000	64.958024 
2689.000000	64.955377 
2688.000000	64.958810 
2687.000000	64.967179 
2686.000000	64.978528 
2685.000000	64.990663 
2684.000000	65.001606 
2683.000000	65.010190 
2682.000000	65.016150 
2681.000000	65.019845 
2680.000000	65.022015 
2679.000000	65.023446 
2678.000000	65.024566 
2677.000000	65.025329 
2676.000000	65.025138 
2675.000000	65.023422 
2674.000000	65.019536 
2673.000000	65.013217 
2672.000000	65.004658 
2671.000000	64.994502 
2670.000000	64.983916 
2669.000000	64.974284 
2668.000000	64.967107 
2667.000000	64.963555 
2666.000000	64.964294 
2665.000000	64.969134 
2664.000000	64.977049 
2663.000000	64.986371 
2662.000000	64.995002 
2661.000000	65.000796 
2660.000000	65.002059 
2659.000000	64.997863 
2658.000000	64.988398 
2657.000000	64.974784 
2656.000000	64.958953 
2655.000000	64.943099 
2654.000000	64.929437 
2653.000000	64.919543 
2652.000000	64.914178 
2651.000000	64.913153 
2650.000000	64.915633 
2649.000000	64.920449 
2648.000000	64.926457 
2647.000000	64.932918 
2646.000000	64.939641 
2645.000000	64.946937 
2644.000000	64.955282 
2643.000000	64.965152 
2642.000000	64.976525 
2641.000000	64.989042 
2640.000000	65.001821 
2639.000000	65.013718 
2638.000000	65.023636 
2637.000000	65.030694 
2636.000000	65.034794 
2635.000000	65.036034 
2634.000000	65.034818 
2633.000000	65.031576 
2632.000000	65.026640 
2631.000000	65.020132 
2630.000000	65.011954 
2629.000000	65.002155 
2628.000000	64.991021 
2627.000000	64.979267 
2626.000000	64.967870 
2625.000000	64.958000 
2624.000000	64.950537 
2623.000000	64.946031 
2622.000000	64.944195 
2621.000000	64.943909 
2620.000000	64.943599 
2619.000000	64.941453 
2618.000000	64.936184 
2617.000000	64.927053 
2616.000000	64.914703 
2615.000000	64.900612 
2614.000000	64.887213 
2613.000000	64.877104 
2612.000000	64.872717 
2611.000000	64.875793 
2610.000000	64.887118 
2609.000000	64.906239 
2608.000000	64.931702 
2607.000000	64.961504 
2606.000000	64.993166 
2605.000000	65.024185 
2604.000000	65.052199 
2603.000000	65.075016 
2602.000000	65.090894 
2601.000000	65.098404 
2600.000000	65.096735 
2599.000000	65.085554 
2598.000000	65.065431 
2597.000000	65.037965 
2596.000000	65.005540 
2595.000000	64.971137 
2594.000000	64.938378 
2593.000000	64.910697 
2592.000000	64.891052 
2591.000000	64.881300 
2590.000000	64.881896 
2589.000000	64.891982 
2588.000000	64.909362 
2587.000000	64.931035 
2586.000000	64.953517 
2585.000000	64.973807 
2584.000000	64.989638 
2583.000000	65.000009 
2582.000000	65.005040 
2581.000000	65.005850 
2580.000000	65.004062 
2579.000000	65.001296 
2578.000000	64.998817 
2577.000000	64.997339 
2576.000000	64.996790 
2575.000000	64.996719 
2574.000000	64.996576 
2573.000000	64.996123 
2572.000000	64.995718 
2571.000000	64.996170 
2570.000000	64.998698 
2569.000000	65.004634 
2568.000000	65.014839 
2567.000000	65.029430 
2566.000000	65.047502 
2565.000000	65.067267 
2564.000000	65.086197 
2563.000000	65.101695 
2562.000000	65.111589 
2561.000000	65.114402 
2560.000000	65.109944 
2559.000000	65.099072 
2558.000000	65.083622 
2557.000000	65.065836 
2556.000000	65.047979 
2555.000000	65.031862 
2554.000000	65.018439 
2553.000000	65.008115 
2552.000000	65.000414 
2551.000000	64.994597 
2550.000000	64.989876 
2549.000000	64.985775 
2548.000000	64.982175 
2547.000000	64.979338 
2546.000000	64.977550 
2545.000000	64.977002 
2544.000000	64.977622 
2543.000000	64.979076 
2542.000000	64.980840 
2541.000000	64.982414 
2540.000000	64.983367 
2539.000000	64.983773 
2538.000000	64.983820 
2537.000000	64.984035 
2536.000000	64.984846 
2535.000000	64.986515 
2534.000000	64.988994 
2533.000000	64.991831 
2532.000000	64.994263 
2531.000000	64.995312 
2530.000000	64.993977 
2529.000000	64.989542 
2528.000000	64.981627 
2527.000000	64.970278 
2526.000000	64.955902 
2525.000000	64.939379 
2524.000000	64.921879 
2523.000000	64.904689 
2522.000000	64.889168 
2521.000000	64.876699 
2520.000000	64.868354 
2519.000000	64.864969 
2518.000000	64.866924 
2517.000000	64.874053 
2516.000000	64.885735 
2515.000000	64.900755 
2514.000000	64.917778 
2513.000000	64.935135 
2512.000000	64.951443 
2511.000000	64.965629 
2510.000000	64.976906 
2509.000000	64.985132 
2508.000000	64.990472 
2507.000000	64.993429 
2506.000000	64.994430 
2505.000000	64.993977 
2504.000000	64.992284 
2503.000000	64.989423 
2502.000000	64.985275 
2501.000000	64.979767 
2500.000000	64.972782 
2499.000000	64.964389 
2498.000000	64.954710 
2497.000000	64.944076 
2496.000000	64.933013 
2495.000000	64.922285 
2494.000000	64.912724 
2493.000000	64.905095 
2492.000000	64.899897 
2491.000000	64.897227 
2490.000000	64.896869 
2489.000000	64.898180 
2488.000000	64.900255 
2487.000000	64.902234 
2486.000000	64.903354 
2485.000000	64.903163 
2484.000000	64.901661 
2483.000000	64.899420 
2482.000000	64.897108 
2481.000000	64.895915 
2480.000000	64.896750 
2479.000000	64.900517 
2478.000000	64.907622 
2477.000000	64.918041 
2476.000000	64.931178 
2475.000000	64.945816 
2474.000000	64.960503 
2473.000000	64.973473 
2472.000000	64.983034 
2471.000000	64.987969 
2470.000000	64.987516 
2469.000000	64.981746 
2468.000000	64.971423 
2467.000000	64.957904 
2466.000000	64.942741 
2465.000000	64.927458 
2464.000000	64.913058 
2463.000000	64.899969 
2462.000000	64.888095 
2461.000000	64.876961 
2460.000000	64.866137 
2459.000000	64.855432 
2458.000000	64.845633 
2457.000000	64.838123 
2456.000000	64.834952 
2455.000000	64.838147 
2454.000000	64.849185 
2453.000000	64.868426 
2452.000000	64.894819 
2451.000000	64.925837 
2450.000000	64.958167 
2449.000000	64.988374 
2448.000000	65.013623 
2447.000000	65.032339 
2446.000000	65.044093 
2445.000000	65.049552 
2444.000000	65.050172 
2443.000000	65.047502 
2442.000000	65.042686 
2441.000000	65.036249 
2440.000000	65.028285 
2439.000000	65.018558 
2438.000000	65.007042 
2437.000000	64.994263 
2436.000000	64.981341 
2435.000000	64.969754 
2434.000000	64.960765 
2433.000000	64.955353 
2432.000000	64.953613 
2431.000000	64.954924 
2430.000000	64.957952 
2429.000000	64.961051 
2428.000000	64.962887 
2427.000000	64.962458 
2426.000000	64.959311 
2425.000000	64.953589 
2424.000000	64.945816 
2423.000000	64.937019 
2422.000000	64.928364 
2421.000000	64.921474 
2420.000000	64.917778 
2419.000000	64.918637 
2418.000000	64.925098 
2417.000000	64.937448 
2416.000000	64.955043 
2415.000000	64.976215 
2414.000000	64.998626 
2413.000000	65.019369 
2412.000000	65.035700 
2411.000000	65.045642 
2410.000000	65.048480 
2409.000000	65.044927 
2408.000000	65.036749 
2407.000000	65.026187 
2406.000000	65.015530 
2405.000000	65.006303 
2404.000000	64.999103 
2403.000000	64.993834 
2402.000000	64.989900 
2401.000000	64.986824 
2400.000000	64.984369 
2399.000000	64.982843 
2398.000000	64.982843 
2397.000000	64.985084 
2396.000000	64.989852 
2395.000000	64.996910 
2394.000000	65.005350 
2393.000000	65.013647 
2392.000000	65.019989 
2391.000000	65.022587 
2390.000000	65.020203 
2389.000000	65.012288 
2388.000000	64.999079 
2387.000000	64.981484 
2386.000000	64.960765 
2385.000000	64.938521 
2384.000000	64.916443 
2383.000000	64.896202 
2382.000000	64.879322 
2381.000000	64.867162 
2380.000000	64.860677 
2379.000000	64.860343 
2378.000000	64.865851 
2377.000000	64.876174 
2376.000000	64.889645 
2375.000000	64.904260 
2374.000000	64.917802 
2373.000000	64.928174 
2372.000000	64.933872 
2371.000000	64.934253 
2370.000000	64.929437 
2369.000000	64.920759 
2368.000000	64.910054 
2367.000000	64.899849 
2366.000000	64.892506 
2365.000000	64.889979 
2364.000000	64.893293 
2363.000000	64.902496 
2362.000000	64.916706 
2361.000000	64.934182 
2360.000000	64.952874 
2359.000000	64.970564 
2358.000000	64.985561 
2357.000000	64.996743 
2356.000000	65.003705 
2355.000000	65.006804 
2354.000000	65.006732 
2353.000000	65.004253 
2352.000000	64.999938 
2351.000000	64.994335 
2350.000000	64.987754 
2349.000000	64.980554 
2348.000000	64.972853 
2347.000000	64.965152 
2346.000000	64.957833 
2345.000000	64.951372 
2344.000000	64.945936 
2343.000000	64.941406 
2342.000000	64.937567 
2341.000000	64.934444 
2340.000000	64.932179 
2339.000000	64.931297 
2338.000000	64.932608 
2337.000000	64.937067 
2336.000000	64.945268 
2335.000000	64.957237 
2334.000000	64.972066 
2333.000000	64.987874 
2332.000000	65.002107 
2331.000000	65.012073 
2330.000000	65.015649 
2329.000000	65.012025 
2328.000000	65.001749 
2327.000000	64.986848 
2326.000000	64.970254 
2325.000000	64.955306 
2324.000000	64.944815 
2323.000000	64.940571 
2322.000000	64.943051 
2321.000000	64.951348 
2320.000000	64.963507 
2319.000000	64.976906 
2318.000000	64.988684 
2317.000000	64.996266 
2316.000000	64.997720 
2315.000000	64.992165 
2314.000000	64.979720 
2313.000000	64.961671 
2312.000000	64.940071 
2311.000000	64.917707 
2310.000000	64.897418 
2309.000000	64.881658 
2308.000000	64.872074 
2307.000000	64.869022 
2306.000000	64.871692 
2305.000000	64.877915 
2304.000000	64.884924 
2303.000000	64.889955 
2302.000000	64.891147 
2301.000000	64.887738 
2300.000000	64.880394 
2299.000000	64.870905 
2298.000000	64.861798 
2297.000000	64.855456 
2296.000000	64.853572 
2295.000000	64.856791 
2294.000000	64.864683 
2293.000000	64.875817 
2292.000000	64.888453 
2291.000000	64.900779 
2290.000000	64.911556 
2289.000000	64.920353 
2288.000000	64.927363 
2287.000000	64.933300 
2286.000000	64.938807 
2285.000000	64.944219 
2284.000000	64.949154 
2283.000000	64.952516 
2282.000000	64.952778 
2281.000000	64.948439 
2280.000000	64.938211 
2279.000000	64.921808 
2278.000000	64.899826 
2277.000000	64.874100 
2276.000000	64.847087 
2275.000000	64.821648 
2274.000000	64.800381 
2273.000000	64.785146 
2272.000000	64.776682 
2271.000000	64.774775 
2270.000000	64.777898 
2269.000000	64.784193 
2268.000000	64.791655 
2267.000000	64.798831 
2266.000000	64.804863 
2265.000000	64.809751 
2264.000000	64.814019 
2263.000000	64.818620 
2262.000000	64.824318 
2261.000000	64.831709 
2260.000000	64.840865 
2259.000000	64.851427 
2258.000000	64.862632 
2257.000000	64.873695 
2256.000000	64.883875 
2255.000000	64.892625 
2254.000000	64.899730 
2253.000000	64.905309 
2252.000000	64.909648 
2251.000000	64.913129 
2250.000000	64.916181 
2249.000000	64.918923 
2248.000000	64.921116 
2247.000000	64.922356 
2246.000000	64.921927 
2245.000000	64.919066 
2244.000000	64.912962 
2243.000000	64.903283 
2242.000000	64.890456 
2241.000000	64.875626 
2240.000000	64.860749 
2239.000000	64.848423 
2238.000000	64.841127 
2237.000000	64.840936 
2236.000000	64.848661 
2235.000000	64.863562 
2234.000000	64.883422 
2233.000000	64.904785 
2232.000000	64.923858 
2231.000000	64.937186 
2230.000000	64.942765 
2229.000000	64.940214 
2228.000000	64.931201 
2227.000000	64.918708 
2226.000000	64.906597 
2225.000000	64.898300 
2224.000000	64.896154 
2223.000000	64.900588 
2222.000000	64.910149 
2221.000000	64.921903 
2220.000000	64.932107 
2219.000000	64.937305 
2218.000000	64.935183 
2217.000000	64.925241 
2216.000000	64.908790 
2215.000000	64.888763 
2214.000000	64.868807 
2213.000000	64.852929 
2212.000000	64.844012 
2211.000000	64.843893 
2210.000000	64.852643 
2209.000000	64.869189 
2208.000000	64.891290 
2207.000000	64.916300 
2206.000000	64.941620 
2205.000000	64.965081 
2204.000000	64.985179 
2203.000000	65.001153 
2202.000000	65.012788 
2201.000000	65.020298 
2200.000000	65.024018 
2199.000000	65.024447 
2198.000000	65.021967 
2197.000000	65.016984 
2196.000000	65.009856 
2195.000000	65.000700 
2194.000000	64.989614 
2193.000000	64.976835 
2192.000000	64.962720 
2191.000000	64.947938 
2190.000000	64.933586 
2189.000000	64.920997 
2188.000000	64.911484 
2187.000000	64.906239 
2186.000000	64.905810 
2185.000000	64.909958 
2184.000000	64.917588 
2183.000000	64.926862 
2182.000000	64.935779 
2181.000000	64.942288 
2180.000000	64.944911 
2179.000000	64.942955 
2178.000000	64.936685 
2177.000000	64.926934 
2176.000000	64.915013 
2175.000000	64.902234 
2174.000000	64.889526 
2173.000000	64.877390 
2172.000000	64.865779 
2171.000000	64.854335 
2170.000000	64.842605 
2169.000000	64.830350 
2168.000000	64.817476 
2167.000000	64.804363 
2166.000000	64.791631 
2165.000000	64.780044 
2164.000000	64.770245 
2163.000000	64.762783 
2162.000000	64.757871 
2161.000000	64.755535 
2160.000000	64.755439 
2159.000000	64.757037 
2158.000000	64.759564 
2157.000000	64.762091 
2156.000000	64.763736 
2155.000000	64.763665 
2154.000000	64.761137 
2153.000000	64.755892 
2152.000000	64.748120 
2151.000000	64.738512 
2150.000000	64.728307 
2149.000000	64.719104 
2148.000000	64.712524 
2147.000000	64.709949 
2146.000000	64.712166 
2145.000000	64.719033 
2144.000000	64.729547 
2143.000000	64.741969 
2142.000000	64.754462 
2141.000000	64.765429 
2140.000000	64.774084 
2139.000000	64.780569 
2138.000000	64.785885 
2137.000000	64.791274 
2136.000000	64.797711 
2135.000000	64.805650 
2134.000000	64.814352 
2133.000000	64.822077 
2132.000000	64.826512 
2131.000000	64.825367 
2130.000000	64.817237 
2129.000000	64.801955 
2128.000000	64.780974 
2127.000000	64.757299 
2126.000000	64.734792 
2125.000000	64.717459 
2124.000000	64.708518 
2123.000000	64.709782 
2122.000000	64.721226 
2121.000000	64.741110 
2120.000000	64.766287 
2119.000000	64.792847 
2118.000000	64.816665 
2117.000000	64.834284 
2116.000000	64.843249 
2115.000000	64.842700 
2114.000000	64.833498 
2113.000000	64.818096 
2112.000000	64.799904 
2111.000000	64.782524 
2110.000000	64.769101 
2109.000000	64.761710 
2108.000000	64.760994 
2107.000000	64.766120 
2106.000000	64.775538 
2105.000000	64.787316 
2104.000000	64.799690 
2103.000000	64.811658 
2102.000000	64.822959 
2101.000000	64.833903 
2100.000000	64.845061 
2099.000000	64.856767 
2098.000000	64.868783 
2097.000000	64.880347 
2096.000000	64.890193 
2095.000000	64.897251 
2094.000000	64.900898 
2093.000000	64.901232 
2092.000000	64.898967 
2091.000000	64.894962 
2090.000000	64.889836 
2089.000000	64.883399 
2088.000000	64.874958 
2087.000000	64.863896 
2086.000000	64.849877 
2085.000000	64.833521 
2084.000000	64.816474 
2083.000000	64.801001 
2082.000000	64.789605 
2081.000000	64.784073 
2080.000000	64.785218 
2079.000000	64.792513 
2078.000000	64.804458 
2077.000000	64.818811 
2076.000000	64.833283 
2075.000000	64.845943 
2074.000000	64.855623 
2073.000000	64.861917 
2072.000000	64.864850 
2071.000000	64.864778 
2070.000000	64.861893 
2069.000000	64.855957 
2068.000000	64.846444 
2067.000000	64.832997 
2066.000000	64.815664 
2065.000000	64.795279 
2064.000000	64.773511 
2063.000000	64.752793 
2062.000000	64.736008 
2061.000000	64.725780 
2060.000000	64.723944 
2059.000000	64.731097 
2058.000000	64.746618 
2057.000000	64.768385 
2056.000000	64.793205 
2055.000000	64.817142 
2054.000000	64.836549 
2053.000000	64.848613 
2052.000000	64.851617 
2051.000000	64.845490 
2050.000000	64.831614 
2049.000000	64.812660 
2048.000000	64.791822 
2047.000000	64.772391 
2046.000000	64.756965 
2045.000000	64.746952 
2044.000000	64.742779 
2043.000000	64.743518 
2042.000000	64.747476 
2041.000000	64.752745 
2040.000000	64.757657 
2039.000000	64.761257 
2038.000000	64.763283 
2037.000000	64.764237 
2036.000000	64.765000 
2035.000000	64.766573 
2034.000000	64.769768 
2033.000000	64.775013 
2032.000000	64.782404 
2031.000000	64.791679 
2030.000000	64.802432 
2029.000000	64.814233 
2028.000000	64.826464 
2027.000000	64.838600 
2026.000000	64.849805 
2025.000000	64.859318 
2024.000000	64.866185 
2023.000000	64.869451 
2022.000000	64.868354 
2021.000000	64.862656 
2020.000000	64.852714 
2019.000000	64.839506 
2018.000000	64.824461 
2017.000000	64.809155 
2016.000000	64.795088 
2015.000000	64.783501 
2014.000000	64.775013 
2013.000000	64.769625 
2012.000000	64.767003 
2011.000000	64.766502 
2010.000000	64.767479 
2009.000000	64.769434 
2008.000000	64.771842 
2007.000000	64.774370 
2006.000000	64.776682 
2005.000000	64.778447 
2004.000000	64.779353 
2003.000000	64.778971 
2002.000000	64.776992 
2001.000000	64.773225 
2000.000000	64.767670 
1999.000000	64.760661 
1998.000000	64.752650 
1997.000000	64.744210 
1996.000000	64.735865 
1995.000000	64.728140 
1994.000000	64.721560 
1993.000000	64.716744 
1992.000000	64.714169 
1991.000000	64.714479 
1990.000000	64.718294 
1989.000000	64.726090 
1988.000000	64.737844 
1987.000000	64.752888 
1986.000000	64.769983 
1985.000000	64.787197 
1984.000000	64.802408 
1983.000000	64.813446 
1982.000000	64.818763 
1981.000000	64.817881 
1980.000000	64.811563 
1979.000000	64.801836 
1978.000000	64.791560 
1977.000000	64.783906 
1976.000000	64.781594 
1975.000000	64.786219 
1974.000000	64.797711 
1973.000000	64.814567 
1972.000000	64.833807 
1971.000000	64.851927 
1970.000000	64.865183 
1969.000000	64.870762 
1968.000000	64.866828 
1967.000000	64.853119 
1966.000000	64.830589 
1965.000000	64.801168 
1964.000000	64.767408 
1963.000000	64.732027 
1962.000000	64.697480 
1961.000000	64.666104 
1960.000000	64.639949 
1959.000000	64.620804 
1958.000000	64.609980 
1957.000000	64.608216 
1956.000000	64.615488 
1955.000000	64.630842 
1954.000000	64.652132 
1953.000000	64.676547 
1952.000000	64.700913 
1951.000000	64.722442 
1950.000000	64.739108 
1949.000000	64.750003 
1948.000000	64.755463 
1947.000000	64.756822 
1946.000000	64.756011 
1945.000000	64.754819 
1944.000000	64.754843 
1943.000000	64.756917 
1942.000000	64.761233 
1941.000000	64.767289 
1940.000000	64.774441 
1939.000000	64.781570 
1938.000000	64.787817 
1937.000000	64.792275 
1936.000000	64.794158 
1935.000000	64.792776 
1934.000000	64.787626 
1933.000000	64.778447 
1932.000000	64.765429 
1931.000000	64.749550 
1930.000000	64.732336 
1929.000000	64.715814 
1928.000000	64.701962 
1927.000000	64.692401 
1926.000000	64.688134 
1925.000000	64.689207 
1924.000000	64.694690 
1923.000000	64.703083 
1922.000000	64.712309 
1921.000000	64.720559 
1920.000000	64.726281 
1919.000000	64.728617 
1918.000000	64.727330 
1917.000000	64.722990 
1916.000000	64.716553 
1915.000000	64.709019 
1914.000000	64.701247 
1913.000000	64.693856 
1912.000000	64.686965 
1911.000000	64.680337 
1910.000000	64.673566 
1909.000000	64.666223 
1908.000000	64.658021 
1907.000000	64.648938 
1906.000000	64.639234 
1905.000000	64.629411 
1904.000000	64.620208 
1903.000000	64.612412 
1902.000000	64.606857 
1901.000000	64.604473 
1900.000000	64.605975 
1899.000000	64.611959 
1898.000000	64.622712 
1897.000000	64.638233 
1896.000000	64.658021 
1895.000000	64.681124 
1894.000000	64.706301 
1893.000000	64.731907 
1892.000000	64.756298 
1891.000000	64.777493 
1890.000000	64.793920 
1889.000000	64.803957 
1888.000000	64.806604 
1887.000000	64.801335 
1886.000000	64.788484 
1885.000000	64.769244 
1884.000000	64.745736 
1883.000000	64.720559 
1882.000000	64.696574 
1881.000000	64.676356 
1880.000000	64.661908 
1879.000000	64.654278 
1878.000000	64.653277 
1877.000000	64.657592 
1876.000000	64.665126 
1875.000000	64.673304 
1874.000000	64.679670 
1873.000000	64.682245 
1872.000000	64.680051 
1871.000000	64.673113 
1870.000000	64.662504 
1869.000000	64.649868 
1868.000000	64.637255 
1867.000000	64.626646 
1866.000000	64.619684 
1865.000000	64.617204 
1864.000000	64.619541 
1863.000000	64.626455 
1862.000000	64.637422 
1861.000000	64.651465 
1860.000000	64.667677 
1859.000000	64.685058 
1858.000000	64.702725 
1857.000000	64.719653 
1856.000000	64.735031 
1855.000000	64.747977 
1854.000000	64.757776 
1853.000000	64.764022 
1852.000000	64.766526 
1851.000000	64.765429 
1850.000000	64.761209 
1849.000000	64.754581 
1848.000000	64.746212 
1847.000000	64.736700 
1846.000000	64.726519 
1845.000000	64.716100 
1844.000000	64.705920 
1843.000000	64.696478 
1842.000000	64.688444 
1841.000000	64.682459 
1840.000000	64.678883 
1839.000000	64.677715 
1838.000000	64.678406 
1837.000000	64.680027 
1836.000000	64.681386 
1835.000000	64.681434 
1834.000000	64.679479 
1833.000000	64.675307 
1832.000000	64.669132 
1831.000000	64.661717 
1830.000000	64.653801 
1829.000000	64.646172 
1828.000000	64.639258 
1827.000000	64.633202 
1826.000000	64.627957 
1825.000000	64.623594 
1824.000000	64.620208 
1823.000000	64.617943 
1822.000000	64.617133 
1821.000000	64.617753 
1820.000000	64.619517 
1819.000000	64.621400 
1818.000000	64.622187 
1817.000000	64.620375 
1816.000000	64.614987 
1815.000000	64.605593 
1814.000000	64.592885 
1813.000000	64.578437 
1812.000000	64.564490 
1811.000000	64.553308 
1810.000000	64.546871 
1809.000000	64.546132 
1808.000000	64.551138 
1807.000000	64.560794 
1806.000000	64.573431 
1805.000000	64.587306 
1804.000000	64.600944 
1803.000000	64.613556 
1802.000000	64.625167 
1801.000000	64.636397 
1800.000000	64.648222 
1799.000000	64.661359 
1798.000000	64.675951 
1797.000000	64.691448 
1796.000000	64.706659 
1795.000000	64.720129 
1794.000000	64.730405 
1793.000000	64.736390 
1792.000000	64.737606 
1791.000000	64.734244 
1790.000000	64.727115 
1789.000000	64.717245 
1788.000000	64.705634 
1787.000000	64.692997 
1786.000000	64.679598 
1785.000000	64.665365 
1784.000000	64.649939 
1783.000000	64.633202 
1782.000000	64.615249 
1781.000000	64.596629 
1780.000000	64.578270 
1779.000000	64.561247 
1778.000000	64.546704 
1777.000000	64.535498 
1776.000000	64.527916 
1775.000000	64.523887 
1774.000000	64.522910 
1773.000000	64.524340 
1772.000000	64.527416 
1771.000000	64.531755 
1770.000000	64.537334 
1769.000000	64.544320 
1768.000000	64.552783 
1767.000000	64.562439 
1766.000000	64.572596 
1765.000000	64.582037 
1764.000000	64.589142 
1763.000000	64.592456 
1762.000000	64.591097 
1761.000000	64.585065 
1760.000000	64.575171 
1759.000000	64.563059 
1758.000000	64.550566 
1757.000000	64.539599 
1756.000000	64.531111 
1755.000000	64.525341 
1754.000000	64.521384 
1753.000000	64.517855 
1752.000000	64.513158 
1751.000000	64.505982 
1750.000000	64.495682 
1749.000000	64.482545 
1748.000000	64.467597 
1747.000000	64.452219 
1746.000000	64.437699 
1745.000000	64.425110 
1744.000000	64.414906 
1743.000000	64.406871 
1742.000000	64.400410 
1741.000000	64.394664 
1740.000000	64.388799 
1739.000000	64.382052 
1738.000000	64.374017 
1737.000000	64.364528 
1736.000000	64.353799 
1735.000000	64.342308 
1734.000000	64.330840 
1733.000000	64.320445 
1732.000000	64.312028 
1731.000000	64.306497 
1730.000000	64.304518 
1729.000000	64.306402 
1728.000000	64.312028 
1727.000000	64.320826 
1726.000000	64.332032 
1725.000000	64.344763 
1724.000000	64.358210 
1723.000000	64.371562 
1722.000000	64.384317 
1721.000000	64.396095 
1720.000000	64.406394 
1719.000000	64.414668 
1718.000000	64.420413 
1717.000000	64.423298 
1716.000000	64.423298 
1715.000000	64.420962 
1714.000000	64.417195 
1713.000000	64.413428 
1712.000000	64.411044 
1711.000000	64.411234 
1710.000000	64.414739 
1709.000000	64.421606 
1708.000000	64.431500 
1707.000000	64.443755 
1706.000000	64.457798 
1705.000000	64.473128 
1704.000000	64.489555 
1703.000000	64.507222 
1702.000000	64.526104 
1701.000000	64.545822 
1700.000000	64.565753 
1699.000000	64.584708 
1698.000000	64.601492 
1697.000000	64.615201 
1696.000000	64.625310 
1695.000000	64.632225 
1694.000000	64.636754 
1693.000000	64.639925 
1692.000000	64.642381 
1691.000000	64.644026 
1690.000000	64.643955 
1689.000000	64.640688 
1688.000000	64.632558 
1687.000000	64.618396 
1686.000000	64.598178 
1685.000000	64.573383 
1684.000000	64.546823 
1683.000000	64.522218 
1682.000000	64.503431 
1681.000000	64.493632 
1680.000000	64.494371 
1679.000000	64.505672 
1678.000000	64.525866 
1677.000000	64.552235 
1676.000000	64.581608 
1675.000000	64.610910 
1674.000000	64.637804 
1673.000000	64.660763 
1672.000000	64.678931 
1671.000000	64.692068 
1670.000000	64.700198 
1669.000000	64.703392 
1668.000000	64.701628 
1667.000000	64.694738 
1666.000000	64.682579 
1665.000000	64.665031 
1664.000000	64.642333 
1663.000000	64.614939 
1662.000000	64.584112 
1661.000000	64.551377 
1660.000000	64.518690 
1659.000000	64.488220 
1658.000000	64.462184 
1657.000000	64.442586 
1656.000000	64.430809 
1655.000000	64.427471 
1654.000000	64.432406 
1653.000000	64.444208 
1652.000000	64.460730 
1651.000000	64.479136 
1650.000000	64.496660 
1649.000000	64.510798 
1648.000000	64.519715 
1647.000000	64.522838 
1646.000000	64.520621 
1645.000000	64.514589 
1644.000000	64.506864 
1643.000000	64.499759 
1642.000000	64.495134 
1641.000000	64.494228 
1640.000000	64.497041 
1639.000000	64.502501 
1638.000000	64.508652 
1637.000000	64.513301 
1636.000000	64.514279 
1635.000000	64.510083 
1634.000000	64.500093 
1633.000000	64.484786 
1632.000000	64.465570 
1631.000000	64.444160 
1630.000000	64.422535 
1629.000000	64.402246 
1628.000000	64.384174 
1627.000000	64.368557 
1626.000000	64.355039 
1625.000000	64.343142 
1624.000000	64.332294 
1623.000000	64.322423 
1622.000000	64.313864 
1621.000000	64.307498 
1620.000000	64.304494 
1619.000000	64.306163 
1618.000000	64.313292 
1617.000000	64.326286 
1616.000000	64.344739 
1615.000000	64.367723 
1614.000000	64.393639 
1613.000000	64.420533 
1612.000000	64.446353 
1611.000000	64.469265 
1610.000000	64.487695 
1609.000000	64.500427 
1608.000000	64.506435 
1607.000000	64.505267 
1606.000000	64.496946 
1605.000000	64.482188 
1604.000000	64.462399 
1603.000000	64.439725 
1602.000000	64.416837 
1601.000000	64.396381 
1600.000000	64.380621 
1599.000000	64.371085 
1598.000000	64.368247 
1597.000000	64.371490 
1596.000000	64.379215 
1595.000000	64.389491 
1594.000000	64.400458 
1593.000000	64.410328 
1592.000000	64.418029 
1591.000000	64.422917 
1590.000000	64.425039 
1589.000000	64.424777 
1588.000000	64.422750 
1587.000000	64.419460 
1586.000000	64.415168 
1585.000000	64.410257 
1584.000000	64.404940 
1583.000000	64.399600 
1582.000000	64.394927 
1581.000000	64.392018 
1580.000000	64.392113 
1579.000000	64.396429 
1578.000000	64.405560 
1577.000000	64.419341 
1576.000000	64.436626 
1575.000000	64.455580 
1574.000000	64.474129 
1573.000000	64.490485 
1572.000000	64.503645 
1571.000000	64.513540 
1570.000000	64.521098 
1569.000000	64.527463 
1568.000000	64.534115 
1567.000000	64.541840 
1566.000000	64.550709 
1565.000000	64.559745 
1564.000000	64.567542 
1563.000000	64.572095 
1562.000000	64.571690 
1561.000000	64.565038 
1560.000000	64.551782 
1559.000000	64.532446 
1558.000000	64.508605 
1557.000000	64.482593 
1556.000000	64.456868 
1555.000000	64.434075 
1554.000000	64.416360 
1553.000000	64.405250 
1552.000000	64.401340 
1551.000000	64.404177 
1550.000000	64.412307 
1549.000000	64.423418 
1548.000000	64.434719 
1547.000000	64.443016 
1546.000000	64.445710 
1545.000000	64.440822 
1544.000000	64.427781 
1543.000000	64.407634 
1542.000000	64.383029 
1541.000000	64.357638 
1540.000000	64.335274 
1539.000000	64.319086 
1538.000000	64.310789 
1537.000000	64.310240 
1536.000000	64.315485 
1535.000000	64.323353 
1534.000000	64.330172 
1533.000000	64.332962 
1532.000000	64.329767 
1531.000000	64.320254 
1530.000000	64.305543 
1529.000000	64.287877 
1528.000000	64.270257 
1527.000000	64.255642 
1526.000000	64.246726 
1525.000000	64.245176 
1524.000000	64.251589 
1523.000000	64.265441 
1522.000000	64.285349 
1521.000000	64.309573 
1520.000000	64.335823 
1519.000000	64.361906 
1518.000000	64.386034 
1517.000000	64.406800 
1516.000000	64.423370 
1515.000000	64.435315 
1514.000000	64.442729 
1513.000000	64.445996 
1512.000000	64.445638 
1511.000000	64.442324 
1510.000000	64.436888 
1509.000000	64.430284 
1508.000000	64.423656 
1507.000000	64.417982 
1506.000000	64.414310 
1505.000000	64.412784 
1504.000000	64.413070 
1503.000000	64.413833 
1502.000000	64.413189 
1501.000000	64.409279 
1500.000000	64.400696 
1499.000000	64.387321 
1498.000000	64.370512 
1497.000000	64.353203 
1496.000000	64.339399 
1495.000000	64.333367 
1494.000000	64.338397 
1493.000000	64.356040 
1492.000000	64.385557 
1491.000000	64.423704 
1490.000000	64.465451 
1489.000000	64.505434 
1488.000000	64.538884 
1487.000000	64.562559 
1486.000000	64.574980 
1485.000000	64.576506 
1484.000000	64.568877 
1483.000000	64.554214 
1482.000000	64.534902 
1481.000000	64.513087 
1480.000000	64.490675 
1479.000000	64.469432 
1478.000000	64.450597 
1477.000000	64.435100 
1476.000000	64.423155 
1475.000000	64.414477 
1474.000000	64.408373 
1473.000000	64.403653 
1472.000000	64.399051 
1471.000000	64.393472 
1470.000000	64.386081 
1469.000000	64.376425 
1468.000000	64.364314 
1467.000000	64.349937 
1466.000000	64.333724 
1465.000000	64.316368 
1464.000000	64.298534 
1463.000000	64.281129 
1462.000000	64.264965 
1461.000000	64.251065 
1460.000000	64.240241 
1459.000000	64.233279 
1458.000000	64.230608 
1457.000000	64.232325 
1456.000000	64.237689 
1455.000000	64.245843 
1454.000000	64.255404 
1453.000000	64.265251 
1452.000000	64.274311 
1451.000000	64.282202 
1450.000000	64.288878 
1449.000000	64.294981 
1448.000000	64.301395 
1447.000000	64.309191 
1446.000000	64.318990 
1445.000000	64.331102 
1444.000000	64.345216 
1443.000000	64.360594 
1442.000000	64.376163 
1441.000000	64.390683 
1440.000000	64.402985 
1439.000000	64.412117 
1438.000000	64.417457 
1437.000000	64.418768 
1436.000000	64.416193 
1435.000000	64.410305 
1434.000000	64.402008 
1433.000000	64.392709 
1432.000000	64.383912 
1431.000000	64.377093 
1430.000000	64.373278 
1429.000000	64.373016 
1428.000000	64.376115 
1427.000000	64.381599 
1426.000000	64.387822 
1425.000000	64.392828 
1424.000000	64.394879 
1423.000000	64.392876 
1422.000000	64.386534 
1421.000000	64.376544 
1420.000000	64.364290 
1419.000000	64.351511 
1418.000000	64.339756 
1417.000000	64.330053 
1416.000000	64.322733 
1415.000000	64.317321 
1414.000000	64.312911 
1413.000000	64.308476 
1412.000000	64.303326 
1411.000000	64.297318 
1410.000000	64.290618 
1409.000000	64.283967 
1408.000000	64.278221 
1407.000000	64.273905 
1406.000000	64.271283 
1405.000000	64.270091 
1404.000000	64.269709 
1403.000000	64.269495 
1402.000000	64.269018 
1401.000000	64.268136 
1400.000000	64.266586 
1399.000000	64.264416 
1398.000000	64.261579 
1397.000000	64.257860 
1396.000000	64.252948 
1395.000000	64.246535 
1394.000000	64.238381 
1393.000000	64.228606 
1392.000000	64.217901 
1391.000000	64.207434 
1390.000000	64.198493 
1389.000000	64.192199 
1388.000000	64.189291 
1387.000000	64.189648 
1386.000000	64.192533 
1385.000000	64.196419 
1384.000000	64.199686 
1383.000000	64.200735 
1382.000000	64.198851 
1381.000000	64.194107 
1380.000000	64.187955 
1379.000000	64.182376 
1378.000000	64.180135 
1377.000000	64.183807 
1376.000000	64.195394 
1375.000000	64.215970 
1374.000000	64.244985 
1373.000000	64.280247 
1372.000000	64.317941 
1371.000000	64.353704 
1370.000000	64.382886 
1369.000000	64.401364 
1368.000000	64.406347 
1367.000000	64.397144 
1366.000000	64.375042 
1365.000000	64.343214 
1364.000000	64.306116 
1363.000000	64.268636 
1362.000000	64.235067 
1361.000000	64.208459 
1360.000000	64.190006 
1359.000000	64.179229 
1358.000000	64.174151 
1357.000000	64.172053 
1356.000000	64.170169 
1355.000000	64.166426 
1354.000000	64.159750 
1353.000000	64.150619 
1352.000000	64.140009 
1351.000000	64.130067 
1350.000000	64.122939 
1349.000000	64.120984 
1348.000000	64.125823 
1347.000000	64.138674 
1346.000000	64.159798 
1345.000000	64.188599 
1344.000000	64.223623 
1343.000000	64.262795 
1342.000000	64.303469 
1341.000000	64.342641 
1340.000000	64.377379 
1339.000000	64.405107 
1338.000000	64.424180 
1337.000000	64.433956 
1336.000000	64.434814 
1335.000000	64.427995 
1334.000000	64.415240 
1333.000000	64.398622 
1332.000000	64.379811 
1331.000000	64.360094 
1330.000000	64.340019 
1329.000000	64.319777 
1328.000000	64.299416 
1327.000000	64.279055 
1326.000000	64.259123 
1325.000000	64.240407 
1324.000000	64.224219 
1323.000000	64.211940 
1322.000000	64.205002 
1321.000000	64.204072 
1320.000000	64.209270 
1319.000000	64.219903 
1318.000000	64.234495 
1317.000000	64.250969 
1316.000000	64.267110 
1315.000000	64.280915 
1314.000000	64.290976 
1313.000000	64.296317 
1312.000000	64.296746 
1311.000000	64.292716 
1310.000000	64.285087 
1309.000000	64.274692 
1308.000000	64.262509 
1307.000000	64.249348 
1306.000000	64.235830 
1305.000000	64.222431 
1304.000000	64.209318 
1303.000000	64.196515 
1302.000000	64.184117 
1301.000000	64.172244 
1300.000000	64.161205 
1299.000000	64.151358 
1298.000000	64.143300 
1297.000000	64.137530 
1296.000000	64.134407 
1295.000000	64.133882 
1294.000000	64.135527 
1293.000000	64.138531 
1292.000000	64.141631 
1291.000000	64.143705 
1290.000000	64.143729 
1289.000000	64.141225 
1288.000000	64.136338 
1287.000000	64.129900 
1286.000000	64.123058 
1285.000000	64.117217 
1284.000000	64.113616 
1283.000000	64.113092 
1282.000000	64.115810 
1281.000000	64.121603 
1280.000000	64.129686 
1279.000000	64.139175 
1278.000000	64.149260 
1277.000000	64.159274 
1276.000000	64.168739 
1275.000000	64.177489 
1274.000000	64.185643 
1273.000000	64.193224 
1272.000000	64.200520 
1271.000000	64.207720 
1270.000000	64.214944 
1269.000000	64.222383 
1268.000000	64.229822 
1267.000000	64.237046 
1266.000000	64.243340 
1265.000000	64.247703 
1264.000000	64.248919 
1263.000000	64.245867 
1262.000000	64.237976 
1261.000000	64.225506 
1260.000000	64.209866 
1259.000000	64.193296 
1258.000000	64.178776 
1257.000000	64.169239 
1256.000000	64.166831 
1255.000000	64.172506 
1254.000000	64.185690 
1253.000000	64.204478 
1252.000000	64.226102 
1251.000000	64.247393 
1250.000000	64.265394 
1249.000000	64.277887 
1248.000000	64.283800 
1247.000000	64.283227 
1246.000000	64.277172 
1245.000000	64.267301 
1244.000000	64.255547 
1243.000000	64.243578 
1242.000000	64.232826 
1241.000000	64.224028 
1240.000000	64.217567 
1239.000000	64.213037 
1238.000000	64.209938 
1237.000000	64.207363 
1236.000000	64.204382 
1235.000000	64.199972 
1234.000000	64.193296 
1233.000000	64.183783 
1232.000000	64.171361 
1231.000000	64.156460 
1230.000000	64.140057 
1229.000000	64.123654 
1228.000000	64.109063 
1227.000000	64.098215 
1226.000000	64.092731 
1225.000000	64.093708 
1224.000000	64.101386 
1223.000000	64.115333 
1222.000000	64.134287 
1221.000000	64.156389 
1220.000000	64.179277 
1219.000000	64.200663 
1218.000000	64.218449 
1217.000000	64.230942 
1216.000000	64.236664 
1215.000000	64.234948 
1214.000000	64.225649 
1213.000000	64.209294 
1212.000000	64.187121 
1211.000000	64.161014 
1210.000000	64.133453 
1209.000000	64.107394 
1208.000000	64.085960 
1207.000000	64.072012 
1206.000000	64.067792 
1205.000000	64.074349 
1204.000000	64.091348 
1203.000000	64.117002 
1202.000000	64.148163 
1201.000000	64.181017 
1200.000000	64.211368 
1199.000000	64.235568 
1198.000000	64.251136 
1197.000000	64.256882 
1196.000000	64.252972 
1195.000000	64.240598 
1194.000000	64.221763 
1193.000000	64.198589 
1192.000000	64.172959 
1191.000000	64.146399 
1190.000000	64.119887 
1189.000000	64.094114 
1188.000000	64.069795 
1187.000000	64.047908 
1186.000000	64.029526 
1185.000000	64.015769 
1184.000000	64.007830 
1183.000000	64.006400 
1182.000000	64.011287 
1181.000000	64.021515 
1180.000000	64.035201 
1179.000000	64.050054 
1178.000000	64.063835 
1177.000000	64.074635 
1176.000000	64.081382 
1175.000000	64.084100 
1174.000000	64.083743 
1173.000000	64.081978 
1172.000000	64.080762 
1171.000000	64.081811 
1170.000000	64.086198 
1169.000000	64.094233 
1168.000000	64.105296 
1167.000000	64.118194 
1166.000000	64.131164 
1165.000000	64.142465 
1164.000000	64.150428 
1163.000000	64.154052 
1162.000000	64.152789 
1161.000000	64.146351 
1160.000000	64.134788 
1159.000000	64.118528 
1158.000000	64.098024 
1157.000000	64.074182 
1156.000000	64.048075 
1155.000000	64.021420 
1154.000000	63.996338 
1153.000000	63.975167 
1152.000000	63.960146 
1151.000000	63.953256 
1150.000000	63.955664 
1149.000000	63.967275 
1148.000000	63.986682 
1147.000000	64.010977 
1146.000000	64.036130 
1145.000000	64.057612 
1144.000000	64.070987 
1143.000000	64.073157 
1142.000000	64.063286 
1141.000000	64.043068 
1140.000000	64.016747 
1139.000000	63.989925 
1138.000000	63.968658 
1137.000000	63.957595 
1136.000000	63.959074 
1135.000000	63.972616 
1134.000000	63.995242 
1133.000000	64.022111 
1132.000000	64.048004 
1131.000000	64.068317 
1130.000000	64.080166 
1129.000000	64.082980 
1128.000000	64.078211 
1127.000000	64.069247 
1126.000000	64.060235 
1125.000000	64.055371 
1124.000000	64.057850 
1123.000000	64.069032 
1122.000000	64.088225 
1121.000000	64.112806 
1120.000000	64.139151 
1119.000000	64.163303 
1118.000000	64.181852 
1117.000000	64.192986 
1116.000000	64.196228 
1115.000000	64.192652 
1114.000000	64.184117 
1113.000000	64.172697 
1112.000000	64.160299 
1111.000000	64.148497 
1110.000000	64.138245 
1109.000000	64.130258 
1108.000000	64.124655 
1107.000000	64.121174 
1106.000000	64.119267 
1105.000000	64.118123 
1104.000000	64.116907 
1103.000000	64.114880 
1102.000000	64.111638 
1101.000000	64.107012 
1100.000000	64.101266 
1099.000000	64.094829 
1098.000000	64.088392 
1097.000000	64.082431 
1096.000000	64.077639 
1095.000000	64.074659 
1094.000000	64.074254 
1093.000000	64.076972 
1092.000000	64.083218 
1091.000000	64.092874 
1090.000000	64.105224 
1089.000000	64.118885 
1088.000000	64.132046 
1087.000000	64.142751 
1086.000000	64.149188 
1085.000000	64.150261 
1084.000000	64.145731 
1083.000000	64.136338 
1082.000000	64.124035 
1081.000000	64.111018 
1080.000000	64.099502 
1079.000000	64.090967 
1078.000000	64.086198 
1077.000000	64.085054 
1076.000000	64.086556 
1075.000000	64.089441 
1074.000000	64.092350 
1073.000000	64.094328 
1072.000000	64.095187 
1071.000000	64.095139 
1070.000000	64.094781 
1069.000000	64.094614 
1068.000000	64.094948 
1067.000000	64.095497 
1066.000000	64.095592 
1065.000000	64.094233 
1064.000000	64.090633 
1063.000000	64.084291 
1062.000000	64.075303 
1061.000000	64.064264 
1060.000000	64.052462 
1059.000000	64.041280 
1058.000000	64.032769 
1057.000000	64.029026 
1056.000000	64.032220 
1055.000000	64.044141 
1054.000000	64.065432 
1053.000000	64.095401 
1052.000000	64.131307 
1051.000000	64.168858 
1050.000000	64.202642 
1049.000000	64.227128 
1048.000000	64.237856 
1047.000000	64.232540 
1046.000000	64.211320 
1045.000000	64.176797 
1044.000000	64.133596 
1043.000000	64.087319 
1042.000000	64.043450 
1041.000000	64.006376 
1040.000000	63.978862 
1039.000000	63.961863 
1038.000000	63.954782 
1037.000000	63.956093 
1036.000000	63.963747 
1035.000000	63.975739 
1034.000000	63.990426 
1033.000000	64.006471 
1032.000000	64.022660 
1031.000000	64.038109 
1030.000000	64.051628 
1029.000000	64.062309 
1028.000000	64.069485 
1027.000000	64.072799 
1026.000000	64.072442 
1025.000000	64.068746 
1024.000000	64.062547 
1023.000000	64.054751 
1022.000000	64.046287 
1021.000000	64.037966 
1020.000000	64.030265 
1019.000000	64.023661 
1018.000000	64.018797 
1017.000000	64.016389 
1016.000000	64.017081 
1015.000000	64.021062 
1014.000000	64.027857 
1013.000000	64.036130 
1012.000000	64.043927 
1011.000000	64.048838 
1010.000000	64.048552 
1009.000000	64.041805 
1008.000000	64.028763 
1007.000000	64.011073 
1006.000000	63.991665 
1005.000000	63.974308 
1004.000000	63.962793 
1003.000000	63.960123 
1002.000000	63.967823 
1001.000000	63.985681 
1000.000000	64.011430 
999.000000	 64.041519 
998.000000	 64.071393 
997.000000	 64.096641 
996.000000	 64.113569 
995.000000	 64.119863 
994.000000	 64.114975 
993.000000	 64.099979 
992.000000	 64.077281 
991.000000	 64.050006 
990.000000	 64.021539 
989.000000	 63.994979 
988.000000	 63.972568 
987.000000	 63.955616 
986.000000	 63.944506 
985.000000	 63.938975 
984.000000	 63.938498 
983.000000	 63.942408 
982.000000	 63.950085 
981.000000	 63.961100 
980.000000	 63.974928 
979.000000	 63.990879 
978.000000	 64.007759 
977.000000	 64.024209 
976.000000	 64.038872 
975.000000	 64.050483 
974.000000	 64.058256 
973.000000	 64.061737 
972.000000	 64.060997 
971.000000	 64.056563 
970.000000	 64.049124 
969.000000	 64.039635 
968.000000	 64.029216 
967.000000	 64.019060 
966.000000	 64.010500 
965.000000	 64.004731 
964.000000	 64.003014 
963.000000	 64.006161 
962.000000	 64.014434 
961.000000	 64.027428 
960.000000	 64.044022 
959.000000	 64.062833 
958.000000	 64.082288 
957.000000	 64.101123 
956.000000	 64.118576 
955.000000	 64.134740 
954.000000	 64.150023 
953.000000	 64.164853 
952.000000	 64.178681 
951.000000	 64.190411 
950.000000	 64.197897 
949.000000	 64.198660 
948.000000	 64.190340 
947.000000	 64.171767 
946.000000	 64.143419 
945.000000	 64.107775 
944.000000	 64.068794 
943.000000	 64.031314 
942.000000	 64.000105 
941.000000	 63.979005 
940.000000	 63.969969 
939.000000	 63.972496 
938.000000	 63.983988 
937.000000	 64.000487 
936.000000	 64.017558 
935.000000	 64.031052 
934.000000	 64.038372 
933.000000	 64.038705 
932.000000	 64.033150 
931.000000	 64.024138 
930.000000	 64.015221 
929.000000	 64.010071 
928.000000	 64.011883 
927.000000	 64.022803 
926.000000	 64.043688 
925.000000	 64.073991 
924.000000	 64.112186 
923.000000	 64.155745 
922.000000	 64.201951 
921.000000	 64.247632 
920.000000	 64.289736 
919.000000	 64.324975 
918.000000	 64.350247 
917.000000	 64.362430 
916.000000	 64.359211 
915.000000	 64.339137 
914.000000	 64.302229 
913.000000	 64.250230 
912.000000	 64.187312 
911.000000	 64.118695 
910.000000	 64.050292 
909.000000	 63.987803 
908.000000	 63.935899 
907.000000	 63.897466 
906.000000	 63.873267 
905.000000	 63.862156 
904.000000	 63.861632 
903.000000	 63.868904 
902.000000	 63.881421 
901.000000	 63.897395 
900.000000	 63.915801 
899.000000	 63.935947 
898.000000	 63.957309 
897.000000	 63.978624 
896.000000	 63.998126 
895.000000	 64.013290 
894.000000	 64.021658 
893.000000	 64.021348 
892.000000	 64.011621 
891.000000	 63.993573 
890.000000	 63.970112 
889.000000	 63.945293 
888.000000	 63.924050 
887.000000	 63.911104 
886.000000	 63.910126 
885.000000	 63.923120 
884.000000	 63.949465 
883.000000	 63.986229 
882.000000	 64.028549 
881.000000	 64.070630 
880.000000	 64.106702 
879.000000	 64.132213 
878.000000	 64.144754 
877.000000	 64.144515 
876.000000	 64.134001 
875.000000	 64.117407 
874.000000	 64.099693 
873.000000	 64.085316 
872.000000	 64.077591 
871.000000	 64.077806 
870.000000	 64.085173 
869.000000	 64.097166 
868.000000	 64.110422 
867.000000	 64.121460 
866.000000	 64.127612 
865.000000	 64.127731 
864.000000	 64.122223 
863.000000	 64.112925 
862.000000	 64.102339 
861.000000	 64.093303 
860.000000	 64.088058 
859.000000	 64.087796 
858.000000	 64.092493 
857.000000	 64.100575 
856.000000	 64.109754 
855.000000	 64.117026 
854.000000	 64.119863 
853.000000	 64.116692 
852.000000	 64.107251 
851.000000	 64.092493 
850.000000	 64.074158 
849.000000	 64.054298 
848.000000	 64.034819 
847.000000	 64.016723 
846.000000	 64.000225 
845.000000	 63.985013 
844.000000	 63.970708 
843.000000	 63.957524 
842.000000	 63.946390 
841.000000	 63.938856 
840.000000	 63.936781 
839.000000	 63.941693 
838.000000	 63.954186 
837.000000	 63.973236 
836.000000	 63.996267 
835.000000	 64.019536 
834.000000	 64.038968 
833.000000	 64.051032 
832.000000	 64.053630 
831.000000	 64.046502 
830.000000	 64.031171 
829.000000	 64.010453 
828.000000	 63.987588 
827.000000	 63.965749 
826.000000	 63.947033 
825.000000	 63.932490 
824.000000	 63.922262 
823.000000	 63.915824 
822.000000	 63.912415 
821.000000	 63.911533 
820.000000	 63.913011 
819.000000	 63.917255 
818.000000	 63.924670 
817.000000	 63.935828 
816.000000	 63.950753 
815.000000	 63.969349 
814.000000	 63.990926 
813.000000	 64.014768 
812.000000	 64.040064 
811.000000	 64.065980 
810.000000	 64.091682 
809.000000	 64.116215 
808.000000	 64.138603 
807.000000	 64.157795 
806.000000	 64.172720 
805.000000	 64.182543 
804.000000	 64.186763 
803.000000	 64.185333 
802.000000	 64.179110 
801.000000	 64.169573 
800.000000	 64.158654 
799.000000	 64.148592 
798.000000	 64.141678 
797.000000	 64.139842 
796.000000	 64.144420 
795.000000	 64.155840 
794.000000	 64.173579 
793.000000	 64.195990 
792.000000	 64.220809 
791.000000	 64.245486 
790.000000	 64.267873 
789.000000	 64.286160 
788.000000	 64.299535 
787.000000	 64.308428 
786.000000	 64.314174 
785.000000	 64.318728 
784.000000	 64.323806 
783.000000	 64.330959 
782.000000	 64.340281 
781.000000	 64.350843 
780.000000	 64.360022 
779.000000	 64.364480 
778.000000	 64.360547 
777.000000	 64.345312 
776.000000	 64.317369 
775.000000	 64.277482 
774.000000	 64.228343 
773.000000	 64.174604 
772.000000	 64.121508 
771.000000	 64.073920 
770.000000	 64.035248 
769.000000	 64.006543 
768.000000	 63.986611 
767.000000	 63.972377 
766.000000	 63.959670 
765.000000	 63.944315 
764.000000	 63.922977 
763.000000	 63.894200 
762.000000	 63.858199 
761.000000	 63.817238 
760.000000	 63.774299 
759.000000	 63.733220 
758.000000	 63.697409 
757.000000	 63.669800 
756.000000	 63.651871 
755.000000	 63.644480 
754.000000	 63.647317 
753.000000	 63.659811 
752.000000	 63.681149 
751.000000	 63.710451 
750.000000	 63.746738 
749.000000	 63.788509 
748.000000	 63.833522 
747.000000	 63.878655 
746.000000	 63.919997 
745.000000	 63.953471 
744.000000	 63.975524 
743.000000	 63.983345 
742.000000	 63.975334 
741.000000	 63.952207 
740.000000	 63.916873 
739.000000	 63.873910 
738.000000	 63.828992 
737.000000	 63.788437 
736.000000	 63.758611 
735.000000	 63.744902 
734.000000	 63.751101 
733.000000	 63.778877 
732.000000	 63.827061 
731.000000	 63.892531 
730.000000	 63.969492 
729.000000	 64.049577 
728.000000	 64.123845 
727.000000	 64.183974 
726.000000	 64.224386 
725.000000	 64.243340 
724.000000	 64.242959 
723.000000	 64.229393 
722.000000	 64.209270 
721.000000	 64.188623 
720.000000	 64.169049 
719.000000	 64.147949 
718.000000	 64.116978 
717.000000	 64.064836 
716.000000	 63.980007 
715.000000	 63.855075 
714.000000	 63.688874 
713.000000	 63.488531 
712.000000	 63.268256 
711.000000	 63.048195 
710.000000	 62.849831 
709.000000	 62.693595 
708.000000	 62.593746 
707.000000	 62.558126 
706.000000	 62.586641 
705.000000	 62.672924 
704.000000	 62.805485 
703.000000	 62.970137 
702.000000	 63.150835 
701.000000	 63.332009 
700.000000	 63.497900 
699.000000	 63.635492 
698.000000	 63.733506 
697.000000	 63.785982 
696.000000	 63.791441 
695.000000	 63.756299 
694.000000	 63.694214 
693.000000	 63.624095 
692.000000	 63.566780 
691.000000	 63.540554 
690.000000	 63.557529 
689.000000	 63.619875 
688.000000	 63.719487 
687.000000	 63.839673 
686.000000	 63.959312 
685.000000	 64.058041 
684.000000	 64.121150 
683.000000	 64.142203 
682.000000	 64.124321 
681.000000	 64.078283 
680.000000	 64.019918 
679.000000	 63.964653 
678.000000	 63.925099 
677.000000	 63.909530 
676.000000	 63.920402 
675.000000	 63.956618 
674.000000	 64.012646 
673.000000	 64.083123 
672.000000	 64.159870 
671.000000	 64.234256 
670.000000	 64.294910 
669.000000	 64.328908 
668.000000	 64.323282 
667.000000	 64.267373 
666.000000	 64.155793 
665.000000	 63.990831 
664.000000	 63.782954 
663.000000	 63.549947 
662.000000	 63.314175 
661.000000	 63.098931 
660.000000	 62.923431 
659.000000	 62.799715 
658.000000	 62.730836 
657.000000	 62.711501 
656.000000	 62.730169 
655.000000	 62.773108 
654.000000	 62.826490 
653.000000	 62.880682 
652.000000	 62.930727 
651.000000	 62.977600 
650.000000	 63.023781 
649.000000	 63.073945 
648.000000	 63.131117 
647.000000	 63.196897 
646.000000	 63.270092 
645.000000	 63.347601 
644.000000	 63.425159 
643.000000	 63.498544 
642.000000	 63.565063 
641.000000	 63.623857 
640.000000	 63.676142 
639.000000	 63.724493 
638.000000	 63.771796 
637.000000	 63.820576 
636.000000	 63.871979 
635.000000	 63.925790 
634.000000	 63.980436 
633.000000	 64.033126 
632.000000	 64.080500 
631.000000	 64.120531 
630.000000	 64.152264 
629.000000	 64.174771 
628.000000	 64.187026 
627.000000	 64.188766 
626.000000	 64.179754 
625.000000	 64.160037 
624.000000	 64.130091 
623.000000	 64.091062 
622.000000	 64.045190 
621.000000	 63.996529 
620.000000	 63.950061 
619.000000	 63.910913 
618.000000	 63.883805 
617.000000	 63.872790 
616.000000	 63.879036 
615.000000	 63.901019 
614.000000	 63.933086 
613.000000	 63.966751 
612.000000	 63.991451 
611.000000	 63.996672 
610.000000	 63.975071 
609.000000	 63.924598 
608.000000	 63.850212 
607.000000	 63.763380 
606.000000	 63.680648 
605.000000	 63.619971 
604.000000	 63.597369 
603.000000	 63.622260 
602.000000	 63.695669 
601.000000	 63.808631 
600.000000	 63.944220 
599.000000	 64.080142 
598.000000	 64.194226 
597.000000	 64.268064 
596.000000	 64.290738 
595.000000	 64.260363 
594.000000	 64.183425 
593.000000	 64.073109 
592.000000	 63.945770 
591.000000	 63.818120 
590.000000	 63.704586 
589.000000	 63.615202 
588.000000	 63.555908 
587.000000	 63.527750 
586.000000	 63.528394 
585.000000	 63.553309 
584.000000	 63.596916 
583.000000	 63.654351 
582.000000	 63.721442 
581.000000	 63.795304 
580.000000	 63.873362 
579.000000	 63.953542 
578.000000	 64.033293 
577.000000	 64.109182 
576.000000	 64.176654 
575.000000	 64.230513 
574.000000	 64.265561 
573.000000	 64.278173 
572.000000	 64.266848 
571.000000	 64.233446 
570.000000	 64.182424 
569.000000	 64.121007 
568.000000	 64.056921 
567.000000	 63.997626 
566.000000	 63.948202 
565.000000	 63.910698 
564.000000	 63.884520 
563.000000	 63.867378 
562.000000	 63.856816 
561.000000	 63.851451 
560.000000	 63.851666 
559.000000	 63.859009 
558.000000	 63.875699 
557.000000	 63.903331 
556.000000	 63.941240 
555.000000	 63.985657 
554.000000	 64.030122 
553.000000	 64.066672 
552.000000	 64.088129 
551.000000	 64.090085 
550.000000	 64.071917 
549.000000	 64.036917 
548.000000	 63.992094 
547.000000	 63.945865 
546.000000	 63.905620 
545.000000	 63.876247 
544.000000	 63.859891 
543.000000	 63.855648 
542.000000	 63.860869 
541.000000	 63.871836 
540.000000	 63.884949 
539.000000	 63.897633 
538.000000	 63.908743 
537.000000	 63.918685 
536.000000	 63.928174 
535.000000	 63.938641 
534.000000	 63.951468 
533.000000	 63.967466 
532.000000	 63.986229 
531.000000	 64.006614 
530.000000	 64.027094 
529.000000	 64.046287 
528.000000	 64.063405 
527.000000	 64.077734 
526.000000	 64.088487 
525.000000	 64.094161 
524.000000	 64.092397 
523.000000	 64.079809 
522.000000	 64.052748 
521.000000	 64.008378 
520.000000	 63.946223 
519.000000	 63.868641 
518.000000	 63.781571 
517.000000	 63.693833 
516.000000	 63.616323 
515.000000	 63.559484 
514.000000	 63.532352 
513.000000	 63.539314 
512.000000	 63.580870 
511.000000	 63.652944 
510.000000	 63.748311 
509.000000	 63.857793 
508.000000	 63.971424 
507.000000	 64.080214 
506.000000	 64.175796 
505.000000	 64.251112 
504.000000	 64.299845 
503.000000	 64.316725 
502.000000	 64.298605 
501.000000	 64.245462 
500.000000	 64.161109 
499.000000	 64.053487 
498.000000	 63.933968 
497.000000	 63.815736 
496.000000	 63.711094 
495.000000	 63.629531 
494.000000	 63.576030 
493.000000	 63.550877 
492.000000	 63.548851 
491.000000	 63.562512 
490.000000	 63.583922 
489.000000	 63.608145 
488.000000	 63.633012 
487.000000	 63.660836 
486.000000	 63.696503 
485.000000	 63.745856 
484.000000	 63.812470 
483.000000	 63.895869 
482.000000	 63.990473 
481.000000	 64.085817 
480.000000	 64.169120 
479.000000	 64.227080 
478.000000	 64.249253 
477.000000	 64.230298 
476.000000	 64.172053 
475.000000	 64.082717 
474.000000	 63.975119 
473.000000	 63.863706 
472.000000	 63.761162 
471.000000	 63.675522 
470.000000	 63.608622 
469.000000	 63.556003 
468.000000	 63.508749 
467.000000	 63.456058 
466.000000	 63.388633 
465.000000	 63.301610 
464.000000	 63.196015 
463.000000	 63.077759 
462.000000	 62.956571 
461.000000	 62.842869 
460.000000	 62.745618 
459.000000	 62.668800 
458.000000	 62.612867 
457.000000	 62.572360 
456.000000	 62.542748 
455.000000	 62.522196 
454.000000	 62.514376 
453.000000	 62.527990 
452.000000	 62.573218 
451.000000	 62.656402 
450.000000	 62.777924 
449.000000	 62.929987 
448.000000	 63.096380 
447.000000	 63.254857 
446.000000	 63.382482 
445.000000	 63.461065 
444.000000	 63.478612 
443.000000	 63.432550 
442.000000	 63.330435 
441.000000	 63.189435 
440.000000	 63.033103 
439.000000	 62.887382 
438.000000	 62.777614 
437.000000	 62.721419 
436.000000	 62.729907 
435.000000	 62.799739 
434.000000	 62.912726 
433.000000	 63.038682 
432.000000	 63.141942 
431.000000	 63.191270 
430.000000	 63.159751 
429.000000	 63.043832 
428.000000	 62.862563 
427.000000	 62.660694 
426.000000	 62.498950 
425.000000	 62.438774 
424.000000	 62.523579 
423.000000	 62.769865 
422.000000	 63.161396 
421.000000	 63.652515 
420.000000	 64.177656 
419.000000	 64.671778 
418.000000	 65.085077 
417.000000	 65.389180 
416.000000	 65.579581 
415.000000	 65.672183 
414.000000	 65.690302 
413.000000	 65.664887 
412.000000	 65.613675 
411.000000	 65.529131 
410.000000	 65.375041 
409.000000	 65.114283 
408.000000	 64.704871 
407.000000	 64.119410 
406.000000	 63.352560 
405.000000	 62.415146 
404.000000	 61.356329 
403.000000	 60.262560 
402.000000	 59.250426 
401.000000	 58.427524 
400.000000	 57.899212 
399.000000	 57.757544 
398.000000	 58.042907 
397.000000	 58.718371 
396.000000	 59.696888 
395.000000	 60.844993 
394.000000	 62.044167 
393.000000	 63.211178 
392.000000	 64.314222 
391.000000	 65.356898 
390.000000	 66.347527 
389.000000	 67.254805 
388.000000	 67.980337 
387.000000	 68.346405 
386.000000	 68.113851 
385.000000	 67.048001 
384.000000	 64.968371 
383.000000	 61.859726 
382.000000	 57.913923 
381.000000	 53.567433 
380.000000	 49.399328 
379.000000	 46.093153 
378.000000	 44.256567 
377.000000	 44.367694 
376.000000	 46.608614 
375.000000	 50.912666 
374.000000	 56.993627 
373.000000	 64.355754 
372.000000	 72.404241 
371.000000	 80.429840 
370.000000	 87.686300 

