PE IR       SPECTRUM    SPECTRUM    ASCII       PEDS        1.60        
  -1
BZ6D22~1.ASC
17/04/07
13:38:58.00
17/04/07
13:38:58.00
tln
$BZ1503107-1_t0005$<tbV0>[2.6,-13.0,8.0,0.0,27,1,0]
370.000000
64









2002,4.07    
MIRTGS : RIGHTBACK : INTERNAL 2
MIR : ON : INTERNAL 2
OPTKBR

0.200000
8
8.000000
FILLER
RATIO
SPECTRUM
UNLOCKED 256

DOUBLE
64
COMBINED
1
0
0


1.000000
RATIO


1
0
TRUE
51149
0
LEFT NOT FITTED RIGHT NOT FITTED 0
NONE
NONE
15600
12.000000
4.427000
51148
TRUE
1 0 8 72 0 0 0 0 

15798.010000






#HDR
-1
-1
#GR
CM-1
%T
0.00002384185791015625
0.0
5000.000000
-1.000000
4631
8
85.746049
58.959507
#DATA
5000.000000	65.254902 
4999.000000	65.228891 
4998.000000	65.190434 
4997.000000	65.146040 
4996.000000	65.100765 
4995.000000	65.059828 
4994.000000	65.026021 
4993.000000	65.001988 
4992.000000	64.986658 
4991.000000	64.976096 
4990.000000	64.963459 
4989.000000	64.940452 
4988.000000	64.899969 
4987.000000	64.838194 
4986.000000	64.755940 
4985.000000	64.658689 
4984.000000	64.556121 
4983.000000	64.459919 
4982.000000	64.381265 
4981.000000	64.328312 
4980.000000	64.304447 
4979.000000	64.308071 
4978.000000	64.333224 
4977.000000	64.371824 
4976.000000	64.415168 
4975.000000	64.457011 
4974.000000	64.492440 
4973.000000	64.521026 
4972.000000	64.545106 
4971.000000	64.570879 
4970.000000	64.604544 
4969.000000	64.652776 
4968.000000	64.720964 
4967.000000	64.811396 
4966.000000	64.923644 
4965.000000	65.051889 
4964.000000	65.186667 
4963.000000	65.314507 
4962.000000	65.421128 
4961.000000	65.493273 
4960.000000	65.521764 
4959.000000	65.504336 
4958.000000	65.446734 
4957.000000	65.361189 
4956.000000	65.263867 
4955.000000	65.172791 
4954.000000	65.103912 
4953.000000	65.067577 
4952.000000	65.066504 
4951.000000	65.096282 
4950.000000	65.146374 
4949.000000	65.202903 
4948.000000	65.251874 
4947.000000	65.281486 
4946.000000	65.284800 
4945.000000	65.261077 
4944.000000	65.215039 
4943.000000	65.154266 
4942.000000	65.087318 
4941.000000	65.022349 
4940.000000	64.964485 
4939.000000	64.915108 
4938.000000	64.872312 
4937.000000	64.832234 
4936.000000	64.792060 
4935.000000	64.750981 
4934.000000	64.713811 
4933.000000	64.689779 
4932.000000	64.692640 
4931.000000	64.736509 
4930.000000	64.832520 
4929.000000	64.983963 
4928.000000	65.184020 
4927.000000	65.414619 
4926.000000	65.649676 
4925.000000	65.858459 
4924.000000	66.011548 
4923.000000	66.085672 
4922.000000	66.069722 
4921.000000	65.965175 
4920.000000	65.785741 
4919.000000	65.553474 
4918.000000	65.295457 
4917.000000	65.037703 
4916.000000	64.802241 
4915.000000	64.603614 
4914.000000	64.448809 
4913.000000	64.339017 
4912.000000	64.271831 
4911.000000	64.245080 
4910.000000	64.257097 
4909.000000	64.309430 
4908.000000	64.402961 
4907.000000	64.539837 
4906.000000	64.719247 
4905.000000	64.936447 
4904.000000	65.180182 
4903.000000	65.432906 
4902.000000	65.671300 
4901.000000	65.869379 
4900.000000	66.001319 
4899.000000	66.045165 
4898.000000	65.985631 
4897.000000	65.817451 
4896.000000	65.546250 
4895.000000	65.187621 
4894.000000	64.767169 
4893.000000	64.317727 
4892.000000	63.877749 
4891.000000	63.487935 
4890.000000	63.185763 
4889.000000	63.002347 
4888.000000	62.954187 
4887.000000	63.039875 
4886.000000	63.238120 
4885.000000	63.509678 
4884.000000	63.804388 
4883.000000	64.067196 
4882.000000	64.252400 
4881.000000	64.329338 
4880.000000	64.291620 
4879.000000	64.155077 
4878.000000	63.955283 
4877.000000	63.737225 
4876.000000	63.545060 
4875.000000	63.411998 
4874.000000	63.354110 
4873.000000	63.369107 
4872.000000	63.441276 
4871.000000	63.548064 
4870.000000	63.668084 
4869.000000	63.787317 
4868.000000	63.900208 
4867.000000	64.010047 
4866.000000	64.122772 
4865.000000	64.244627 
4864.000000	64.375996 
4863.000000	64.511394 
4862.000000	64.641380 
4861.000000	64.753627 
4860.000000	64.836955 
4859.000000	64.884018 
4858.000000	64.896106 
4857.000000	64.880347 
4856.000000	64.848351 
4855.000000	64.812946 
4854.000000	64.785337 
4853.000000	64.772915 
4852.000000	64.778566 
4851.000000	64.800405 
4850.000000	64.833402 
4849.000000	64.871001 
4848.000000	64.907455 
4847.000000	64.939475 
4846.000000	64.967036 
4845.000000	64.992904 
4844.000000	65.021586 
4843.000000	65.058875 
4842.000000	65.109038 
4841.000000	65.172982 
4840.000000	65.246438 
4839.000000	65.320205 
4838.000000	65.381598 
4837.000000	65.417957 
4836.000000	65.419816 
4835.000000	65.383601 
4834.000000	65.313458 
4833.000000	65.221190 
4832.000000	65.123295 
4831.000000	65.037679 
4830.000000	64.978790 
4829.000000	64.954853 
4828.000000	64.965343 
4827.000000	65.001082 
4826.000000	65.049123 
4825.000000	65.096735 
4824.000000	65.136289 
4823.000000	65.167284 
4822.000000	65.197420 
4821.000000	65.239405 
4820.000000	65.306615 
4819.000000	65.407323 
4818.000000	65.540385 
4817.000000	65.693616 
4816.000000	65.845394 
4815.000000	65.970063 
4814.000000	66.045093 
4813.000000	66.057538 
4812.000000	66.008090 
4811.000000	65.911650 
4810.000000	65.794658 
4809.000000	65.687775 
4808.000000	65.618872 
4807.000000	65.605139 
4806.000000	65.650510 
4805.000000	65.743064 
4804.000000	65.860533 
4803.000000	65.973806 
4802.000000	66.056060 
4801.000000	66.087388 
4800.000000	66.059231 
4799.000000	65.976190 
4798.000000	65.853452 
4797.000000	65.713834 
4796.000000	65.581059 
4795.000000	65.476512 
4794.000000	65.414524 
4793.000000	65.401244 
4792.000000	65.433883 
4791.000000	65.501499 
4790.000000	65.587592 
4789.000000	65.672755 
4788.000000	65.738749 
4787.000000	65.770649 
4786.000000	65.760874 
4785.000000	65.707993 
4784.000000	65.618920 
4783.000000	65.507125 
4782.000000	65.389871 
4781.000000	65.285253 
4780.000000	65.207028 
4779.000000	65.163707 
4778.000000	65.154099 
4777.000000	65.170288 
4776.000000	65.196633 
4775.000000	65.214180 
4774.000000	65.204834 
4773.000000	65.155696 
4772.000000	65.063333 
4771.000000	64.933848 
4770.000000	64.783787 
4769.000000	64.635443 
4768.000000	64.514708 
4767.000000	64.444851 
4766.000000	64.442539 
4765.000000	64.513254 
4764.000000	64.649367 
4763.000000	64.831042 
4762.000000	65.029859 
4761.000000	65.214586 
4760.000000	65.356826 
4759.000000	65.437078 
4758.000000	65.447211 
4757.000000	65.391993 
4756.000000	65.286684 
4755.000000	65.153336 
4754.000000	65.015220 
4753.000000	64.892768 
4752.000000	64.801025 
4751.000000	64.747333 
4750.000000	64.733314 
4749.000000	64.754295 
4748.000000	64.802646 
4747.000000	64.868783 
4746.000000	64.943599 
4745.000000	65.018534 
4744.000000	65.085601 
4743.000000	65.138363 
4742.000000	65.171504 
4741.000000	65.182566 
4740.000000	65.171837 
4739.000000	65.143275 
4738.000000	65.103459 
4737.000000	65.060234 
4736.000000	65.020704 
4735.000000	64.990401 
4734.000000	64.971375 
4733.000000	64.962363 
4732.000000	64.958357 
4731.000000	64.952802 
4730.000000	64.938092 
4729.000000	64.907908 
4728.000000	64.858007 
4727.000000	64.786219 
4726.000000	64.694070 
4725.000000	64.585924 
4724.000000	64.469957 
4723.000000	64.356374 
4722.000000	64.257049 
4721.000000	64.182829 
4720.000000	64.142537 
4719.000000	64.141249 
4718.000000	64.178299 
4717.000000	64.246869 
4716.000000	64.334559 
4715.000000	64.425230 
4714.000000	64.502739 
4713.000000	64.554262 
4712.000000	64.573049 
4711.000000	64.559888 
4710.000000	64.523029 
4709.000000	64.475679 
4708.000000	64.433240 
4707.000000	64.409136 
4706.000000	64.411830 
4705.000000	64.442443 
4704.000000	64.495944 
4703.000000	64.562010 
4702.000000	64.627957 
4701.000000	64.682006 
4700.000000	64.716148 
4699.000000	64.728260 
4698.000000	64.721965 
4697.000000	64.705801 
4696.000000	64.690065 
4695.000000	64.684319 
4694.000000	64.694809 
4693.000000	64.722657 
4692.000000	64.764571 
4691.000000	64.813160 
4690.000000	64.859342 
4689.000000	64.894962 
4688.000000	64.915156 
4687.000000	64.919257 
4686.000000	64.911031 
4685.000000	64.897394 
4684.000000	64.886736 
4683.000000	64.886927 
4682.000000	64.903473 
4681.000000	64.938402 
4680.000000	64.989399 
4679.000000	65.051102 
4678.000000	65.115332 
4677.000000	65.173888 
4676.000000	65.218663 
4675.000000	65.243268 
4674.000000	65.243220 
4673.000000	65.216851 
4672.000000	65.165114 
4671.000000	65.091848 
4670.000000	65.003156 
4669.000000	64.906430 
4668.000000	64.809966 
4667.000000	64.722537 
4666.000000	64.651989 
4665.000000	64.604091 
4664.000000	64.582061 
4663.000000	64.586305 
4662.000000	64.613890 
4661.000000	64.659142 
4660.000000	64.714384 
4659.000000	64.771294 
4658.000000	64.821672 
4657.000000	64.859008 
4656.000000	64.879679 
4655.000000	64.883995 
4654.000000	64.875411 
4653.000000	64.860153 
4652.000000	64.846253 
4651.000000	64.841365 
4650.000000	64.851498 
4649.000000	64.878416 
4648.000000	64.919924 
4647.000000	64.968633 
4646.000000	65.014672 
4645.000000	65.046644 
4644.000000	65.054535 
4643.000000	65.031886 
4642.000000	64.977717 
4641.000000	64.896702 
4640.000000	64.797782 
4639.000000	64.692854 
4638.000000	64.594292 
4637.000000	64.512205 
4636.000000	64.452576 
4635.000000	64.416980 
4634.000000	64.402890 
4633.000000	64.404749 
4632.000000	64.415645 
4631.000000	64.428687 
4630.000000	64.438390 
4629.000000	64.441108 
4628.000000	64.435410 
4627.000000	64.420533 
4626.000000	64.396691 
4625.000000	64.364671 
4624.000000	64.326691 
4623.000000	64.285492 
4622.000000	64.245796 
4621.000000	64.213824 
4620.000000	64.197182 
4619.000000	64.203214 
4618.000000	64.237475 
4617.000000	64.301919 
4616.000000	64.393877 
4615.000000	64.505815 
4614.000000	64.626574 
4613.000000	64.742970 
4612.000000	64.842915 
4611.000000	64.917492 
4610.000000	64.962482 
4609.000000	64.978694 
4608.000000	64.971423 
4607.000000	64.948940 
4606.000000	64.919424 
4605.000000	64.888930 
4604.000000	64.860367 
4603.000000	64.833116 
4602.000000	64.804387 
4601.000000	64.770269 
4600.000000	64.727544 
4599.000000	64.674806 
4598.000000	64.613127 
4597.000000	64.546442 
4596.000000	64.479565 
4595.000000	64.418673 
4594.000000	64.369821 
4593.000000	64.338636 
4592.000000	64.328956 
4591.000000	64.342570 
4590.000000	64.378356 
4589.000000	64.432764 
4588.000000	64.499258 
4587.000000	64.570403 
4586.000000	64.638948 
4585.000000	64.699292 
4584.000000	64.747738 
4583.000000	64.783644 
4582.000000	64.808893 
4581.000000	64.826130 
4580.000000	64.837884 
4579.000000	64.844536 
4578.000000	64.844250 
4577.000000	64.833021 
4576.000000	64.805817 
4575.000000	64.758229 
4574.000000	64.687895 
4573.000000	64.596915 
4572.000000	64.491343 
4571.000000	64.379858 
4570.000000	64.272284 
4569.000000	64.177560 
4568.000000	64.102125 
4567.000000	64.048910 
4566.000000	64.017224 
4565.000000	64.003729 
4564.000000	64.002990 
4563.000000	64.008259 
4562.000000	64.013147 
4561.000000	64.011597 
4560.000000	63.999819 
4559.000000	63.976287 
4558.000000	63.942098 
4557.000000	63.899946 
4556.000000	63.854122 
4555.000000	63.809442 
4554.000000	63.770556 
4553.000000	63.740468 
4552.000000	63.722348 
4551.000000	63.719081 
4550.000000	63.733077 
4549.000000	63.765859 
4548.000000	63.817143 
4547.000000	63.884735 
4546.000000	63.964104 
4545.000000	64.049172 
4544.000000	64.132928 
4543.000000	64.208817 
4542.000000	64.272689 
4541.000000	64.322304 
4540.000000	64.357519 
4539.000000	64.379096 
4538.000000	64.389657 
4537.000000	64.391088 
4536.000000	64.384508 
4535.000000	64.369440 
4534.000000	64.346075 
4533.000000	64.313244 
4532.000000	64.270186 
4531.000000	64.215636 
4530.000000	64.150094 
4529.000000	64.073061 
4528.000000	63.983631 
4527.000000	63.881158 
4526.000000	63.766336 
4525.000000	63.641858 
4524.000000	63.512778 
4523.000000	63.388514 
4522.000000	63.281536 
4521.000000	63.203358 
4520.000000	63.162851 
4519.000000	63.163185 
4518.000000	63.202571 
4517.000000	63.275098 
4516.000000	63.372659 
4515.000000	63.487529 
4514.000000	63.613128 
4513.000000	63.740944 
4512.000000	63.864254 
4511.000000	63.976073 
4510.000000	64.073204 
4509.000000	64.156532 
4508.000000	64.230704 
4507.000000	64.302754 
4506.000000	64.380025 
4505.000000	64.468884 
4504.000000	64.571952 
4503.000000	64.685058 
4502.000000	64.804506 
4501.000000	64.928722 
4500.000000	65.061092 
4499.000000	65.209102 
4498.000000	65.384912 
4497.000000	65.600872 
4496.000000	65.861010 
4495.000000	66.157317 
4494.000000	66.465234 
4493.000000	66.750240 
4492.000000	66.973900 
4491.000000	67.109179 
4490.000000	67.149901 
4489.000000	67.116522 
4488.000000	67.064356 
4487.000000	67.059588 
4486.000000	67.158961 
4485.000000	67.388033 
4484.000000	67.736792 
4483.000000	68.150711 
4482.000000	68.548488 
4481.000000	68.834137 
4480.000000	68.929314 
4479.000000	68.783521 
4478.000000	68.391704 
4477.000000	67.788863 
4476.000000	67.042064 
4475.000000	66.233277 
4474.000000	65.442967 
4473.000000	64.730954 
4472.000000	64.128017 
4471.000000	63.636302 
4470.000000	63.239169 
4469.000000	62.905645 
4468.000000	62.610197 
4467.000000	62.341022 
4466.000000	62.118482 
4465.000000	61.981129 
4464.000000	61.995124 
4463.000000	62.241458 
4462.000000	62.800598 
4461.000000	63.727951 
4460.000000	65.029597 
4459.000000	66.650199 
4458.000000	68.466949 
4457.000000	70.302581 
4456.000000	71.957087 
4455.000000	73.248624 
4454.000000	74.047136 
4453.000000	74.308586 
4452.000000	74.071383 
4451.000000	73.451638 
4450.000000	72.602033 
4449.000000	71.685051 
4448.000000	70.824933 
4447.000000	70.093965 
4446.000000	69.500279 
4445.000000	69.009017 
4444.000000	68.556356 
4443.000000	68.082976 
4442.000000	67.555594 
4441.000000	66.982483 
4440.000000	66.402769 
4439.000000	65.877676 
4438.000000	65.463018 
4437.000000	65.197134 
4436.000000	65.087532 
4435.000000	65.111708 
4434.000000	65.223932 
4433.000000	65.367102 
4432.000000	65.489339 
4431.000000	65.552711 
4430.000000	65.534639 
4429.000000	65.433621 
4428.000000	65.262985 
4427.000000	65.047311 
4426.000000	64.807248 
4425.000000	64.563298 
4424.000000	64.334559 
4423.000000	64.134454 
4422.000000	63.971281 
4421.000000	63.849401 
4420.000000	63.771271 
4419.000000	63.736724 
4418.000000	63.744068 
4417.000000	63.786411 
4416.000000	63.851284 
4415.000000	63.926744 
4414.000000	64.002728 
4413.000000	64.069128 
4412.000000	64.117503 
4411.000000	64.142632 
4410.000000	64.143347 
4409.000000	64.120745 
4408.000000	64.079022 
4407.000000	64.026260 
4406.000000	63.972425 
4405.000000	63.926672 
4404.000000	63.896560 
4403.000000	63.888025 
4402.000000	63.903689 
4401.000000	63.942551 
4400.000000	64.000558 
4399.000000	64.070677 
4398.000000	64.145565 
4397.000000	64.217901 
4396.000000	64.283514 
4395.000000	64.341592 
4394.000000	64.394927 
4393.000000	64.448165 
4392.000000	64.507102 
4391.000000	64.576554 
4390.000000	64.657306 
4389.000000	64.744949 
4388.000000	64.830374 
4387.000000	64.901232 
4386.000000	64.944219 
4385.000000	64.947962 
4384.000000	64.906167 
4383.000000	64.819359 
4382.000000	64.695119 
4381.000000	64.547061 
4380.000000	64.392352 
4379.000000	64.248943 
4378.000000	64.132666 
4377.000000	64.054608 
4376.000000	64.020538 
4375.000000	64.029598 
4374.000000	64.075589 
4373.000000	64.147996 
4372.000000	64.234066 
4371.000000	64.321112 
4370.000000	64.397644 
4369.000000	64.455604 
4368.000000	64.489603 
4367.000000	64.499068 
4366.000000	64.487266 
4365.000000	64.460492 
4364.000000	64.426255 
4363.000000	64.392304 
4362.000000	64.365077 
4361.000000	64.348483 
4360.000000	64.343523 
4359.000000	64.349293 
4358.000000	64.363837 
4357.000000	64.384651 
4356.000000	64.409899 
4355.000000	64.438295 
4354.000000	64.469695 
4353.000000	64.504027 
4352.000000	64.541745 
4351.000000	64.583325 
4350.000000	64.629125 
4349.000000	64.679789 
4348.000000	64.734864 
4347.000000	64.792656 
4346.000000	64.849710 
4345.000000	64.902114 
4344.000000	64.945101 
4343.000000	64.974117 
4342.000000	64.985656 
4341.000000	64.978575 
4340.000000	64.953708 
4339.000000	64.914393 
4338.000000	64.865207 
4337.000000	64.811563 
4336.000000	64.757728 
4335.000000	64.706563 
4334.000000	64.659023 
4333.000000	64.614605 
4332.000000	64.572381 
4331.000000	64.531683 
4330.000000	64.492988 
4329.000000	64.457869 
4328.000000	64.428544 
4327.000000	64.407658 
4326.000000	64.396476 
4325.000000	64.395618 
4324.000000	64.404606 
4323.000000	64.422821 
4322.000000	64.449119 
4321.000000	64.482760 
4320.000000	64.522910 
4319.000000	64.568972 
4318.000000	64.619207 
4317.000000	64.671850 
4316.000000	64.724755 
4315.000000	64.776182 
4314.000000	64.824748 
4313.000000	64.870810 
4312.000000	64.916396 
4311.000000	64.964413 
4310.000000	65.017867 
4309.000000	65.077996 
4308.000000	65.143346 
4307.000000	65.209102 
4306.000000	65.267777 
4305.000000	65.310573 
4304.000000	65.329408 
4303.000000	65.319490 
4302.000000	65.280556 
4301.000000	65.217137 
4300.000000	65.137481 
4299.000000	65.052342 
4298.000000	64.972400 
4297.000000	64.906477 
4296.000000	64.859700 
4295.000000	64.833450 
4294.000000	64.825105 
4293.000000	64.829897 
4292.000000	64.841485 
4291.000000	64.853644 
4290.000000	64.861679 
4289.000000	64.862561 
4288.000000	64.855647 
4287.000000	64.841389 
4286.000000	64.822030 
4285.000000	64.800453 
4284.000000	64.779901 
4283.000000	64.763116 
4282.000000	64.751935 
4281.000000	64.746809 
4280.000000	64.746761 
4279.000000	64.749813 
4278.000000	64.753460 
4277.000000	64.755511 
4276.000000	64.754676 
4275.000000	64.750933 
4274.000000	64.745569 
4273.000000	64.740729 
4272.000000	64.738655 
4271.000000	64.740872 
4270.000000	64.747810 
4269.000000	64.758443 
4268.000000	64.770627 
4267.000000	64.781737 
4266.000000	64.789271 
4265.000000	64.791774 
4264.000000	64.789247 
4263.000000	64.783167 
4262.000000	64.775466 
4261.000000	64.768719 
4260.000000	64.765071 
4259.000000	64.766716 
4258.000000	64.775228 
4257.000000	64.792156 
4256.000000	64.818596 
4255.000000	64.855217 
4254.000000	64.901947 
4253.000000	64.957499 
4252.000000	65.019297 
4251.000000	65.083503 
4250.000000	65.145373 
4249.000000	65.200066 
4248.000000	65.243172 
4247.000000	65.271639 
4246.000000	65.283727 
4245.000000	65.279507 
4244.000000	65.260076 
4243.000000	65.227603 
4242.000000	65.184855 
4241.000000	65.134763 
4240.000000	65.080857 
4239.000000	65.027046 
4238.000000	64.977979 
4237.000000	64.938926 
4236.000000	64.914751 
4235.000000	64.909076 
4234.000000	64.923214 
4233.000000	64.955449 
4232.000000	65.000867 
4231.000000	65.052032 
4230.000000	65.100407 
4229.000000	65.137887 
4228.000000	65.158891 
4227.000000	65.161204 
4226.000000	65.146613 
4225.000000	65.119791 
4224.000000	65.087461 
4223.000000	65.056014 
4222.000000	65.030074 
4221.000000	65.011119 
4220.000000	64.997839 
4219.000000	64.986467 
4218.000000	64.972400 
4217.000000	64.951944 
4216.000000	64.923739 
4215.000000	64.889836 
4214.000000	64.854669 
4213.000000	64.825034 
4212.000000	64.807462 
4211.000000	64.807772 
4210.000000	64.828586 
4209.000000	64.869666 
4208.000000	64.927577 
4207.000000	64.996576 
4206.000000	65.069913 
4205.000000	65.140771 
4204.000000	65.203237 
4203.000000	65.253019 
4202.000000	65.287446 
4201.000000	65.305685 
4200.000000	65.308237 
4199.000000	65.296864 
4198.000000	65.274071 
4197.000000	65.242981 
4196.000000	65.206789 
4195.000000	65.168809 
4194.000000	65.131974 
4193.000000	65.098476 
4192.000000	65.069699 
4191.000000	65.046358 
4190.000000	65.028476 
4189.000000	65.015649 
4188.000000	65.007114 
4187.000000	65.002202 
4186.000000	64.999914 
4185.000000	64.999008 
4184.000000	64.997863 
4183.000000	64.994382 
4182.000000	64.986538 
4181.000000	64.972329 
4180.000000	64.950728 
4179.000000	64.921808 
4178.000000	64.886879 
4177.000000	64.848446 
4176.000000	64.809751 
4175.000000	64.774227 
4174.000000	64.745259 
4173.000000	64.725708 
4172.000000	64.717388 
4171.000000	64.721083 
4170.000000	64.736557 
4169.000000	64.762663 
4168.000000	64.797329 
4167.000000	64.837861 
4166.000000	64.880728 
4165.000000	64.922285 
4164.000000	64.958643 
4163.000000	64.986920 
4162.000000	65.004897 
4161.000000	65.012240 
4160.000000	65.010166 
4159.000000	65.001630 
4158.000000	64.990472 
4157.000000	64.980745 
4156.000000	64.976096 
4155.000000	64.979004 
4154.000000	64.990520 
4153.000000	65.010261 
4152.000000	65.036749 
4151.000000	65.067958 
4150.000000	65.101885 
4149.000000	65.136742 
4148.000000	65.171265 
4147.000000	65.204358 
4146.000000	65.234994 
4145.000000	65.262055 
4144.000000	65.284252 
4143.000000	65.299987 
4142.000000	65.307521 
4141.000000	65.305805 
4140.000000	65.294885 
4139.000000	65.275692 
4138.000000	65.250039 
4137.000000	65.220880 
4136.000000	65.191316 
4135.000000	65.164399 
4134.000000	65.142416 
4133.000000	65.126752 
4132.000000	65.117669 
4131.000000	65.114617 
4130.000000	65.116310 
4129.000000	65.120840 
4128.000000	65.126013 
4127.000000	65.129756 
4126.000000	65.130043 
4125.000000	65.124821 
4124.000000	65.112757 
4123.000000	65.093374 
4122.000000	65.067481 
4121.000000	65.037035 
4120.000000	65.005874 
4119.000000	64.979100 
4118.000000	64.962506 
4117.000000	64.961481 
4116.000000	64.980030 
4115.000000	65.019941 
4114.000000	65.080046 
4113.000000	65.156292 
4112.000000	65.242290 
4111.000000	65.330481 
4110.000000	65.413188 
4109.000000	65.484046 
4108.000000	65.538716 
4107.000000	65.575051 
4106.000000	65.593528 
4105.000000	65.595817 
4104.000000	65.584683 
4103.000000	65.562629 
4102.000000	65.532469 
4101.000000	65.495967 
4100.000000	65.454816 
4099.000000	65.410065 
4098.000000	65.363478 
4097.000000	65.316653 
4096.000000	65.271544 
4095.000000	65.230035 
4094.000000	65.193963 
4093.000000	65.164709 
4092.000000	65.143299 
4091.000000	65.130209 
4090.000000	65.125608 
4089.000000	65.129327 
4088.000000	65.140986 
4087.000000	65.159702 
4086.000000	65.184068 
4085.000000	65.211892 
4084.000000	65.240454 
4083.000000	65.266299 
4082.000000	65.286111 
4081.000000	65.297555 
4080.000000	65.299415 
4079.000000	65.292000 
4078.000000	65.276718 
4077.000000	65.256142 
4076.000000	65.233325 
4075.000000	65.210771 
4074.000000	65.190505 
4073.000000	65.173912 
4072.000000	65.161967 
4071.000000	65.155506 
4070.000000	65.155029 
4069.000000	65.160775 
4068.000000	65.172529 
4067.000000	65.189743 
4066.000000	65.210819 
4065.000000	65.233159 
4064.000000	65.253806 
4063.000000	65.269780 
4062.000000	65.278768 
4061.000000	65.279507 
4060.000000	65.272426 
4059.000000	65.259337 
4058.000000	65.242934 
4057.000000	65.226149 
4056.000000	65.211224 
4055.000000	65.199208 
4054.000000	65.190172 
4053.000000	65.182924 
4052.000000	65.175700 
4051.000000	65.166378 
4050.000000	65.153527 
4049.000000	65.136456 
4048.000000	65.115308 
4047.000000	65.091419 
4046.000000	65.066695 
4045.000000	65.043759 
4044.000000	65.025186 
4043.000000	65.013623 
4042.000000	65.011119 
4041.000000	65.018892 
4040.000000	65.036916 
4039.000000	65.064072 
4038.000000	65.098118 
4037.000000	65.135836 
4036.000000	65.173506 
4035.000000	65.207600 
4034.000000	65.235161 
4033.000000	65.254569 
4032.000000	65.265130 
4031.000000	65.266919 
4030.000000	65.260291 
4029.000000	65.246033 
4028.000000	65.224790 
4027.000000	65.196967 
4026.000000	65.163183 
4025.000000	65.124726 
4024.000000	65.083622 
4023.000000	65.042686 
4022.000000	65.005111 
4021.000000	64.974117 
4020.000000	64.951825 
4019.000000	64.939117 
4018.000000	64.934897 
4017.000000	64.936161 
4016.000000	64.938616 
4015.000000	64.937615 
4014.000000	64.929008 
4013.000000	64.910483 
4012.000000	64.881682 
4011.000000	64.844369 
4010.000000	64.802336 
4009.000000	64.760875 
4008.000000	64.725971 
4007.000000	64.703440 
4006.000000	64.698123 
4005.000000	64.713168 
4004.000000	64.749264 
4003.000000	64.804625 
4002.000000	64.874958 
4001.000000	64.954090 
4000.000000	65.034818 
3999.000000	65.109705 
3998.000000	65.172290 
3997.000000	65.217542 
3996.000000	65.242433 
3995.000000	65.245819 
3994.000000	65.228843 
3993.000000	65.194368 
3992.000000	65.146565 
3991.000000	65.090775 
3990.000000	65.033197 
3989.000000	64.980411 
3988.000000	64.938974 
3987.000000	64.914560 
3986.000000	64.911270 
3985.000000	64.930748 
3984.000000	64.971828 
3983.000000	65.030217 
3982.000000	65.099191 
3981.000000	65.170955 
3980.000000	65.238165 
3979.000000	65.295100 
3978.000000	65.338706 
3977.000000	65.368533 
3976.000000	65.386486 
3975.000000	65.396046 
3974.000000	65.400886 
3973.000000	65.403938 
3972.000000	65.406322 
3971.000000	65.408062 
3970.000000	65.407490 
3969.000000	65.402865 
3968.000000	65.392112 
3967.000000	65.374302 
3966.000000	65.349197 
3965.000000	65.317988 
3964.000000	65.282487 
3963.000000	65.244603 
3962.000000	65.206146 
3961.000000	65.168237 
3960.000000	65.131568 
3959.000000	65.096449 
3958.000000	65.062642 
3957.000000	65.029907 
3956.000000	64.997935 
3955.000000	64.966750 
3954.000000	64.936971 
3953.000000	64.910006 
3952.000000	64.887523 
3951.000000	64.871621 
3950.000000	64.864253 
3949.000000	64.867329 
3948.000000	64.881539 
3947.000000	64.906597 
3946.000000	64.940977 
3945.000000	64.982032 
3944.000000	65.026092 
3943.000000	65.068769 
3942.000000	65.105390 
3941.000000	65.131640 
3940.000000	65.144276 
3939.000000	65.141749 
3938.000000	65.124273 
3937.000000	65.094184 
3936.000000	65.055680 
3935.000000	65.013885 
3934.000000	64.973998 
3933.000000	64.940214 
3932.000000	64.915251 
3931.000000	64.899492 
3930.000000	64.891171 
3929.000000	64.886975 
3928.000000	64.883303 
3927.000000	64.876914 
3926.000000	64.866209 
3925.000000	64.851379 
3924.000000	64.834666 
3923.000000	64.819598 
3922.000000	64.810156 
3921.000000	64.809465 
3920.000000	64.819145 
3919.000000	64.838957 
3918.000000	64.867019 
3917.000000	64.900088 
3916.000000	64.934611 
3915.000000	64.967727 
3914.000000	64.997434 
3913.000000	65.022945 
3912.000000	65.044498 
3911.000000	65.063023 
3910.000000	65.079402 
3909.000000	65.093922 
3908.000000	65.106225 
3907.000000	65.115618 
3906.000000	65.121150 
3905.000000	65.122509 
3904.000000	65.120053 
3903.000000	65.114903 
3902.000000	65.108752 
3901.000000	65.103435 
3900.000000	65.100002 
3899.000000	65.098476 
3898.000000	65.097784 
3897.000000	65.095901 
3896.000000	65.090560 
3895.000000	65.080118 
3894.000000	65.063953 
3893.000000	65.042972 
3892.000000	65.019345 
3891.000000	64.995765 
3890.000000	64.975070 
3889.000000	64.959120 
3888.000000	64.948368 
3887.000000	64.941954 
3886.000000	64.937973 
3885.000000	64.934420 
3884.000000	64.930009 
3883.000000	64.924335 
3882.000000	64.918160 
3881.000000	64.913034 
3880.000000	64.910578 
3879.000000	64.911556 
3878.000000	64.915299 
3877.000000	64.919900 
3876.000000	64.922547 
3875.000000	64.920473 
3874.000000	64.911866 
3873.000000	64.896631 
3872.000000	64.876437 
3871.000000	64.854478 
3870.000000	64.834952 
3869.000000	64.821529 
3868.000000	64.817070 
3867.000000	64.822530 
3866.000000	64.837479 
3865.000000	64.860081 
3864.000000	64.887857 
3863.000000	64.918589 
3862.000000	64.950752 
3861.000000	64.983654 
3860.000000	65.017199 
3859.000000	65.051293 
3858.000000	65.085315 
3857.000000	65.117406 
3856.000000	65.145039 
3855.000000	65.165090 
3854.000000	65.175080 
3853.000000	65.173768 
3852.000000	65.162014 
3851.000000	65.142893 
3850.000000	65.120840 
3849.000000	65.100765 
3848.000000	65.086770 
3847.000000	65.081453 
3846.000000	65.085434 
3845.000000	65.097546 
3844.000000	65.115427 
3843.000000	65.136337 
3842.000000	65.157794 
3841.000000	65.178275 
3840.000000	65.197181 
3839.000000	65.214633 
3838.000000	65.230917 
3837.000000	65.246105 
3836.000000	65.259861 
3835.000000	65.271043 
3834.000000	65.278100 
3833.000000	65.279388 
3832.000000	65.273880 
3831.000000	65.261673 
3830.000000	65.244317 
3829.000000	65.224719 
3828.000000	65.206575 
3827.000000	65.193843 
3826.000000	65.190196 
3825.000000	65.197753 
3824.000000	65.216779 
3823.000000	65.245270 
3822.000000	65.279412 
3821.000000	65.314006 
3820.000000	65.343451 
3819.000000	65.363001 
3818.000000	65.369725 
3817.000000	65.363025 
3816.000000	65.344738 
3815.000000	65.318560 
3814.000000	65.289497 
3813.000000	65.262317 
3812.000000	65.241169 
3811.000000	65.228986 
3810.000000	65.227174 
3809.000000	65.235471 
3808.000000	65.252280 
3807.000000	65.275073 
3806.000000	65.300583 
3805.000000	65.325355 
3804.000000	65.346026 
3803.000000	65.359807 
3802.000000	65.364670 
3801.000000	65.359687 
3800.000000	65.344953 
3799.000000	65.321588 
3798.000000	65.291571 
3797.000000	65.257573 
3796.000000	65.222477 
3795.000000	65.188884 
3794.000000	65.159058 
3793.000000	65.134572 
3792.000000	65.116095 
3791.000000	65.103554 
3790.000000	65.095996 
3789.000000	65.092039 
3788.000000	65.089821 
3787.000000	65.087604 
3786.000000	65.083718 
3785.000000	65.077161 
3784.000000	65.067696 
3783.000000	65.056014 
3782.000000	65.043616 
3781.000000	65.032315 
3780.000000	65.023899 
3779.000000	65.019631 
3778.000000	65.019917 
3777.000000	65.024185 
3776.000000	65.031290 
3775.000000	65.039730 
3774.000000	65.048074 
3773.000000	65.055418 
3772.000000	65.061569 
3771.000000	65.067100 
3770.000000	65.073037 
3769.000000	65.080547 
3768.000000	65.090417 
3767.000000	65.102910 
3766.000000	65.117812 
3765.000000	65.134215 
3764.000000	65.150952 
3763.000000	65.167117 
3762.000000	65.182209 
3761.000000	65.196204 
3760.000000	65.209460 
3759.000000	65.222525 
3758.000000	65.235781 
3757.000000	65.249156 
3756.000000	65.261769 
3755.000000	65.272259 
3754.000000	65.278649 
3753.000000	65.279293 
3752.000000	65.272879 
3751.000000	65.259242 
3750.000000	65.239310 
3749.000000	65.215325 
3748.000000	65.190553 
3747.000000	65.168547 
3746.000000	65.152788 
3745.000000	65.145659 
3744.000000	65.148401 
3743.000000	65.160751 
3742.000000	65.180897 
3741.000000	65.205955 
3740.000000	65.232539 
3739.000000	65.257334 
3738.000000	65.277457 
3737.000000	65.291047 
3736.000000	65.297102 
3735.000000	65.295767 
3734.000000	65.287947 
3733.000000	65.274882 
3732.000000	65.258264 
3731.000000	65.239381 
3730.000000	65.219283 
3729.000000	65.198397 
3728.000000	65.177130 
3727.000000	65.155386 
3726.000000	65.133213 
3725.000000	65.110850 
3724.000000	65.088748 
3723.000000	65.068101 
3722.000000	65.050029 
3721.000000	65.036249 
3720.000000	65.028166 
3719.000000	65.027260 
3718.000000	65.034413 
3717.000000	65.050220 
3716.000000	65.074539 
3715.000000	65.106463 
3714.000000	65.144228 
3713.000000	65.185332 
3712.000000	65.226769 
3711.000000	65.265274 
3710.000000	65.297675 
3709.000000	65.321397 
3708.000000	65.334939 
3707.000000	65.338158 
3706.000000	65.332508 
3705.000000	65.320658 
3704.000000	65.306353 
3703.000000	65.293884 
3702.000000	65.286970 
3701.000000	65.288519 
3700.000000	65.299487 
3699.000000	65.319156 
3698.000000	65.344905 
3697.000000	65.372896 
3696.000000	65.398955 
3695.000000	65.419530 
3694.000000	65.432381 
3693.000000	65.437078 
3692.000000	65.434908 
3691.000000	65.428161 
3690.000000	65.419626 
3689.000000	65.411853 
3688.000000	65.406417 
3687.000000	65.403723 
3686.000000	65.403223 
3685.000000	65.403842 
3684.000000	65.404558 
3683.000000	65.404796 
3682.000000	65.404844 
3681.000000	65.405344 
3680.000000	65.407347 
3679.000000	65.411114 
3678.000000	65.416097 
3677.000000	65.420293 
3676.000000	65.420866 
3675.000000	65.414214 
3674.000000	65.397024 
3673.000000	65.367054 
3672.000000	65.323591 
3671.000000	65.268301 
3670.000000	65.204787 
3669.000000	65.138602 
3668.000000	65.076255 
3667.000000	65.024304 
3666.000000	64.988017 
3665.000000	64.970731 
3664.000000	64.973282 
3663.000000	64.993715 
3662.000000	65.027761 
3661.000000	65.070009 
3660.000000	65.114879 
3659.000000	65.157675 
3658.000000	65.195441 
3657.000000	65.227508 
3656.000000	65.254998 
3655.000000	65.280246 
3654.000000	65.305590 
3653.000000	65.332508 
3652.000000	65.360808 
3651.000000	65.388870 
3650.000000	65.413618 
3649.000000	65.432214 
3648.000000	65.442204 
3647.000000	65.443301 
3646.000000	65.436625 
3645.000000	65.424728 
3644.000000	65.410757 
3643.000000	65.397667 
3642.000000	65.387368 
3641.000000	65.380263 
3640.000000	65.375638 
3639.000000	65.372347 
3638.000000	65.368962 
3637.000000	65.364432 
3636.000000	65.358495 
3635.000000	65.351629 
3634.000000	65.344500 
3633.000000	65.337657 
3632.000000	65.330958 
3631.000000	65.323424 
3630.000000	65.313458 
3629.000000	65.299296 
3628.000000	65.279412 
3627.000000	65.252923 
3626.000000	65.220212 
3625.000000	65.182924 
3624.000000	65.143322 
3623.000000	65.104365 
3622.000000	65.068721 
3621.000000	65.039086 
3620.000000	65.017247 
3619.000000	65.004634 
3618.000000	65.002155 
3617.000000	65.010213 
3616.000000	65.028429 
3615.000000	65.055799 
3614.000000	65.090298 
3613.000000	65.128779 
3612.000000	65.167140 
3611.000000	65.200948 
3610.000000	65.225815 
3609.000000	65.238451 
3608.000000	65.237450 
3607.000000	65.223670 
3606.000000	65.200161 
3605.000000	65.171694 
3604.000000	65.143775 
3603.000000	65.121293 
3602.000000	65.107536 
3601.000000	65.103650 
3600.000000	65.108489 
3599.000000	65.119385 
3598.000000	65.132808 
3597.000000	65.145468 
3596.000000	65.154981 
3595.000000	65.160322 
3594.000000	65.161633 
3593.000000	65.159821 
3592.000000	65.156006 
3591.000000	65.150761 
3590.000000	65.144181 
3589.000000	65.135931 
3588.000000	65.125536 
3587.000000	65.112781 
3586.000000	65.098094 
3585.000000	65.082716 
3584.000000	65.068435 
3583.000000	65.057110 
3582.000000	65.050268 
3581.000000	65.048623 
3580.000000	65.052080 
3579.000000	65.059947 
3578.000000	65.071129 
3577.000000	65.084266 
3576.000000	65.097856 
3575.000000	65.110278 
3574.000000	65.119910 
3573.000000	65.125155 
3572.000000	65.124416 
3571.000000	65.116548 
3570.000000	65.101218 
3569.000000	65.079045 
3568.000000	65.051913 
3567.000000	65.022659 
3566.000000	64.994645 
3565.000000	64.971184 
3564.000000	64.955115 
3563.000000	64.948296 
3562.000000	64.950871 
3561.000000	64.961934 
3560.000000	64.979386 
3559.000000	65.000772 
3558.000000	65.023517 
3557.000000	65.045642 
3556.000000	65.065646 
3555.000000	65.082931 
3554.000000	65.097260 
3553.000000	65.109300 
3552.000000	65.120029 
3551.000000	65.130877 
3550.000000	65.143251 
3549.000000	65.158557 
3548.000000	65.177512 
3547.000000	65.200257 
3546.000000	65.225744 
3545.000000	65.252041 
3544.000000	65.276169 
3543.000000	65.294694 
3542.000000	65.304255 
3541.000000	65.301871 
3540.000000	65.285849 
3539.000000	65.256190 
3538.000000	65.214991 
3537.000000	65.165901 
3536.000000	65.114045 
3535.000000	65.065217 
3534.000000	65.024948 
3533.000000	64.997315 
3532.000000	64.984416 
3531.000000	64.986133 
3530.000000	64.999961 
3529.000000	65.021777 
3528.000000	65.046477 
3527.000000	65.068864 
3526.000000	65.084624 
3525.000000	65.091109 
3524.000000	65.087366 
3523.000000	65.074229 
3522.000000	65.054059 
3521.000000	65.030121 
3520.000000	65.006208 
3519.000000	64.985775 
3518.000000	64.971756 
3517.000000	64.966011 
3516.000000	64.969563 
3515.000000	64.982199 
3514.000000	65.002965 
3513.000000	65.030050 
3512.000000	65.061211 
3511.000000	65.094017 
3510.000000	65.126228 
3509.000000	65.155887 
3508.000000	65.181684 
3507.000000	65.202593 
3506.000000	65.218138 
3505.000000	65.228080 
3504.000000	65.232515 
3503.000000	65.231752 
3502.000000	65.226507 
3501.000000	65.217471 
3500.000000	65.205693 
3499.000000	65.192389 
3498.000000	65.178990 
3497.000000	65.166759 
3496.000000	65.156888 
3495.000000	65.150499 
3494.000000	65.148639 
3493.000000	65.152072 
3492.000000	65.161085 
3491.000000	65.175318 
3490.000000	65.193653 
3489.000000	65.214467 
3488.000000	65.235590 
3487.000000	65.254545 
3486.000000	65.269231 
3485.000000	65.278220 
3484.000000	65.281033 
3483.000000	65.278315 
3482.000000	65.271162 
3481.000000	65.261030 
3480.000000	65.248751 
3479.000000	65.234565 
3478.000000	65.217542 
3477.000000	65.195846 
3476.000000	65.167427 
3475.000000	65.130710 
3474.000000	65.085363 
3473.000000	65.032744 
3472.000000	64.975738 
3471.000000	64.918541 
3470.000000	64.865779 
3469.000000	64.821791 
3468.000000	64.789867 
3467.000000	64.771914 
3466.000000	64.768242 
3465.000000	64.777874 
3464.000000	64.798927 
3463.000000	64.829063 
3462.000000	64.865612 
3461.000000	64.906048 
3460.000000	64.947867 
3459.000000	64.988613 
3458.000000	65.025615 
3457.000000	65.056180 
3456.000000	65.077638 
3455.000000	65.087747 
3454.000000	65.085220 
3453.000000	65.070056 
3452.000000	65.043783 
3451.000000	65.009474 
3450.000000	64.971494 
3449.000000	64.934897 
3448.000000	64.904475 
3447.000000	64.884066 
3446.000000	64.876079 
3445.000000	64.880871 
3444.000000	64.897012 
3443.000000	64.921641 
3442.000000	64.951086 
3441.000000	64.981460 
3440.000000	65.009498 
3439.000000	65.033078 
3438.000000	65.051412 
3437.000000	65.064764 
3436.000000	65.074133 
3435.000000	65.080976 
3434.000000	65.086698 
3433.000000	65.092539 
3432.000000	65.099048 
3431.000000	65.106439 
3430.000000	65.114116 
3429.000000	65.121436 
3428.000000	65.127420 
3427.000000	65.131020 
3426.000000	65.131545 
3425.000000	65.128731 
3424.000000	65.122771 
3423.000000	65.114355 
3422.000000	65.104341 
3421.000000	65.093755 
3420.000000	65.083479 
3419.000000	65.074253 
3418.000000	65.066385 
3417.000000	65.060091 
3416.000000	65.055489 
3415.000000	65.052962 
3414.000000	65.053033 
3413.000000	65.056419 
3412.000000	65.063762 
3411.000000	65.075230 
3410.000000	65.090513 
3409.000000	65.108466 
3408.000000	65.127038 
3407.000000	65.143561 
3406.000000	65.155363 
3405.000000	65.160226 
3404.000000	65.156936 
3403.000000	65.145301 
3402.000000	65.126419 
3401.000000	65.102076 
3400.000000	65.074872 
3399.000000	65.047264 
3398.000000	65.021467 
3397.000000	64.999151 
3396.000000	64.981317 
3395.000000	64.968609 
3394.000000	64.961338 
3393.000000	64.959788 
3392.000000	64.964056 
3391.000000	64.974164 
3390.000000	64.989781 
3389.000000	65.010070 
3388.000000	65.033435 
3387.000000	65.057563 
3386.000000	65.079498 
3385.000000	65.096259 
3384.000000	65.105247 
3383.000000	65.104818 
3382.000000	65.094590 
3381.000000	65.075826 
3380.000000	65.051150 
3379.000000	65.024113 
3378.000000	64.998722 
3377.000000	64.978623 
3376.000000	64.966416 
3375.000000	64.963507 
3374.000000	64.969587 
3373.000000	64.983010 
3372.000000	65.000844 
3371.000000	65.019726 
3370.000000	65.036058 
3369.000000	65.046834 
3368.000000	65.050101 
3367.000000	65.044951 
3366.000000	65.031886 
3365.000000	65.012717 
3364.000000	64.990234 
3363.000000	64.967727 
3362.000000	64.948511 
3361.000000	64.935684 
3360.000000	64.931511 
3359.000000	64.937257 
3358.000000	64.952778 
3357.000000	64.976763 
3356.000000	65.006852 
3355.000000	65.039801 
3354.000000	65.072154 
3353.000000	65.100407 
3352.000000	65.121746 
3351.000000	65.134191 
3350.000000	65.137028 
3349.000000	65.130949 
3348.000000	65.117621 
3347.000000	65.099740 
3346.000000	65.080595 
3345.000000	65.063381 
3344.000000	65.050888 
3343.000000	65.045094 
3342.000000	65.047073 
3341.000000	65.056943 
3340.000000	65.074086 
3339.000000	65.097236 
3338.000000	65.124487 
3337.000000	65.153622 
3336.000000	65.182304 
3335.000000	65.208005 
3334.000000	65.228199 
3333.000000	65.240740 
3332.000000	65.244150 
3331.000000	65.237998 
3330.000000	65.223073 
3329.000000	65.201497 
3328.000000	65.176415 
3327.000000	65.151572 
3326.000000	65.130662 
3325.000000	65.116763 
3324.000000	65.111613 
3323.000000	65.115499 
3322.000000	65.127205 
3321.000000	65.144562 
3320.000000	65.164828 
3319.000000	65.185284 
3318.000000	65.203666 
3317.000000	65.218520 
3316.000000	65.229177 
3315.000000	65.235590 
3314.000000	65.237903 
3313.000000	65.236210 
3312.000000	65.230488 
3311.000000	65.220856 
3310.000000	65.207195 
3309.000000	65.189576 
3308.000000	65.168333 
3307.000000	65.144371 
3306.000000	65.119004 
3305.000000	65.094041 
3304.000000	65.071320 
3303.000000	65.052485 
3302.000000	65.038657 
3301.000000	65.030598 
3300.000000	65.028285 
3299.000000	65.031170 
3298.000000	65.038514 
3297.000000	65.049266 
3296.000000	65.062403 
3295.000000	65.076589 
3294.000000	65.090012 
3293.000000	65.100908 
3292.000000	65.107226 
3291.000000	65.107917 
3290.000000	65.102577 
3289.000000	65.092611 
3288.000000	65.080642 
3287.000000	65.070438 
3286.000000	65.066051 
3285.000000	65.070700 
3284.000000	65.085983 
3283.000000	65.111088 
3282.000000	65.142941 
3281.000000	65.176749 
3280.000000	65.207052 
3279.000000	65.228962 
3278.000000	65.239429 
3277.000000	65.237808 
3276.000000	65.225887 
3275.000000	65.207195 
3274.000000	65.186023 
3273.000000	65.166163 
3272.000000	65.150332 
3271.000000	65.139770 
3270.000000	65.134239 
3269.000000	65.132641 
3268.000000	65.133237 
3267.000000	65.134215 
3266.000000	65.134143 
3265.000000	65.132093 
3264.000000	65.127825 
3263.000000	65.121579 
3262.000000	65.114188 
3261.000000	65.106487 
3260.000000	65.099668 
3259.000000	65.094614 
3258.000000	65.091896 
3257.000000	65.091681 
3256.000000	65.093564 
3255.000000	65.096735 
3254.000000	65.100145 
3253.000000	65.102720 
3252.000000	65.103864 
3251.000000	65.103149 
3250.000000	65.100598 
3249.000000	65.096139 
3248.000000	65.089416 
3247.000000	65.079641 
3246.000000	65.065312 
3245.000000	65.045475 
3244.000000	65.019774 
3243.000000	64.989590 
3242.000000	64.957928 
3241.000000	64.929294 
3240.000000	64.908742 
3239.000000	64.900708 
3238.000000	64.907765 
3237.000000	64.929842 
3236.000000	64.964079 
3235.000000	65.005278 
3234.000000	65.047097 
3233.000000	65.083432 
3232.000000	65.109682 
3231.000000	65.123844 
3230.000000	65.126585 
3229.000000	65.120697 
3228.000000	65.109944 
3227.000000	65.098166 
3226.000000	65.088319 
3225.000000	65.082097 
3224.000000	65.079736 
3223.000000	65.080785 
3222.000000	65.084266 
3221.000000	65.089178 
3220.000000	65.094447 
3219.000000	65.099358 
3218.000000	65.103149 
3217.000000	65.104961 
3216.000000	65.104126 
3215.000000	65.100049 
3214.000000	65.092563 
3213.000000	65.081834 
3212.000000	65.068769 
3211.000000	65.054893 
3210.000000	65.042304 
3209.000000	65.032935 
3208.000000	65.028715 
3207.000000	65.030860 
3206.000000	65.039920 
3205.000000	65.055680 
3204.000000	65.076994 
3203.000000	65.102267 
3202.000000	65.129375 
3201.000000	65.156221 
3200.000000	65.180563 
3199.000000	65.200352 
3198.000000	65.214109 
3197.000000	65.221023 
3196.000000	65.221166 
3195.000000	65.215182 
3194.000000	65.204215 
3193.000000	65.189599 
3192.000000	65.172815 
3191.000000	65.155243 
3190.000000	65.138125 
3189.000000	65.122509 
3188.000000	65.109443 
3187.000000	65.099883 
3186.000000	65.094757 
3185.000000	65.094804 
3184.000000	65.100264 
3183.000000	65.110778 
3182.000000	65.125107 
3181.000000	65.141487 
3180.000000	65.157699 
3179.000000	65.171575 
3178.000000	65.181469 
3177.000000	65.186643 
3176.000000	65.187239 
3175.000000	65.184092 
3174.000000	65.178465 
3173.000000	65.171337 
3172.000000	65.163421 
3171.000000	65.154957 
3170.000000	65.145993 
3169.000000	65.136671 
3168.000000	65.127301 
3167.000000	65.118932 
3166.000000	65.112853 
3165.000000	65.110540 
3164.000000	65.113091 
3163.000000	65.120744 
3162.000000	65.132403 
3161.000000	65.146183 
3160.000000	65.159296 
3159.000000	65.168619 
3158.000000	65.171670 
3157.000000	65.167212 
3156.000000	65.155410 
3155.000000	65.137934 
3154.000000	65.117502 
3153.000000	65.097236 
3152.000000	65.079903 
3151.000000	65.067410 
3150.000000	65.060043 
3149.000000	65.056800 
3148.000000	65.055680 
3147.000000	65.054368 
3146.000000	65.050768 
3145.000000	65.043711 
3144.000000	65.033364 
3143.000000	65.021347 
3142.000000	65.010261 
3141.000000	65.003132 
3140.000000	65.002703 
3139.000000	65.010833 
3138.000000	65.028023 
3137.000000	65.053200 
3136.000000	65.083885 
3135.000000	65.116715 
3134.000000	65.148043 
3133.000000	65.174698 
3132.000000	65.194463 
3131.000000	65.206336 
3130.000000	65.210747 
3129.000000	65.209197 
3128.000000	65.203809 
3127.000000	65.196633 
3126.000000	65.189385 
3125.000000	65.182781 
3124.000000	65.176701 
3123.000000	65.170216 
3122.000000	65.162086 
3121.000000	65.151095 
3120.000000	65.136575 
3119.000000	65.118575 
3118.000000	65.098237 
3117.000000	65.077233 
3116.000000	65.057873 
3115.000000	65.042352 
3114.000000	65.032482 
3113.000000	65.029287 
3112.000000	65.033030 
3111.000000	65.042924 
3110.000000	65.057754 
3109.000000	65.076088 
3108.000000	65.096712 
3107.000000	65.118455 
3106.000000	65.140509 
3105.000000	65.162205 
3104.000000	65.182924 
3103.000000	65.201640 
3102.000000	65.217208 
3101.000000	65.228390 
3100.000000	65.234160 
3099.000000	65.233778 
3098.000000	65.227198 
3097.000000	65.215086 
3096.000000	65.198898 
3095.000000	65.180563 
3094.000000	65.162062 
3093.000000	65.145325 
3092.000000	65.131878 
3091.000000	65.122818 
3090.000000	65.119028 
3089.000000	65.120959 
3088.000000	65.128970 
3087.000000	65.142846 
3086.000000	65.161752 
3085.000000	65.184044 
3084.000000	65.207266 
3083.000000	65.228271 
3082.000000	65.243887 
3081.000000	65.251350 
3080.000000	65.249133 
3079.000000	65.237045 
3078.000000	65.216588 
3077.000000	65.190315 
3076.000000	65.161490 
3075.000000	65.132975 
3074.000000	65.107035 
3073.000000	65.084671 
3072.000000	65.065908 
3071.000000	65.050053 
3070.000000	65.036439 
3069.000000	65.024876 
3068.000000	65.015792 
3067.000000	65.010023 
3066.000000	65.008449 
3065.000000	65.011358 
3064.000000	65.018200 
3063.000000	65.027356 
3062.000000	65.036702 
3061.000000	65.044140 
3060.000000	65.048170 
3059.000000	65.048432 
3058.000000	65.045714 
3057.000000	65.041971 
3056.000000	65.039467 
3055.000000	65.040278 
3054.000000	65.045714 
3053.000000	65.055656 
3052.000000	65.068721 
3051.000000	65.082788 
3050.000000	65.095376 
3049.000000	65.104365 
3048.000000	65.108585 
3047.000000	65.107822 
3046.000000	65.102910 
3045.000000	65.095281 
3044.000000	65.086364 
3043.000000	65.077185 
3042.000000	65.068125 
3041.000000	65.059208 
3040.000000	65.050172 
3039.000000	65.040707 
3038.000000	65.031099 
3037.000000	65.022182 
3036.000000	65.015482 
3035.000000	65.012741 
3034.000000	65.015554 
3033.000000	65.024733 
3032.000000	65.039873 
3031.000000	65.059518 
3030.000000	65.081119 
3029.000000	65.101695 
3028.000000	65.118455 
3027.000000	65.129566 
3026.000000	65.134310 
3025.000000	65.133333 
3024.000000	65.128445 
3023.000000	65.122175 
3022.000000	65.116930 
3021.000000	65.114641 
3020.000000	65.116381 
3019.000000	65.122175 
3018.000000	65.131306 
3017.000000	65.142560 
3016.000000	65.154862 
3015.000000	65.167307 
3014.000000	65.179395 
3013.000000	65.190935 
3012.000000	65.201783 
3011.000000	65.211558 
3010.000000	65.219616 
3009.000000	65.224957 
3008.000000	65.226340 
3007.000000	65.222930 
3006.000000	65.214347 
3005.000000	65.201044 
3004.000000	65.184211 
3003.000000	65.165710 
3002.000000	65.147447 
3001.000000	65.131330 
3000.000000	65.118551 
2999.000000	65.109372 
2998.000000	65.103316 
2997.000000	65.099573 
2996.000000	65.097069 
2995.000000	65.094971 
2994.000000	65.092778 
2993.000000	65.090322 
2992.000000	65.087842 
2991.000000	65.085554 
2990.000000	65.083813 
2989.000000	65.082740 
2988.000000	65.082359 
2987.000000	65.082716 
2986.000000	65.083932 
2985.000000	65.086364 
2984.000000	65.090537 
2983.000000	65.096902 
2982.000000	65.105819 
2981.000000	65.117287 
2980.000000	65.130782 
2979.000000	65.145111 
2978.000000	65.158605 
2977.000000	65.169072 
2976.000000	65.174579 
2975.000000	65.173196 
2974.000000	65.163636 
2973.000000	65.145373 
2972.000000	65.118956 
2971.000000	65.086340 
2970.000000	65.050411 
2969.000000	65.014958 
2968.000000	64.984250 
2967.000000	64.962124 
2966.000000	64.951348 
2965.000000	64.952850 
2964.000000	64.965462 
2963.000000	64.986157 
2962.000000	65.010595 
2961.000000	65.033841 
2960.000000	65.051531 
2959.000000	65.060496 
2958.000000	65.059447 
2957.000000	65.049147 
2956.000000	65.031981 
2955.000000	65.011477 
2954.000000	64.991259 
2953.000000	64.974641 
2952.000000	64.963960 
2951.000000	64.960241 
2950.000000	64.963436 
2949.000000	64.972758 
2948.000000	64.987039 
2947.000000	65.004968 
2946.000000	65.025424 
2945.000000	65.047454 
2944.000000	65.069913 
2943.000000	65.091586 
2942.000000	65.110850 
2941.000000	65.126085 
2940.000000	65.135288 
2939.000000	65.136742 
2938.000000	65.129160 
2937.000000	65.112447 
2936.000000	65.087676 
2935.000000	65.057063 
2934.000000	65.023660 
2933.000000	64.990973 
2932.000000	64.962196 
2931.000000	64.939808 
2930.000000	64.925050 
2929.000000	64.918112 
2928.000000	64.918351 
2927.000000	64.924931 
2926.000000	64.936685 
2925.000000	64.952659 
2924.000000	64.971828 
2923.000000	64.993023 
2922.000000	65.014576 
2921.000000	65.034556 
2920.000000	65.050721 
2919.000000	65.061092 
2918.000000	65.064382 
2917.000000	65.060567 
2916.000000	65.051078 
2915.000000	65.038657 
2914.000000	65.026640 
2913.000000	65.018415 
2912.000000	65.016436 
2911.000000	65.021753 
2910.000000	65.033411 
2909.000000	65.049099 
2908.000000	65.065670 
2907.000000	65.080022 
2906.000000	65.089869 
2905.000000	65.094280 
2904.000000	65.093564 
2903.000000	65.089321 
2902.000000	65.083694 
2901.000000	65.078735 
2900.000000	65.075707 
2899.000000	65.075206 
2898.000000	65.076780 
2897.000000	65.079331 
2896.000000	65.081381 
2895.000000	65.081501 
2894.000000	65.078592 
2893.000000	65.072202 
2892.000000	65.062308 
2891.000000	65.049409 
2890.000000	65.034222 
2889.000000	65.017747 
2888.000000	65.001010 
2887.000000	64.984965 
2886.000000	64.970493 
2885.000000	64.958357 
2884.000000	64.948940 
2883.000000	64.942336 
2882.000000	64.938497 
2881.000000	64.937043 
2880.000000	64.937758 
2879.000000	64.940357 
2878.000000	64.944791 
2877.000000	64.951133 
2876.000000	64.959478 
2875.000000	64.969754 
2874.000000	64.981603 
2873.000000	64.994287 
2872.000000	65.006470 
2871.000000	65.016508 
2870.000000	65.022706 
2869.000000	65.023708 
2868.000000	65.019035 
2867.000000	65.009284 
2866.000000	64.996194 
2865.000000	64.982557 
2864.000000	64.971375 
2863.000000	64.965534 
2862.000000	64.966750 
2861.000000	64.975476 
2860.000000	64.990568 
2859.000000	65.009808 
2858.000000	65.030455 
2857.000000	65.049958 
2856.000000	65.066742 
2855.000000	65.080404 
2854.000000	65.091562 
2853.000000	65.101528 
2852.000000	65.111613 
2851.000000	65.122413 
2850.000000	65.133428 
2849.000000	65.143084 
2848.000000	65.149188 
2847.000000	65.149593 
2846.000000	65.142869 
2845.000000	65.128850 
2844.000000	65.108919 
2843.000000	65.085625 
2842.000000	65.062165 
2841.000000	65.041446 
2840.000000	65.025544 
2839.000000	65.015602 
2838.000000	65.011572 
2837.000000	65.012574 
2836.000000	65.017628 
2835.000000	65.025901 
2834.000000	65.037012 
2833.000000	65.050935 
2832.000000	65.067815 
2831.000000	65.087366 
2830.000000	65.108680 
2829.000000	65.130019 
2828.000000	65.149068 
2827.000000	65.163564 
2826.000000	65.171813 
2825.000000	65.173149 
2824.000000	65.168166 
2823.000000	65.158629 
2822.000000	65.146994 
2821.000000	65.135788 
2820.000000	65.126895 
2819.000000	65.121197 
2818.000000	65.118598 
2817.000000	65.118050 
2816.000000	65.117859 
2815.000000	65.116524 
2814.000000	65.113019 
2813.000000	65.107083 
2812.000000	65.099215 
2811.000000	65.090227 
2810.000000	65.081238 
2809.000000	65.073084 
2808.000000	65.066051 
2807.000000	65.059924 
2806.000000	65.053915 
2805.000000	65.047073 
2804.000000	65.038609 
2803.000000	65.028238 
2802.000000	65.016174 
2801.000000	65.003180 
2800.000000	64.990663 
2799.000000	64.980316 
2798.000000	64.973616 
2797.000000	64.971685 
2796.000000	64.974975 
2795.000000	64.983201 
2794.000000	64.995336 
2793.000000	65.009880 
2792.000000	65.025186 
2791.000000	65.039849 
2790.000000	65.052819 
2789.000000	65.063667 
2788.000000	65.072441 
2787.000000	65.079712 
2786.000000	65.086078 
2785.000000	65.092158 
2784.000000	65.098094 
2783.000000	65.103673 
2782.000000	65.107893 
2781.000000	65.109658 
2780.000000	65.107440 
2779.000000	65.100240 
2778.000000	65.087628 
2777.000000	65.069866 
2776.000000	65.048289 
2775.000000	65.025019 
2774.000000	65.002846 
2773.000000	64.984726 
2772.000000	64.973211 
2771.000000	64.970064 
2770.000000	64.975857 
2769.000000	64.989900 
2768.000000	65.010285 
2767.000000	65.034222 
2766.000000	65.058422 
2765.000000	65.079855 
2764.000000	65.095996 
2763.000000	65.105223 
2762.000000	65.107131 
2761.000000	65.102243 
2760.000000	65.091800 
2759.000000	65.077757 
2758.000000	65.062499 
2757.000000	65.048384 
2756.000000	65.037751 
2755.000000	65.032410 
2754.000000	65.033698 
2753.000000	65.041756 
2752.000000	65.056061 
2751.000000	65.075039 
2750.000000	65.096545 
2749.000000	65.117955 
2748.000000	65.136671 
2747.000000	65.150690 
2746.000000	65.158653 
2745.000000	65.160202 
2744.000000	65.156030 
2743.000000	65.147638 
2742.000000	65.136981 
2741.000000	65.126085 
2740.000000	65.116786 
2739.000000	65.110301 
2738.000000	65.107107 
2737.000000	65.106892 
2736.000000	65.108942 
2735.000000	65.112161 
2734.000000	65.115523 
2733.000000	65.118217 
2732.000000	65.119886 
2731.000000	65.120649 
2730.000000	65.121078 
2729.000000	65.121817 
2728.000000	65.123391 
2727.000000	65.125918 
2726.000000	65.129256 
2725.000000	65.132808 
2724.000000	65.135884 
2723.000000	65.138006 
2722.000000	65.138912 
2721.000000	65.138864 
2720.000000	65.138387 
2719.000000	65.137958 
2718.000000	65.137648 
2717.000000	65.137028 
2716.000000	65.135121 
2715.000000	65.130662 
2714.000000	65.122413 
2713.000000	65.109825 
2712.000000	65.093278 
2711.000000	65.074396 
2710.000000	65.055775 
2709.000000	65.040516 
2708.000000	65.031719 
2707.000000	65.031599 
2706.000000	65.040969 
2705.000000	65.058827 
2704.000000	65.082931 
2703.000000	65.109729 
2702.000000	65.135288 
2701.000000	65.155935 
2700.000000	65.168857 
2699.000000	65.172600 
2698.000000	65.167140 
2697.000000	65.153908 
2696.000000	65.135335 
2695.000000	65.114593 
2694.000000	65.094971 
2693.000000	65.079188 
2692.000000	65.069270 
2691.000000	65.065884 
2690.000000	65.068745 
2689.000000	65.076375 
2688.000000	65.086722 
2687.000000	65.097451 
2686.000000	65.106487 
2685.000000	65.112400 
2684.000000	65.114402 
2683.000000	65.112543 
2682.000000	65.107178 
2681.000000	65.098953 
2680.000000	65.088319 
2679.000000	65.075469 
2678.000000	65.060353 
2677.000000	65.042829 
2676.000000	65.023183 
2675.000000	65.002036 
2674.000000	64.980864 
2673.000000	64.961767 
2672.000000	64.946889 
2671.000000	64.938187 
2670.000000	64.936876 
2669.000000	64.942979 
2668.000000	64.955568 
2667.000000	64.972424 
2666.000000	64.991188 
2665.000000	65.009474 
2664.000000	65.025615 
2663.000000	65.038847 
2662.000000	65.049076 
2661.000000	65.056848 
2660.000000	65.062689 
2659.000000	65.066862 
2658.000000	65.069127 
2657.000000	65.068721 
2656.000000	65.064811 
2655.000000	65.056729 
2654.000000	65.044689 
2653.000000	65.029525 
2652.000000	65.012931 
2651.000000	64.997029 
2650.000000	64.984011 
2649.000000	64.975452 
2648.000000	64.972186 
2647.000000	64.974093 
2646.000000	64.980483 
2645.000000	64.990091 
2644.000000	65.001654 
2643.000000	65.014195 
2642.000000	65.026974 
2641.000000	65.039324 
2640.000000	65.050721 
2639.000000	65.060377 
2638.000000	65.067291 
2637.000000	65.070486 
2636.000000	65.069079 
2635.000000	65.062856 
2634.000000	65.052556 
2633.000000	65.039825 
2632.000000	65.026998 
2631.000000	65.016698 
2630.000000	65.011334 
2629.000000	65.012359 
2628.000000	65.019822 
2627.000000	65.032267 
2626.000000	65.047144 
2625.000000	65.061283 
2624.000000	65.071702 
2623.000000	65.076231 
2622.000000	65.074110 
2621.000000	65.066003 
2620.000000	65.054035 
2619.000000	65.040993 
2618.000000	65.029883 
2617.000000	65.023136 
2616.000000	65.022063 
2615.000000	65.026617 
2614.000000	65.035223 
2613.000000	65.045452 
2612.000000	65.054416 
2611.000000	65.059685 
2610.000000	65.059614 
2609.000000	65.053677 
2608.000000	65.042638 
2607.000000	65.028262 
2606.000000	65.012931 
2605.000000	64.998912 
2604.000000	64.988207 
2603.000000	64.981985 
2602.000000	64.980602 
2601.000000	64.983654 
2600.000000	64.990234 
2599.000000	64.999389 
2598.000000	65.010023 
2597.000000	65.021443 
2596.000000	65.033245 
2595.000000	65.045213 
2594.000000	65.057134 
2593.000000	65.068769 
2592.000000	65.079951 
2591.000000	65.090346 
2590.000000	65.099549 
2589.000000	65.107202 
2588.000000	65.112900 
2587.000000	65.116477 
2586.000000	65.117979 
2585.000000	65.117478 
2584.000000	65.115332 
2583.000000	65.111899 
2582.000000	65.107583 
2581.000000	65.102744 
2580.000000	65.097713 
2579.000000	65.092539 
2578.000000	65.087103 
2577.000000	65.081214 
2576.000000	65.074920 
2575.000000	65.068268 
2574.000000	65.061688 
2573.000000	65.055751 
2572.000000	65.051364 
2571.000000	65.049290 
2570.000000	65.050148 
2569.000000	65.054249 
2568.000000	65.061259 
2567.000000	65.070438 
2566.000000	65.080380 
2565.000000	65.089607 
2564.000000	65.096688 
2563.000000	65.100669 
2562.000000	65.101194 
2561.000000	65.098667 
2560.000000	65.094208 
2559.000000	65.089201 
2558.000000	65.085077 
2557.000000	65.082764 
2556.000000	65.082335 
2555.000000	65.083122 
2554.000000	65.083670 
2553.000000	65.082287 
2552.000000	65.077471 
2551.000000	65.068387 
2550.000000	65.054941 
2549.000000	65.037941 
2548.000000	65.019035 
2547.000000	65.000247 
2546.000000	64.983606 
2545.000000	64.970707 
2544.000000	64.962649 
2543.000000	64.959979 
2542.000000	64.962506 
2541.000000	64.969635 
2540.000000	64.980530 
2539.000000	64.994382 
2538.000000	65.010452 
2537.000000	65.027976 
2536.000000	65.046048 
2535.000000	65.063405 
2534.000000	65.078449 
2533.000000	65.089225 
2532.000000	65.093636 
2531.000000	65.089964 
2530.000000	65.077376 
2529.000000	65.056252 
2528.000000	65.028452 
2527.000000	64.997172 
2526.000000	64.966464 
2525.000000	64.940714 
2524.000000	64.923810 
2523.000000	64.918518 
2522.000000	64.926099 
2521.000000	64.946150 
2520.000000	64.976620 
2519.000000	65.014266 
2518.000000	65.055179 
2517.000000	65.095376 
2516.000000	65.131187 
2515.000000	65.159749 
2514.000000	65.179371 
2513.000000	65.189194 
2512.000000	65.189647 
2511.000000	65.182018 
2510.000000	65.168142 
2509.000000	65.150403 
2508.000000	65.131068 
2507.000000	65.112400 
2506.000000	65.096068 
2505.000000	65.083146 
2504.000000	65.074038 
2503.000000	65.068602 
2502.000000	65.066170 
2501.000000	65.065932 
2500.000000	65.067172 
2499.000000	65.069365 
2498.000000	65.072298 
2497.000000	65.075969 
2496.000000	65.080571 
2495.000000	65.086221 
2494.000000	65.092897 
2493.000000	65.100336 
2492.000000	65.108084 
2491.000000	65.115690 
2490.000000	65.122818 
2489.000000	65.129160 
2488.000000	65.134763 
2487.000000	65.139508 
2486.000000	65.143370 
2485.000000	65.145993 
2484.000000	65.147018 
2483.000000	65.145921 
2482.000000	65.142178 
2481.000000	65.135502 
2480.000000	65.125989 
2479.000000	65.114212 
2478.000000	65.101408 
2477.000000	65.089154 
2476.000000	65.079164 
2475.000000	65.072798 
2474.000000	65.070962 
2473.000000	65.073490 
2472.000000	65.079355 
2471.000000	65.086531 
2470.000000	65.092611 
2469.000000	65.095067 
2468.000000	65.092158 
2467.000000	65.083026 
2466.000000	65.068316 
2465.000000	65.050029 
2464.000000	65.031123 
2463.000000	65.015029 
2462.000000	65.004897 
2461.000000	65.002942 
2460.000000	65.009975 
2459.000000	65.025210 
2458.000000	65.046596 
2457.000000	65.071439 
2456.000000	65.096926 
2455.000000	65.120601 
2454.000000	65.140700 
2453.000000	65.156340 
2452.000000	65.167236 
2451.000000	65.173459 
2450.000000	65.174984 
2449.000000	65.171742 
2448.000000	65.163493 
2447.000000	65.150284 
2446.000000	65.132617 
2445.000000	65.111684 
2444.000000	65.089559 
2443.000000	65.069103 
2442.000000	65.053343 
2441.000000	65.045166 
2440.000000	65.046477 
2439.000000	65.057659 
2438.000000	65.077590 
2437.000000	65.103578 
2436.000000	65.131807 
2435.000000	65.157961 
2434.000000	65.177607 
2433.000000	65.187168 
2432.000000	65.184354 
2431.000000	65.168523 
2430.000000	65.140414 
2429.000000	65.102267 
2428.000000	65.057373 
2427.000000	65.009760 
2426.000000	64.963650 
2425.000000	64.923024 
2424.000000	64.891004 
2423.000000	64.869856 
2422.000000	64.860725 
2421.000000	64.863491 
2420.000000	64.876937 
2419.000000	64.898729 
2418.000000	64.925861 
2417.000000	64.954876 
2416.000000	64.982414 
2415.000000	65.005397 
2414.000000	65.021514 
2413.000000	65.029501 
2412.000000	65.029430 
2411.000000	65.022611 
2410.000000	65.011334 
2409.000000	64.998793 
2408.000000	64.988327 
2407.000000	64.982938 
2406.000000	64.984488 
2405.000000	64.993596 
2404.000000	65.009236 
2403.000000	65.029072 
2402.000000	65.049672 
2401.000000	65.067553 
2400.000000	65.079665 
2399.000000	65.084242 
2398.000000	65.081334 
2397.000000	65.072631 
2396.000000	65.061116 
2395.000000	65.050053 
2394.000000	65.042376 
2393.000000	65.039920 
2392.000000	65.042877 
2391.000000	65.049886 
2390.000000	65.058445 
2389.000000	65.065717 
2388.000000	65.069317 
2387.000000	65.068054 
2386.000000	65.062141 
2385.000000	65.053129 
2384.000000	65.043568 
2383.000000	65.036296 
2382.000000	65.033578 
2381.000000	65.036725 
2380.000000	65.045762 
2379.000000	65.059423 
2378.000000	65.075826 
2377.000000	65.092420 
2376.000000	65.107011 
2375.000000	65.117812 
2374.000000	65.123748 
2373.000000	65.124535 
2372.000000	65.120673 
2371.000000	65.113162 
2370.000000	65.103197 
2369.000000	65.091967 
2368.000000	65.080571 
2367.000000	65.069842 
2366.000000	65.060377 
2365.000000	65.052437 
2364.000000	65.046095 
2363.000000	65.041327 
2362.000000	65.038156 
2361.000000	65.036582 
2360.000000	65.036702 
2359.000000	65.038537 
2358.000000	65.042209 
2357.000000	65.047502 
2356.000000	65.054130 
2355.000000	65.061450 
2354.000000	65.068531 
2353.000000	65.074515 
2352.000000	65.078687 
2351.000000	65.080666 
2350.000000	65.080380 
2349.000000	65.078163 
2348.000000	65.074491 
2347.000000	65.070033 
2346.000000	65.065169 
2345.000000	65.060138 
2344.000000	65.054821 
2343.000000	65.048861 
2342.000000	65.041828 
2341.000000	65.033268 
2340.000000	65.022969 
2339.000000	65.011143 
2338.000000	64.998364 
2337.000000	64.985466 
2336.000000	64.973568 
2335.000000	64.963793 
2334.000000	64.957118 
2333.000000	64.954066 
2332.000000	64.954710 
2331.000000	64.958715 
2330.000000	64.965057 
2329.000000	64.972448 
2328.000000	64.979267 
2327.000000	64.984083 
2326.000000	64.985656 
2325.000000	64.983487 
2324.000000	64.977550 
2323.000000	64.968633 
2322.000000	64.958262 
2321.000000	64.948344 
2320.000000	64.940857 
2319.000000	64.937639 
2318.000000	64.939928 
2317.000000	64.948225 
2316.000000	64.962172 
2315.000000	64.980530 
2314.000000	65.001583 
2313.000000	65.023183 
2312.000000	65.043306 
2311.000000	65.060257 
2310.000000	65.072751 
2309.000000	65.080308 
2308.000000	65.083265 
2307.000000	65.082550 
2306.000000	65.079498 
2305.000000	65.075731 
2304.000000	65.072607 
2303.000000	65.071058 
2302.000000	65.071177 
2301.000000	65.072464 
2300.000000	65.073513 
2299.000000	65.072584 
2298.000000	65.067863 
2297.000000	65.057921 
2296.000000	65.042042 
2295.000000	65.020537 
2294.000000	64.994859 
2293.000000	64.967060 
2292.000000	64.939689 
2291.000000	64.915108 
2290.000000	64.895248 
2289.000000	64.881181 
2288.000000	64.873266 
2287.000000	64.871263 
2286.000000	64.874696 
2285.000000	64.882874 
2284.000000	64.894938 
2283.000000	64.910054 
2282.000000	64.927124 
2281.000000	64.944720 
2280.000000	64.961242 
2279.000000	64.975023 
2278.000000	64.984631 
2277.000000	64.988994 
2276.000000	64.988017 
2275.000000	64.982271 
2274.000000	64.973235 
2273.000000	64.962601 
2272.000000	64.952063 
2271.000000	64.942932 
2270.000000	64.935708 
2269.000000	64.930224 
2268.000000	64.925861 
2267.000000	64.921879 
2266.000000	64.917755 
2265.000000	64.913344 
2264.000000	64.908957 
2263.000000	64.905071 
2262.000000	64.902210 
2261.000000	64.900660 
2260.000000	64.900207 
2259.000000	64.900445 
2258.000000	64.900708 
2257.000000	64.900493 
2256.000000	64.899420 
2255.000000	64.897441 
2254.000000	64.894795 
2253.000000	64.892053 
2252.000000	64.889597 
2251.000000	64.887475 
2250.000000	64.885330 
2249.000000	64.882445 
2248.000000	64.877796 
2247.000000	64.870524 
2246.000000	64.860081 
2245.000000	64.846491 
2244.000000	64.830517 
2243.000000	64.813566 
2242.000000	64.797377 
2241.000000	64.783620 
2240.000000	64.773631 
2239.000000	64.768266 
2238.000000	64.767789 
2237.000000	64.771914 
2236.000000	64.779901 
2235.000000	64.790964 
2234.000000	64.804458 
2233.000000	64.819812 
2232.000000	64.836692 
2231.000000	64.854764 
2230.000000	64.873337 
2229.000000	64.891505 
2228.000000	64.908003 
2227.000000	64.921474 
2226.000000	64.930796 
2225.000000	64.935326 
2224.000000	64.935159 
2223.000000	64.930987 
2222.000000	64.924049 
2221.000000	64.915704 
2220.000000	64.906978 
2219.000000	64.898753 
2218.000000	64.891242 
2217.000000	64.884567 
2216.000000	64.878606 
2215.000000	64.873600 
2214.000000	64.870023 
2213.000000	64.868521 
2212.000000	64.869904 
2211.000000	64.874505 
2210.000000	64.882040 
2209.000000	64.891529 
2208.000000	64.901280 
2207.000000	64.909482 
2206.000000	64.914631 
2205.000000	64.916038 
2204.000000	64.914155 
2203.000000	64.910435 
2202.000000	64.907002 
2201.000000	64.905977 
2200.000000	64.908862 
2199.000000	64.916038 
2198.000000	64.926600 
2197.000000	64.938664 
2196.000000	64.949774 
2195.000000	64.957594 
2194.000000	64.960527 
2193.000000	64.958167 
2192.000000	64.951348 
2191.000000	64.942026 
2190.000000	64.932656 
2189.000000	64.925551 
2188.000000	64.922237 
2187.000000	64.923095 
2186.000000	64.927363 
2185.000000	64.933371 
2184.000000	64.938974 
2183.000000	64.942526 
2182.000000	64.943194 
2181.000000	64.941072 
2180.000000	64.937305 
2179.000000	64.933562 
2178.000000	64.931774 
2177.000000	64.933371 
2176.000000	64.939069 
2175.000000	64.948654 
2174.000000	64.961194 
2173.000000	64.975428 
2172.000000	64.990067 
2171.000000	65.003919 
2170.000000	65.016269 
2169.000000	65.026450 
2168.000000	65.033888 
2167.000000	65.037727 
2166.000000	65.036845 
2165.000000	65.029835 
2164.000000	65.015840 
2163.000000	64.994239 
2162.000000	64.965581 
2161.000000	64.931130 
2160.000000	64.892959 
2159.000000	64.853239 
2158.000000	64.814186 
2157.000000	64.777565 
2156.000000	64.744520 
2155.000000	64.715862 
2154.000000	64.692020 
2153.000000	64.673709 
2152.000000	64.661788 
2151.000000	64.657521 
2150.000000	64.662122 
2149.000000	64.676451 
2148.000000	64.700460 
2147.000000	64.732909 
2146.000000	64.771127 
2145.000000	64.811491 
2144.000000	64.849901 
2143.000000	64.882445 
2142.000000	64.906144 
2141.000000	64.919233 
2140.000000	64.921545 
2139.000000	64.914250 
2138.000000	64.899897 
2137.000000	64.881706 
2136.000000	64.863181 
2135.000000	64.847636 
2134.000000	64.837431 
2133.000000	64.833974 
2132.000000	64.837169 
2131.000000	64.845919 
2130.000000	64.858245 
2129.000000	64.871644 
2128.000000	64.883947 
2127.000000	64.893603 
2126.000000	64.899921 
2125.000000	64.902949 
2124.000000	64.903402 
2123.000000	64.902257 
2122.000000	64.900374 
2121.000000	64.898037 
2120.000000	64.895129 
2119.000000	64.891266 
2118.000000	64.886236 
2117.000000	64.880251 
2116.000000	64.874124 
2115.000000	64.869093 
2114.000000	64.866614 
2113.000000	64.867591 
2112.000000	64.872074 
2111.000000	64.879059 
2110.000000	64.886355 
2109.000000	64.891362 
2108.000000	64.891552 
2107.000000	64.885258 
2106.000000	64.872288 
2105.000000	64.854025 
2104.000000	64.832973 
2103.000000	64.812517 
2102.000000	64.795923 
2101.000000	64.785671 
2100.000000	64.782857 
2099.000000	64.787340 
2098.000000	64.797782 
2097.000000	64.812159 
2096.000000	64.828348 
2095.000000	64.844274 
2094.000000	64.858388 
2093.000000	64.869594 
2092.000000	64.877200 
2091.000000	64.880967 
2090.000000	64.881134 
2089.000000	64.878344 
2088.000000	64.873766 
2087.000000	64.868998 
2086.000000	64.865922 
2085.000000	64.866399 
2084.000000	64.871621 
2083.000000	64.881753 
2082.000000	64.895677 
2081.000000	64.911127 
2080.000000	64.925026 
2079.000000	64.934134 
2078.000000	64.935874 
2077.000000	64.928984 
2076.000000	64.913892 
2075.000000	64.892816 
2074.000000	64.869427 
2073.000000	64.847612 
2072.000000	64.831233 
2071.000000	64.822864 
2070.000000	64.823675 
2069.000000	64.833188 
2068.000000	64.849591 
2067.000000	64.870262 
2066.000000	64.892363 
2065.000000	64.913296 
2064.000000	64.931297 
2063.000000	64.945530 
2062.000000	64.955854 
2061.000000	64.962553 
2060.000000	64.966416 
2059.000000	64.968252 
2058.000000	64.969086 
2057.000000	64.969587 
2056.000000	64.970564 
2055.000000	64.972543 
2054.000000	64.976000 
2053.000000	64.981126 
2052.000000	64.987587 
2051.000000	64.994692 
2050.000000	65.001487 
2049.000000	65.006518 
2048.000000	65.008425 
2047.000000	65.006089 
2046.000000	64.998936 
2045.000000	64.987134 
2044.000000	64.971709 
2043.000000	64.954304 
2042.000000	64.937043 
2041.000000	64.922046 
2040.000000	64.910864 
2039.000000	64.904379 
2038.000000	64.902496 
2037.000000	64.904284 
2036.000000	64.908099 
2035.000000	64.912033 
2034.000000	64.914417 
2033.000000	64.914178 
2032.000000	64.911174 
2031.000000	64.905905 
2030.000000	64.899611 
2029.000000	64.893770 
2028.000000	64.889860 
2027.000000	64.888715 
2026.000000	64.890503 
2025.000000	64.894604 
2024.000000	64.899897 
2023.000000	64.905023 
2022.000000	64.908933 
2021.000000	64.911055 
2020.000000	64.911460 
2019.000000	64.910888 
2018.000000	64.910387 
2017.000000	64.911007 
2016.000000	64.913296 
2015.000000	64.917206 
2014.000000	64.922094 
2013.000000	64.926910 
2012.000000	64.930582 
2011.000000	64.932394 
2010.000000	64.932179 
2009.000000	64.930534 
2008.000000	64.928460 
2007.000000	64.926862 
2006.000000	64.926409 
2005.000000	64.926934 
2004.000000	64.927506 
2003.000000	64.926624 
2002.000000	64.922738 
2001.000000	64.914798 
2000.000000	64.902806 
1999.000000	64.887881 
1998.000000	64.872097 
1997.000000	64.858031 
1996.000000	64.848089 
1995.000000	64.843988 
1994.000000	64.846277 
1993.000000	64.854145 
1992.000000	64.865636 
1991.000000	64.878273 
1990.000000	64.889359 
1989.000000	64.896726 
1988.000000	64.899039 
1987.000000	64.895939 
1986.000000	64.888000 
1985.000000	64.876246 
1984.000000	64.862036 
1983.000000	64.846682 
1982.000000	64.831304 
1981.000000	64.816880 
1980.000000	64.804053 
1979.000000	64.793467 
1978.000000	64.785623 
1977.000000	64.780950 
1976.000000	64.779591 
1975.000000	64.781522 
1974.000000	64.786291 
1973.000000	64.792966 
1972.000000	64.800620 
1971.000000	64.808154 
1970.000000	64.814805 
1969.000000	64.820313 
1968.000000	64.824795 
1967.000000	64.828991 
1966.000000	64.833712 
1965.000000	64.839839 
1964.000000	64.847874 
1963.000000	64.857745 
1962.000000	64.868760 
1961.000000	64.879798 
1960.000000	64.889574 
1959.000000	64.897060 
1958.000000	64.901757 
1957.000000	64.903664 
1956.000000	64.903521 
1955.000000	64.902400 
1954.000000	64.901566 
1953.000000	64.901876 
1952.000000	64.903664 
1951.000000	64.906549 
1950.000000	64.909696 
1949.000000	64.911770 
1948.000000	64.911437 
1947.000000	64.907670 
1946.000000	64.900064 
1945.000000	64.888834 
1944.000000	64.875125 
1943.000000	64.860534 
1942.000000	64.846754 
1941.000000	64.835453 
1940.000000	64.827847 
1939.000000	64.824438 
1938.000000	64.824938 
1937.000000	64.828467 
1936.000000	64.833712 
1935.000000	64.839220 
1934.000000	64.843630 
1933.000000	64.845895 
1932.000000	64.845299 
1931.000000	64.841532 
1930.000000	64.834833 
1929.000000	64.825868 
1928.000000	64.815711 
1927.000000	64.805722 
1926.000000	64.797353 
1925.000000	64.791989 
1924.000000	64.790606 
1923.000000	64.793705 
1922.000000	64.801096 
1921.000000	64.811754 
1920.000000	64.824128 
1919.000000	64.836287 
1918.000000	64.846301 
1917.000000	64.852690 
1916.000000	64.854550 
1915.000000	64.851665 
1914.000000	64.844751 
1913.000000	64.835190 
1912.000000	64.824795 
1911.000000	64.815425 
1910.000000	64.808988 
1909.000000	64.806842 
1908.000000	64.809989 
1907.000000	64.818739 
1906.000000	64.832758 
1905.000000	64.851236 
1904.000000	64.872670 
1903.000000	64.895367 
1902.000000	64.917325 
1901.000000	64.936757 
1900.000000	64.952278 
1899.000000	64.962983 
1898.000000	64.968633 
1897.000000	64.969515 
1896.000000	64.966487 
1895.000000	64.960551 
1894.000000	64.952898 
1893.000000	64.944267 
1892.000000	64.934992 
1891.000000	64.925003 
1890.000000	64.914107 
1889.000000	64.901876 
1888.000000	64.888143 
1887.000000	64.873194 
1886.000000	64.857745 
1885.000000	64.843010 
1884.000000	64.830207 
1883.000000	64.820408 
1882.000000	64.814305 
1881.000000	64.812016 
1880.000000	64.812946 
1879.000000	64.816045 
1878.000000	64.820194 
1877.000000	64.824557 
1876.000000	64.828610 
1875.000000	64.832520 
1874.000000	64.837026 
1873.000000	64.842891 
1872.000000	64.850664 
1871.000000	64.860343 
1870.000000	64.870905 
1869.000000	64.880681 
1868.000000	64.887499 
1867.000000	64.889287 
1866.000000	64.884686 
1865.000000	64.873456 
1864.000000	64.856672 
1863.000000	64.836621 
1862.000000	64.816164 
1861.000000	64.798307 
1860.000000	64.785313 
1859.000000	64.778423 
1858.000000	64.777445 
1857.000000	64.781117 
1856.000000	64.787459 
1855.000000	64.794349 
1854.000000	64.800095 
1853.000000	64.803767 
1852.000000	64.805316 
1851.000000	64.805316 
1850.000000	64.804744 
1849.000000	64.804482 
1848.000000	64.805102 
1847.000000	64.806604 
1846.000000	64.808702 
1845.000000	64.810776 
1844.000000	64.812207 
1843.000000	64.812636 
1842.000000	64.812064 
1841.000000	64.810752 
1840.000000	64.809346 
1839.000000	64.808297 
1838.000000	64.808011 
1837.000000	64.808511 
1836.000000	64.809322 
1835.000000	64.809775 
1834.000000	64.809012 
1833.000000	64.806365 
1832.000000	64.801549 
1831.000000	64.794850 
1830.000000	64.787149 
1829.000000	64.779710 
1828.000000	64.773726 
1827.000000	64.770293 
1826.000000	64.770030 
1825.000000	64.773130 
1824.000000	64.779424 
1823.000000	64.788341 
1822.000000	64.799213 
1821.000000	64.811134 
1820.000000	64.823055 
1819.000000	64.833927 
1818.000000	64.842677 
1817.000000	64.848256 
1816.000000	64.849901 
1815.000000	64.847373 
1814.000000	64.840936 
1813.000000	64.831519 
1812.000000	64.820361 
1811.000000	64.809298 
1810.000000	64.799857 
1809.000000	64.793395 
1808.000000	64.790701 
1807.000000	64.791965 
1806.000000	64.796590 
1805.000000	64.803528 
1804.000000	64.811325 
1803.000000	64.818620 
1802.000000	64.824295 
1801.000000	64.827728 
1800.000000	64.828729 
1799.000000	64.827656 
1798.000000	64.825153 
1797.000000	64.822006 
1796.000000	64.818954 
1795.000000	64.816546 
1794.000000	64.814925 
1793.000000	64.813923 
1792.000000	64.812970 
1791.000000	64.811396 
1790.000000	64.808368 
1789.000000	64.803409 
1788.000000	64.796137 
1787.000000	64.786720 
1786.000000	64.775633 
1785.000000	64.763951 
1784.000000	64.752840 
1783.000000	64.743709 
1782.000000	64.737820 
1781.000000	64.736390 
1780.000000	64.740014 
1779.000000	64.748859 
1778.000000	64.762616 
1777.000000	64.780354 
1776.000000	64.800643 
1775.000000	64.821743 
1774.000000	64.841723 
1773.000000	64.858698 
1772.000000	64.871048 
1771.000000	64.877724 
1770.000000	64.878606 
1769.000000	64.874267 
1768.000000	64.865994 
1767.000000	64.855527 
1766.000000	64.844846 
1765.000000	64.835691 
1764.000000	64.829373 
1763.000000	64.826607 
1762.000000	64.827370 
1761.000000	64.831185 
1760.000000	64.837026 
1759.000000	64.843654 
1758.000000	64.849781 
1757.000000	64.854216 
1756.000000	64.855957 
1755.000000	64.854240 
1754.000000	64.848518 
1753.000000	64.838814 
1752.000000	64.825296 
1751.000000	64.808583 
1750.000000	64.789438 
1749.000000	64.769196 
1748.000000	64.748907 
1747.000000	64.729452 
1746.000000	64.711308 
1745.000000	64.694619 
1744.000000	64.679288 
1743.000000	64.665079 
1742.000000	64.651894 
1741.000000	64.639735 
1740.000000	64.628791 
1739.000000	64.619469 
1738.000000	64.612030 
1737.000000	64.606547 
1736.000000	64.602828 
1735.000000	64.600396 
1734.000000	64.598536 
1733.000000	64.596605 
1732.000000	64.593815 
1731.000000	64.589929 
1730.000000	64.584922 
1729.000000	64.579606 
1728.000000	64.575004 
1727.000000	64.572834 
1726.000000	64.574742 
1725.000000	64.582347 
1724.000000	64.597010 
1723.000000	64.619183 
1722.000000	64.648532 
1721.000000	64.683580 
1720.000000	64.721703 
1719.000000	64.759635 
1718.000000	64.794039 
1717.000000	64.821958 
1716.000000	64.841485 
1715.000000	64.852213 
1714.000000	64.855146 
1713.000000	64.852261 
1712.000000	64.845895 
1711.000000	64.838314 
1710.000000	64.831233 
1709.000000	64.825606 
1708.000000	64.821696 
1707.000000	64.819693 
1706.000000	64.819455 
1705.000000	64.820885 
1704.000000	64.823794 
1703.000000	64.827871 
1702.000000	64.832210 
1701.000000	64.835524 
1700.000000	64.836025 
1699.000000	64.831638 
1698.000000	64.820790 
1697.000000	64.802956 
1696.000000	64.778923 
1695.000000	64.750981 
1694.000000	64.722466 
1693.000000	64.697217 
1692.000000	64.678454 
1691.000000	64.668250 
1690.000000	64.666843 
1689.000000	64.672923 
1688.000000	64.683890 
1687.000000	64.696526 
1686.000000	64.707851 
1685.000000	64.715838 
1684.000000	64.719629 
1683.000000	64.719724 
1682.000000	64.717602 
1681.000000	64.715313 
1680.000000	64.714598 
1679.000000	64.716386 
1678.000000	64.720726 
1677.000000	64.726352 
1676.000000	64.731454 
1675.000000	64.734148 
1674.000000	64.733004 
1673.000000	64.727425 
1672.000000	64.718008 
1671.000000	64.706230 
1670.000000	64.694118 
1669.000000	64.683866 
1668.000000	64.677166 
1667.000000	64.675140 
1666.000000	64.677858 
1665.000000	64.685034 
1664.000000	64.695906 
1663.000000	64.709734 
1662.000000	64.725971 
1661.000000	64.744329 
1660.000000	64.764642 
1659.000000	64.786243 
1658.000000	64.807796 
1657.000000	64.827346 
1656.000000	64.842581 
1655.000000	64.851403 
1654.000000	64.852619 
1653.000000	64.846277 
1652.000000	64.833760 
1651.000000	64.817404 
1650.000000	64.799857 
1649.000000	64.783525 
1648.000000	64.769721 
1647.000000	64.758872 
1646.000000	64.750099 
1645.000000	64.742112 
1644.000000	64.733433 
1643.000000	64.723467 
1642.000000	64.712524 
1641.000000	64.701747 
1640.000000	64.692950 
1639.000000	64.687848 
1638.000000	64.687752 
1637.000000	64.692950 
1636.000000	64.702844 
1635.000000	64.715957 
1634.000000	64.730405 
1633.000000	64.744305 
1632.000000	64.755988 
1631.000000	64.764451 
1630.000000	64.769101 
1629.000000	64.769959 
1628.000000	64.767742 
1627.000000	64.763522 
1626.000000	64.758872 
1625.000000	64.755010 
1624.000000	64.752912 
1623.000000	64.752531 
1622.000000	64.753150 
1621.000000	64.753055 
1620.000000	64.749979 
1619.000000	64.741683 
1618.000000	64.726591 
1617.000000	64.704537 
1616.000000	64.676856 
1615.000000	64.646601 
1614.000000	64.617943 
1613.000000	64.595317 
1612.000000	64.582562 
1611.000000	64.581894 
1610.000000	64.593315 
1609.000000	64.614701 
1608.000000	64.642333 
1607.000000	64.671611 
1606.000000	64.698004 
1605.000000	64.717841 
1604.000000	64.729094 
1603.000000	64.731264 
1602.000000	64.725637 
1601.000000	64.714598 
1600.000000	64.701581 
1599.000000	64.689946 
1598.000000	64.682507 
1597.000000	64.681029 
1596.000000	64.685916 
1595.000000	64.696478 
1594.000000	64.711022 
1593.000000	64.727377 
1592.000000	64.743304 
1591.000000	64.757132 
1590.000000	64.767956 
1589.000000	64.775586 
1588.000000	64.780282 
1587.000000	64.782738 
1586.000000	64.783549 
1585.000000	64.783215 
1584.000000	64.781713 
1583.000000	64.778852 
1582.000000	64.773917 
1581.000000	64.766001 
1580.000000	64.754176 
1579.000000	64.737963 
1578.000000	64.717459 
1577.000000	64.693403 
1576.000000	64.667105 
1575.000000	64.640450 
1574.000000	64.615464 
1573.000000	64.594173 
1572.000000	64.578080 
1571.000000	64.568233 
1570.000000	64.565372 
1569.000000	64.569783 
1568.000000	64.581227 
1567.000000	64.599108 
1566.000000	64.622187 
1565.000000	64.648795 
1564.000000	64.676666 
1563.000000	64.703392 
1562.000000	64.726614 
1561.000000	64.744639 
1560.000000	64.756321 
1559.000000	64.761710 
1558.000000	64.761805 
1557.000000	64.758133 
1556.000000	64.752674 
1555.000000	64.747047 
1554.000000	64.742350 
1553.000000	64.739060 
1552.000000	64.737105 
1551.000000	64.736032 
1550.000000	64.735531 
1549.000000	64.735531 
1548.000000	64.736318 
1547.000000	64.738154 
1546.000000	64.740967 
1545.000000	64.744210 
1544.000000	64.746665 
1543.000000	64.746522 
1542.000000	64.741802 
1541.000000	64.731049 
1540.000000	64.713668 
1539.000000	64.690423 
1538.000000	64.663243 
1537.000000	64.634895 
1536.000000	64.608454 
1535.000000	64.586567 
1534.000000	64.570832 
1533.000000	64.561462 
1532.000000	64.557671 
1531.000000	64.558267 
1530.000000	64.561772 
1529.000000	64.567160 
1528.000000	64.574003 
1527.000000	64.582562 
1526.000000	64.593267 
1525.000000	64.606261 
1524.000000	64.621305 
1523.000000	64.637660 
1522.000000	64.654207 
1521.000000	64.669561 
1520.000000	64.682626 
1519.000000	64.692711 
1518.000000	64.699888 
1517.000000	64.704680 
1516.000000	64.708018 
1515.000000	64.710807 
1514.000000	64.713692 
1513.000000	64.717268 
1512.000000	64.721584 
1511.000000	64.726519 
1510.000000	64.732170 
1509.000000	64.738416 
1508.000000	64.745187 
1507.000000	64.752221 
1506.000000	64.759230 
1505.000000	64.765572 
1504.000000	64.770483 
1503.000000	64.772987 
1502.000000	64.772367 
1501.000000	64.767789 
1500.000000	64.758753 
1499.000000	64.744901 
1498.000000	64.726424 
1497.000000	64.704203 
1496.000000	64.680027 
1495.000000	64.656305 
1494.000000	64.635777 
1493.000000	64.620971 
1492.000000	64.613866 
1491.000000	64.615154 
1490.000000	64.624357 
1489.000000	64.639759 
1488.000000	64.658951 
1487.000000	64.678931 
1486.000000	64.697122 
1485.000000	64.711666 
1484.000000	64.721703 
1483.000000	64.727163 
1482.000000	64.728760 
1481.000000	64.727735 
1480.000000	64.725422 
1479.000000	64.722776 
1478.000000	64.720416 
1477.000000	64.718532 
1476.000000	64.716887 
1475.000000	64.714908 
1474.000000	64.711856 
1473.000000	64.707016 
1472.000000	64.699769 
1471.000000	64.689826 
1470.000000	64.677309 
1469.000000	64.662933 
1468.000000	64.648079 
1467.000000	64.634990 
1466.000000	64.626407 
1465.000000	64.625024 
1464.000000	64.633154 
1463.000000	64.651560 
1462.000000	64.679074 
1461.000000	64.712142 
1460.000000	64.745593 
1459.000000	64.773178 
1458.000000	64.789056 
1457.000000	64.788937 
1456.000000	64.771246 
1455.000000	64.737582 
1454.000000	64.692139 
1453.000000	64.640879 
1452.000000	64.590311 
1451.000000	64.545845 
1450.000000	64.510869 
1449.000000	64.486289 
1448.000000	64.470839 
1447.000000	64.462041 
1446.000000	64.457368 
1445.000000	64.455056 
1444.000000	64.454555 
1443.000000	64.456534 
1442.000000	64.462471 
1441.000000	64.473390 
1440.000000	64.489650 
1439.000000	64.510464 
1438.000000	64.533877 
1437.000000	64.557480 
1436.000000	64.578747 
1435.000000	64.595556 
1434.000000	64.607071 
1433.000000	64.613413 
1432.000000	64.615988 
1431.000000	64.617085 
1430.000000	64.619207 
1429.000000	64.624834 
1428.000000	64.635324 
1427.000000	64.651179 
1426.000000	64.670968 
1425.000000	64.692258 
1424.000000	64.711236 
1423.000000	64.723896 
1422.000000	64.726400 
1421.000000	64.716243 
1420.000000	64.692711 
1419.000000	64.656949 
1418.000000	64.612221 
1417.000000	64.563179 
1416.000000	64.515256 
1415.000000	64.473390 
1414.000000	64.441370 
1413.000000	64.421033 
1412.000000	64.412307 
1411.000000	64.413499 
1410.000000	64.421606 
1409.000000	64.433264 
1408.000000	64.445281 
1407.000000	64.455485 
1406.000000	64.462304 
1405.000000	64.465618 
1404.000000	64.465832 
1403.000000	64.464282 
1402.000000	64.462232 
1401.000000	64.460968 
1400.000000	64.461493 
1399.000000	64.464402 
1398.000000	64.469981 
1397.000000	64.478087 
1396.000000	64.488053 
1395.000000	64.498901 
1394.000000	64.509439 
1393.000000	64.518308 
1392.000000	64.524364 
1391.000000	64.526772 
1390.000000	64.525103 
1389.000000	64.519524 
1388.000000	64.510607 
1387.000000	64.499402 
1386.000000	64.487242 
1385.000000	64.475107 
1384.000000	64.463710 
1383.000000	64.453482 
1382.000000	64.444494 
1381.000000	64.436459 
1380.000000	64.429020 
1379.000000	64.421844 
1378.000000	64.414930 
1377.000000	64.408421 
1376.000000	64.403033 
1375.000000	64.399361 
1374.000000	64.398288 
1373.000000	64.400744 
1372.000000	64.407372 
1371.000000	64.418554 
1370.000000	64.434027 
1369.000000	64.452981 
1368.000000	64.473962 
1367.000000	64.494967 
1366.000000	64.513945 
1365.000000	64.529228 
1364.000000	64.539790 
1363.000000	64.545488 
1362.000000	64.547276 
1361.000000	64.546608 
1360.000000	64.545440 
1359.000000	64.545464 
1358.000000	64.547753 
1357.000000	64.552235 
1356.000000	64.558005 
1355.000000	64.563322 
1354.000000	64.566373 
1353.000000	64.565420 
1352.000000	64.559769 
1351.000000	64.549612 
1350.000000	64.536166 
1349.000000	64.521336 
1348.000000	64.507126 
1347.000000	64.495253 
1346.000000	64.486598 
1345.000000	64.481163 
1344.000000	64.478111 
1343.000000	64.476060 
1342.000000	64.473414 
1341.000000	64.468860 
1340.000000	64.461827 
1339.000000	64.452385 
1338.000000	64.441609 
1337.000000	64.430975 
1336.000000	64.422106 
1335.000000	64.416289 
1334.000000	64.414429 
1333.000000	64.416599 
1332.000000	64.422082 
1331.000000	64.429473 
1330.000000	64.437174 
1329.000000	64.443540 
1328.000000	64.447212 
1327.000000	64.447045 
1326.000000	64.442682 
1325.000000	64.434266 
1324.000000	64.422607 
1323.000000	64.408755 
1322.000000	64.394092 
1321.000000	64.380145 
1320.000000	64.368438 
1319.000000	64.360237 
1318.000000	64.356446 
1317.000000	64.357590 
1316.000000	64.363265 
1315.000000	64.372372 
1314.000000	64.383172 
1313.000000	64.393424 
1312.000000	64.400935 
1311.000000	64.403843 
1310.000000	64.401054 
1309.000000	64.392495 
1308.000000	64.378905 
1307.000000	64.361834 
1306.000000	64.343261 
1305.000000	64.325284 
1304.000000	64.309811 
1303.000000	64.298319 
1302.000000	64.291858 
1301.000000	64.291048 
1300.000000	64.295840 
1299.000000	64.305901 
1298.000000	64.320421 
1297.000000	64.338517 
1296.000000	64.359092 
1295.000000	64.380908 
1294.000000	64.402770 
1293.000000	64.423394 
1292.000000	64.441299 
1291.000000	64.455056 
1290.000000	64.463520 
1289.000000	64.465880 
1288.000000	64.461898 
1287.000000	64.452147 
1286.000000	64.438128 
1285.000000	64.421987 
1284.000000	64.406156 
1283.000000	64.392971 
1282.000000	64.384293 
1281.000000	64.381098 
1280.000000	64.383339 
1279.000000	64.389920 
1278.000000	64.398884 
1277.000000	64.408111 
1276.000000	64.415574 
1275.000000	64.419674 
1274.000000	64.419603 
1273.000000	64.415216 
1272.000000	64.407205 
1271.000000	64.396476 
1270.000000	64.384388 
1269.000000	64.372158 
1268.000000	64.360928 
1267.000000	64.351701 
1266.000000	64.345240 
1265.000000	64.342164 
1264.000000	64.342689 
1263.000000	64.346694 
1262.000000	64.353704 
1261.000000	64.362931 
1260.000000	64.373469 
1259.000000	64.384102 
1258.000000	64.393687 
1257.000000	64.401149 
1256.000000	64.405798 
1255.000000	64.407181 
1254.000000	64.405250 
1253.000000	64.400267 
1252.000000	64.392757 
1251.000000	64.383435 
1250.000000	64.373064 
1249.000000	64.362430 
1248.000000	64.352250 
1247.000000	64.343309 
1246.000000	64.336252 
1245.000000	64.331531 
1244.000000	64.329552 
1243.000000	64.330434 
1242.000000	64.334201 
1241.000000	64.340329 
1240.000000	64.347958 
1239.000000	64.355969 
1238.000000	64.362931 
1237.000000	64.367461 
1236.000000	64.368224 
1235.000000	64.364647 
1234.000000	64.356803 
1233.000000	64.345526 
1232.000000	64.332461 
1231.000000	64.319586 
1230.000000	64.308762 
1229.000000	64.301347 
1228.000000	64.298009 
1227.000000	64.298486 
1226.000000	64.301896 
1225.000000	64.306974 
1224.000000	64.312577 
1223.000000	64.318156 
1222.000000	64.323997 
1221.000000	64.331078 
1220.000000	64.340734 
1219.000000	64.354228 
1218.000000	64.372181 
1217.000000	64.394187 
1216.000000	64.418363 
1215.000000	64.442062 
1214.000000	64.461755 
1213.000000	64.474129 
1212.000000	64.476704 
1211.000000	64.468455 
1210.000000	64.450097 
1209.000000	64.423894 
1208.000000	64.393424 
1207.000000	64.362931 
1206.000000	64.336490 
1205.000000	64.317345 
1204.000000	64.307475 
1203.000000	64.307403 
1202.000000	64.316344 
1201.000000	64.332461 
1200.000000	64.353275 
1199.000000	64.376163 
1198.000000	64.398646 
1197.000000	64.418697 
1196.000000	64.435005 
1195.000000	64.446759 
1194.000000	64.453792 
1193.000000	64.456224 
1192.000000	64.454531 
1191.000000	64.449310 
1190.000000	64.441227 
1189.000000	64.430594 
1188.000000	64.417791 
1187.000000	64.402627 
1186.000000	64.384961 
1185.000000	64.364290 
1184.000000	64.340448 
1183.000000	64.313316 
1182.000000	64.283156 
1181.000000	64.251089 
1180.000000	64.218783 
1179.000000	64.188718 
1178.000000	64.163565 
1177.000000	64.145922 
1176.000000	64.137768 
1175.000000	64.140033 
1174.000000	64.152479 
1173.000000	64.173340 
1172.000000	64.199757 
1171.000000	64.228200 
1170.000000	64.255070 
1169.000000	64.277267 
1168.000000	64.292907 
1167.000000	64.301443 
1166.000000	64.303755 
1165.000000	64.301943 
1164.000000	64.298534 
1163.000000	64.296317 
1162.000000	64.296984 
1161.000000	64.301180 
1160.000000	64.307856 
1159.000000	64.314985 
1158.000000	64.319872 
1157.000000	64.320063 
1156.000000	64.313888 
1155.000000	64.300966 
1154.000000	64.282250 
1153.000000	64.259767 
1152.000000	64.236235 
1151.000000	64.214253 
1150.000000	64.196062 
1149.000000	64.183044 
1148.000000	64.175915 
1147.000000	64.174747 
1146.000000	64.179277 
1145.000000	64.189028 
1144.000000	64.203381 
1143.000000	64.221811 
1142.000000	64.243507 
1141.000000	64.267635 
1140.000000	64.292955 
1139.000000	64.318013 
1138.000000	64.341759 
1137.000000	64.363312 
1136.000000	64.382362 
1135.000000	64.398598 
1134.000000	64.411973 
1133.000000	64.422035 
1132.000000	64.428186 
1131.000000	64.429163 
1130.000000	64.423871 
1129.000000	64.411354 
1128.000000	64.391589 
1127.000000	64.365506 
1126.000000	64.335107 
1125.000000	64.303207 
1124.000000	64.273166 
1123.000000	64.248180 
1122.000000	64.230728 
1121.000000	64.222216 
1120.000000	64.222908 
1119.000000	64.231801 
1118.000000	64.246964 
1117.000000	64.265894 
1116.000000	64.285969 
1115.000000	64.304542 
1114.000000	64.319539 
1113.000000	64.329385 
1112.000000	64.333057 
1111.000000	64.330315 
1110.000000	64.321637 
1109.000000	64.307999 
1108.000000	64.290738 
1107.000000	64.271736 
1106.000000	64.252901 
1105.000000	64.236068 
1104.000000	64.222574 
1103.000000	64.213418 
1102.000000	64.209294 
1101.000000	64.210295 
1100.000000	64.216685 
1099.000000	64.228796 
1098.000000	64.246940 
1097.000000	64.271163 
1096.000000	64.300870 
1095.000000	64.334321 
1094.000000	64.368700 
1093.000000	64.400482 
1092.000000	64.426088 
1091.000000	64.442610 
1090.000000	64.448928 
1089.000000	64.445495 
1088.000000	64.434313 
1087.000000	64.418148 
1086.000000	64.399933 
1085.000000	64.381575 
1084.000000	64.363861 
1083.000000	64.346122 
1082.000000	64.327049 
1081.000000	64.305162 
1080.000000	64.279890 
1079.000000	64.251756 
1078.000000	64.222669 
1077.000000	64.195394 
1076.000000	64.172792 
1075.000000	64.157152 
1074.000000	64.149284 
1073.000000	64.148879 
1072.000000	64.154624 
1071.000000	64.164924 
1070.000000	64.178323 
1069.000000	64.193844 
1068.000000	64.211082 
1067.000000	64.229798 
1066.000000	64.249730 
1065.000000	64.270162 
1064.000000	64.289999 
1063.000000	64.307880 
1062.000000	64.322471 
1061.000000	64.332795 
1060.000000	64.338541 
1059.000000	64.340305 
1058.000000	64.339447 
1057.000000	64.338040 
1056.000000	64.337825 
1055.000000	64.340424 
1054.000000	64.346027 
1053.000000	64.353632 
1052.000000	64.361000 
1051.000000	64.365196 
1050.000000	64.363431 
1049.000000	64.353775 
1048.000000	64.335727 
1047.000000	64.310741 
1046.000000	64.281940 
1045.000000	64.253354 
1044.000000	64.229369 
1043.000000	64.213657 
1042.000000	64.208531 
1041.000000	64.214396 
1040.000000	64.229965 
1039.000000	64.252710 
1038.000000	64.279603 
1037.000000	64.307880 
1036.000000	64.335370 
1035.000000	64.360523 
1034.000000	64.382457 
1033.000000	64.400482 
1032.000000	64.413690 
1031.000000	64.420723 
1030.000000	64.420127 
1029.000000	64.410734 
1028.000000	64.392137 
1027.000000	64.365029 
1026.000000	64.331793 
1025.000000	64.295792 
1024.000000	64.261269 
1023.000000	64.232206 
1022.000000	64.211583 
1021.000000	64.200782 
1020.000000	64.199376 
1019.000000	64.205527 
1018.000000	64.216542 
1017.000000	64.229631 
1016.000000	64.242696 
1015.000000	64.254307 
1014.000000	64.263725 
1013.000000	64.270877 
1012.000000	64.275813 
1011.000000	64.278578 
1010.000000	64.278674 
1009.000000	64.275670 
1008.000000	64.268970 
1007.000000	64.258337 
1006.000000	64.243817 
1005.000000	64.225840 
1004.000000	64.205121 
1003.000000	64.182734 
1002.000000	64.160108 
1001.000000	64.138603 
1000.000000	64.119553 
999.000000	 64.104223 
998.000000	 64.093494 
997.000000	 64.088082 
996.000000	 64.088177 
995.000000	 64.092969 
994.000000	 64.101290 
993.000000	 64.111208 
992.000000	 64.120817 
991.000000	 64.128351 
990.000000	 64.133095 
989.000000	 64.135265 
988.000000	 64.136362 
987.000000	 64.138674 
986.000000	 64.144802 
985.000000	 64.156699 
984.000000	 64.174985 
983.000000	 64.198565 
982.000000	 64.224648 
981.000000	 64.249205 
980.000000	 64.267826 
979.000000	 64.276504 
978.000000	 64.273118 
977.000000	 64.257717 
976.000000	 64.232754 
975.000000	 64.202666 
974.000000	 64.173030 
973.000000	 64.149403 
972.000000	 64.136242 
971.000000	 64.135932 
970.000000	 64.148616 
969.000000	 64.172029 
968.000000	 64.201903 
967.000000	 64.232850 
966.000000	 64.259648 
965.000000	 64.278030 
964.000000	 64.285182 
963.000000	 64.280486 
962.000000	 64.265179 
961.000000	 64.242339 
960.000000	 64.216256 
959.000000	 64.191842 
958.000000	 64.173698 
957.000000	 64.165902 
956.000000	 64.171314 
955.000000	 64.191412 
954.000000	 64.225649 
953.000000	 64.271593 
952.000000	 64.324975 
951.000000	 64.380216 
950.000000	 64.431166 
949.000000	 64.471697 
948.000000	 64.497113 
947.000000	 64.504718 
946.000000	 64.494633 
945.000000	 64.469528 
944.000000	 64.434385 
943.000000	 64.395761 
942.000000	 64.360141 
941.000000	 64.333128 
940.000000	 64.317965 
939.000000	 64.315462 
938.000000	 64.323520 
937.000000	 64.338493 
936.000000	 64.355397 
935.000000	 64.369225 
934.000000	 64.375925 
933.000000	 64.373254 
932.000000	 64.360737 
931.000000	 64.339780 
930.000000	 64.313387 
929.000000	 64.285564 
928.000000	 64.260816 
927.000000	 64.243507 
926.000000	 64.236903 
925.000000	 64.243030 
924.000000	 64.262104 
923.000000	 64.292669 
922.000000	 64.332008 
921.000000	 64.376163 
920.000000	 64.420747 
919.000000	 64.461040 
918.000000	 64.493322 
917.000000	 64.514589 
916.000000	 64.523124 
915.000000	 64.518332 
914.000000	 64.500975 
913.000000	 64.472508 
912.000000	 64.435410 
911.000000	 64.392185 
910.000000	 64.345312 
909.000000	 64.297151 
908.000000	 64.250040 
907.000000	 64.206266 
906.000000	 64.168024 
905.000000	 64.137458 
904.000000	 64.116644 
903.000000	 64.107108 
902.000000	 64.109683 
901.000000	 64.123749 
900.000000	 64.147472 
899.000000	 64.177465 
898.000000	 64.209342 
897.000000	 64.238286 
896.000000	 64.259815 
895.000000	 64.270496 
894.000000	 64.268851 
893.000000	 64.255356 
892.000000	 64.232468 
891.000000	 64.204168 
890.000000	 64.175128 
889.000000	 64.149785 
888.000000	 64.131855 
887.000000	 64.123678 
886.000000	 64.126014 
885.000000	 64.138245 
884.000000	 64.158415 
883.000000	 64.183640 
882.000000	 64.210915 
881.000000	 64.237546 
880.000000	 64.261484 
879.000000	 64.281225 
878.000000	 64.296364 
877.000000	 64.307212 
876.000000	 64.314174 
875.000000	 64.317440 
874.000000	 64.316964 
873.000000	 64.312267 
872.000000	 64.302849 
871.000000	 64.288377 
870.000000	 64.269018 
869.000000	 64.245915 
868.000000	 64.221024 
867.000000	 64.197134 
866.000000	 64.176869 
865.000000	 64.162564 
864.000000	 64.155602 
863.000000	 64.156413 
862.000000	 64.163875 
861.000000	 64.176344 
860.000000	 64.191842 
859.000000	 64.208889 
858.000000	 64.226698 
857.000000	 64.245438 
856.000000	 64.265751 
855.000000	 64.288449 
854.000000	 64.313840 
853.000000	 64.341282 
852.000000	 64.369082 
851.000000	 64.394521 
850.000000	 64.414525 
849.000000	 64.426088 
848.000000	 64.427018 
847.000000	 64.416599 
846.000000	 64.395356 
845.000000	 64.365267 
844.000000	 64.328789 
843.000000	 64.288926 
842.000000	 64.248037 
841.000000	 64.207816 
840.000000	 64.168858 
839.000000	 64.131379 
838.000000	 64.095020 
837.000000	 64.059567 
836.000000	 64.025282 
835.000000	 63.992810 
834.000000	 63.963913 
833.000000	 63.940596 
832.000000	 63.925242 
831.000000	 63.919401 
830.000000	 63.923835 
829.000000	 63.937926 
828.000000	 63.959813 
827.000000	 63.986492 
826.000000	 64.014792 
825.000000	 64.042019 
824.000000	 64.066386 
823.000000	 64.087104 
822.000000	 64.104223 
821.000000	 64.118266 
820.000000	 64.129662 
819.000000	 64.138627 
818.000000	 64.144945 
817.000000	 64.148116 
816.000000	 64.148163 
815.000000	 64.145374 
814.000000	 64.140796 
813.000000	 64.135622 
812.000000	 64.131498 
811.000000	 64.129328 
810.000000	 64.128971 
809.000000	 64.129114 
808.000000	 64.127707 
807.000000	 64.122533 
806.000000	 64.111590 
805.000000	 64.094161 
804.000000	 64.071345 
803.000000	 64.045572 
802.000000	 64.019846 
801.000000	 63.997602 
800.000000	 63.981342 
799.000000	 63.972663 
798.000000	 63.971781 
797.000000	 63.978147 
796.000000	 63.990402 
795.000000	 64.007258 
794.000000	 64.027595 
793.000000	 64.050364 
792.000000	 64.074373 
791.000000	 64.098143 
790.000000	 64.119768 
789.000000	 64.136815 
788.000000	 64.147114 
787.000000	 64.148902 
786.000000	 64.142036 
785.000000	 64.128160 
784.000000	 64.110636 
783.000000	 64.093852 
782.000000	 64.082765 
781.000000	 64.081358 
780.000000	 64.092493 
779.000000	 64.116883 
778.000000	 64.153194 
777.000000	 64.198303 
776.000000	 64.247870 
775.000000	 64.297270 
774.000000	 64.342045 
773.000000	 64.378380 
772.000000	 64.403581 
771.000000	 64.416337 
770.000000	 64.416408 
769.000000	 64.404487 
768.000000	 64.382028 
767.000000	 64.351010 
766.000000	 64.313721 
765.000000	 64.272499 
764.000000	 64.229846 
763.000000	 64.188098 
762.000000	 64.149570 
761.000000	 64.116501 
760.000000	 64.090895 
759.000000	 64.074587 
758.000000	 64.069032 
757.000000	 64.074778 
756.000000	 64.091277 
755.000000	 64.116621 
754.000000	 64.147567 
753.000000	 64.179563 
752.000000	 64.207482 
751.000000	 64.226078 
750.000000	 64.231300 
749.000000	 64.220523 
748.000000	 64.193296 
747.000000	 64.151287 
746.000000	 64.097952 
745.000000	 64.038014 
744.000000	 63.976907 
743.000000	 63.919329 
742.000000	 63.868713 
741.000000	 63.827085 
740.000000	 63.795208 
739.000000	 63.772583 
738.000000	 63.758444 
737.000000	 63.752460 
736.000000	 63.755273 
735.000000	 63.768219 
734.000000	 63.793182 
733.000000	 63.831233 
732.000000	 63.882517 
731.000000	 63.944911 
730.000000	 64.014840 
729.000000	 64.086866 
728.000000	 64.155197 
727.000000	 64.214658 
726.000000	 64.261317 
725.000000	 64.293599 
724.000000	 64.311623 
723.000000	 64.317607 
722.000000	 64.314079 
721.000000	 64.303731 
720.000000	 64.288067 
719.000000	 64.267611 
718.000000	 64.241552 
717.000000	 64.208698 
716.000000	 64.167976 
715.000000	 64.119553 
714.000000	 64.064812 
713.000000	 64.006519 
712.000000	 63.948631 
711.000000	 63.895821 
710.000000	 63.852453 
709.000000	 63.822054 
708.000000	 63.806557 
707.000000	 63.806486 
706.000000	 63.820314 
705.000000	 63.845419 
704.000000	 63.877534 
703.000000	 63.912391 
702.000000	 63.945722 
701.000000	 63.974595 
700.000000	 63.996696 
699.000000	 64.011502 
698.000000	 64.019989 
697.000000	 64.024186 
696.000000	 64.026570 
695.000000	 64.029312 
694.000000	 64.033842 
693.000000	 64.040422 
692.000000	 64.048433 
691.000000	 64.056181 
690.000000	 64.061641 
689.000000	 64.063286 
688.000000	 64.060640 
687.000000	 64.054346 
686.000000	 64.046216 
685.000000	 64.038896 
684.000000	 64.035058 
683.000000	 64.036512 
682.000000	 64.043831 
681.000000	 64.056181 
680.000000	 64.071154 
679.000000	 64.085459 
678.000000	 64.095306 
677.000000	 64.097690 
676.000000	 64.090466 
675.000000	 64.072656 
674.000000	 64.044952 
673.000000	 64.009046 
672.000000	 63.968467 
671.000000	 63.927817 
670.000000	 63.892626 
669.000000	 63.868188 
668.000000	 63.859057 
667.000000	 63.868093 
666.000000	 63.895750 
665.000000	 63.939642 
664.000000	 63.994860 
663.000000	 64.054656 
662.000000	 64.111709 
661.000000	 64.159202 
660.000000	 64.192080 
659.000000	 64.207601 
658.000000	 64.205646 
657.000000	 64.188170 
656.000000	 64.158630 
655.000000	 64.120984 
654.000000	 64.079141 
653.000000	 64.036393 
652.000000	 63.996148 
651.000000	 63.961076 
650.000000	 63.934063 
649.000000	 63.916969 
648.000000	 63.910627 
647.000000	 63.914465 
646.000000	 63.926196 
645.000000	 63.942265 
644.000000	 63.958024 
643.000000	 63.969516 
642.000000	 63.973760 
641.000000	 63.969945 
640.000000	 63.959217 
639.000000	 63.944768 
638.000000	 63.930559 
637.000000	 63.920569 
636.000000	 63.917541 
635.000000	 63.922405 
634.000000	 63.934159 
633.000000	 63.950395 
632.000000	 63.968157 
631.000000	 63.984107 
630.000000	 63.995099 
629.000000	 63.998389 
628.000000	 63.992166 
627.000000	 63.974738 
626.000000	 63.945746 
625.000000	 63.906216 
624.000000	 63.859343 
623.000000	 63.810539 
622.000000	 63.766765 
621.000000	 63.735771 
620.000000	 63.724088 
619.000000	 63.736104 
618.000000	 63.772249 
617.000000	 63.828253 
616.000000	 63.896298 
615.000000	 63.966512 
614.000000	 64.028811 
613.000000	 64.074826 
612.000000	 64.099884 
611.000000	 64.103770 
610.000000	 64.089465 
609.000000	 64.061641 
608.000000	 64.025115 
607.000000	 63.983345 
606.000000	 63.937735 
605.000000	 63.887929 
604.000000	 63.832640 
603.000000	 63.771057 
602.000000	 63.704013 
601.000000	 63.634490 
600.000000	 63.566589 
599.000000	 63.505506 
598.000000	 63.455367 
597.000000	 63.419413 
596.000000	 63.397884 
595.000000	 63.389921 
594.000000	 63.392639 
593.000000	 63.404226 
592.000000	 63.423514 
591.000000	 63.452315 
590.000000	 63.493466 
589.000000	 63.551640 
588.000000	 63.630700 
587.000000	 63.732814 
586.000000	 63.856601 
585.000000	 63.996577 
584.000000	 64.143586 
583.000000	 64.285731 
582.000000	 64.410638 
581.000000	 64.506673 
580.000000	 64.564847 
579.000000	 64.579820 
578.000000	 64.550542 
577.000000	 64.480257 
576.000000	 64.375877 
575.000000	 64.247059 
574.000000	 64.105081 
573.000000	 63.962030 
572.000000	 63.829684 
571.000000	 63.718700 
570.000000	 63.637661 
569.000000	 63.592076 
568.000000	 63.584589 
567.000000	 63.613605 
566.000000	 63.674998 
565.000000	 63.761210 
564.000000	 63.864135 
563.000000	 63.975191 
562.000000	 64.086747 
561.000000	 64.192295 
560.000000	 64.285731 
559.000000	 64.360928 
558.000000	 64.411711 
557.000000	 64.432501 
556.000000	 64.419627 
555.000000	 64.372611 
554.000000	 64.295434 
553.000000	 64.196276 
552.000000	 64.086103 
551.000000	 63.976693 
550.000000	 63.877987 
549.000000	 63.796257 
548.000000	 63.733696 
547.000000	 63.688683 
546.000000	 63.657331 
545.000000	 63.634920 
544.000000	 63.617110 
543.000000	 63.601827 
542.000000	 63.588023 
541.000000	 63.577198 
540.000000	 63.571262 
539.000000	 63.573455 
538.000000	 63.585209 
537.000000	 63.608098 
536.000000	 63.642597 
535.000000	 63.689112 
534.000000	 63.747143 
533.000000	 63.816404 
532.000000	 63.896536 
531.000000	 63.986229 
530.000000	 64.082384 
529.000000	 64.180350 
528.000000	 64.274215 
527.000000	 64.357447 
526.000000	 64.423918 
525.000000	 64.470005 
524.000000	 64.494943 
523.000000	 64.502429 
522.000000	 64.498877 
521.000000	 64.491486 
520.000000	 64.485120 
519.000000	 64.482331 
518.000000	 64.480519 
517.000000	 64.473176 
516.000000	 64.450287 
515.000000	 64.403343 
514.000000	 64.326190 
513.000000	 64.216446 
512.000000	 64.077782 
511.000000	 63.920021 
510.000000	 63.757395 
509.000000	 63.605928 
508.000000	 63.480138 
507.000000	 63.390564 
506.000000	 63.340330 
505.000000	 63.324856 
504.000000	 63.332819 
503.000000	 63.347935 
502.000000	 63.355827 
501.000000	 63.347721 
500.000000	 63.322806 
499.000000	 63.288235 
498.000000	 63.256764 
497.000000	 63.242697 
496.000000	 63.256931 
495.000000	 63.303637 
494.000000	 63.378453 
493.000000	 63.470768 
492.000000	 63.566780 
491.000000	 63.654971 
490.000000	 63.728523 
489.000000	 63.789510 
488.000000	 63.847303 
487.000000	 63.916993 
486.000000	 64.014887 
485.000000	 64.152336 
484.000000	 64.332079 
483.000000	 64.544391 
482.000000	 64.770722 
481.000000	 64.983034 
480.000000	 65.150976 
479.000000	 65.246677 
478.000000	 65.253329 
477.000000	 65.166497 
476.000000	 64.995861 
475.000000	 64.763784 
474.000000	 64.501142 
473.000000	 64.243125 
472.000000	 64.023780 
471.000000	 63.869571 
470.000000	 63.796210 
469.000000	 63.808989 
468.000000	 63.903403 
467.000000	 64.066147 
466.000000	 64.278578 
465.000000	 64.519524 
464.000000	 64.767599 
463.000000	 65.003752 
462.000000	 65.210509 
461.000000	 65.372729 
460.000000	 65.475392 
459.000000	 65.508985 
458.000000	 65.462779 
457.000000	 65.331244 
456.000000	 65.108084 
455.000000	 64.792537 
454.000000	 64.387106 
453.000000	 63.901376 
452.000000	 63.354635 
451.000000	 62.776756 
450.000000	 62.209224 
449.000000	 61.699795 
448.000000	 61.299967 
447.000000	 61.055660 
446.000000	 61.001372 
445.000000	 61.152291 
444.000000	 61.501932 
443.000000	 62.020301 
442.000000	 62.659835 
441.000000	 63.359904 
440.000000	 64.050889 
439.000000	 64.664101 
438.000000	 65.139842 
437.000000	 65.435433 
436.000000	 65.534043 
435.000000	 65.442490 
434.000000	 65.186524 
433.000000	 64.805817 
432.000000	 64.353609 
431.000000	 63.881397 
430.000000	 63.439464 
429.000000	 63.063144 
428.000000	 62.770414 
427.000000	 62.565016 
426.000000	 62.444305 
425.000000	 62.400102 
424.000000	 62.422156 
423.000000	 62.502217 
422.000000	 62.633371 
421.000000	 62.808346 
420.000000	 63.015699 
419.000000	 63.246250 
418.000000	 63.492059 
417.000000	 63.759708 
416.000000	 64.064288 
415.000000	 64.434027 
414.000000	 64.887571 
413.000000	 65.423393 
412.000000	 65.997076 
411.000000	 66.519784 
410.000000	 66.867017 
409.000000	 66.898870 
408.000000	 66.506838 
407.000000	 65.639424 
406.000000	 64.348196 
405.000000	 62.783169 
404.000000	 61.185145 
403.000000	 59.848904 
402.000000	 59.047532 
401.000000	 58.959507 
400.000000	 59.631323 
399.000000	 60.965347 
398.000000	 62.739014 
397.000000	 64.665603 
396.000000	 66.439723 
395.000000	 67.790818 
394.000000	 68.567347 
393.000000	 68.764996 
392.000000	 68.482828 
391.000000	 67.875409 
390.000000	 67.140150 
389.000000	 66.470670 
388.000000	 65.938115 
387.000000	 65.491271 
386.000000	 65.177559 
385.000000	 65.078616 
384.000000	 65.110850 
383.000000	 65.156149 
382.000000	 65.106630 
381.000000	 64.936876 
380.000000	 64.831352 
379.000000	 65.040469 
378.000000	 65.779590 
377.000000	 67.189073 
376.000000	 68.956184 
375.000000	 70.804858 
374.000000	 72.792339 
373.000000	 75.025081 
372.000000	 78.186583 
371.000000	 82.200837 
370.000000	 85.746049 

