PE IR       SPECTRUM    SPECTRUM    ASCII       PEDS        1.60        
  -1
BZCBF9~1.ASC
17/04/07
22:09:47.00
17/04/07
22:09:47.00
tln
$BZ1503107-1_t0109$<tbV0>[-10.4,10.4,8.0,0.0,27,1,0]
370.000000
64









2002,4.07    
MIRTGS : RIGHTBACK : INTERNAL 2
MIR : ON : INTERNAL 2
OPTKBR

0.200000
8
8.000000
FILLER
RATIO
SPECTRUM
UNLOCKED 256

DOUBLE
64
COMBINED
1
0
0


1.000000
RATIO


1
0
TRUE
51149
0
LEFT NOT FITTED RIGHT NOT FITTED 0
NONE
NONE
15600
12.000000
4.427000
51148
TRUE
1 0 8 72 0 0 0 0 

15798.010000






#HDR
-1
-1
#GR
CM-1
%T
0.00002384185791015625
0.0
5000.000000
-1.000000
4631
8
77.739477
56.799650
#DATA
5000.000000	64.235568 
4999.000000	64.262127 
4998.000000	64.321708 
4997.000000	64.408826 
4996.000000	64.511013 
4995.000000	64.610052 
4994.000000	64.686346 
4993.000000	64.723038 
4992.000000	64.710497 
4991.000000	64.648270 
4990.000000	64.546275 
4989.000000	64.423346 
4988.000000	64.301323 
4987.000000	64.199638 
4986.000000	64.130496 
4985.000000	64.096832 
4984.000000	64.089322 
4983.000000	64.088988 
4982.000000	64.073419 
4981.000000	64.022564 
4980.000000	63.920807 
4979.000000	63.761711 
4978.000000	63.549017 
4977.000000	63.297438 
4976.000000	63.027930 
4975.000000	62.766790 
4974.000000	62.538027 
4973.000000	62.364125 
4972.000000	62.262129 
4971.000000	62.243795 
4970.000000	62.312173 
4969.000000	62.463808 
4968.000000	62.687110 
4967.000000	62.966156 
4966.000000	63.277888 
4965.000000	63.600373 
4964.000000	63.912749 
4963.000000	64.200496 
4962.000000	64.454245 
4961.000000	64.672660 
4960.000000	64.859366 
4959.000000	65.023374 
4958.000000	65.175914 
4957.000000	65.329241 
4956.000000	65.493297 
4955.000000	65.675997 
4954.000000	65.879702 
4953.000000	66.098904 
4952.000000	66.318106 
4951.000000	66.515135 
4950.000000	66.662406 
4949.000000	66.732478 
4948.000000	66.703104 
4947.000000	66.564822 
4946.000000	66.322755 
4945.000000	65.999126 
4944.000000	65.627932 
4943.000000	65.251612 
4942.000000	64.910125 
4941.000000	64.633727 
4940.000000	64.437675 
4939.000000	64.320635 
4938.000000	64.269018 
4937.000000	64.262223 
4936.000000	64.280676 
4935.000000	64.309239 
4934.000000	64.343357 
4933.000000	64.387750 
4932.000000	64.451527 
4931.000000	64.540910 
4930.000000	64.657950 
4929.000000	64.797163 
4928.000000	64.945864 
4927.000000	65.086483 
4926.000000	65.203452 
4925.000000	65.285754 
4924.000000	65.330338 
4923.000000	65.340209 
4922.000000	65.322446 
4921.000000	65.284895 
4920.000000	65.231490 
4919.000000	65.164113 
4918.000000	65.083646 
4917.000000	64.993047 
4916.000000	64.901089 
4915.000000	64.820766 
4914.000000	64.768528 
4913.000000	64.758706 
4912.000000	64.801144 
4911.000000	64.894342 
4910.000000	65.023732 
4909.000000	65.164637 
4908.000000	65.287733 
4907.000000	65.365266 
4906.000000	65.377855 
4905.000000	65.319919 
4904.000000	65.200901 
4903.000000	65.043115 
4902.000000	64.875984 
4901.000000	64.728450 
4900.000000	64.621877 
4899.000000	64.566349 
4898.000000	64.558959 
4897.000000	64.586615 
4896.000000	64.630031 
4895.000000	64.669895 
4894.000000	64.691805 
4893.000000	64.687705 
4892.000000	64.659094 
4891.000000	64.613747 
4890.000000	64.565086 
4889.000000	64.526343 
4888.000000	64.508724 
4887.000000	64.518046 
4886.000000	64.554405 
4885.000000	64.613366 
4884.000000	64.686632 
4883.000000	64.764714 
4882.000000	64.838314 
4881.000000	64.899992 
4880.000000	64.944672 
4879.000000	64.969849 
4878.000000	64.975333 
4877.000000	64.962220 
4876.000000	64.933729 
4875.000000	64.894509 
4874.000000	64.850640 
4873.000000	64.808535 
4872.000000	64.773750 
4871.000000	64.749813 
4870.000000	64.738225 
4869.000000	64.737939 
4868.000000	64.744901 
4867.000000	64.753603 
4866.000000	64.758682 
4865.000000	64.756393 
4864.000000	64.745640 
4863.000000	64.728879 
4862.000000	64.710593 
4861.000000	64.696931 
4860.000000	64.694023 
4859.000000	64.705419 
4858.000000	64.731526 
4857.000000	64.767408 
4856.000000	64.804029 
4855.000000	64.829540 
4854.000000	64.832186 
4853.000000	64.803671 
4852.000000	64.741587 
4851.000000	64.650988 
4850.000000	64.543771 
4849.000000	64.436817 
4848.000000	64.348292 
4847.000000	64.293861 
4846.000000	64.283084 
4845.000000	64.317297 
4844.000000	64.389467 
4843.000000	64.486026 
4842.000000	64.589977 
4841.000000	64.684557 
4840.000000	64.756751 
4839.000000	64.799308 
4838.000000	64.811611 
4837.000000	64.797568 
4836.000000	64.764714 
4835.000000	64.721179 
4834.000000	64.674377 
4833.000000	64.629983 
4832.000000	64.591312 
4831.000000	64.560914 
4830.000000	64.539337 
4829.000000	64.526605 
4828.000000	64.522099 
4827.000000	64.524912 
4826.000000	64.534616 
4825.000000	64.550948 
4824.000000	64.574074 
4823.000000	64.604115 
4822.000000	64.640641 
4821.000000	64.682221 
4820.000000	64.726233 
4819.000000	64.769148 
4818.000000	64.806604 
4817.000000	64.834499 
4816.000000	64.850115 
4815.000000	64.852929 
4814.000000	64.844703 
4813.000000	64.829254 
4812.000000	64.812088 
4811.000000	64.798927 
4810.000000	64.794826 
4809.000000	64.803194 
4808.000000	64.824652 
4807.000000	64.857769 
4806.000000	64.900040 
4805.000000	64.948129 
4804.000000	64.998722 
4803.000000	65.048313 
4802.000000	65.093517 
4801.000000	65.131211 
4800.000000	65.158367 
4799.000000	65.173196 
4798.000000	65.175533 
4797.000000	65.167474 
4796.000000	65.153384 
4795.000000	65.138840 
4794.000000	65.129256 
4793.000000	65.128731 
4792.000000	65.138959 
4791.000000	65.159106 
4790.000000	65.186166 
4789.000000	65.215897 
4788.000000	65.243911 
4787.000000	65.267348 
4786.000000	65.284895 
4785.000000	65.297055 
4784.000000	65.304613 
4783.000000	65.308451 
4782.000000	65.307927 
4781.000000	65.300965 
4780.000000	65.284085 
4779.000000	65.253591 
4778.000000	65.206646 
4777.000000	65.143179 
4776.000000	65.066218 
4775.000000	64.982008 
4774.000000	64.899206 
4773.000000	64.826774 
4772.000000	64.773225 
4771.000000	64.744544 
4770.000000	64.743256 
4769.000000	64.767765 
4768.000000	64.813065 
4767.000000	64.871406 
4766.000000	64.933252 
4765.000000	64.989042 
4764.000000	65.030264 
4763.000000	65.050888 
4762.000000	65.047478 
4761.000000	65.020155 
4760.000000	64.971995 
4759.000000	64.909124 
4758.000000	64.839529 
4757.000000	64.772152 
4756.000000	64.715957 
4755.000000	64.678168 
4754.000000	64.663839 
4753.000000	64.674544 
4752.000000	64.708423 
4751.000000	64.760589 
4750.000000	64.823698 
4749.000000	64.890027 
4748.000000	64.952230 
4747.000000	65.005016 
4746.000000	65.045452 
4745.000000	65.072941 
4744.000000	65.088295 
4743.000000	65.093183 
4742.000000	65.089368 
4741.000000	65.077614 
4740.000000	65.057706 
4739.000000	65.029001 
4738.000000	64.991164 
4737.000000	64.944577 
4736.000000	64.890956 
4735.000000	64.833402 
4734.000000	64.776301 
4733.000000	64.724993 
4732.000000	64.684796 
4731.000000	64.659953 
4730.000000	64.652776 
4729.000000	64.663124 
4728.000000	64.688348 
4727.000000	64.723634 
4726.000000	64.762735 
4725.000000	64.798760 
4724.000000	64.825868 
4723.000000	64.839720 
4722.000000	64.839005 
4721.000000	64.824724 
4720.000000	64.800715 
4719.000000	64.772319 
4718.000000	64.745426 
4717.000000	64.725160 
4716.000000	64.714765 
4715.000000	64.715170 
4714.000000	64.724969 
4713.000000	64.741230 
4712.000000	64.760136 
4711.000000	64.778161 
4710.000000	64.792323 
4709.000000	64.801120 
4708.000000	64.804315 
4707.000000	64.803218 
4706.000000	64.800286 
4705.000000	64.798092 
4704.000000	64.799404 
4703.000000	64.805746 
4702.000000	64.816927 
4701.000000	64.830946 
4700.000000	64.844441 
4699.000000	64.853930 
4698.000000	64.856457 
4697.000000	64.851164 
4696.000000	64.839458 
4695.000000	64.825153 
4694.000000	64.813923 
4693.000000	64.811348 
4692.000000	64.821600 
4691.000000	64.846038 
4690.000000	64.882731 
4689.000000	64.926767 
4688.000000	64.971709 
4687.000000	65.011191 
4686.000000	65.040683 
4685.000000	65.058779 
4684.000000	65.067267 
4683.000000	65.070152 
4682.000000	65.072131 
4681.000000	65.076994 
4680.000000	65.086460 
4679.000000	65.100193 
4678.000000	65.115904 
4677.000000	65.130829 
4676.000000	65.142512 
4675.000000	65.150141 
4674.000000	65.154194 
4673.000000	65.156388 
4672.000000	65.158700 
4671.000000	65.162348 
4670.000000	65.167284 
4669.000000	65.171885 
4668.000000	65.173792 
4667.000000	65.170764 
4666.000000	65.161871 
4665.000000	65.148115 
4664.000000	65.132594 
4663.000000	65.119743 
4662.000000	65.114307 
4661.000000	65.119767 
4660.000000	65.137553 
4659.000000	65.166401 
4658.000000	65.202450 
4657.000000	65.240073 
4656.000000	65.273332 
4655.000000	65.297198 
4654.000000	65.308499 
4653.000000	65.306210 
4652.000000	65.291476 
4651.000000	65.266895 
4650.000000	65.235757 
4649.000000	65.201091 
4648.000000	65.165591 
4647.000000	65.131068 
4646.000000	65.098595 
4645.000000	65.068626 
4644.000000	65.041518 
4643.000000	65.017628 
4642.000000	64.997267 
4641.000000	64.981365 
4640.000000	64.971041 
4639.000000	64.967775 
4638.000000	64.972805 
4637.000000	64.986562 
4636.000000	65.008020 
4635.000000	65.034914 
4634.000000	65.063595 
4633.000000	65.089774 
4632.000000	65.109205 
4631.000000	65.118885 
4630.000000	65.117740 
4629.000000	65.107011 
4628.000000	65.089821 
4627.000000	65.070748 
4626.000000	65.054345 
4625.000000	65.043902 
4624.000000	65.040254 
4623.000000	65.041565 
4622.000000	65.043687 
4621.000000	65.041971 
4620.000000	65.031957 
4619.000000	65.011072 
4618.000000	64.979195 
4617.000000	64.938449 
4616.000000	64.893221 
4615.000000	64.848446 
4614.000000	64.809679 
4613.000000	64.781808 
4612.000000	64.768671 
4611.000000	64.772534 
4610.000000	64.793467 
4609.000000	64.829468 
4608.000000	64.876675 
4607.000000	64.929866 
4606.000000	64.984083 
4605.000000	65.035271 
4604.000000	65.081048 
4603.000000	65.120768 
4602.000000	65.155696 
4601.000000	65.187788 
4600.000000	65.218758 
4599.000000	65.248799 
4598.000000	65.276145 
4597.000000	65.296697 
4596.000000	65.305399 
4595.000000	65.297222 
4594.000000	65.268850 
4593.000000	65.219497 
4592.000000	65.152144 
4591.000000	65.072751 
4590.000000	64.989209 
4589.000000	64.910221 
4588.000000	64.843058 
4587.000000	64.793372 
4586.000000	64.764451 
4585.000000	64.756917 
4584.000000	64.769244 
4583.000000	64.797472 
4582.000000	64.835858 
4581.000000	64.877152 
4580.000000	64.913582 
4579.000000	64.937782 
4578.000000	64.944124 
4577.000000	64.929795 
4576.000000	64.895415 
4575.000000	64.845442 
4574.000000	64.787125 
4573.000000	64.729523 
4572.000000	64.681482 
4571.000000	64.649891 
4570.000000	64.638018 
4569.000000	64.645075 
4568.000000	64.666366 
4567.000000	64.694571 
4566.000000	64.721226 
4565.000000	64.738917 
4564.000000	64.742445 
4563.000000	64.729309 
4562.000000	64.700603 
4561.000000	64.659523 
4560.000000	64.611315 
4559.000000	64.561605 
4558.000000	64.515900 
4557.000000	64.478898 
4556.000000	64.453363 
4555.000000	64.440035 
4554.000000	64.437818 
4553.000000	64.444446 
4552.000000	64.457392 
4551.000000	64.474558 
4550.000000	64.494609 
4549.000000	64.517092 
4548.000000	64.542531 
4547.000000	64.572048 
4546.000000	64.606380 
4545.000000	64.645385 
4544.000000	64.688014 
4543.000000	64.731955 
4542.000000	64.774465 
4541.000000	64.812278 
4540.000000	64.842486 
4539.000000	64.862656 
4538.000000	64.871788 
4537.000000	64.869809 
4536.000000	64.857482 
4535.000000	64.836502 
4534.000000	64.809393 
4533.000000	64.779400 
4532.000000	64.750552 
4531.000000	64.726805 
4530.000000	64.711999 
4529.000000	64.708113 
4528.000000	64.715147 
4527.000000	64.730095 
4526.000000	64.747524 
4525.000000	64.760708 
4524.000000	64.763188 
4523.000000	64.750146 
4522.000000	64.719629 
4521.000000	64.673113 
4520.000000	64.615249 
4519.000000	64.552330 
4518.000000	64.490914 
4517.000000	64.436626 
4516.000000	64.393067 
4515.000000	64.361166 
4514.000000	64.340162 
4513.000000	64.328241 
4512.000000	64.324212 
4511.000000	64.327406 
4510.000000	64.338612 
4509.000000	64.359211 
4508.000000	64.390683 
4507.000000	64.433169 
4506.000000	64.484834 
4505.000000	64.541316 
4504.000000	64.595937 
4503.000000	64.641261 
4502.000000	64.669609 
4501.000000	64.674830 
4500.000000	64.653253 
4499.000000	64.604854 
4498.000000	64.532613 
4497.000000	64.442396 
4496.000000	64.341640 
4495.000000	64.238452 
4494.000000	64.140987 
4493.000000	64.056324 
4492.000000	63.989877 
4491.000000	63.944530 
4490.000000	63.919806 
4489.000000	63.912701 
4488.000000	63.917231 
4487.000000	63.927578 
4486.000000	63.938927 
4485.000000	63.949584 
4484.000000	63.960886 
4483.000000	63.976740 
4482.000000	63.999485 
4481.000000	64.031267 
4480.000000	64.073753 
4479.000000	64.126348 
4478.000000	64.182472 
4477.000000	64.236664 
4476.000000	64.290428 
4475.000000	64.343190 
4474.000000	64.389705 
4473.000000	64.424753 
4472.000000	64.444065 
4471.000000	64.444351 
4470.000000	64.425349 
4469.000000	64.384579 
4468.000000	64.318990 
4467.000000	64.233374 
4466.000000	64.138579 
4465.000000	64.050793 
4464.000000	63.984942 
4463.000000	63.949060 
4462.000000	63.942933 
4461.000000	63.944864 
4460.000000	63.931155 
4459.000000	63.891148 
4458.000000	63.832402 
4457.000000	63.780093 
4456.000000	63.776659 
4455.000000	63.847589 
4454.000000	64.031672 
4453.000000	64.340496 
4452.000000	64.814496 
4451.000000	65.520691 
4450.000000	66.537380 
4449.000000	67.952060 
4448.000000	69.768118 
4447.000000	71.883702 
4446.000000	74.065709 
4445.000000	75.981307 
4444.000000	77.292895 
4443.000000	77.739477 
4442.000000	77.230262 
4441.000000	75.867104 
4440.000000	73.903179 
4439.000000	71.673107 
4438.000000	69.493722 
4437.000000	67.591238 
4436.000000	66.069531 
4435.000000	64.902472 
4434.000000	63.995051 
4433.000000	63.218283 
4432.000000	62.466740 
4431.000000	61.698532 
4430.000000	60.926032 
4429.000000	60.235857 
4428.000000	59.734439 
4427.000000	59.537124 
4426.000000	59.702610 
4425.000000	60.234808 
4424.000000	61.062240 
4423.000000	62.063455 
4422.000000	63.088011 
4421.000000	63.997721 
4420.000000	64.697122 
4419.000000	65.143918 
4418.000000	65.348482 
4417.000000	65.361976 
4416.000000	65.254378 
4415.000000	65.092277 
4414.000000	64.921450 
4413.000000	64.771461 
4412.000000	64.652085 
4411.000000	64.565896 
4410.000000	64.510011 
4409.000000	64.481091 
4408.000000	64.476490 
4407.000000	64.497995 
4406.000000	64.548397 
4405.000000	64.618730 
4404.000000	64.697027 
4403.000000	64.774346 
4402.000000	64.842772 
4401.000000	64.894366 
4400.000000	64.923858 
4399.000000	64.929747 
4398.000000	64.912986 
4397.000000	64.875578 
4396.000000	64.821481 
4395.000000	64.756584 
4394.000000	64.687085 
4393.000000	64.619255 
4392.000000	64.557647 
4391.000000	64.504361 
4390.000000	64.460706 
4389.000000	64.427924 
4388.000000	64.403104 
4387.000000	64.380383 
4386.000000	64.354014 
4385.000000	64.319682 
4384.000000	64.276003 
4383.000000	64.224791 
4382.000000	64.169239 
4381.000000	64.113426 
4380.000000	64.061212 
4379.000000	64.015650 
4378.000000	63.977575 
4377.000000	63.947057 
4376.000000	63.923549 
4375.000000	63.907194 
4374.000000	63.899135 
4373.000000	63.901567 
4372.000000	63.916420 
4371.000000	63.945436 
4370.000000	63.988709 
4369.000000	64.044666 
4368.000000	64.109063 
4367.000000	64.176535 
4366.000000	64.241480 
4365.000000	64.299345 
4364.000000	64.347386 
4363.000000	64.384722 
4362.000000	64.412117 
4361.000000	64.431548 
4360.000000	64.445662 
4359.000000	64.457392 
4358.000000	64.469695 
4357.000000	64.485955 
4356.000000	64.509367 
4355.000000	64.543032 
4354.000000	64.588713 
4353.000000	64.647269 
4352.000000	64.716744 
4351.000000	64.792823 
4350.000000	64.868664 
4349.000000	64.936184 
4348.000000	64.987349 
4347.000000	65.015912 
4346.000000	65.018558 
4345.000000	64.996409 
4344.000000	64.953923 
4343.000000	64.898133 
4342.000000	64.837002 
4341.000000	64.778113 
4340.000000	64.727330 
4339.000000	64.688372 
4338.000000	64.662218 
4337.000000	64.647889 
4336.000000	64.642071 
4335.000000	64.640498 
4334.000000	64.637923 
4333.000000	64.629650 
4332.000000	64.612579 
4331.000000	64.586138 
4330.000000	64.552402 
4329.000000	64.515447 
4328.000000	64.480543 
4327.000000	64.452552 
4326.000000	64.434599 
4325.000000	64.427471 
4324.000000	64.429187 
4323.000000	64.436221 
4322.000000	64.443850 
4321.000000	64.448618 
4320.000000	64.449024 
4319.000000	64.446544 
4318.000000	64.444613 
4317.000000	64.448285 
4316.000000	64.462447 
4315.000000	64.490342 
4314.000000	64.532041 
4313.000000	64.584517 
4312.000000	64.642071 
4311.000000	64.697980 
4310.000000	64.746189 
4309.000000	64.782428 
4308.000000	64.805173 
4307.000000	64.815831 
4306.000000	64.818358 
4305.000000	64.817976 
4304.000000	64.819645 
4303.000000	64.827179 
4302.000000	64.842247 
4301.000000	64.864683 
4300.000000	64.892530 
4299.000000	64.923000 
4298.000000	64.953041 
4297.000000	64.980435 
4296.000000	65.003800 
4295.000000	65.022754 
4294.000000	65.037155 
4293.000000	65.046858 
4292.000000	65.051364 
4291.000000	65.049743 
4290.000000	65.040874 
4289.000000	65.024018 
4288.000000	64.999389 
4287.000000	64.968729 
4286.000000	64.934897 
4285.000000	64.901876 
4284.000000	64.873814 
4283.000000	64.854311 
4282.000000	64.845347 
4281.000000	64.847064 
4280.000000	64.857196 
4279.000000	64.871644 
4278.000000	64.885377 
4277.000000	64.893531 
4276.000000	64.891934 
4275.000000	64.878010 
4274.000000	64.850902 
4273.000000	64.811515 
4272.000000	64.762330 
4271.000000	64.706707 
4270.000000	64.648461 
4269.000000	64.591407 
4268.000000	64.538812 
4267.000000	64.493584 
4266.000000	64.458107 
4265.000000	64.434456 
4264.000000	64.423441 
4263.000000	64.425587 
4262.000000	64.440584 
4261.000000	64.467787 
4260.000000	64.505791 
4259.000000	64.552617 
4258.000000	64.605426 
4257.000000	64.660882 
4256.000000	64.715123 
4255.000000	64.763927 
4254.000000	64.803266 
4253.000000	64.829683 
4252.000000	64.841198 
4251.000000	64.838004 
4250.000000	64.822530 
4249.000000	64.799904 
4248.000000	64.776659 
4247.000000	64.759945 
4246.000000	64.755225 
4245.000000	64.766025 
4244.000000	64.791631 
4243.000000	64.827322 
4242.000000	64.864897 
4241.000000	64.894580 
4240.000000	64.907336 
4239.000000	64.896893 
4238.000000	64.861965 
4237.000000	64.806556 
4236.000000	64.740133 
4235.000000	64.675188 
4234.000000	64.624810 
4233.000000	64.599704 
4232.000000	64.605474 
4231.000000	64.641666 
4230.000000	64.701366 
4229.000000	64.773058 
4228.000000	64.843201 
4227.000000	64.899635 
4226.000000	64.933514 
4225.000000	64.941596 
4224.000000	64.926290 
4223.000000	64.895105 
4222.000000	64.858126 
4221.000000	64.825940 
4220.000000	64.807510 
4219.000000	64.808154 
4218.000000	64.829707 
4217.000000	64.869499 
4216.000000	64.922022 
4215.000000	64.979338 
4214.000000	65.033650 
4213.000000	65.077710 
4212.000000	65.106081 
4211.000000	65.115809 
4210.000000	65.106153 
4209.000000	65.078735 
4208.000000	65.037202 
4207.000000	64.986300 
4206.000000	64.931464 
4205.000000	64.877510 
4204.000000	64.828634 
4203.000000	64.787650 
4202.000000	64.756298 
4201.000000	64.735007 
4200.000000	64.723348 
4199.000000	64.720439 
4198.000000	64.725065 
4197.000000	64.736247 
4196.000000	64.753270 
4195.000000	64.775109 
4194.000000	64.800930 
4193.000000	64.829802 
4192.000000	64.861035 
4191.000000	64.893841 
4190.000000	64.927411 
4189.000000	64.960956 
4188.000000	64.993309 
4187.000000	65.023326 
4186.000000	65.049481 
4185.000000	65.070033 
4184.000000	65.083074 
4183.000000	65.087199 
4182.000000	65.081763 
4181.000000	65.067458 
4180.000000	65.046238 
4179.000000	65.021443 
4178.000000	64.996600 
4177.000000	64.975047 
4176.000000	64.958906 
4175.000000	64.948916 
4174.000000	64.944291 
4173.000000	64.943289 
4172.000000	64.943790 
4171.000000	64.943981 
4170.000000	64.942979 
4169.000000	64.940953 
4168.000000	64.938879 
4167.000000	64.938020 
4166.000000	64.939403 
4165.000000	64.943599 
4164.000000	64.950180 
4163.000000	64.958429 
4162.000000	64.967489 
4161.000000	64.977288 
4160.000000	64.988303 
4159.000000	65.002131 
4158.000000	65.021038 
4157.000000	65.047311 
4156.000000	65.082430 
4155.000000	65.126156 
4154.000000	65.176486 
4153.000000	65.229153 
4152.000000	65.278744 
4151.000000	65.318632 
4150.000000	65.342593 
4149.000000	65.345501 
4148.000000	65.324568 
4147.000000	65.279531 
4146.000000	65.212988 
4145.000000	65.130305 
4144.000000	65.038967 
4143.000000	64.948058 
4142.000000	64.866805 
4141.000000	64.803528 
4140.000000	64.764237 
4139.000000	64.751744 
4138.000000	64.765191 
4137.000000	64.799666 
4136.000000	64.847683 
4135.000000	64.900207 
4134.000000	64.948797 
4133.000000	64.986586 
4132.000000	65.010023 
4131.000000	65.018272 
4130.000000	65.013647 
4129.000000	65.000200 
4128.000000	64.983153 
4127.000000	64.967393 
4126.000000	64.956760 
4125.000000	64.953589 
4124.000000	64.958095 
4123.000000	64.969062 
4122.000000	64.983963 
4121.000000	64.999723 
4120.000000	65.013670 
4119.000000	65.024089 
4118.000000	65.030169 
4117.000000	65.032005 
4116.000000	65.029978 
4115.000000	65.024256 
4114.000000	65.014767 
4113.000000	65.001130 
4112.000000	64.982771 
4111.000000	64.959645 
4110.000000	64.932870 
4109.000000	64.905118 
4108.000000	64.879965 
4107.000000	64.861965 
4106.000000	64.855170 
4105.000000	64.862728 
4104.000000	64.885807 
4103.000000	64.923262 
4102.000000	64.971280 
4101.000000	65.024304 
4100.000000	65.076017 
4099.000000	65.120100 
4098.000000	65.151429 
4097.000000	65.166735 
4096.000000	65.164852 
4095.000000	65.146923 
4094.000000	65.115928 
4093.000000	65.076136 
4092.000000	65.032386 
4091.000000	64.989590 
4090.000000	64.952015 
4089.000000	64.923048 
4088.000000	64.904618 
4087.000000	64.897251 
4086.000000	64.899754 
4085.000000	64.909696 
4084.000000	64.924144 
4083.000000	64.939570 
4082.000000	64.953374 
4081.000000	64.964008 
4080.000000	64.971494 
4079.000000	64.977049 
4078.000000	64.982557 
4077.000000	64.989876 
4076.000000	64.999961 
4075.000000	65.012335 
4074.000000	65.025091 
4073.000000	65.035438 
4072.000000	65.040421 
4071.000000	65.038204 
4070.000000	65.028476 
4069.000000	65.012836 
4068.000000	64.994335 
4067.000000	64.976930 
4066.000000	64.963936 
4065.000000	64.957404 
4064.000000	64.957332 
4063.000000	64.961862 
4062.000000	64.967536 
4061.000000	64.970374 
4060.000000	64.967250 
4059.000000	64.956593 
4058.000000	64.938926 
4057.000000	64.916396 
4056.000000	64.892029 
4055.000000	64.868688 
4054.000000	64.848065 
4053.000000	64.830136 
4052.000000	64.813280 
4051.000000	64.795017 
4050.000000	64.773249 
4049.000000	64.747381 
4048.000000	64.718866 
4047.000000	64.691495 
4046.000000	64.670515 
4045.000000	64.661622 
4044.000000	64.669179 
4043.000000	64.695429 
4042.000000	64.739418 
4041.000000	64.797329 
4040.000000	64.863228 
4039.000000	64.930438 
4038.000000	64.992785 
4037.000000	65.045785 
4036.000000	65.087175 
4035.000000	65.116262 
4034.000000	65.133690 
4033.000000	65.140652 
4032.000000	65.138316 
4031.000000	65.127396 
4030.000000	65.108108 
4029.000000	65.081334 
4028.000000	65.048384 
4027.000000	65.011548 
4026.000000	64.974021 
4025.000000	64.939427 
4024.000000	64.911818 
4023.000000	64.894413 
4022.000000	64.889430 
4021.000000	64.897537 
4020.000000	64.917802 
4019.000000	64.947938 
4018.000000	64.984560 
4017.000000	65.023684 
4016.000000	65.061068 
4015.000000	65.092945 
4014.000000	65.116310 
4013.000000	65.129017 
4012.000000	65.130472 
4011.000000	65.121507 
4010.000000	65.104269 
4009.000000	65.081834 
4008.000000	65.058255 
4007.000000	65.037560 
4006.000000	65.023136 
4005.000000	65.017127 
4004.000000	65.020513 
4003.000000	65.032792 
4002.000000	65.052294 
4001.000000	65.076398 
4000.000000	65.102076 
3999.000000	65.125942 
3998.000000	65.145254 
3997.000000	65.157723 
3996.000000	65.161728 
3995.000000	65.156674 
3994.000000	65.142917 
3993.000000	65.121769 
3992.000000	65.095281 
3991.000000	65.066075 
3990.000000	65.037083 
3989.000000	65.010976 
3988.000000	64.989900 
3987.000000	64.974808 
3986.000000	64.965367 
3985.000000	64.959979 
3984.000000	64.956498 
3983.000000	64.952421 
3982.000000	64.945650 
3981.000000	64.935445 
3980.000000	64.922618 
3979.000000	64.909243 
3978.000000	64.898443 
3977.000000	64.893436 
3976.000000	64.896965 
3975.000000	64.910244 
3974.000000	64.932990 
3973.000000	64.963054 
3972.000000	64.997148 
3971.000000	65.031957 
3970.000000	65.064454 
3969.000000	65.092492 
3968.000000	65.114784 
3967.000000	65.131235 
3966.000000	65.141940 
3965.000000	65.146827 
3964.000000	65.145206 
3963.000000	65.136218 
3962.000000	65.118980 
3961.000000	65.093374 
3960.000000	65.060472 
3959.000000	65.022993 
3958.000000	64.984679 
3957.000000	64.949822 
3956.000000	64.921808 
3955.000000	64.902400 
3954.000000	64.891052 
3953.000000	64.885354 
3952.000000	64.881157 
3951.000000	64.874434 
3950.000000	64.862608 
3949.000000	64.845991 
3948.000000	64.827418 
3947.000000	64.812755 
3946.000000	64.808702 
3945.000000	64.821887 
3944.000000	64.856219 
3943.000000	64.912366 
3942.000000	64.986896 
3941.000000	65.072941 
3940.000000	65.161776 
3939.000000	65.244078 
3938.000000	65.312123 
3937.000000	65.360665 
3936.000000	65.387940 
3935.000000	65.394997 
3934.000000	65.384936 
3933.000000	65.361666 
3932.000000	65.329051 
3931.000000	65.289521 
3930.000000	65.244078 
3929.000000	65.192747 
3928.000000	65.135169 
3927.000000	65.071368 
3926.000000	65.002560 
3925.000000	64.931154 
3924.000000	64.860939 
3923.000000	64.796257 
3922.000000	64.741539 
3921.000000	64.700007 
3920.000000	64.673566 
3919.000000	64.661955 
3918.000000	64.663577 
3917.000000	64.675354 
3916.000000	64.694190 
3915.000000	64.717268 
3914.000000	64.743018 
3913.000000	64.770555 
3912.000000	64.800000 
3911.000000	64.831304 
3910.000000	64.864397 
3909.000000	64.898014 
3908.000000	64.930486 
3907.000000	64.960026 
3906.000000	64.984846 
3905.000000	65.003681 
3904.000000	65.015912 
3903.000000	65.021419 
3902.000000	65.020251 
3901.000000	65.012645 
3900.000000	64.998364 
3899.000000	64.977049 
3898.000000	64.948773 
3897.000000	64.914798 
3896.000000	64.877653 
3895.000000	64.841341 
3894.000000	64.811229 
3893.000000	64.792728 
3892.000000	64.789819 
3891.000000	64.804267 
3890.000000	64.834713 
3889.000000	64.877009 
3888.000000	64.924740 
3887.000000	64.970850 
3886.000000	65.009069 
3885.000000	65.035271 
3884.000000	65.048313 
3883.000000	65.049672 
3882.000000	65.042662 
3881.000000	65.031647 
3880.000000	65.020990 
3879.000000	65.013885 
3878.000000	65.011787 
3877.000000	65.014505 
3876.000000	65.020489 
3875.000000	65.027499 
3874.000000	65.033340 
3873.000000	65.036153 
3872.000000	65.034914 
3871.000000	65.029358 
3870.000000	65.020036 
3869.000000	65.007948 
3868.000000	64.994645 
3867.000000	64.982008 
3866.000000	64.972066 
3865.000000	64.966988 
3864.000000	64.968419 
3863.000000	64.977693 
3862.000000	64.995002 
3861.000000	65.019655 
3860.000000	65.049242 
3859.000000	65.080428 
3858.000000	65.108847 
3857.000000	65.130186 
3856.000000	65.140461 
3855.000000	65.136837 
3854.000000	65.118479 
3853.000000	65.086913 
3852.000000	65.045666 
3851.000000	64.999723 
3850.000000	64.954805 
3849.000000	64.916276 
3848.000000	64.888358 
3847.000000	64.873480 
3846.000000	64.872241 
3845.000000	64.883565 
3844.000000	64.905023 
3843.000000	64.933443 
3842.000000	64.965438 
3841.000000	64.997887 
3840.000000	65.027856 
3839.000000	65.053176 
3838.000000	65.072393 
3837.000000	65.084695 
3836.000000	65.090107 
3835.000000	65.089035 
3834.000000	65.082240 
3833.000000	65.070700 
3832.000000	65.055656 
3831.000000	65.038299 
3830.000000	65.019774 
3829.000000	65.000987 
3828.000000	64.983010 
3827.000000	64.966559 
3826.000000	64.952492 
3825.000000	64.941167 
3824.000000	64.932703 
3823.000000	64.926743 
3822.000000	64.922332 
3821.000000	64.918160 
3820.000000	64.912772 
3819.000000	64.904928 
3818.000000	64.893746 
3817.000000	64.879345 
3816.000000	64.862370 
3815.000000	64.843630 
3814.000000	64.824128 
3813.000000	64.804434 
3812.000000	64.785242 
3811.000000	64.767289 
3810.000000	64.751839 
3809.000000	64.740490 
3808.000000	64.735364 
3807.000000	64.738416 
3806.000000	64.751410 
3805.000000	64.774632 
3804.000000	64.807176 
3803.000000	64.846396 
3802.000000	64.888548 
3801.000000	64.929389 
3800.000000	64.964747 
3799.000000	64.991497 
3798.000000	65.007877 
3797.000000	65.013742 
3796.000000	65.010166 
3795.000000	64.999127 
3794.000000	64.982986 
3793.000000	64.964246 
3792.000000	64.945340 
3791.000000	64.928531 
3790.000000	64.916157 
3789.000000	64.910125 
3788.000000	64.911866 
3787.000000	64.921474 
3786.000000	64.937829 
3785.000000	64.958477 
3784.000000	64.979910 
3783.000000	64.998316 
3782.000000	65.010380 
3781.000000	65.014100 
3780.000000	65.009284 
3779.000000	64.997553 
3778.000000	64.982247 
3777.000000	64.967370 
3776.000000	64.956855 
3775.000000	64.953422 
3774.000000	64.958143 
3773.000000	64.970016 
3772.000000	64.986515 
3771.000000	65.003776 
3770.000000	65.017795 
3769.000000	65.025210 
3768.000000	65.024304 
3767.000000	65.015053 
3766.000000	64.999055 
3765.000000	64.979410 
3764.000000	64.959883 
3763.000000	64.944434 
3762.000000	64.936184 
3761.000000	64.937067 
3760.000000	64.947128 
3759.000000	64.964985 
3758.000000	64.987730 
3757.000000	65.011429 
3756.000000	65.032219 
3755.000000	65.046715 
3754.000000	65.053033 
3753.000000	65.051078 
3752.000000	65.042662 
3751.000000	65.031290 
3750.000000	65.020990 
3749.000000	65.015697 
3748.000000	65.017819 
3747.000000	65.027904 
3746.000000	65.043878 
3745.000000	65.061736 
3744.000000	65.076327 
3743.000000	65.082883 
3742.000000	65.078139 
3741.000000	65.061259 
3740.000000	65.034151 
3739.000000	65.000987 
3738.000000	64.967203 
3737.000000	64.938139 
3736.000000	64.917540 
3735.000000	64.906978 
3734.000000	64.905428 
3733.000000	64.909982 
3732.000000	64.916849 
3731.000000	64.922761 
3730.000000	64.926195 
3729.000000	64.927721 
3728.000000	64.929580 
3727.000000	64.935278 
3726.000000	64.947843 
3725.000000	64.969325 
3724.000000	64.999270 
3723.000000	65.035319 
3722.000000	65.073680 
3721.000000	65.110278 
3720.000000	65.141773 
3719.000000	65.166020 
3718.000000	65.182662 
3717.000000	65.192675 
3716.000000	65.197968 
3715.000000	65.200567 
3714.000000	65.202093 
3713.000000	65.203547 
3712.000000	65.205121 
3711.000000	65.206694 
3710.000000	65.208077 
3709.000000	65.209293 
3708.000000	65.210366 
3707.000000	65.211319 
3706.000000	65.212059 
3705.000000	65.212225 
3704.000000	65.210843 
3703.000000	65.207028 
3702.000000	65.199708 
3701.000000	65.188431 
3700.000000	65.173316 
3699.000000	65.155029 
3698.000000	65.135025 
3697.000000	65.114831 
3696.000000	65.096378 
3695.000000	65.081787 
3694.000000	65.072989 
3693.000000	65.071463 
3692.000000	65.078020 
3691.000000	65.092515 
3690.000000	65.113568 
3689.000000	65.138483 
3688.000000	65.163445 
3687.000000	65.184116 
3686.000000	65.196228 
3685.000000	65.196537 
3684.000000	65.183305 
3683.000000	65.157008 
3682.000000	65.120244 
3681.000000	65.077519 
3680.000000	65.034127 
3679.000000	64.995336 
3678.000000	64.965534 
3677.000000	64.947414 
3676.000000	64.941835 
3675.000000	64.947700 
3674.000000	64.962816 
3673.000000	64.983963 
3672.000000	65.007877 
3671.000000	65.031599 
3670.000000	65.052580 
3669.000000	65.069222 
3668.000000	65.080595 
3667.000000	65.086627 
3666.000000	65.087747 
3665.000000	65.085077 
3664.000000	65.079998 
3663.000000	65.074038 
3662.000000	65.068721 
3661.000000	65.065169 
3660.000000	65.063786 
3659.000000	65.064263 
3658.000000	65.065622 
3657.000000	65.066933 
3656.000000	65.067529 
3655.000000	65.067386 
3654.000000	65.067172 
3653.000000	65.068364 
3652.000000	65.072774 
3651.000000	65.081930 
3650.000000	65.096831 
3649.000000	65.117239 
3648.000000	65.141773 
3647.000000	65.168261 
3646.000000	65.193939 
3645.000000	65.216088 
3644.000000	65.232372 
3643.000000	65.241622 
3642.000000	65.243792 
3641.000000	65.239858 
3640.000000	65.231585 
3639.000000	65.221023 
3638.000000	65.209913 
3637.000000	65.199518 
3636.000000	65.190148 
3635.000000	65.181446 
3634.000000	65.172123 
3633.000000	65.160346 
3632.000000	65.144300 
3631.000000	65.122604 
3630.000000	65.094900 
3629.000000	65.061807 
3628.000000	65.025210 
3627.000000	64.987778 
3626.000000	64.952397 
3625.000000	64.921760 
3624.000000	64.897656 
3623.000000	64.881181 
3622.000000	64.872479 
3621.000000	64.871263 
3620.000000	64.876532 
3619.000000	64.887213 
3618.000000	64.902043 
3617.000000	64.919877 
3616.000000	64.938974 
3615.000000	64.957785 
3614.000000	64.974713 
3613.000000	64.988613 
3612.000000	64.998602 
3611.000000	65.004849 
3610.000000	65.008616 
3609.000000	65.011692 
3608.000000	65.016031 
3607.000000	65.023136 
3606.000000	65.033459 
3605.000000	65.046215 
3604.000000	65.059757 
3603.000000	65.072131 
3602.000000	65.081739 
3601.000000	65.088224 
3600.000000	65.092349 
3599.000000	65.095853 
3598.000000	65.100431 
3597.000000	65.107369 
3596.000000	65.116620 
3595.000000	65.126323 
3594.000000	65.133547 
3593.000000	65.135192 
3592.000000	65.128922 
3591.000000	65.114402 
3590.000000	65.093088 
3589.000000	65.068626 
3588.000000	65.044927 
3587.000000	65.025496 
3586.000000	65.011692 
3585.000000	65.002322 
3584.000000	64.994144 
3583.000000	64.983201 
3582.000000	64.965987 
3581.000000	64.940738 
3580.000000	64.908576 
3579.000000	64.873218 
3578.000000	64.840006 
3577.000000	64.814472 
3576.000000	64.800834 
3575.000000	64.801073 
3574.000000	64.814591 
3573.000000	64.838457 
3572.000000	64.868521 
3571.000000	64.900612 
3570.000000	64.931583 
3569.000000	64.959597 
3568.000000	64.983773 
3567.000000	65.003871 
3566.000000	65.019655 
3565.000000	65.030550 
3564.000000	65.035581 
3563.000000	65.033626 
3562.000000	65.024399 
3561.000000	65.007734 
3560.000000	64.984369 
3559.000000	64.955186 
3558.000000	64.921474 
3557.000000	64.884376 
3556.000000	64.844751 
3555.000000	64.803433 
3554.000000	64.761495 
3553.000000	64.720392 
3552.000000	64.682197 
3551.000000	64.649486 
3550.000000	64.625024 
3549.000000	64.611196 
3548.000000	64.609646 
3547.000000	64.620685 
3546.000000	64.643549 
3545.000000	64.676284 
3544.000000	64.716553 
3543.000000	64.761710 
3542.000000	64.809322 
3541.000000	64.857220 
3540.000000	64.903306 
3539.000000	64.945507 
3538.000000	64.981651 
3537.000000	65.009856 
3536.000000	65.028548 
3535.000000	65.037250 
3534.000000	65.036416 
3533.000000	65.027761 
3532.000000	65.013456 
3531.000000	64.996552 
3530.000000	64.979457 
3529.000000	64.963674 
3528.000000	64.949488 
3527.000000	64.936208 
3526.000000	64.922451 
3525.000000	64.906978 
3524.000000	64.889359 
3523.000000	64.870285 
3522.000000	64.851498 
3521.000000	64.835143 
3520.000000	64.823269 
3519.000000	64.817261 
3518.000000	64.817166 
3517.000000	64.821910 
3516.000000	64.829397 
3515.000000	64.837336 
3514.000000	64.844012 
3513.000000	64.848995 
3512.000000	64.852595 
3511.000000	64.856505 
3510.000000	64.863109 
3509.000000	64.874815 
3508.000000	64.893150 
3507.000000	64.918208 
3506.000000	64.948844 
3505.000000	64.982438 
3504.000000	65.015745 
3503.000000	65.045166 
3502.000000	65.067744 
3501.000000	65.081429 
3500.000000	65.085482 
3499.000000	65.080571 
3498.000000	65.068411 
3497.000000	65.051698 
3496.000000	65.033411 
3495.000000	65.016365 
3494.000000	65.002775 
3493.000000	64.994049 
3492.000000	64.990592 
3491.000000	64.991664 
3490.000000	64.995789 
3489.000000	65.000963 
3488.000000	65.005087 
3487.000000	65.006422 
3486.000000	65.003871 
3485.000000	64.997243 
3484.000000	64.987158 
3483.000000	64.974999 
3482.000000	64.962601 
3481.000000	64.951491 
3480.000000	64.943075 
3479.000000	64.938163 
3478.000000	64.936804 
3477.000000	64.938354 
3476.000000	64.941763 
3475.000000	64.945697 
3474.000000	64.948773 
3473.000000	64.949774 
3472.000000	64.947986 
3471.000000	64.943313 
3470.000000	64.936327 
3469.000000	64.927911 
3468.000000	64.919161 
3467.000000	64.911222 
3466.000000	64.905190 
3465.000000	64.901661 
3464.000000	64.901089 
3463.000000	64.903402 
3462.000000	64.908289 
3461.000000	64.915251 
3460.000000	64.923620 
3459.000000	64.932751 
3458.000000	64.941835 
3457.000000	64.950299 
3456.000000	64.957451 
3455.000000	64.962792 
3454.000000	64.966082 
3453.000000	64.967155 
3452.000000	64.965963 
3451.000000	64.962506 
3450.000000	64.957022 
3449.000000	64.949512 
3448.000000	64.939713 
3447.000000	64.927506 
3446.000000	64.912700 
3445.000000	64.895582 
3444.000000	64.877104 
3443.000000	64.858794 
3442.000000	64.842724 
3441.000000	64.831018 
3440.000000	64.825248 
3439.000000	64.825963 
3438.000000	64.832282 
3437.000000	64.841985 
3436.000000	64.851856 
3435.000000	64.858341 
3434.000000	64.858579 
3433.000000	64.851021 
3432.000000	64.836144 
3431.000000	64.816260 
3430.000000	64.795613 
3429.000000	64.779090 
3428.000000	64.771389 
3427.000000	64.775991 
3426.000000	64.794111 
3425.000000	64.824700 
3424.000000	64.864182 
3423.000000	64.907574 
3422.000000	64.949131 
3421.000000	64.983844 
3420.000000	65.008091 
3419.000000	65.020227 
3418.000000	65.020513 
3417.000000	65.011000 
3416.000000	64.994740 
3415.000000	64.974927 
3414.000000	64.954566 
3413.000000	64.935612 
3412.000000	64.919328 
3411.000000	64.906334 
3410.000000	64.897036 
3409.000000	64.891815 
3408.000000	64.891219 
3407.000000	64.895892 
3406.000000	64.906215 
3405.000000	64.922046 
3404.000000	64.942336 
3403.000000	64.965081 
3402.000000	64.987778 
3401.000000	65.007638 
3400.000000	65.022182 
3399.000000	65.029621 
3398.000000	65.029168 
3397.000000	65.021204 
3396.000000	65.006923 
3395.000000	64.988303 
3394.000000	64.967679 
3393.000000	64.947295 
3392.000000	64.929056 
3391.000000	64.914369 
3390.000000	64.903998 
3389.000000	64.898157 
3388.000000	64.896512 
3387.000000	64.898180 
3386.000000	64.901876 
3385.000000	64.906263 
3384.000000	64.910173 
3383.000000	64.912414 
3382.000000	64.912295 
3381.000000	64.909768 
3380.000000	64.905214 
3379.000000	64.899444 
3378.000000	64.893126 
3377.000000	64.887022 
3376.000000	64.881348 
3375.000000	64.875912 
3374.000000	64.869832 
3373.000000	64.862108 
3372.000000	64.851832 
3371.000000	64.838504 
3370.000000	64.822316 
3369.000000	64.804077 
3368.000000	64.785385 
3367.000000	64.768338 
3366.000000	64.755296 
3365.000000	64.748167 
3364.000000	64.748549 
3363.000000	64.757251 
3362.000000	64.774394 
3361.000000	64.799356 
3360.000000	64.831042 
3359.000000	64.867806 
3358.000000	64.907646 
3357.000000	64.948153 
3356.000000	64.986586 
3355.000000	65.020251 
3354.000000	65.046501 
3353.000000	65.063452 
3352.000000	65.070414 
3351.000000	65.067911 
3350.000000	65.058350 
3349.000000	65.044689 
3348.000000	65.030407 
3347.000000	65.018129 
3346.000000	65.009737 
3345.000000	65.005230 
3344.000000	65.003514 
3343.000000	65.002322 
3342.000000	64.999294 
3341.000000	64.992499 
3340.000000	64.980959 
3339.000000	64.964866 
3338.000000	64.945507 
3337.000000	64.924597 
3336.000000	64.903664 
3335.000000	64.883828 
3334.000000	64.865493 
3333.000000	64.848423 
3332.000000	64.831852 
3331.000000	64.815211 
3330.000000	64.798188 
3329.000000	64.781117 
3328.000000	64.765143 
3327.000000	64.751434 
3326.000000	64.741253 
3325.000000	64.735770 
3324.000000	64.735460 
3323.000000	64.740204 
3322.000000	64.749002 
3321.000000	64.760446 
3320.000000	64.772605 
3319.000000	64.783525 
3318.000000	64.791297 
3317.000000	64.794516 
3316.000000	64.792561 
3315.000000	64.785671 
3314.000000	64.775300 
3313.000000	64.763784 
3312.000000	64.754152 
3311.000000	64.749622 
3310.000000	64.753055 
3309.000000	64.766287 
3308.000000	64.789605 
3307.000000	64.821553 
3306.000000	64.858818 
3305.000000	64.896988 
3304.000000	64.931106 
3303.000000	64.957046 
3302.000000	64.972114 
3301.000000	64.975738 
3300.000000	64.969563 
3299.000000	64.956808 
3298.000000	64.941644 
3297.000000	64.927959 
3296.000000	64.918756 
3295.000000	64.915370 
3294.000000	64.917612 
3293.000000	64.923954 
3292.000000	64.932394 
3291.000000	64.940810 
3290.000000	64.947700 
3289.000000	64.952087 
3288.000000	64.953613 
3287.000000	64.952278 
3286.000000	64.948153 
3285.000000	64.941287 
3284.000000	64.931559 
3283.000000	64.919376 
3282.000000	64.905595 
3281.000000	64.891934 
3280.000000	64.880490 
3279.000000	64.873504 
3278.000000	64.872598 
3277.000000	64.878034 
3276.000000	64.888596 
3275.000000	64.901733 
3274.000000	64.914178 
3273.000000	64.922690 
3272.000000	64.925026 
3271.000000	64.920520 
3270.000000	64.910483 
3269.000000	64.897513 
3268.000000	64.885163 
3267.000000	64.876818 
3266.000000	64.874863 
3265.000000	64.880228 
3264.000000	64.892077 
3263.000000	64.908313 
3262.000000	64.926218 
3261.000000	64.943027 
3260.000000	64.956593 
3259.000000	64.965724 
3258.000000	64.970040 
3257.000000	64.969921 
3256.000000	64.965987 
3255.000000	64.958834 
3254.000000	64.948844 
3253.000000	64.936399 
3252.000000	64.921855 
3251.000000	64.905953 
3250.000000	64.889812 
3249.000000	64.875102 
3248.000000	64.863753 
3247.000000	64.857697 
3246.000000	64.858388 
3245.000000	64.866113 
3244.000000	64.880084 
3243.000000	64.898252 
3242.000000	64.917635 
3241.000000	64.934992 
3240.000000	64.947414 
3239.000000	64.953160 
3238.000000	64.951705 
3237.000000	64.944148 
3236.000000	64.932703 
3235.000000	64.920473 
3234.000000	64.910626 
3233.000000	64.905834 
3232.000000	64.907741 
3231.000000	64.916610 
3230.000000	64.931488 
3229.000000	64.950156 
3228.000000	64.969682 
3227.000000	64.986753 
3226.000000	64.998316 
3225.000000	65.001869 
3224.000000	64.995908 
3223.000000	64.980244 
3222.000000	64.955973 
3221.000000	64.925169 
3220.000000	64.890694 
3219.000000	64.855766 
3218.000000	64.823603 
3217.000000	64.796614 
3216.000000	64.776349 
3215.000000	64.763236 
3214.000000	64.756774 
3213.000000	64.755797 
3212.000000	64.758992 
3211.000000	64.764642 
3210.000000	64.771652 
3209.000000	64.779257 
3208.000000	64.787244 
3207.000000	64.795374 
3206.000000	64.803814 
3205.000000	64.812541 
3204.000000	64.821767 
3203.000000	64.831590 
3202.000000	64.842224 
3201.000000	64.853930 
3200.000000	64.867329 
3199.000000	64.883089 
3198.000000	64.901852 
3197.000000	64.924097 
3196.000000	64.949822 
3195.000000	64.978146 
3194.000000	65.007472 
3193.000000	65.035319 
3192.000000	65.058898 
3191.000000	65.075087 
3190.000000	65.081310 
3189.000000	65.075802 
3188.000000	65.058088 
3187.000000	65.029239 
3186.000000	64.991807 
3185.000000	64.949321 
3184.000000	64.906024 
3183.000000	64.866042 
3182.000000	64.832830 
3181.000000	64.808702 
3180.000000	64.794468 
3179.000000	64.789891 
3178.000000	64.793562 
3177.000000	64.803624 
3176.000000	64.818096 
3175.000000	64.835047 
3174.000000	64.852976 
3173.000000	64.870667 
3172.000000	64.887046 
3171.000000	64.901280 
3170.000000	64.912533 
3169.000000	64.920234 
3168.000000	64.923834 
3167.000000	64.923357 
3166.000000	64.918994 
3165.000000	64.911413 
3164.000000	64.901280 
3163.000000	64.889311 
3162.000000	64.876008 
3161.000000	64.861416 
3160.000000	64.845323 
3159.000000	64.827585 
3158.000000	64.808583 
3157.000000	64.789009 
3156.000000	64.770388 
3155.000000	64.754557 
3154.000000	64.743733 
3153.000000	64.739847 
3152.000000	64.744162 
3151.000000	64.756727 
3150.000000	64.776587 
3149.000000	64.801716 
3148.000000	64.829540 
3147.000000	64.857387 
3146.000000	64.882898 
3145.000000	64.904451 
3144.000000	64.921379 
3143.000000	64.933753 
3142.000000	64.942216 
3141.000000	64.947438 
3140.000000	64.949917 
3139.000000	64.949488 
3138.000000	64.945578 
3137.000000	64.937210 
3136.000000	64.923501 
3135.000000	64.903831 
3134.000000	64.878511 
3133.000000	64.848446 
3132.000000	64.815354 
3131.000000	64.781403 
3130.000000	64.749050 
3129.000000	64.720582 
3128.000000	64.697742 
3127.000000	64.681720 
3126.000000	64.672923 
3125.000000	64.671039 
3124.000000	64.674997 
3123.000000	64.683294 
3122.000000	64.694261 
3121.000000	64.706563 
3120.000000	64.719295 
3119.000000	64.732265 
3118.000000	64.745783 
3117.000000	64.760637 
3116.000000	64.777445 
3115.000000	64.796352 
3114.000000	64.816522 
3113.000000	64.836406 
3112.000000	64.853811 
3111.000000	64.866399 
3110.000000	64.872336 
3109.000000	64.870834 
3108.000000	64.862442 
3107.000000	64.849400 
3106.000000	64.834856 
3105.000000	64.822220 
3104.000000	64.814281 
3103.000000	64.812755 
3102.000000	64.817953 
3101.000000	64.828562 
3100.000000	64.842367 
3099.000000	64.856815 
3098.000000	64.869856 
3097.000000	64.880347 
3096.000000	64.888238 
3095.000000	64.894556 
3094.000000	64.900755 
3093.000000	64.908289 
3092.000000	64.917755 
3091.000000	64.928746 
3090.000000	64.939665 
3089.000000	64.948010 
3088.000000	64.951062 
3087.000000	64.946556 
3086.000000	64.933514 
3085.000000	64.912772 
3084.000000	64.886689 
3083.000000	64.859318 
3082.000000	64.835119 
3081.000000	64.818263 
3080.000000	64.812016 
3079.000000	64.817667 
3078.000000	64.834475 
3077.000000	64.859557 
3076.000000	64.888811 
3075.000000	64.917373 
3074.000000	64.940786 
3073.000000	64.955759 
3072.000000	64.960479 
3071.000000	64.954900 
3070.000000	64.940476 
3069.000000	64.919686 
3068.000000	64.895367 
3067.000000	64.870405 
3066.000000	64.847278 
3065.000000	64.827609 
3064.000000	64.812207 
3063.000000	64.801192 
3062.000000	64.794254 
3061.000000	64.790606 
3060.000000	64.789724 
3059.000000	64.791131 
3058.000000	64.795184 
3057.000000	64.802336 
3056.000000	64.813399 
3055.000000	64.829158 
3054.000000	64.850187 
3053.000000	64.876174 
3052.000000	64.905738 
3051.000000	64.936423 
3050.000000	64.964985 
3049.000000	64.987993 
3048.000000	65.002322 
3047.000000	65.006041 
3046.000000	64.998841 
3045.000000	64.982271 
3044.000000	64.959311 
3043.000000	64.933824 
3042.000000	64.909648 
3041.000000	64.889883 
3040.000000	64.876151 
3039.000000	64.868569 
3038.000000	64.865827 
3037.000000	64.865708 
3036.000000	64.865899 
3035.000000	64.864349 
3034.000000	64.859890 
3033.000000	64.852166 
3032.000000	64.841556 
3031.000000	64.828920 
3030.000000	64.814805 
3029.000000	64.799666 
3028.000000	64.783620 
3027.000000	64.766788 
3026.000000	64.749097 
3025.000000	64.731025 
3024.000000	64.713263 
3023.000000	64.697241 
3022.000000	64.684391 
3021.000000	64.676403 
3020.000000	64.674639 
3019.000000	64.680075 
3018.000000	64.692854 
3017.000000	64.712262 
3016.000000	64.736604 
3015.000000	64.763426 
3014.000000	64.789772 
3013.000000	64.812254 
3012.000000	64.827847 
3011.000000	64.834141 
3010.000000	64.829945 
3009.000000	64.815568 
3008.000000	64.792537 
3007.000000	64.763760 
3006.000000	64.732813 
3005.000000	64.703249 
3004.000000	64.677810 
3003.000000	64.658093 
3002.000000	64.644408 
3001.000000	64.635682 
3000.000000	64.630413 
2999.000000	64.626908 
2998.000000	64.624142 
2997.000000	64.621758 
2996.000000	64.620471 
2995.000000	64.621520 
2994.000000	64.626479 
2993.000000	64.636564 
2992.000000	64.652323 
2991.000000	64.673209 
2990.000000	64.697885 
2989.000000	64.724397 
2988.000000	64.750719 
2987.000000	64.775109 
2986.000000	64.796423 
2985.000000	64.814138 
2984.000000	64.828348 
2983.000000	64.839243 
2982.000000	64.846897 
2981.000000	64.851045 
2980.000000	64.851164 
2979.000000	64.846444 
2978.000000	64.836120 
2977.000000	64.819884 
2976.000000	64.798402 
2975.000000	64.773082 
2974.000000	64.746236 
2973.000000	64.720463 
2972.000000	64.698529 
2971.000000	64.682412 
2970.000000	64.672970 
2969.000000	64.669632 
2968.000000	64.670729 
2967.000000	64.673638 
2966.000000	64.675593 
2965.000000	64.674305 
2964.000000	64.668440 
2963.000000	64.658117 
2962.000000	64.644718 
2961.000000	64.630651 
2960.000000	64.618563 
2959.000000	64.610958 
2958.000000	64.609575 
2957.000000	64.614915 
2956.000000	64.626169 
2955.000000	64.641642 
2954.000000	64.659285 
2953.000000	64.676880 
2952.000000	64.692664 
2951.000000	64.705610 
2950.000000	64.715814 
2949.000000	64.723849 
2948.000000	64.730954 
2947.000000	64.738154 
2946.000000	64.746499 
2945.000000	64.756536 
2944.000000	64.768147 
2943.000000	64.780688 
2942.000000	64.792776 
2941.000000	64.803338 
2940.000000	64.810872 
2939.000000	64.814090 
2938.000000	64.811778 
2937.000000	64.803457 
2936.000000	64.789152 
2935.000000	64.769506 
2934.000000	64.745712 
2933.000000	64.719581 
2932.000000	64.692997 
2931.000000	64.667606 
2930.000000	64.644670 
2929.000000	64.624857 
2928.000000	64.608001 
2927.000000	64.593386 
2926.000000	64.580035 
2925.000000	64.566779 
2924.000000	64.552760 
2923.000000	64.537453 
2922.000000	64.520812 
2921.000000	64.503312 
2920.000000	64.485907 
2919.000000	64.470124 
2918.000000	64.457440 
2917.000000	64.449334 
2916.000000	64.447188 
2915.000000	64.451885 
2914.000000	64.463782 
2913.000000	64.482474 
2912.000000	64.507079 
2911.000000	64.535903 
2910.000000	64.566731 
2909.000000	64.597058 
2908.000000	64.624214 
2907.000000	64.645910 
2906.000000	64.660525 
2905.000000	64.667654 
2904.000000	64.668083 
2903.000000	64.663839 
2902.000000	64.657783 
2901.000000	64.652824 
2900.000000	64.651226 
2899.000000	64.654207 
2898.000000	64.661598 
2897.000000	64.671802 
2896.000000	64.682483 
2895.000000	64.691090 
2894.000000	64.695692 
2893.000000	64.695477 
2892.000000	64.690971 
2891.000000	64.683818 
2890.000000	64.676380 
2889.000000	64.670991 
2888.000000	64.669346 
2887.000000	64.672112 
2886.000000	64.678645 
2885.000000	64.687442 
2884.000000	64.696359 
2883.000000	64.703345 
2882.000000	64.706707 
2881.000000	64.705586 
2880.000000	64.699792 
2879.000000	64.689946 
2878.000000	64.677047 
2877.000000	64.662218 
2876.000000	64.646720 
2875.000000	64.631676 
2874.000000	64.617919 
2873.000000	64.606118 
2872.000000	64.596819 
2871.000000	64.590382 
2870.000000	64.586830 
2869.000000	64.585781 
2868.000000	64.586544 
2867.000000	64.587926 
2866.000000	64.588499 
2865.000000	64.586782 
2864.000000	64.581441 
2863.000000	64.571714 
2862.000000	64.557576 
2861.000000	64.539909 
2860.000000	64.520263 
2859.000000	64.500904 
2858.000000	64.484238 
2857.000000	64.472675 
2856.000000	64.468050 
2855.000000	64.471316 
2854.000000	64.482450 
2853.000000	64.500403 
2852.000000	64.523243 
2851.000000	64.548754 
2850.000000	64.574766 
2849.000000	64.599585 
2848.000000	64.622163 
2847.000000	64.642286 
2846.000000	64.660382 
2845.000000	64.677166 
2844.000000	64.693379 
2843.000000	64.709305 
2842.000000	64.724516 
2841.000000	64.738225 
2840.000000	64.749073 
2839.000000	64.755964 
2838.000000	64.757966 
2837.000000	64.754891 
2836.000000	64.747357 
2835.000000	64.736580 
2834.000000	64.724254 
2833.000000	64.712166 
2832.000000	64.701771 
2831.000000	64.694118 
2830.000000	64.689373 
2829.000000	64.687228 
2828.000000	64.686775 
2827.000000	64.686870 
2826.000000	64.686369 
2825.000000	64.684367 
2824.000000	64.680576 
2823.000000	64.675211 
2822.000000	64.669132 
2821.000000	64.663457 
2820.000000	64.659714 
2819.000000	64.659404 
2818.000000	64.663457 
2817.000000	64.672064 
2816.000000	64.684486 
2815.000000	64.699029 
2814.000000	64.713478 
2813.000000	64.725494 
2812.000000	64.733386 
2811.000000	64.736461 
2810.000000	64.735245 
2809.000000	64.731216 
2808.000000	64.726424 
2807.000000	64.722752 
2806.000000	64.721369 
2805.000000	64.722371 
2804.000000	64.724826 
2803.000000	64.727020 
2802.000000	64.727306 
2801.000000	64.724445 
2800.000000	64.718103 
2799.000000	64.708948 
2798.000000	64.698529 
2797.000000	64.688587 
2796.000000	64.680624 
2795.000000	64.675378 
2794.000000	64.672684 
2793.000000	64.671659 
2792.000000	64.671063 
2791.000000	64.669823 
2790.000000	64.667510 
2789.000000	64.664292 
2788.000000	64.661049 
2787.000000	64.658641 
2786.000000	64.657974 
2785.000000	64.659237 
2784.000000	64.662337 
2783.000000	64.666271 
2782.000000	64.670109 
2781.000000	64.673113 
2780.000000	64.674925 
2779.000000	64.675879 
2778.000000	64.676809 
2777.000000	64.678645 
2776.000000	64.682340 
2775.000000	64.688134 
2774.000000	64.696025 
2773.000000	64.705467 
2772.000000	64.715743 
2771.000000	64.726257 
2770.000000	64.736652 
2769.000000	64.746904 
2768.000000	64.757132 
2767.000000	64.767289 
2766.000000	64.776992 
2765.000000	64.785480 
2764.000000	64.791631 
2763.000000	64.793968 
2762.000000	64.790964 
2761.000000	64.781475 
2760.000000	64.765071 
2759.000000	64.742183 
2758.000000	64.714169 
2757.000000	64.683127 
2756.000000	64.651584 
2755.000000	64.622163 
2754.000000	64.597177 
2753.000000	64.578318 
2752.000000	64.566516 
2751.000000	64.561891 
2750.000000	64.563822 
2749.000000	64.571285 
2748.000000	64.582777 
2747.000000	64.596796 
2746.000000	64.611840 
2745.000000	64.626455 
2744.000000	64.639329 
2743.000000	64.649033 
2742.000000	64.654302 
2741.000000	64.653968 
2740.000000	64.647388 
2739.000000	64.634823 
2738.000000	64.617609 
2737.000000	64.598298 
2736.000000	64.580082 
2735.000000	64.566731 
2734.000000	64.561295 
2733.000000	64.566040 
2732.000000	64.581108 
2731.000000	64.604997 
2730.000000	64.634346 
2729.000000	64.664745 
2728.000000	64.691686 
2727.000000	64.711260 
2726.000000	64.721226 
2725.000000	64.721107 
2724.000000	64.712405 
2723.000000	64.697980 
2722.000000	64.681410 
2721.000000	64.666295 
2720.000000	64.655470 
2719.000000	64.650678 
2718.000000	64.652180 
2717.000000	64.659261 
2716.000000	64.670181 
2715.000000	64.682722 
2714.000000	64.694571 
2713.000000	64.703845 
2712.000000	64.709186 
2711.000000	64.710092 
2710.000000	64.706802 
2709.000000	64.700269 
2708.000000	64.691686 
2707.000000	64.682388 
2706.000000	64.673662 
2705.000000	64.666199 
2704.000000	64.660549 
2703.000000	64.656519 
2702.000000	64.653849 
2701.000000	64.651823 
2700.000000	64.649724 
2699.000000	64.646720 
2698.000000	64.642024 
2697.000000	64.634990 
2696.000000	64.625263 
2695.000000	64.612984 
2694.000000	64.598488 
2693.000000	64.582657 
2692.000000	64.566874 
2691.000000	64.552831 
2690.000000	64.542365 
2689.000000	64.537000 
2688.000000	64.537715 
2687.000000	64.544606 
2686.000000	64.557075 
2685.000000	64.573693 
2684.000000	64.592552 
2683.000000	64.611625 
2682.000000	64.629173 
2681.000000	64.643812 
2680.000000	64.654946 
2679.000000	64.662528 
2678.000000	64.667367 
2677.000000	64.670681 
2676.000000	64.673805 
2675.000000	64.678263 
2674.000000	64.684891 
2673.000000	64.694142 
2672.000000	64.705562 
2671.000000	64.718055 
2670.000000	64.729905 
2669.000000	64.739108 
2668.000000	64.743876 
2667.000000	64.743018 
2666.000000	64.736104 
2665.000000	64.723634 
2664.000000	64.707136 
2663.000000	64.688634 
2662.000000	64.670443 
2661.000000	64.654731 
2660.000000	64.643025 
2659.000000	64.636254 
2658.000000	64.634799 
2657.000000	64.638590 
2656.000000	64.647221 
2655.000000	64.660167 
2654.000000	64.676618 
2653.000000	64.695715 
2652.000000	64.716076 
2651.000000	64.736080 
2650.000000	64.753913 
2649.000000	64.767789 
2648.000000	64.776158 
2647.000000	64.777994 
2646.000000	64.773058 
2645.000000	64.761996 
2644.000000	64.746260 
2643.000000	64.727759 
2642.000000	64.708852 
2641.000000	64.691591 
2640.000000	64.677643 
2639.000000	64.667892 
2638.000000	64.662551 
2637.000000	64.660954 
2636.000000	64.661741 
2635.000000	64.663219 
2634.000000	64.663505 
2633.000000	64.660906 
2632.000000	64.654183 
2631.000000	64.642810 
2630.000000	64.627003 
2629.000000	64.607739 
2628.000000	64.586663 
2627.000000	64.565443 
2626.000000	64.545750 
2625.000000	64.528799 
2624.000000	64.515376 
2623.000000	64.505839 
2622.000000	64.500093 
2621.000000	64.497709 
2620.000000	64.498257 
2619.000000	64.501094 
2618.000000	64.505648 
2617.000000	64.511227 
2616.000000	64.517116 
2615.000000	64.522552 
2614.000000	64.526820 
2613.000000	64.529275 
2612.000000	64.529466 
2611.000000	64.527344 
2610.000000	64.523029 
2609.000000	64.517045 
2608.000000	64.510083 
2607.000000	64.502978 
2606.000000	64.496660 
2605.000000	64.492201 
2604.000000	64.490771 
2603.000000	64.493608 
2602.000000	64.501857 
2601.000000	64.516186 
2600.000000	64.536786 
2599.000000	64.562559 
2598.000000	64.591526 
2597.000000	64.620828 
2596.000000	64.647126 
2595.000000	64.667439 
2594.000000	64.679718 
2593.000000	64.683437 
2592.000000	64.679718 
2591.000000	64.670991 
2590.000000	64.660716 
2589.000000	64.652180 
2588.000000	64.647889 
2587.000000	64.648604 
2586.000000	64.653515 
2585.000000	64.660334 
2584.000000	64.666128 
2583.000000	64.668083 
2582.000000	64.664530 
2581.000000	64.655280 
2580.000000	64.641785 
2579.000000	64.626598 
2578.000000	64.612793 
2577.000000	64.603066 
2576.000000	64.599084 
2575.000000	64.601254 
2574.000000	64.608383 
2573.000000	64.618492 
2572.000000	64.629125 
2571.000000	64.638137 
2570.000000	64.644169 
2569.000000	64.646887 
2568.000000	64.647006 
2567.000000	64.645695 
2566.000000	64.644217 
2565.000000	64.643573 
2564.000000	64.644098 
2563.000000	64.645504 
2562.000000	64.646673 
2561.000000	64.646339 
2560.000000	64.643192 
2559.000000	64.636516 
2558.000000	64.626145 
2557.000000	64.612770 
2556.000000	64.597654 
2555.000000	64.582347 
2554.000000	64.568471 
2553.000000	64.557242 
2552.000000	64.549279 
2551.000000	64.544439 
2550.000000	64.542055 
2549.000000	64.541101 
2548.000000	64.540362 
2547.000000	64.538955 
2546.000000	64.536213 
2545.000000	64.531922 
2544.000000	64.526200 
2543.000000	64.519596 
2542.000000	64.512896 
2541.000000	64.507007 
2540.000000	64.502763 
2539.000000	64.501047 
2538.000000	64.502453 
2537.000000	64.507365 
2536.000000	64.515709 
2535.000000	64.526867 
2534.000000	64.539718 
2533.000000	64.552617 
2532.000000	64.563751 
2531.000000	64.571380 
2530.000000	64.574193 
2529.000000	64.571547 
2528.000000	64.563941 
2527.000000	64.552617 
2526.000000	64.539384 
2525.000000	64.526438 
2524.000000	64.515781 
2523.000000	64.508938 
2522.000000	64.506578 
2521.000000	64.508581 
2520.000000	64.514017 
2519.000000	64.521527 
2518.000000	64.529418 
2517.000000	64.536142 
2516.000000	64.540529 
2515.000000	64.541721 
2514.000000	64.539432 
2513.000000	64.533686 
2512.000000	64.524841 
2511.000000	64.513254 
2510.000000	64.499688 
2509.000000	64.484786 
2508.000000	64.469552 
2507.000000	64.455008 
2506.000000	64.442491 
2505.000000	64.433288 
2504.000000	64.428758 
2503.000000	64.430069 
2502.000000	64.437937 
2501.000000	64.452314 
2500.000000	64.472341 
2499.000000	64.496231 
2498.000000	64.521646 
2497.000000	64.545845 
2496.000000	64.566206 
2495.000000	64.580750 
2494.000000	64.588522 
2493.000000	64.589571 
2492.000000	64.584970 
2491.000000	64.576435 
2490.000000	64.566040 
2489.000000	64.555716 
2488.000000	64.546823 
2487.000000	64.539933 
2486.000000	64.535164 
2485.000000	64.531898 
2484.000000	64.529490 
2483.000000	64.527201 
2482.000000	64.524555 
2481.000000	64.521265 
2480.000000	64.517235 
2479.000000	64.512538 
2478.000000	64.507055 
2477.000000	64.500927 
2476.000000	64.494276 
2475.000000	64.487433 
2474.000000	64.480924 
2473.000000	64.475584 
2472.000000	64.472246 
2471.000000	64.471769 
2470.000000	64.474678 
2469.000000	64.481091 
2468.000000	64.490699 
2467.000000	64.502716 
2466.000000	64.516115 
2465.000000	64.529991 
2464.000000	64.543724 
2463.000000	64.556884 
2462.000000	64.569282 
2461.000000	64.580559 
2460.000000	64.590311 
2459.000000	64.597845 
2458.000000	64.602255 
2457.000000	64.602756 
2456.000000	64.598727 
2455.000000	64.590382 
2454.000000	64.578366 
2453.000000	64.563894 
2452.000000	64.548182 
2451.000000	64.532446 
2450.000000	64.517617 
2449.000000	64.504146 
2448.000000	64.492177 
2447.000000	64.481735 
2446.000000	64.473152 
2445.000000	64.467000 
2444.000000	64.464044 
2443.000000	64.464998 
2442.000000	64.470076 
2441.000000	64.478754 
2440.000000	64.489412 
2439.000000	64.499616 
2438.000000	64.506793 
2437.000000	64.508914 
2436.000000	64.504909 
2435.000000	64.495277 
2434.000000	64.481973 
2433.000000	64.468097 
2432.000000	64.456963 
2431.000000	64.451360 
2430.000000	64.453053 
2429.000000	64.462256 
2428.000000	64.477753 
2427.000000	64.497137 
2426.000000	64.517498 
2425.000000	64.535975 
2424.000000	64.550447 
2423.000000	64.559769 
2422.000000	64.563655 
2421.000000	64.562726 
2420.000000	64.558053 
2419.000000	64.550924 
2418.000000	64.542531 
2417.000000	64.533853 
2416.000000	64.525580 
2415.000000	64.518046 
2414.000000	64.511060 
2413.000000	64.504194 
2412.000000	64.496994 
2411.000000	64.489054 
2410.000000	64.480113 
2409.000000	64.470195 
2408.000000	64.459586 
2407.000000	64.448928 
2406.000000	64.438867 
2405.000000	64.430046 
2404.000000	64.422988 
2403.000000	64.418220 
2402.000000	64.416265 
2401.000000	64.417481 
2400.000000	64.422059 
2399.000000	64.430093 
2398.000000	64.441299 
2397.000000	64.454936 
2396.000000	64.469933 
2395.000000	64.484906 
2394.000000	64.498448 
2393.000000	64.509296 
2392.000000	64.516949 
2391.000000	64.521574 
2390.000000	64.524388 
2389.000000	64.527106 
2388.000000	64.531397 
2387.000000	64.538383 
2386.000000	64.548277 
2385.000000	64.560103 
2384.000000	64.571928 
2383.000000	64.581108 
2382.000000	64.585304 
2381.000000	64.582824 
2380.000000	64.573264 
2379.000000	64.557504 
2378.000000	64.537620 
2377.000000	64.516448 
2376.000000	64.496970 
2375.000000	64.481687 
2374.000000	64.472103 
2373.000000	64.468550 
2372.000000	64.470434 
2371.000000	64.476442 
2370.000000	64.484691 
2369.000000	64.493513 
2368.000000	64.501523 
2367.000000	64.508104 
2366.000000	64.512968 
2365.000000	64.516663 
2364.000000	64.520001 
2363.000000	64.524173 
2362.000000	64.530181 
2361.000000	64.538574 
2360.000000	64.549207 
2359.000000	64.561295 
2358.000000	64.573478 
2357.000000	64.583778 
2356.000000	64.590096 
2355.000000	64.590811 
2354.000000	64.585041 
2353.000000	64.572763 
2352.000000	64.554786 
2351.000000	64.532971 
2350.000000	64.509415 
2349.000000	64.486408 
2348.000000	64.465713 
2347.000000	64.448499 
2346.000000	64.434885 
2345.000000	64.424133 
2344.000000	64.415001 
2343.000000	64.405918 
2342.000000	64.395689 
2341.000000	64.383649 
2340.000000	64.369988 
2339.000000	64.355492 
2338.000000	64.341688 
2337.000000	64.330363 
2336.000000	64.323163 
2335.000000	64.321398 
2334.000000	64.325904 
2333.000000	64.336943 
2332.000000	64.354419 
2331.000000	64.377641 
2330.000000	64.405655 
2329.000000	64.437174 
2328.000000	64.470648 
2327.000000	64.504027 
2326.000000	64.535236 
2325.000000	64.561843 
2324.000000	64.581799 
2323.000000	64.593482 
2322.000000	64.596104 
2321.000000	64.589881 
2320.000000	64.576268 
2319.000000	64.557528 
2318.000000	64.536476 
2317.000000	64.515876 
2316.000000	64.498043 
2315.000000	64.484500 
2314.000000	64.475798 
2313.000000	64.471483 
2312.000000	64.470458 
2311.000000	64.471077 
2310.000000	64.471817 
2309.000000	64.471340 
2308.000000	64.468955 
2307.000000	64.464569 
2306.000000	64.458727 
2305.000000	64.452362 
2304.000000	64.446759 
2303.000000	64.443016 
2302.000000	64.441967 
2301.000000	64.443826 
2300.000000	64.448261 
2299.000000	64.454483 
2298.000000	64.461350 
2297.000000	64.467573 
2296.000000	64.471817 
2295.000000	64.473104 
2294.000000	64.470744 
2293.000000	64.464259 
2292.000000	64.453434 
2291.000000	64.438343 
2290.000000	64.419126 
2289.000000	64.396166 
2288.000000	64.370107 
2287.000000	64.341926 
2286.000000	64.313149 
2285.000000	64.285778 
2284.000000	64.262175 
2283.000000	64.244627 
2282.000000	64.235162 
2281.000000	64.235067 
2280.000000	64.244699 
2279.000000	64.263272 
2278.000000	64.288878 
2277.000000	64.319038 
2276.000000	64.350557 
2275.000000	64.380550 
2274.000000	64.406561 
2273.000000	64.427208 
2272.000000	64.442133 
2271.000000	64.451813 
2270.000000	64.457678 
2269.000000	64.461112 
2268.000000	64.463424 
2267.000000	64.464974 
2266.000000	64.465570 
2265.000000	64.464402 
2264.000000	64.460301 
2263.000000	64.452409 
2262.000000	64.440631 
2261.000000	64.425706 
2260.000000	64.409232 
2259.000000	64.393210 
2258.000000	64.379858 
2257.000000	64.370846 
2256.000000	64.366912 
2255.000000	64.367747 
2254.000000	64.372134 
2253.000000	64.378404 
2252.000000	64.384770 
2251.000000	64.389729 
2250.000000	64.392471 
2249.000000	64.392757 
2248.000000	64.390969 
2247.000000	64.387536 
2246.000000	64.382982 
2245.000000	64.377737 
2244.000000	64.372467 
2243.000000	64.367365 
2242.000000	64.362812 
2241.000000	64.359164 
2240.000000	64.356923 
2239.000000	64.356422 
2238.000000	64.357876 
2237.000000	64.361476 
2236.000000	64.367222 
2235.000000	64.374852 
2234.000000	64.384102 
2233.000000	64.394426 
2232.000000	64.405083 
2231.000000	64.415311 
2230.000000	64.424133 
2229.000000	64.430499 
2228.000000	64.433312 
2227.000000	64.431762 
2226.000000	64.425301 
2225.000000	64.413881 
2224.000000	64.397954 
2223.000000	64.378619 
2222.000000	64.357209 
2221.000000	64.335012 
2220.000000	64.313173 
2219.000000	64.292550 
2218.000000	64.273762 
2217.000000	64.257192 
2216.000000	64.243006 
2215.000000	64.231443 
2214.000000	64.222645 
2213.000000	64.216732 
2212.000000	64.213705 
2211.000000	64.213418 
2210.000000	64.215445 
2209.000000	64.219284 
2208.000000	64.224147 
2207.000000	64.229393 
2206.000000	64.234161 
2205.000000	64.237833 
2204.000000	64.240002 
2203.000000	64.240455 
2202.000000	64.239287 
2201.000000	64.236783 
2200.000000	64.233398 
2199.000000	64.229631 
2198.000000	64.225983 
2197.000000	64.222908 
2196.000000	64.220809 
2195.000000	64.219927 
2194.000000	64.220356 
2193.000000	64.222145 
2192.000000	64.225125 
2191.000000	64.228868 
2190.000000	64.232921 
2189.000000	64.236569 
2188.000000	64.239120 
2187.000000	64.239835 
2186.000000	64.238357 
2185.000000	64.234566 
2184.000000	64.228820 
2183.000000	64.222025 
2182.000000	64.215326 
2181.000000	64.210033 
2180.000000	64.207315 
2179.000000	64.207744 
2178.000000	64.211392 
2177.000000	64.217591 
2176.000000	64.225387 
2175.000000	64.233732 
2174.000000	64.241743 
2173.000000	64.249110 
2172.000000	64.255762 
2171.000000	64.261889 
2170.000000	64.267849 
2169.000000	64.273667 
2168.000000	64.279007 
2167.000000	64.283251 
2166.000000	64.285564 
2165.000000	64.285063 
2164.000000	64.281177 
2163.000000	64.273858 
2162.000000	64.263629 
2161.000000	64.251780 
2160.000000	64.240288 
2159.000000	64.231181 
2158.000000	64.226484 
2157.000000	64.227533 
2156.000000	64.234852 
2155.000000	64.247751 
2154.000000	64.264607 
2153.000000	64.282941 
2152.000000	64.300012 
2151.000000	64.313340 
2150.000000	64.321303 
2149.000000	64.323425 
2148.000000	64.320492 
2147.000000	64.314293 
2146.000000	64.307188 
2145.000000	64.301657 
2144.000000	64.299392 
2143.000000	64.301085 
2142.000000	64.306116 
2141.000000	64.312911 
2140.000000	64.319157 
2139.000000	64.322566 
2138.000000	64.321327 
2137.000000	64.314579 
2136.000000	64.302659 
2135.000000	64.286637 
2134.000000	64.268302 
2133.000000	64.249682 
2132.000000	64.232540 
2131.000000	64.218068 
2130.000000	64.206814 
2129.000000	64.198803 
2128.000000	64.193677 
2127.000000	64.191150 
2126.000000	64.191102 
2125.000000	64.193725 
2124.000000	64.199328 
2123.000000	64.208102 
2122.000000	64.219856 
2121.000000	64.233779 
2120.000000	64.248299 
2119.000000	64.261341 
2118.000000	64.270901 
2117.000000	64.275455 
2116.000000	64.274382 
2115.000000	64.268159 
2114.000000	64.258217 
2113.000000	64.246726 
2112.000000	64.235782 
2111.000000	64.227247 
2110.000000	64.222121 
2109.000000	64.220499 
2108.000000	64.221715 
2107.000000	64.224576 
2106.000000	64.227890 
2105.000000	64.230728 
2104.000000	64.232778 
2103.000000	64.234161 
2102.000000	64.235568 
2101.000000	64.237594 
2100.000000	64.240717 
2099.000000	64.244985 
2098.000000	64.249706 
2097.000000	64.253783 
2096.000000	64.255881 
2095.000000	64.254808 
2094.000000	64.249825 
2093.000000	64.240956 
2092.000000	64.228987 
2091.000000	64.215278 
2090.000000	64.201545 
2089.000000	64.189481 
2088.000000	64.180397 
2087.000000	64.175271 
2086.000000	64.174485 
2085.000000	64.177823 
2084.000000	64.184689 
2083.000000	64.194154 
2082.000000	64.205050 
2081.000000	64.216041 
2080.000000	64.225792 
2079.000000	64.233112 
2078.000000	64.236783 
2077.000000	64.236044 
2076.000000	64.230275 
2075.000000	64.219260 
2074.000000	64.203000 
2073.000000	64.182162 
2072.000000	64.157795 
2071.000000	64.131641 
2070.000000	64.105844 
2069.000000	64.082884 
2068.000000	64.065122 
2067.000000	64.054346 
2066.000000	64.051532 
2065.000000	64.056730 
2064.000000	64.069032 
2063.000000	64.086747 
2062.000000	64.107656 
2061.000000	64.129400 
2060.000000	64.149737 
2059.000000	64.166808 
2058.000000	64.179062 
2057.000000	64.185595 
2056.000000	64.186048 
2055.000000	64.180588 
2054.000000	64.169907 
2053.000000	64.155411 
2052.000000	64.138889 
2051.000000	64.122414 
2050.000000	64.108276 
2049.000000	64.098381 
2048.000000	64.094233 
2047.000000	64.096474 
2046.000000	64.104890 
2045.000000	64.118361 
2044.000000	64.135050 
2043.000000	64.152932 
2042.000000	64.169907 
2041.000000	64.184308 
2040.000000	64.194941 
2039.000000	64.201378 
2038.000000	64.203810 
2037.000000	64.202737 
2036.000000	64.198803 
2035.000000	64.192700 
2034.000000	64.184784 
2033.000000	64.175128 
2032.000000	64.163470 
2031.000000	64.149522 
2030.000000	64.133167 
2029.000000	64.114594 
2028.000000	64.094471 
2027.000000	64.073848 
2026.000000	64.054274 
2025.000000	64.037203 
2024.000000	64.023995 
2023.000000	64.015507 
2022.000000	64.012098 
2021.000000	64.013433 
2020.000000	64.018774 
2019.000000	64.027023 
2018.000000	64.037084 
2017.000000	64.048004 
2016.000000	64.059114 
2015.000000	64.069867 
2014.000000	64.079880 
2013.000000	64.088797 
2012.000000	64.096188 
2011.000000	64.101624 
2010.000000	64.104700 
2009.000000	64.105343 
2008.000000	64.103984 
2007.000000	64.101457 
2006.000000	64.098930 
2005.000000	64.097785 
2004.000000	64.099192 
2003.000000	64.104056 
2002.000000	64.112591 
2001.000000	64.124298 
2000.000000	64.138174 
1999.000000	64.152979 
1998.000000	64.167404 
1997.000000	64.180302 
1996.000000	64.191102 
1995.000000	64.199471 
1994.000000	64.205241 
1993.000000	64.208340 
1992.000000	64.208674 
1991.000000	64.206147 
1990.000000	64.200448 
1989.000000	64.191627 
1988.000000	64.180040 
1987.000000	64.166545 
1986.000000	64.152526 
1985.000000	64.139509 
1984.000000	64.129066 
1983.000000	64.122486 
1982.000000	64.120721 
1981.000000	64.123702 
1980.000000	64.130759 
1979.000000	64.140701 
1978.000000	64.152121 
1977.000000	64.163517 
1976.000000	64.173603 
1975.000000	64.181518 
1974.000000	64.186739 
1973.000000	64.189052 
1972.000000	64.188408 
1971.000000	64.184927 
1970.000000	64.178800 
1969.000000	64.170408 
1968.000000	64.160418 
1967.000000	64.149570 
1966.000000	64.139032 
1965.000000	64.129924 
1964.000000	64.123344 
1963.000000	64.120197 
1962.000000	64.120674 
1961.000000	64.124250 
1960.000000	64.129495 
1959.000000	64.134430 
1958.000000	64.136672 
1957.000000	64.133954 
1956.000000	64.124846 
1955.000000	64.108943 
1954.000000	64.087176 
1953.000000	64.061546 
1952.000000	64.034843 
1951.000000	64.009952 
1950.000000	63.989233 
1949.000000	63.974285 
1948.000000	63.965725 
1947.000000	63.963222 
1946.000000	63.965773 
1945.000000	63.972139 
1944.000000	63.981127 
1943.000000	63.991832 
1942.000000	64.003610 
1941.000000	64.016008 
1940.000000	64.028453 
1939.000000	64.040184 
1938.000000	64.050149 
1937.000000	64.057040 
1936.000000	64.059495 
1935.000000	64.056444 
1934.000000	64.047431 
1933.000000	64.032697 
1932.000000	64.013290 
1931.000000	63.990855 
1930.000000	63.967394 
1929.000000	63.945102 
1928.000000	63.925838 
1927.000000	63.911175 
1926.000000	63.901853 
1925.000000	63.897752 
1924.000000	63.898158 
1923.000000	63.901734 
1922.000000	63.907027 
1921.000000	63.912558 
1920.000000	63.917398 
1919.000000	63.921070 
1918.000000	63.923954 
1917.000000	63.926696 
1916.000000	63.930296 
1915.000000	63.935494 
1914.000000	63.942885 
1913.000000	63.952732 
1912.000000	63.964891 
1911.000000	63.978791 
1910.000000	63.993716 
1909.000000	64.008831 
1908.000000	64.023184 
1907.000000	64.036035 
1906.000000	64.046788 
1905.000000	64.054918 
1904.000000	64.060187 
1903.000000	64.062476 
1902.000000	64.061856 
1901.000000	64.058566 
1900.000000	64.053082 
1899.000000	64.046049 
1898.000000	64.038467 
1897.000000	64.031338 
1896.000000	64.025783 
1895.000000	64.022517 
1894.000000	64.021754 
1893.000000	64.022946 
1892.000000	64.024901 
1891.000000	64.025998 
1890.000000	64.024543 
1889.000000	64.019298 
1888.000000	64.009833 
1887.000000	63.996887 
1886.000000	63.982105 
1885.000000	63.967800 
1884.000000	63.956475 
1883.000000	63.950347 
1882.000000	63.950729 
1881.000000	63.957762 
1880.000000	63.970398 
1879.000000	63.986492 
1878.000000	64.003491 
1877.000000	64.018583 
1876.000000	64.029383 
1875.000000	64.034152 
1874.000000	64.032053 
1873.000000	64.023160 
1872.000000	64.008235 
1871.000000	63.988828 
1870.000000	63.966822 
1869.000000	63.944435 
1868.000000	63.923931 
1867.000000	63.907170 
1866.000000	63.895702 
1865.000000	63.890218 
1864.000000	63.891077 
1863.000000	63.897991 
1862.000000	63.910341 
1861.000000	63.927078 
1860.000000	63.947057 
1859.000000	63.968944 
1858.000000	63.991355 
1857.000000	64.012837 
1856.000000	64.031934 
1855.000000	64.047312 
1854.000000	64.057898 
1853.000000	64.063000 
1852.000000	64.062428 
1851.000000	64.056444 
1850.000000	64.045858 
1849.000000	64.031863 
1848.000000	64.015865 
1847.000000	63.999462 
1846.000000	63.984131 
1845.000000	63.971114 
1844.000000	63.961482 
1843.000000	63.955783 
1842.000000	63.954305 
1841.000000	63.956832 
1840.000000	63.962626 
1839.000000	63.970494 
1838.000000	63.978934 
1837.000000	63.986396 
1836.000000	63.991379 
1835.000000	63.992905 
1834.000000	63.990569 
1833.000000	63.984537 
1832.000000	63.975644 
1831.000000	63.964939 
1830.000000	63.953518 
1829.000000	63.942170 
1828.000000	63.931369 
1827.000000	63.920974 
1826.000000	63.910484 
1825.000000	63.899326 
1824.000000	63.887071 
1823.000000	63.873767 
1822.000000	63.859844 
1821.000000	63.846421 
1820.000000	63.835144 
1819.000000	63.827681 
1818.000000	63.825535 
1817.000000	63.829398 
1816.000000	63.839316 
1815.000000	63.854408 
1814.000000	63.873076 
1813.000000	63.893175 
1812.000000	63.912606 
1811.000000	63.929533 
1810.000000	63.942599 
1809.000000	63.951039 
1808.000000	63.954782 
1807.000000	63.954138 
1806.000000	63.949966 
1805.000000	63.943290 
1804.000000	63.935136 
1803.000000	63.926768 
1802.000000	63.919043 
1801.000000	63.912773 
1800.000000	63.908290 
1799.000000	63.905620 
1798.000000	63.904333 
1797.000000	63.903450 
1796.000000	63.901782 
1795.000000	63.898181 
1794.000000	63.891673 
1793.000000	63.881945 
1792.000000	63.869333 
1791.000000	63.854980 
1790.000000	63.840389 
1789.000000	63.827395 
1788.000000	63.817524 
1787.000000	63.811850 
1786.000000	63.810753 
1785.000000	63.813829 
1784.000000	63.820123 
1783.000000	63.828086 
1782.000000	63.836359 
1781.000000	63.843774 
1780.000000	63.849496 
1779.000000	63.853096 
1778.000000	63.854694 
1777.000000	63.854575 
1776.000000	63.853001 
1775.000000	63.850259 
1774.000000	63.846611 
1773.000000	63.842201 
1772.000000	63.837051 
1771.000000	63.831019 
1770.000000	63.824248 
1769.000000	63.816642 
1768.000000	63.808345 
1767.000000	63.799691 
1766.000000	63.791131 
1765.000000	63.783240 
1764.000000	63.776612 
1763.000000	63.771510 
1762.000000	63.768005 
1761.000000	63.765764 
1760.000000	63.764047 
1759.000000	63.761854 
1758.000000	63.758015 
1757.000000	63.751697 
1756.000000	63.742446 
1755.000000	63.730382 
1754.000000	63.716101 
1753.000000	63.700604 
1752.000000	63.685011 
1751.000000	63.670110 
1750.000000	63.656234 
1749.000000	63.643407 
1748.000000	63.631153 
1747.000000	63.618683 
1746.000000	63.605237 
1745.000000	63.590478 
1744.000000	63.574361 
1743.000000	63.557004 
1742.000000	63.538861 
1741.000000	63.520503 
1740.000000	63.502383 
1739.000000	63.484954 
1738.000000	63.468742 
1737.000000	63.454484 
1736.000000	63.443064 
1735.000000	63.435673 
1734.000000	63.433480 
1733.000000	63.437461 
1732.000000	63.447642 
1731.000000	63.463354 
1730.000000	63.482880 
1729.000000	63.503980 
1728.000000	63.524150 
1727.000000	63.541460 
1726.000000	63.554716 
1725.000000	63.564109 
1724.000000	63.570809 
1723.000000	63.576674 
1722.000000	63.583636 
1721.000000	63.593125 
1720.000000	63.605666 
1719.000000	63.620781 
1718.000000	63.637208 
1717.000000	63.653397 
1716.000000	63.668012 
1715.000000	63.680386 
1714.000000	63.690781 
1713.000000	63.700079 
1712.000000	63.709640 
1711.000000	63.720607 
1710.000000	63.733553 
1709.000000	63.748240 
1708.000000	63.763833 
1707.000000	63.779139 
1706.000000	63.792824 
1705.000000	63.804101 
1704.000000	63.812565 
1703.000000	63.818645 
1702.000000	63.822841 
1701.000000	63.825774 
1700.000000	63.827562 
1699.000000	63.827872 
1698.000000	63.825774 
1697.000000	63.820385 
1696.000000	63.810992 
1695.000000	63.797521 
1694.000000	63.780856 
1693.000000	63.762712 
1692.000000	63.745403 
1691.000000	63.731193 
1690.000000	63.721895 
1689.000000	63.718390 
1688.000000	63.720226 
1687.000000	63.725900 
1686.000000	63.733172 
1685.000000	63.739538 
1684.000000	63.742756 
1683.000000	63.741230 
1682.000000	63.734483 
1681.000000	63.722968 
1680.000000	63.707971 
1679.000000	63.691210 
1678.000000	63.674569 
1677.000000	63.659763 
1676.000000	63.647985 
1675.000000	63.639783 
1674.000000	63.635373 
1673.000000	63.634443 
1672.000000	63.636445 
1671.000000	63.640880 
1670.000000	63.647174 
1669.000000	63.655304 
1668.000000	63.665223 
1667.000000	63.677144 
1666.000000	63.691186 
1665.000000	63.707232 
1664.000000	63.724684 
1663.000000	63.742423 
1662.000000	63.758873 
1661.000000	63.772344 
1660.000000	63.781142 
1659.000000	63.784146 
1658.000000	63.781118 
1657.000000	63.772797 
1656.000000	63.760876 
1655.000000	63.747596 
1654.000000	63.735151 
1653.000000	63.725304 
1652.000000	63.718914 
1651.000000	63.715863 
1650.000000	63.715147 
1649.000000	63.715386 
1648.000000	63.715434 
1647.000000	63.714599 
1646.000000	63.713216 
1645.000000	63.712573 
1644.000000	63.714432 
1643.000000	63.720393 
1642.000000	63.731169 
1641.000000	63.746380 
1640.000000	63.764071 
1639.000000	63.781189 
1638.000000	63.793921 
1637.000000	63.798761 
1636.000000	63.793110 
1635.000000	63.776063 
1634.000000	63.748407 
1633.000000	63.712644 
1632.000000	63.672637 
1631.000000	63.632869 
1630.000000	63.597369 
1629.000000	63.569283 
1628.000000	63.550424 
1627.000000	63.541054 
1626.000000	63.540148 
1625.000000	63.545632 
1624.000000	63.554930 
1623.000000	63.565540 
1622.000000	63.575387 
1621.000000	63.583254 
1620.000000	63.588881 
1619.000000	63.592982 
1618.000000	63.596606 
1617.000000	63.601136 
1616.000000	63.607668 
1615.000000	63.616752 
1614.000000	63.628172 
1613.000000	63.641047 
1612.000000	63.654232 
1611.000000	63.666391 
1610.000000	63.676428 
1609.000000	63.683414 
1608.000000	63.686871 
1607.000000	63.686585 
1606.000000	63.682699 
1605.000000	63.675379 
1604.000000	63.664937 
1603.000000	63.652038 
1602.000000	63.637781 
1601.000000	63.623476 
1600.000000	63.610577 
1599.000000	63.600778 
1598.000000	63.595557 
1597.000000	63.595581 
1596.000000	63.600659 
1595.000000	63.609361 
1594.000000	63.619589 
1593.000000	63.628911 
1592.000000	63.634920 
1591.000000	63.635802 
1590.000000	63.630557 
1589.000000	63.619065 
1588.000000	63.602232 
1587.000000	63.581132 
1586.000000	63.557529 
1585.000000	63.533329 
1584.000000	63.510727 
1583.000000	63.491749 
1582.000000	63.478136 
1581.000000	63.471341 
1580.000000	63.472270 
1579.000000	63.480997 
1578.000000	63.497161 
1577.000000	63.519954 
1576.000000	63.548159 
1575.000000	63.580179 
1574.000000	63.613963 
1573.000000	63.647150 
1572.000000	63.677072 
1571.000000	63.701200 
1570.000000	63.717317 
1569.000000	63.723993 
1568.000000	63.721013 
1567.000000	63.709139 
1566.000000	63.690447 
1565.000000	63.667488 
1564.000000	63.643217 
1563.000000	63.619971 
1562.000000	63.599586 
1561.000000	63.582611 
1560.000000	63.568568 
1559.000000	63.556408 
1558.000000	63.544821 
1557.000000	63.532924 
1556.000000	63.520479 
1555.000000	63.508033 
1554.000000	63.496851 
1553.000000	63.488698 
1552.000000	63.485145 
1551.000000	63.487601 
1550.000000	63.496661 
1549.000000	63.512086 
1548.000000	63.532662 
1547.000000	63.556361 
1546.000000	63.580465 
1545.000000	63.602066 
1544.000000	63.618135 
1543.000000	63.626384 
1542.000000	63.625311 
1541.000000	63.614559 
1540.000000	63.595056 
1539.000000	63.568997 
1538.000000	63.539242 
1537.000000	63.509130 
1536.000000	63.481569 
1535.000000	63.458800 
1534.000000	63.441848 
1533.000000	63.430690 
1532.000000	63.424563 
1531.000000	63.421964 
1530.000000	63.421583 
1529.000000	63.422560 
1528.000000	63.424587 
1527.000000	63.427782 
1526.000000	63.432478 
1525.000000	63.439083 
1524.000000	63.447713 
1523.000000	63.458156 
1522.000000	63.469958 
1521.000000	63.482451 
1520.000000	63.494944 
1519.000000	63.506841 
1518.000000	63.517856 
1517.000000	63.527560 
1516.000000	63.535785 
1515.000000	63.542008 
1514.000000	63.545656 
1513.000000	63.545870 
1512.000000	63.542008 
1511.000000	63.533568 
1510.000000	63.520836 
1509.000000	63.504528 
1508.000000	63.485980 
1507.000000	63.467025 
1506.000000	63.449668 
1505.000000	63.435864 
1504.000000	63.427233 
1503.000000	63.424777 
1502.000000	63.428759 
1501.000000	63.438677 
1500.000000	63.453173 
1499.000000	63.470244 
1498.000000	63.487601 
1497.000000	63.503146 
1496.000000	63.515400 
1495.000000	63.523435 
1494.000000	63.527202 
1493.000000	63.527297 
1492.000000	63.524699 
1491.000000	63.520336 
1490.000000	63.514828 
1489.000000	63.508629 
1488.000000	63.501977 
1487.000000	63.494968 
1486.000000	63.487792 
1485.000000	63.481068 
1484.000000	63.475632 
1483.000000	63.472676 
1482.000000	63.473200 
1481.000000	63.477826 
1480.000000	63.486528 
1479.000000	63.498401 
1478.000000	63.511919 
1477.000000	63.524961 
1476.000000	63.535356 
1475.000000	63.541388 
1474.000000	63.542079 
1473.000000	63.537216 
1472.000000	63.527536 
1471.000000	63.514351 
1470.000000	63.499379 
1469.000000	63.484191 
1468.000000	63.470149 
1467.000000	63.457679 
1466.000000	63.446593 
1465.000000	63.435792 
1464.000000	63.423800 
1463.000000	63.408923 
1462.000000	63.389730 
1461.000000	63.365340 
1460.000000	63.335704 
1459.000000	63.301825 
1458.000000	63.265562 
1457.000000	63.229465 
1456.000000	63.196301 
1455.000000	63.168811 
1454.000000	63.149023 
1453.000000	63.138294 
1452.000000	63.136863 
1451.000000	63.143992 
1450.000000	63.158202 
1449.000000	63.177371 
1448.000000	63.199019 
1447.000000	63.220643 
1446.000000	63.239812 
1445.000000	63.254499 
1444.000000	63.263320 
1443.000000	63.265967 
1442.000000	63.263106 
1441.000000	63.256597 
1440.000000	63.248896 
1439.000000	63.242673 
1438.000000	63.240003 
1437.000000	63.242220 
1436.000000	63.249397 
1435.000000	63.260197 
1434.000000	63.272285 
1433.000000	63.283205 
1432.000000	63.290786 
1431.000000	63.293766 
1430.000000	63.292145 
1429.000000	63.287019 
1428.000000	63.280630 
1427.000000	63.275241 
1426.000000	63.272929 
1425.000000	63.274955 
1424.000000	63.281512 
1423.000000	63.291668 
1422.000000	63.303685 
1421.000000	63.315725 
1420.000000	63.325953 
1419.000000	63.333058 
1418.000000	63.336229 
1417.000000	63.335275 
1416.000000	63.330459 
1415.000000	63.322544 
1414.000000	63.312482 
1413.000000	63.301515 
1412.000000	63.290977 
1411.000000	63.282418 
1410.000000	63.277268 
1409.000000	63.276505 
1408.000000	63.280773 
1407.000000	63.289570 
1406.000000	63.301658 
1405.000000	63.314747 
1404.000000	63.326048 
1403.000000	63.332867 
1402.000000	63.333058 
1401.000000	63.325715 
1400.000000	63.311362 
1399.000000	63.292098 
1398.000000	63.271021 
1397.000000	63.251590 
1396.000000	63.236951 
1395.000000	63.229203 
1394.000000	63.229084 
1393.000000	63.235759 
1392.000000	63.247346 
1391.000000	63.261437 
1390.000000	63.275623 
1389.000000	63.288044 
1388.000000	63.297486 
1387.000000	63.303542 
1386.000000	63.306331 
1385.000000	63.306212 
1384.000000	63.303446 
1383.000000	63.298296 
1382.000000	63.290810 
1381.000000	63.281178 
1380.000000	63.269567 
1379.000000	63.256669 
1378.000000	63.243460 
1377.000000	63.231205 
1376.000000	63.221001 
1375.000000	63.213562 
1374.000000	63.208889 
1373.000000	63.206338 
1372.000000	63.204646 
1371.000000	63.202047 
1370.000000	63.196992 
1369.000000	63.188695 
1368.000000	63.177347 
1367.000000	63.164114 
1366.000000	63.151264 
1365.000000	63.141250 
1364.000000	63.136529 
1363.000000	63.138866 
1362.000000	63.148736 
1361.000000	63.165235 
1360.000000	63.186192 
1359.000000	63.208651 
1358.000000	63.229584 
1357.000000	63.246583 
1356.000000	63.258171 
1355.000000	63.264060 
1354.000000	63.265085 
1353.000000	63.262462 
1352.000000	63.257884 
1351.000000	63.252329 
1350.000000	63.246321 
1349.000000	63.239121 
1348.000000	63.229870 
1347.000000	63.217163 
1346.000000	63.199996 
1345.000000	63.177895 
1344.000000	63.151311 
1343.000000	63.121747 
1342.000000	63.091588 
1341.000000	63.063812 
1340.000000	63.041448 
1339.000000	63.027167 
1338.000000	63.023066 
1337.000000	63.030099 
1336.000000	63.047933 
1335.000000	63.074874 
1334.000000	63.108015 
1333.000000	63.143563 
1332.000000	63.177585 
1331.000000	63.206338 
1330.000000	63.227224 
1329.000000	63.239073 
1328.000000	63.242316 
1327.000000	63.239073 
1326.000000	63.232398 
1325.000000	63.225698 
1324.000000	63.221836 
1323.000000	63.222789 
1322.000000	63.228845 
1321.000000	63.238978 
1320.000000	63.250970 
1319.000000	63.262009 
1318.000000	63.269448 
1317.000000	63.271546 
1316.000000	63.267850 
1315.000000	63.259124 
1314.000000	63.247323 
1313.000000	63.234996 
1312.000000	63.224601 
1311.000000	63.217687 
1310.000000	63.215065 
1309.000000	63.216352 
1308.000000	63.220357 
1307.000000	63.225603 
1306.000000	63.230609 
1305.000000	63.234472 
1304.000000	63.236808 
1303.000000	63.237857 
1302.000000	63.237881 
1301.000000	63.237357 
1300.000000	63.236498 
1299.000000	63.235163 
1298.000000	63.233065 
1297.000000	63.229513 
1296.000000	63.224005 
1295.000000	63.216257 
1294.000000	63.206315 
1293.000000	63.194656 
1292.000000	63.181948 
1291.000000	63.169240 
1290.000000	63.157534 
1289.000000	63.147830 
1288.000000	63.140988 
1287.000000	63.137578 
1286.000000	63.137841 
1285.000000	63.141608 
1284.000000	63.148236 
1283.000000	63.156723 
1282.000000	63.165688 
1281.000000	63.173627 
1280.000000	63.179349 
1279.000000	63.181996 
1278.000000	63.181281 
1277.000000	63.177490 
1276.000000	63.171291 
1275.000000	63.163757 
1274.000000	63.155722 
1273.000000	63.147854 
1272.000000	63.140249 
1271.000000	63.132643 
1270.000000	63.124299 
1269.000000	63.114452 
1268.000000	63.102316 
1267.000000	63.087463 
1266.000000	63.070058 
1265.000000	63.050842 
1264.000000	63.031077 
1263.000000	63.012361 
1262.000000	62.996077 
1261.000000	62.983179 
1260.000000	62.973999 
1259.000000	62.968301 
1258.000000	62.965202 
1257.000000	62.963557 
1256.000000	62.962269 
1255.000000	62.960529 
1254.000000	62.957835 
1253.000000	62.954235 
1252.000000	62.949967 
1251.000000	62.945652 
1250.000000	62.942123 
1249.000000	62.940239 
1248.000000	62.940812 
1247.000000	62.944221 
1246.000000	62.950420 
1245.000000	62.958955 
1244.000000	62.968707 
1243.000000	62.978315 
1242.000000	62.986063 
1241.000000	62.990689 
1240.000000	62.991261 
1239.000000	62.987804 
1238.000000	62.981081 
1237.000000	62.972712 
1236.000000	62.964773 
1235.000000	62.959408 
1234.000000	62.958359 
1233.000000	62.962722 
1232.000000	62.972736 
1231.000000	62.987685 
1230.000000	63.006043 
1229.000000	63.025927 
1228.000000	63.045334 
1227.000000	63.062286 
1226.000000	63.075113 
1225.000000	63.082599 
1224.000000	63.084053 
1223.000000	63.079285 
1222.000000	63.068723 
1221.000000	63.053417 
1220.000000	63.034820 
1219.000000	63.015007 
1218.000000	62.996101 
1217.000000	62.980127 
1216.000000	62.968373 
1215.000000	62.961173 
1214.000000	62.957882 
1213.000000	62.956809 
1212.000000	62.955927 
1211.000000	62.953400 
1210.000000	62.948369 
1209.000000	62.941074 
1208.000000	62.932825 
1207.000000	62.925839 
1206.000000	62.922358 
1205.000000	62.924075 
1204.000000	62.931418 
1203.000000	62.943506 
1202.000000	62.958264 
1201.000000	62.972998 
1200.000000	62.985110 
1199.000000	62.992787 
1198.000000	62.995433 
1197.000000	62.993669 
1196.000000	62.989068 
1195.000000	62.983584 
1194.000000	62.978887 
1193.000000	62.976002 
1192.000000	62.975001 
1191.000000	62.975072 
1190.000000	62.975072 
1189.000000	62.973904 
1188.000000	62.970876 
1187.000000	62.965917 
1186.000000	62.959718 
1185.000000	62.953448 
1184.000000	62.948369 
1183.000000	62.945604 
1182.000000	62.945556 
1181.000000	62.948083 
1180.000000	62.952470 
1179.000000	62.957620 
1178.000000	62.962245 
1177.000000	62.965321 
1176.000000	62.966132 
1175.000000	62.964558 
1174.000000	62.960958 
1173.000000	62.956142 
1172.000000	62.951231 
1171.000000	62.947297 
1170.000000	62.945342 
1169.000000	62.945914 
1168.000000	62.949109 
1167.000000	62.954401 
1166.000000	62.960791 
1165.000000	62.967133 
1164.000000	62.972307 
1163.000000	62.975430 
1162.000000	62.976050 
1161.000000	62.973952 
1160.000000	62.969303 
1159.000000	62.962174 
1158.000000	62.952947 
1157.000000	62.941789 
1156.000000	62.929058 
1155.000000	62.915182 
1154.000000	62.900948 
1153.000000	62.887501 
1152.000000	62.876200 
1151.000000	62.868428 
1150.000000	62.865495 
1149.000000	62.868165 
1148.000000	62.876510 
1147.000000	62.889599 
1146.000000	62.905907 
1145.000000	62.923502 
1144.000000	62.940430 
1143.000000	62.954926 
1142.000000	62.965917 
1141.000000	62.972855 
1140.000000	62.975883 
1139.000000	62.975502 
1138.000000	62.972354 
1137.000000	62.966942 
1136.000000	62.959790 
1135.000000	62.951159 
1134.000000	62.941384 
1133.000000	62.930655 
1132.000000	62.919831 
1131.000000	62.909841 
1130.000000	62.901949 
1129.000000	62.897324 
1128.000000	62.896680 
1127.000000	62.899851 
1126.000000	62.905597 
1125.000000	62.911605 
1124.000000	62.915086 
1123.000000	62.913441 
1122.000000	62.904882 
1121.000000	62.889146 
1120.000000	62.867593 
1119.000000	62.842965 
1118.000000	62.818694 
1117.000000	62.798118 
1116.000000	62.783432 
1115.000000	62.775301 
1114.000000	62.772774 
1113.000000	62.773609 
1112.000000	62.775182 
1111.000000	62.775230 
1110.000000	62.772846 
1109.000000	62.768483 
1108.000000	62.763953 
1107.000000	62.761688 
1106.000000	62.764167 
1105.000000	62.772846 
1104.000000	62.787961 
1103.000000	62.808394 
1102.000000	62.832045 
1101.000000	62.856292 
1100.000000	62.878632 
1099.000000	62.897038 
1098.000000	62.910223 
1097.000000	62.917733 
1096.000000	62.919807 
1095.000000	62.917041 
1094.000000	62.910413 
1093.000000	62.900972 
1092.000000	62.889957 
1091.000000	62.878489 
1090.000000	62.867760 
1089.000000	62.858676 
1088.000000	62.851762 
1087.000000	62.846922 
1086.000000	62.843418 
1085.000000	62.839913 
1084.000000	62.834548 
1083.000000	62.825584 
1082.000000	62.811613 
1081.000000	62.792181 
1080.000000	62.767934 
1079.000000	62.740683 
1078.000000	62.712979 
1077.000000	62.687611 
1076.000000	62.667250 
1075.000000	62.653827 
1074.000000	62.648200 
1073.000000	62.650299 
1072.000000	62.659072 
1071.000000	62.672901 
1070.000000	62.689876 
1069.000000	62.708163 
1068.000000	62.726211 
1067.000000	62.742638 
1066.000000	62.756276 
1065.000000	62.766122 
1064.000000	62.771463 
1063.000000	62.771987 
1062.000000	62.767791 
1061.000000	62.759661 
1060.000000	62.749099 
1059.000000	62.738037 
1058.000000	62.728452 
1057.000000	62.721872 
1056.000000	62.719130 
1055.000000	62.720108 
1054.000000	62.723779 
1053.000000	62.728714 
1052.000000	62.733626 
1051.000000	62.737703 
1050.000000	62.740945 
1049.000000	62.743997 
1048.000000	62.747931 
1047.000000	62.753772 
1046.000000	62.761998 
1045.000000	62.772345 
1044.000000	62.783837 
1043.000000	62.795066 
1042.000000	62.804579 
1041.000000	62.811470 
1040.000000	62.815427 
1039.000000	62.817001 
1038.000000	62.817096 
1037.000000	62.816739 
1036.000000	62.816500 
1035.000000	62.816309 
1034.000000	62.815546 
1033.000000	62.813377 
1032.000000	62.809109 
1031.000000	62.802505 
1030.000000	62.793898 
1029.000000	62.784337 
1028.000000	62.775158 
1027.000000	62.767839 
1026.000000	62.763476 
1025.000000	62.762665 
1024.000000	62.765121 
1023.000000	62.769961 
1022.000000	62.775802 
1021.000000	62.781190 
1020.000000	62.784862 
1019.000000	62.786102 
1018.000000	62.784957 
1017.000000	62.781929 
1016.000000	62.778067 
1015.000000	62.774538 
1014.000000	62.772226 
1013.000000	62.771654 
1012.000000	62.772750 
1011.000000	62.774991 
1010.000000	62.777447 
1009.000000	62.779235 
1008.000000	62.779855 
1007.000000	62.779331 
1006.000000	62.778425 
1005.000000	62.778425 
1004.000000	62.780690 
1003.000000	62.786579 
1002.000000	62.796711 
1001.000000	62.810635 
1000.000000	62.826824 
999.000000	 62.842893 
998.000000	 62.856030 
997.000000	 62.863683 
996.000000	 62.863993 
995.000000	 62.856507 
994.000000	 62.842273 
993.000000	 62.823748 
992.000000	 62.804412 
991.000000	 62.787961 
990.000000	 62.777495 
989.000000	 62.774991 
988.000000	 62.780785 
987.000000	 62.793755 
986.000000	 62.811279 
985.000000	 62.830042 
984.000000	 62.846755 
983.000000	 62.858963 
982.000000	 62.865352 
981.000000	 62.865662 
980.000000	 62.860751 
979.000000	 62.852001 
978.000000	 62.840867 
977.000000	 62.828373 
976.000000	 62.814998 
975.000000	 62.800669 
974.000000	 62.785172 
973.000000	 62.768411 
972.000000	 62.750601 
971.000000	 62.732481 
970.000000	 62.715458 
969.000000	 62.701106 
968.000000	 62.690925 
967.000000	 62.685751 
966.000000	 62.685656 
965.000000	 62.689709 
964.000000	 62.695980 
963.000000	 62.702012 
962.000000	 62.705302 
961.000000	 62.703633 
960.000000	 62.695550 
959.000000	 62.680578 
958.000000	 62.659406 
957.000000	 62.633514 
956.000000	 62.605094 
955.000000	 62.576460 
954.000000	 62.550020 
953.000000	 62.528061 
952.000000	 62.512683 
951.000000	 62.505292 
950.000000	 62.507152 
949.000000	 62.518835 
948.000000	 62.540817 
947.000000	 62.572431 
946.000000	 62.612605 
945.000000	 62.659215 
944.000000	 62.709641 
943.000000	 62.760734 
942.000000	 62.809205 
941.000000	 62.851786 
940.000000	 62.885951 
939.000000	 62.910103 
938.000000	 62.923812 
937.000000	 62.927651 
936.000000	 62.923192 
935.000000	 62.912797 
934.000000	 62.899088 
933.000000	 62.884759 
932.000000	 62.872076 
931.000000	 62.862634 
930.000000	 62.857055 
929.000000	 62.854957 
928.000000	 62.855052 
927.000000	 62.855195 
926.000000	 62.852787 
925.000000	 62.845182 
924.000000	 62.830066 
923.000000	 62.806200 
922.000000	 62.773418 
921.000000	 62.733125 
920.000000	 62.688016 
919.000000	 62.642073 
918.000000	 62.599515 
917.000000	 62.564659 
916.000000	 62.540841 
915.000000	 62.530112 
914.000000	 62.532997 
913.000000	 62.548136 
912.000000	 62.572407 
911.000000	 62.601590 
910.000000	 62.631034 
909.000000	 62.656497 
908.000000	 62.674331 
907.000000	 62.682437 
906.000000	 62.680244 
905.000000	 62.668824 
904.000000	 62.650513 
903.000000	 62.628245 
902.000000	 62.604856 
901.000000	 62.582683 
900.000000	 62.563085 
899.000000	 62.546515 
898.000000	 62.532734 
897.000000	 62.521481 
896.000000	 62.512850 
895.000000	 62.507534 
894.000000	 62.506985 
893.000000	 62.513065 
892.000000	 62.527203 
891.000000	 62.549805 
890.000000	 62.579321 
889.000000	 62.612533 
888.000000	 62.644839 
887.000000	 62.670755 
886.000000	 62.685608 
885.000000	 62.686824 
884.000000	 62.674856 
883.000000	 62.653183 
882.000000	 62.627840 
881.000000	 62.605881 
880.000000	 62.593412 
879.000000	 62.594032 
878.000000	 62.607288 
877.000000	 62.629079 
876.000000	 62.652492 
875.000000	 62.670183 
874.000000	 62.676072 
873.000000	 62.667393 
872.000000	 62.645339 
871.000000	 62.615203 
870.000000	 62.584447 
869.000000	 62.561202 
868.000000	 62.551903 
867.000000	 62.560081 
866.000000	 62.585306 
865.000000	 62.623882 
864.000000	 62.669730 
863.000000	 62.716341 
862.000000	 62.758326 
861.000000	 62.792539 
860.000000	 62.818598 
859.000000	 62.838411 
858.000000	 62.854981 
857.000000	 62.871050 
856.000000	 62.887930 
855.000000	 62.904834 
854.000000	 62.919116 
853.000000	 62.926936 
852.000000	 62.924456 
851.000000	 62.908935 
850.000000	 62.879848 
849.000000	 62.838888 
848.000000	 62.789583 
847.000000	 62.736606 
846.000000	 62.684941 
845.000000	 62.638759 
844.000000	 62.600827 
843.000000	 62.572383 
842.000000	 62.553262 
841.000000	 62.542438 
840.000000	 62.538242 
839.000000	 62.538886 
838.000000	 62.542748 
837.000000	 62.548112 
836.000000	 62.553620 
835.000000	 62.557482 
834.000000	 62.558865 
833.000000	 62.557649 
832.000000	 62.554836 
831.000000	 62.551975 
830.000000	 62.551140 
829.000000	 62.554526 
828.000000	 62.563705 
827.000000	 62.578964 
826.000000	 62.599349 
825.000000	 62.622642 
824.000000	 62.646174 
823.000000	 62.667298 
822.000000	 62.684082 
821.000000	 62.695741 
820.000000	 62.702870 
819.000000	 62.707138 
818.000000	 62.710547 
817.000000	 62.714934 
816.000000	 62.721705 
815.000000	 62.731242 
814.000000	 62.743282 
813.000000	 62.756347 
812.000000	 62.768864 
811.000000	 62.778115 
810.000000	 62.781357 
809.000000	 62.775349 
808.000000	 62.757015 
807.000000	 62.724375 
806.000000	 62.677145 
805.000000	 62.617516 
804.000000	 62.550020 
803.000000	 62.481021 
802.000000	 62.417745 
801.000000	 62.366843 
800.000000	 62.333083 
799.000000	 62.318563 
798.000000	 62.322545 
797.000000	 62.341952 
796.000000	 62.372112 
795.000000	 62.408161 
794.000000	 62.446022 
793.000000	 62.482929 
792.000000	 62.517213 
791.000000	 62.548112 
790.000000	 62.574863 
789.000000	 62.596082 
788.000000	 62.609529 
787.000000	 62.612509 
786.000000	 62.602424 
785.000000	 62.578177 
784.000000	 62.540411 
783.000000	 62.491822 
782.000000	 62.437033 
781.000000	 62.381887 
780.000000	 62.332701 
779.000000	 62.294840 
778.000000	 62.272286 
777.000000	 62.266683 
776.000000	 62.277388 
775.000000	 62.301588 
774.000000	 62.335109 
773.000000	 62.373161 
772.000000	 62.411403 
771.000000	 62.446212 
770.000000	 62.475538 
769.000000	 62.498569 
768.000000	 62.515568 
767.000000	 62.527418 
766.000000	 62.535047 
765.000000	 62.539052 
764.000000	 62.539935 
763.000000	 62.537956 
762.000000	 62.533354 
761.000000	 62.526750 
760.000000	 62.519407 
759.000000	 62.513208 
758.000000	 62.510323 
757.000000	 62.512469 
756.000000	 62.520813 
755.000000	 62.535095 
754.000000	 62.553787 
753.000000	 62.574052 
752.000000	 62.592554 
751.000000	 62.606096 
750.000000	 62.612557 
749.000000	 62.611150 
748.000000	 62.602663 
747.000000	 62.589073 
746.000000	 62.573075 
745.000000	 62.557387 
744.000000	 62.543964 
743.000000	 62.533521 
742.000000	 62.525534 
741.000000	 62.518358 
740.000000	 62.509989 
739.000000	 62.498521 
738.000000	 62.482786 
737.000000	 62.463140 
736.000000	 62.441253 
735.000000	 62.419533 
734.000000	 62.400507 
733.000000	 62.386035 
732.000000	 62.376809 
731.000000	 62.371802 
730.000000	 62.368702 
729.000000	 62.364721 
728.000000	 62.357115 
727.000000	 62.344360 
726.000000	 62.326383 
725.000000	 62.304687 
724.000000	 62.281823 
723.000000	 62.260770 
722.000000	 62.243795 
721.000000	 62.231802 
720.000000	 62.224268 
719.000000	 62.219405 
718.000000	 62.215185 
717.000000	 62.210011 
716.000000	 62.203407 
715.000000	 62.196159 
714.000000	 62.189698 
713.000000	 62.185454 
712.000000	 62.183856 
711.000000	 62.184000 
710.000000	 62.183642 
709.000000	 62.179732 
708.000000	 62.169432 
707.000000	 62.151026 
706.000000	 62.124490 
705.000000	 62.091827 
704.000000	 62.056541 
703.000000	 62.023282 
702.000000	 61.996340 
701.000000	 61.979246 
700.000000	 61.973857 
699.000000	 61.980438 
698.000000	 61.997461 
697.000000	 62.022304 
696.000000	 62.051725 
695.000000	 62.082791 
694.000000	 62.113189 
693.000000	 62.141275 
692.000000	 62.165808 
691.000000	 62.185955 
690.000000	 62.200641 
689.000000	 62.208747 
688.000000	 62.209200 
687.000000	 62.201571 
686.000000	 62.186360 
685.000000	 62.165379 
684.000000	 62.141466 
683.000000	 62.117695 
682.000000	 62.097048 
681.000000	 62.081599 
680.000000	 62.072587 
679.000000	 62.070059 
678.000000	 62.073206 
677.000000	 62.081098 
676.000000	 62.092638 
675.000000	 62.106680 
674.000000	 62.121987 
673.000000	 62.137031 
672.000000	 62.150120 
671.000000	 62.159514 
670.000000	 62.163591 
669.000000	 62.161207 
668.000000	 62.151741 
667.000000	 62.135434 
666.000000	 62.113165 
665.000000	 62.086582 
664.000000	 62.057352 
663.000000	 62.027144 
662.000000	 61.997342 
661.000000	 61.969184 
660.000000	 61.943840 
659.000000	 61.922860 
658.000000	 61.908149 
657.000000	 61.902070 
656.000000	 61.907267 
655.000000	 61.925888 
654.000000	 61.958956 
653.000000	 62.005782 
652.000000	 62.063694 
651.000000	 62.127804 
650.000000	 62.192082 
649.000000	 62.249279 
648.000000	 62.292242 
647.000000	 62.314796 
646.000000	 62.312960 
645.000000	 62.285780 
644.000000	 62.235760 
643.000000	 62.168931 
642.000000	 62.093853 
641.000000	 62.020659 
640.000000	 61.959505 
639.000000	 61.918973 
638.000000	 61.904597 
637.000000	 61.918592 
636.000000	 61.959648 
635.000000	 62.022900 
634.000000	 62.100720 
633.000000	 62.183451 
632.000000	 62.261009 
631.000000	 62.324213 
630.000000	 62.366652 
629.000000	 62.385010 
628.000000	 62.380075 
627.000000	 62.356662 
626.000000	 62.322425 
625.000000	 62.286710 
624.000000	 62.257671 
623.000000	 62.241697 
622.000000	 62.240958 
621.000000	 62.253403 
620.000000	 62.273192 
619.000000	 62.292623 
618.000000	 62.304043 
617.000000	 62.303280 
616.000000	 62.289047 
615.000000	 62.263703 
614.000000	 62.230658 
613.000000	 62.193179 
612.000000	 62.152242 
611.000000	 62.105536 
610.000000	 62.050008 
609.000000	 61.983323 
608.000000	 61.906814 
607.000000	 61.826586 
606.000000	 61.753034 
605.000000	 61.698865 
604.000000	 61.675691 
603.000000	 61.691069 
602.000000	 61.746215 
601.000000	 61.835598 
600.000000	 61.947321 
599.000000	 62.066316 
598.000000	 62.177443 
597.000000	 62.268376 
596.000000	 62.332415 
595.000000	 62.368130 
594.000000	 62.378931 
593.000000	 62.369871 
592.000000	 62.346363 
591.000000	 62.310695 
590.000000	 62.262868 
589.000000	 62.199139 
588.000000	 62.115526 
587.000000	 62.008523 
586.000000	 61.878371 
585.000000	 61.729359 
584.000000	 61.570334 
583.000000	 61.414003 
582.000000	 61.274671 
581.000000	 61.165547 
580.000000	 61.095905 
579.000000	 61.068749 
578.000000	 61.080694 
577.000000	 61.122250 
576.000000	 61.181163 
575.000000	 61.244988 
574.000000	 61.304545 
573.000000	 61.355590 
572.000000	 61.398983 
571.000000	 61.438441 
570.000000	 61.478328 
569.000000	 61.521196 
568.000000	 61.565709 
567.000000	 61.606717 
566.000000	 61.635446 
565.000000	 61.643743 
564.000000	 61.623764 
563.000000	 61.571407 
562.000000	 61.486530 
561.000000	 61.374306 
560.000000	 61.243391 
559.000000	 61.104369 
558.000000	 60.968041 
557.000000	 60.843729 
556.000000	 60.738110 
555.000000	 60.654902 
554.000000	 60.595488 
553.000000	 60.560035 
552.000000	 60.547685 
551.000000	 60.557460 
550.000000	 60.588097 
549.000000	 60.638570 
548.000000	 60.706996 
547.000000	 60.790991 
546.000000	 60.885977 
545.000000	 60.986995 
544.000000	 61.088180 
543.000000	 61.185669 
542.000000	 61.277103 
541.000000	 61.363720 
540.000000	 61.450052 
539.000000	 61.542296 
538.000000	 61.647415 
537.000000	 61.768126 
536.000000	 61.902260 
535.000000	 62.039661 
534.000000	 62.164545 
533.000000	 62.258338 
532.000000	 62.305355 
531.000000	 62.296652 
530.000000	 62.233352 
529.000000	 62.128281 
528.000000	 62.003755 
527.000000	 61.886525 
526.000000	 61.801147 
525.000000	 61.762356 
524.000000	 61.771202 
523.000000	 61.815428 
522.000000	 61.873221 
521.000000	 61.918234 
520.000000	 61.928224 
519.000000	 61.891794 
518.000000	 61.812472 
517.000000	 61.706590 
516.000000	 61.600279 
515.000000	 61.520361 
514.000000	 61.488556 
513.000000	 61.516785 
512.000000	 61.601948 
511.000000	 61.729502 
510.000000	 61.872148 
509.000000	 61.998963 
508.000000	 62.077665 
507.000000	 62.083077 
506.000000	 62.000012 
505.000000	 61.826419 
504.000000	 61.573195 
503.000000	 61.261248 
502.000000	 60.920238 
501.000000	 60.583782 
500.000000	 60.286021 
499.000000	 60.057210 
498.000000	 59.923529 
497.000000	 59.903645 
496.000000	 60.006952 
495.000000	 60.230731 
494.000000	 60.557794 
493.000000	 60.957431 
492.000000	 61.387109 
491.000000	 61.799621 
490.000000	 62.148594 
489.000000	 62.398195 
488.000000	 62.527799 
487.000000	 62.536811 
486.000000	 62.443423 
485.000000	 62.280058 
484.000000	 62.087750 
483.000000	 61.905598 
482.000000	 61.766362 
481.000000	 61.686873 
480.000000	 61.670279 
479.000000	 61.703062 
478.000000	 61.763668 
477.000000	 61.823844 
476.000000	 61.856842 
475.000000	 61.841964 
474.000000	 61.769223 
473.000000	 61.640310 
472.000000	 61.467909 
471.000000	 61.273622 
470.000000	 61.083197 
469.000000	 60.924863 
468.000000	 60.823082 
467.000000	 60.792899 
466.000000	 60.837030 
465.000000	 60.947394 
464.000000	 61.105632 
463.000000	 61.286282 
462.000000	 61.461806 
461.000000	 61.606907 
460.000000	 61.702919 
459.000000	 61.741733 
458.000000	 61.722970 
457.000000	 61.652565 
456.000000	 61.538124 
455.000000	 61.387991 
454.000000	 61.206722 
453.000000	 60.997080 
452.000000	 60.759091 
451.000000	 60.493826 
450.000000	 60.206532 
449.000000	 59.909915 
448.000000	 59.622764 
447.000000	 59.368252 
446.000000	 59.169960 
445.000000	 59.047675 
444.000000	 59.018611 
443.000000	 59.095168 
442.000000	 59.281063 
441.000000	 59.571266 
440.000000	 59.953546 
439.000000	 60.408401 
438.000000	 60.909342 
437.000000	 61.424064 
436.000000	 61.916708 
435.000000	 62.350106 
434.000000	 62.691974 
433.000000	 62.915968 
432.000000	 63.005971 
431.000000	 62.958574 
430.000000	 62.784433 
429.000000	 62.509560 
428.000000	 62.175321 
427.000000	 61.831474 
426.000000	 61.532306 
425.000000	 61.323261 
424.000000	 61.235857 
423.000000	 61.277079 
422.000000	 61.432027 
421.000000	 61.657881 
420.000000	 61.894369 
419.000000	 62.069845 
418.000000	 62.117195 
417.000000	 61.987137 
416.000000	 61.660814 
415.000000	 61.153507 
414.000000	 60.515236 
413.000000	 59.818696 
412.000000	 59.148859 
411.000000	 58.590149 
410.000000	 58.209824 
409.000000	 58.051061 
408.000000	 58.119630 
407.000000	 58.386158 
406.000000	 58.787369 
405.000000	 59.239125 
404.000000	 59.653210 
403.000000	 59.945464 
402.000000	 60.064268 
401.000000	 59.990787 
400.000000	 59.754729 
399.000000	 59.426283 
398.000000	 59.094977 
397.000000	 58.847594 
396.000000	 58.739018 
395.000000	 58.782601 
394.000000	 58.932757 
393.000000	 59.098076 
392.000000	 59.174370 
391.000000	 59.080457 
390.000000	 58.776688 
389.000000	 58.286285 
388.000000	 57.698202 
387.000000	 57.146692 
386.000000	 56.799650 
385.000000	 56.799650 
384.000000	 57.204580 
383.000000	 57.967901 
382.000000	 58.943033 
381.000000	 59.923720 
380.000000	 60.686087 
379.000000	 61.067891 
378.000000	 61.008310 
377.000000	 60.579061 
376.000000	 59.961533 
375.000000	 59.402871 
374.000000	 59.150242 
373.000000	 59.370803 
372.000000	 60.109186 
371.000000	 61.260437 
370.000000	 62.578463 

