PE IR       SPECTRUM    SPECTRUM    ASCII       PEDS        1.60        
  -1
BZ61B1~1.ASC
17/04/07
14:44:13.00
17/04/07
14:44:13.00
tln
$BZ1503107-1_t0019$<tbV0>[-5.2,-10.4,8.0,0.0,27,1,0]
370.000000
64









2002,4.07    
MIRTGS : RIGHTBACK : INTERNAL 2
MIR : ON : INTERNAL 2
OPTKBR

0.200000
8
8.000000
FILLER
RATIO
SPECTRUM
UNLOCKED 256

DOUBLE
64
COMBINED
1
0
0


1.000000
RATIO


1
0
TRUE
51149
0
LEFT NOT FITTED RIGHT NOT FITTED 0
NONE
NONE
15600
12.000000
4.427000
51148
TRUE
1 0 8 72 0 0 0 0 

15798.010000






#HDR
-1
-1
#GR
CM-1
%T
0.00002384185791015625
0.0
5000.000000
-1.000000
4631
8
73.368644
50.844573
#DATA
5000.000000	64.169907 
4999.000000	63.969755 
4998.000000	63.892769 
4997.000000	63.930320 
4996.000000	64.058160 
4995.000000	64.242601 
4994.000000	64.450550 
4993.000000	64.654469 
4992.000000	64.838194 
4991.000000	64.994096 
4990.000000	65.124392 
4989.000000	65.233159 
4988.000000	65.327191 
4987.000000	65.411400 
4986.000000	65.488338 
4985.000000	65.557622 
4984.000000	65.617203 
4983.000000	65.664696 
4982.000000	65.696001 
4981.000000	65.706610 
4980.000000	65.693593 
4979.000000	65.656733 
4978.000000	65.597724 
4977.000000	65.520954 
4976.000000	65.434718 
4975.000000	65.349006 
4974.000000	65.275406 
4973.000000	65.222525 
4972.000000	65.193915 
4971.000000	65.186333 
4970.000000	65.191674 
4969.000000	65.197753 
4968.000000	65.190720 
4967.000000	65.159535 
4966.000000	65.099430 
4965.000000	65.012359 
4964.000000	64.906573 
4963.000000	64.793658 
4962.000000	64.684343 
4961.000000	64.587712 
4960.000000	64.509582 
4959.000000	64.451599 
4958.000000	64.411687 
4957.000000	64.386916 
4956.000000	64.375281 
4955.000000	64.376163 
4954.000000	64.391088 
4953.000000	64.422774 
4952.000000	64.474248 
4951.000000	64.546322 
4950.000000	64.637756 
4949.000000	64.744281 
4948.000000	64.859700 
4947.000000	64.977359 
4946.000000	65.090394 
4945.000000	65.193557 
4944.000000	65.282368 
4943.000000	65.354537 
4942.000000	65.407919 
4941.000000	65.440845 
4940.000000	65.450716 
4939.000000	65.436458 
4938.000000	65.396356 
4937.000000	65.329909 
4936.000000	65.237951 
4935.000000	65.124535 
4934.000000	64.996027 
4933.000000	64.861249 
4932.000000	64.730453 
4931.000000	64.614415 
4930.000000	64.522290 
4929.000000	64.460086 
4928.000000	64.430284 
4927.000000	64.431619 
4926.000000	64.460015 
4925.000000	64.509344 
4924.000000	64.572191 
4923.000000	64.640879 
4922.000000	64.708065 
4921.000000	64.767694 
4920.000000	64.813446 
4919.000000	64.841055 
4918.000000	64.848136 
4917.000000	64.835548 
4916.000000	64.806604 
4915.000000	64.768052 
4914.000000	64.729237 
4913.000000	64.700460 
4912.000000	64.691305 
4911.000000	64.708089 
4910.000000	64.753079 
4909.000000	64.823150 
4908.000000	64.910578 
4907.000000	65.004563 
4906.000000	65.093708 
4905.000000	65.168213 
4904.000000	65.221691 
4903.000000	65.251779 
4902.000000	65.259695 
4901.000000	65.249514 
4900.000000	65.226697 
4899.000000	65.196180 
4898.000000	65.160965 
4897.000000	65.123128 
4896.000000	65.082931 
4895.000000	65.039515 
4894.000000	64.991474 
4893.000000	64.938282 
4892.000000	64.880943 
4891.000000	64.822220 
4890.000000	64.766645 
4889.000000	64.719176 
4888.000000	64.684844 
4887.000000	64.667630 
4886.000000	64.669108 
4885.000000	64.687538 
4884.000000	64.717864 
4883.000000	64.752650 
4882.000000	64.782834 
4881.000000	64.799714 
4880.000000	64.796423 
4879.000000	64.768934 
4878.000000	64.717841 
4877.000000	64.648103 
4876.000000	64.568471 
4875.000000	64.489841 
4874.000000	64.423608 
4873.000000	64.379811 
4872.000000	64.365816 
4871.000000	64.385437 
4870.000000	64.438629 
4869.000000	64.521670 
4868.000000	64.628124 
4867.000000	64.749693 
4866.000000	64.876985 
4865.000000	65.000247 
4864.000000	65.110254 
4863.000000	65.198254 
4862.000000	65.256977 
4861.000000	65.280890 
4860.000000	65.267181 
4859.000000	65.216755 
4858.000000	65.134811 
4857.000000	65.031242 
4856.000000	64.919734 
4855.000000	64.816641 
4854.000000	64.738655 
4853.000000	64.700484 
4852.000000	64.712595 
4851.000000	64.778518 
4850.000000	64.893722 
4849.000000	65.046525 
4848.000000	65.219926 
4847.000000	65.394616 
4846.000000	65.552306 
4845.000000	65.678310 
4844.000000	65.763401 
4843.000000	65.805530 
4842.000000	65.808153 
4841.000000	65.778851 
4840.000000	65.725874 
4839.000000	65.657162 
4838.000000	65.577602 
4837.000000	65.490007 
4836.000000	65.395212 
4835.000000	65.294981 
4834.000000	65.192103 
4833.000000	65.092849 
4832.000000	65.004587 
4831.000000	64.935994 
4830.000000	64.892530 
4829.000000	64.875006 
4828.000000	64.877414 
4827.000000	64.887356 
4826.000000	64.889264 
4825.000000	64.867806 
4824.000000	64.814019 
4823.000000	64.727878 
4822.000000	64.621376 
4821.000000	64.515852 
4820.000000	64.437747 
4819.000000	64.411211 
4818.000000	64.450836 
4817.000000	64.556789 
4816.000000	64.712429 
4815.000000	64.888644 
4814.000000	65.051293 
4813.000000	65.170764 
4812.000000	65.228247 
4811.000000	65.222120 
4810.000000	65.167832 
4809.000000	65.093946 
4808.000000	65.033364 
4807.000000	65.014719 
4806.000000	65.054750 
4805.000000	65.153694 
4804.000000	65.297484 
4803.000000	65.460038 
4802.000000	65.612292 
4801.000000	65.728092 
4800.000000	65.791797 
4799.000000	65.799927 
4798.000000	65.760993 
4797.000000	65.691900 
4796.000000	65.612244 
4795.000000	65.540623 
4794.000000	65.489745 
4793.000000	65.466356 
4792.000000	65.470099 
4791.000000	65.494561 
4790.000000	65.528535 
4789.000000	65.559482 
4788.000000	65.575218 
4787.000000	65.564751 
4786.000000	65.520906 
4785.000000	65.440273 
4784.000000	65.325498 
4783.000000	65.185022 
4782.000000	65.032529 
4781.000000	64.884638 
4780.000000	64.757657 
4779.000000	64.665770 
4778.000000	64.616107 
4777.000000	64.607882 
4776.000000	64.631199 
4775.000000	64.669394 
4774.000000	64.702773 
4773.000000	64.712643 
4772.000000	64.686989 
4771.000000	64.622807 
4770.000000	64.527916 
4769.000000	64.418101 
4768.000000	64.316487 
4767.000000	64.247441 
4766.000000	64.231896 
4765.000000	64.281868 
4764.000000	64.397788 
4763.000000	64.567685 
4762.000000	64.770174 
4761.000000	64.978575 
4760.000000	65.166163 
4759.000000	65.311169 
4758.000000	65.400671 
4757.000000	65.431952 
4756.000000	65.411257 
4755.000000	65.351343 
4754.000000	65.267825 
4753.000000	65.175461 
4752.000000	65.086174 
4751.000000	65.007042 
4750.000000	64.942574 
4749.000000	64.893293 
4748.000000	64.858794 
4747.000000	64.837121 
4746.000000	64.827132 
4745.000000	64.826059 
4744.000000	64.829421 
4743.000000	64.831089 
4742.000000	64.823770 
4741.000000	64.801764 
4740.000000	64.762234 
4739.000000	64.707088 
4738.000000	64.642643 
4737.000000	64.578938 
4736.000000	64.527201 
4735.000000	64.497160 
4734.000000	64.494299 
4733.000000	64.518880 
4732.000000	64.565372 
4731.000000	64.624214 
4730.000000	64.683151 
4729.000000	64.730763 
4728.000000	64.757800 
4727.000000	64.758229 
4726.000000	64.730572 
4725.000000	64.677000 
4724.000000	64.603900 
4723.000000	64.519929 
4722.000000	64.435911 
4721.000000	64.363026 
4720.000000	64.311790 
4719.000000	64.291238 
4718.000000	64.305520 
4717.000000	64.353251 
4716.000000	64.426565 
4715.000000	64.512610 
4714.000000	64.595580 
4713.000000	64.660215 
4712.000000	64.695191 
4711.000000	64.695978 
4710.000000	64.665365 
4709.000000	64.612913 
4708.000000	64.552426 
4707.000000	64.498496 
4706.000000	64.463233 
4705.000000	64.453601 
4704.000000	64.470863 
4703.000000	64.510560 
4702.000000	64.564585 
4701.000000	64.623761 
4700.000000	64.680290 
4699.000000	64.729595 
4698.000000	64.770102 
4697.000000	64.803552 
4696.000000	64.832663 
4695.000000	64.860486 
4694.000000	64.888525 
4693.000000	64.916634 
4692.000000	64.943456 
4691.000000	64.966464 
4690.000000	64.983201 
4689.000000	64.992165 
4688.000000	64.993596 
4687.000000	64.989399 
4686.000000	64.982724 
4685.000000	64.976859 
4684.000000	64.974331 
4683.000000	64.976406 
4682.000000	64.982557 
4681.000000	64.990401 
4680.000000	64.996600 
4679.000000	64.997720 
4678.000000	64.991664 
4677.000000	64.978337 
4676.000000	64.960193 
4675.000000	64.941430 
4674.000000	64.927697 
4673.000000	64.924216 
4672.000000	64.934992 
4671.000000	64.961576 
4670.000000	65.002512 
4669.000000	65.053224 
4668.000000	65.107417 
4667.000000	65.158486 
4666.000000	65.200662 
4665.000000	65.230298 
4664.000000	65.245914 
4663.000000	65.248513 
4662.000000	65.240216 
4661.000000	65.223360 
4660.000000	65.199375 
4659.000000	65.168571 
4658.000000	65.130138 
4657.000000	65.083408 
4656.000000	65.029168 
4655.000000	64.970564 
4654.000000	64.913511 
4653.000000	64.865827 
4652.000000	64.835572 
4651.000000	64.829111 
4650.000000	64.848613 
4649.000000	64.891457 
4648.000000	64.949965 
4647.000000	65.013146 
4646.000000	65.068674 
4645.000000	65.106177 
4644.000000	65.119481 
4643.000000	65.108227 
4642.000000	65.077066 
4641.000000	65.034937 
4640.000000	64.992189 
4639.000000	64.958071 
4638.000000	64.938426 
4637.000000	64.934992 
4636.000000	64.945578 
4635.000000	64.965009 
4634.000000	64.987349 
4633.000000	65.006613 
4632.000000	65.018510 
4631.000000	65.020585 
4630.000000	65.012621 
4629.000000	64.995622 
4628.000000	64.971661 
4627.000000	64.943218 
4626.000000	64.912867 
4625.000000	64.882874 
4624.000000	64.854741 
4623.000000	64.830064 
4622.000000	64.809656 
4621.000000	64.793395 
4620.000000	64.780020 
4619.000000	64.767742 
4618.000000	64.754128 
4617.000000	64.736533 
4616.000000	64.712882 
4615.000000	64.681982 
4614.000000	64.644527 
4613.000000	64.602947 
4612.000000	64.561533 
4611.000000	64.524936 
4610.000000	64.498591 
4609.000000	64.487266 
4608.000000	64.494752 
4607.000000	64.522695 
4606.000000	64.570736 
4605.000000	64.636063 
4604.000000	64.713692 
4603.000000	64.797091 
4602.000000	64.879012 
4601.000000	64.952731 
4600.000000	65.012574 
4599.000000	65.055179 
4598.000000	65.080022 
4597.000000	65.089535 
4596.000000	65.088891 
4595.000000	65.084886 
4594.000000	65.084719 
4593.000000	65.093874 
4592.000000	65.116167 
4591.000000	65.151214 
4590.000000	65.195512 
4589.000000	65.241885 
4588.000000	65.282201 
4587.000000	65.307807 
4586.000000	65.312027 
4585.000000	65.291261 
4584.000000	65.245985 
4583.000000	65.180635 
4582.000000	65.102601 
4581.000000	65.020751 
4580.000000	64.943575 
4579.000000	64.877223 
4578.000000	64.824676 
4577.000000	64.785456 
4576.000000	64.756369 
4575.000000	64.733052 
4574.000000	64.711499 
4573.000000	64.688897 
4572.000000	64.664673 
4571.000000	64.640188 
4570.000000	64.618587 
4569.000000	64.602589 
4568.000000	64.594721 
4567.000000	64.595556 
4566.000000	64.604640 
4565.000000	64.620113 
4564.000000	64.639782 
4563.000000	64.661979 
4562.000000	64.685392 
4561.000000	64.709162 
4560.000000	64.732336 
4559.000000	64.753746 
4558.000000	64.771556 
4557.000000	64.783024 
4556.000000	64.785885 
4555.000000	64.779186 
4554.000000	64.763927 
4553.000000	64.742970 
4552.000000	64.721059 
4551.000000	64.703440 
4550.000000	64.694547 
4549.000000	64.696860 
4548.000000	64.709210 
4547.000000	64.727592 
4546.000000	64.746475 
4545.000000	64.761042 
4544.000000	64.769124 
4543.000000	64.771890 
4542.000000	64.774775 
4541.000000	64.784526 
4540.000000	64.806365 
4539.000000	64.841413 
4538.000000	64.885759 
4537.000000	64.930748 
4536.000000	64.964842 
4535.000000	64.976525 
4534.000000	64.958691 
4533.000000	64.908909 
4532.000000	64.830636 
4531.000000	64.731478 
4530.000000	64.621615 
4529.000000	64.510774 
4528.000000	64.406156 
4527.000000	64.312124 
4526.000000	64.230728 
4525.000000	64.162349 
4524.000000	64.107012 
4523.000000	64.066576 
4522.000000	64.045023 
4521.000000	64.045381 
4520.000000	64.069604 
4519.000000	64.115977 
4518.000000	64.181160 
4517.000000	64.260482 
4516.000000	64.349913 
4515.000000	64.448237 
4514.000000	64.555525 
4513.000000	64.669585 
4512.000000	64.787006 
4511.000000	64.902019 
4510.000000	65.008401 
4509.000000	65.101432 
4508.000000	65.177989 
4507.000000	65.237927 
4506.000000	65.282773 
4505.000000	65.316176 
4504.000000	65.341830 
4503.000000	65.360784 
4502.000000	65.377306 
4501.000000	65.398907 
4500.000000	65.438413 
4499.000000	65.511608 
4498.000000	65.636420 
4497.000000	65.827918 
4496.000000	66.089868 
4495.000000	66.411375 
4494.000000	66.763663 
4493.000000	67.107319 
4492.000000	67.396855 
4491.000000	67.597341 
4490.000000	67.698860 
4489.000000	67.720484 
4488.000000	67.711353 
4487.000000	67.731213 
4486.000000	67.837381 
4485.000000	68.058180 
4484.000000	68.385648 
4483.000000	68.768167 
4482.000000	69.126510 
4481.000000	69.368577 
4480.000000	69.421100 
4479.000000	69.241976 
4478.000000	68.836569 
4477.000000	68.251705 
4476.000000	67.565822 
4475.000000	66.866779 
4474.000000	66.231083 
4473.000000	65.708470 
4472.000000	65.315628 
4471.000000	65.034699 
4470.000000	64.824390 
4469.000000	64.639925 
4468.000000	64.447760 
4467.000000	64.229202 
4466.000000	63.985514 
4465.000000	63.724327 
4464.000000	63.459777 
4463.000000	63.210582 
4462.000000	62.996292 
4461.000000	62.817788 
4460.000000	62.671947 
4459.000000	62.560462 
4458.000000	62.491226 
4457.000000	62.477135 
4456.000000	62.533712 
4455.000000	62.668919 
4454.000000	62.881469 
4453.000000	63.160467 
4452.000000	63.479423 
4451.000000	63.791584 
4450.000000	64.051771 
4449.000000	64.220476 
4448.000000	64.290642 
4447.000000	64.286994 
4446.000000	64.280271 
4445.000000	64.368987 
4444.000000	64.665770 
4443.000000	65.259861 
4442.000000	66.194486 
4441.000000	67.431950 
4440.000000	68.838882 
4439.000000	70.187067 
4438.000000	71.192002 
4437.000000	71.562647 
4436.000000	71.054339 
4435.000000	69.545650 
4434.000000	67.065668 
4433.000000	63.835382 
4432.000000	60.228991 
4431.000000	56.734418 
4430.000000	53.857636 
4429.000000	52.031421 
4428.000000	51.531577 
4427.000000	52.419114 
4426.000000	54.530096 
4425.000000	57.512331 
4424.000000	60.900449 
4423.000000	64.211630 
4422.000000	67.026543 
4421.000000	69.071269 
4420.000000	70.235633 
4419.000000	70.575976 
4418.000000	70.259881 
4417.000000	69.522309 
4416.000000	68.594694 
4415.000000	67.669272 
4414.000000	66.864848 
4413.000000	66.233110 
4412.000000	65.764713 
4411.000000	65.427684 
4410.000000	65.182638 
4409.000000	65.000462 
4408.000000	64.870524 
4407.000000	64.785504 
4406.000000	64.750170 
4405.000000	64.762759 
4404.000000	64.823293 
4403.000000	64.924192 
4402.000000	65.056204 
4401.000000	65.202546 
4400.000000	65.347981 
4399.000000	65.486025 
4398.000000	65.611958 
4397.000000	65.717935 
4396.000000	65.798115 
4395.000000	65.848517 
4394.000000	65.867710 
4393.000000	65.859937 
4392.000000	65.826964 
4391.000000	65.765810 
4390.000000	65.679407 
4389.000000	65.578198 
4388.000000	65.470409 
4387.000000	65.361475 
4386.000000	65.255260 
4385.000000	65.153241 
4384.000000	65.058350 
4383.000000	64.973759 
4382.000000	64.898777 
4381.000000	64.831328 
4380.000000	64.769411 
4379.000000	64.712452 
4378.000000	64.660143 
4377.000000	64.614748 
4376.000000	64.579701 
4375.000000	64.560008 
4374.000000	64.559459 
4373.000000	64.580726 
4372.000000	64.622759 
4371.000000	64.682054 
4370.000000	64.752960 
4369.000000	64.828586 
4368.000000	64.901709 
4367.000000	64.966249 
4366.000000	65.018296 
4365.000000	65.056061 
4364.000000	65.079569 
4363.000000	65.091013 
4362.000000	65.093564 
4361.000000	65.091323 
4360.000000	65.088438 
4359.000000	65.088605 
4358.000000	65.094232 
4357.000000	65.106892 
4356.000000	65.126705 
4355.000000	65.151929 
4354.000000	65.179395 
4353.000000	65.205478 
4352.000000	65.226459 
4351.000000	65.239238 
4350.000000	65.241813 
4349.000000	65.234208 
4348.000000	65.217804 
4347.000000	65.194845 
4346.000000	65.167975 
4345.000000	65.139985 
4344.000000	65.113353 
4343.000000	65.090036 
4342.000000	65.071368 
4341.000000	65.058517 
4340.000000	65.051960 
4339.000000	65.051722 
4338.000000	65.056562 
4337.000000	65.064167 
4336.000000	65.071368 
4335.000000	65.074849 
4334.000000	65.071487 
4333.000000	65.059256 
4332.000000	65.038323 
4331.000000	65.011096 
4330.000000	64.981603 
4329.000000	64.954686 
4328.000000	64.934539 
4327.000000	64.923930 
4326.000000	64.922809 
4325.000000	64.929103 
4324.000000	64.939403 
4323.000000	64.950394 
4322.000000	64.959907 
4321.000000	64.967870 
4320.000000	64.976310 
4319.000000	64.988660 
4318.000000	65.008044 
4317.000000	65.036416 
4316.000000	65.073347 
4315.000000	65.116071 
4314.000000	65.159773 
4313.000000	65.199112 
4312.000000	65.229606 
4311.000000	65.248847 
4310.000000	65.257310 
4309.000000	65.257453 
4308.000000	65.252757 
4307.000000	65.246367 
4306.000000	65.240097 
4305.000000	65.233230 
4304.000000	65.222978 
4303.000000	65.205812 
4302.000000	65.178656 
4301.000000	65.140485 
4300.000000	65.093040 
4299.000000	65.041065 
4298.000000	64.991211 
4297.000000	64.950418 
4296.000000	64.923977 
4295.000000	64.914131 
4294.000000	64.919495 
4293.000000	64.935588 
4292.000000	64.955663 
4291.000000	64.972448 
4290.000000	64.979624 
4289.000000	64.973545 
4288.000000	64.953780 
4287.000000	64.922285 
4286.000000	64.883899 
4285.000000	64.844632 
4284.000000	64.811015 
4283.000000	64.788579 
4282.000000	64.781451 
4281.000000	64.791607 
4280.000000	64.818787 
4279.000000	64.860725 
4278.000000	64.913415 
4277.000000	64.971542 
4276.000000	65.029191 
4275.000000	65.080809 
4274.000000	65.121698 
4273.000000	65.148639 
4272.000000	65.160679 
4271.000000	65.158319 
4270.000000	65.143561 
4269.000000	65.118646 
4268.000000	65.086460 
4267.000000	65.048933 
4266.000000	65.007352 
4265.000000	64.961862 
4264.000000	64.912867 
4263.000000	64.860677 
4262.000000	64.806032 
4261.000000	64.750814 
4260.000000	64.697742 
4259.000000	64.650940 
4258.000000	64.614987 
4257.000000	64.594364 
4256.000000	64.592194 
4255.000000	64.609575 
4254.000000	64.645051 
4253.000000	64.694404 
4252.000000	64.751338 
4251.000000	64.808583 
4250.000000	64.859342 
4249.000000	64.898228 
4248.000000	64.922666 
4247.000000	64.933276 
4246.000000	64.933562 
4245.000000	64.928770 
4244.000000	64.924621 
4243.000000	64.926338 
4242.000000	64.937257 
4241.000000	64.958739 
4240.000000	64.989614 
4239.000000	65.027284 
4238.000000	65.067887 
4237.000000	65.107965 
4236.000000	65.144038 
4235.000000	65.173316 
4234.000000	65.193486 
4233.000000	65.203332 
4232.000000	65.202212 
4231.000000	65.190076 
4230.000000	65.167856 
4229.000000	65.137791 
4228.000000	65.103077 
4227.000000	65.067768 
4226.000000	65.035796 
4225.000000	65.010261 
4224.000000	64.992499 
4223.000000	64.981675 
4222.000000	64.974617 
4221.000000	64.966678 
4220.000000	64.953398 
4219.000000	64.931917 
4218.000000	64.901304 
4217.000000	64.863586 
4216.000000	64.823555 
4215.000000	64.787840 
4214.000000	64.762568 
4213.000000	64.752626 
4212.000000	64.759922 
4211.000000	64.783835 
4210.000000	64.821076 
4209.000000	64.867067 
4208.000000	64.917087 
4207.000000	64.967012 
4206.000000	65.014314 
4205.000000	65.056991 
4204.000000	65.093135 
4203.000000	65.120339 
4202.000000	65.135478 
4201.000000	65.135216 
4200.000000	65.116834 
4199.000000	65.079760 
4198.000000	65.026044 
4197.000000	64.960455 
4196.000000	64.889550 
4195.000000	64.820718 
4194.000000	64.760088 
4193.000000	64.710831 
4192.000000	64.672899 
4191.000000	64.643096 
4190.000000	64.616990 
4189.000000	64.589905 
4188.000000	64.559793 
4187.000000	64.527201 
4186.000000	64.496541 
4185.000000	64.473867 
4184.000000	64.466381 
4183.000000	64.479207 
4182.000000	64.515042 
4181.000000	64.572763 
4180.000000	64.647936 
4179.000000	64.733481 
4178.000000	64.821100 
4177.000000	64.903306 
4176.000000	64.973735 
4175.000000	65.027999 
4174.000000	65.063881 
4173.000000	65.081143 
4172.000000	65.081048 
4171.000000	65.065979 
4170.000000	65.039634 
4169.000000	65.006446 
4168.000000	64.971804 
4167.000000	64.941096 
4166.000000	64.918947 
4165.000000	64.908194 
4164.000000	64.909863 
4163.000000	64.922857 
4162.000000	64.944243 
4161.000000	64.969706 
4160.000000	64.995336 
4159.000000	65.017604 
4158.000000	65.033721 
4157.000000	65.041613 
4156.000000	65.040230 
4155.000000	65.028905 
4154.000000	65.007209 
4153.000000	64.975261 
4152.000000	64.933872 
4151.000000	64.884805 
4150.000000	64.831352 
4149.000000	64.777493 
4148.000000	64.727616 
4147.000000	64.685726 
4146.000000	64.654874 
4145.000000	64.636135 
4144.000000	64.628624 
4143.000000	64.630150 
4142.000000	64.638209 
4141.000000	64.650583 
4140.000000	64.666199 
4139.000000	64.684963 
4138.000000	64.707922 
4137.000000	64.735984 
4136.000000	64.770078 
4135.000000	64.809656 
4134.000000	64.853405 
4133.000000	64.899230 
4132.000000	64.944767 
4131.000000	64.988732 
4130.000000	65.030121 
4129.000000	65.069270 
4128.000000	65.105843 
4127.000000	65.139007 
4126.000000	65.166115 
4125.000000	65.183401 
4124.000000	65.186786 
4123.000000	65.173196 
4122.000000	65.142154 
4121.000000	65.096831 
4120.000000	65.043640 
4119.000000	64.991211 
4118.000000	64.948844 
4117.000000	64.924430 
4116.000000	64.922833 
4115.000000	64.945125 
4114.000000	64.988541 
4113.000000	65.047216 
4112.000000	65.113496 
4111.000000	65.179347 
4110.000000	65.237832 
4109.000000	65.284085 
4108.000000	65.315556 
4107.000000	65.332174 
4106.000000	65.335321 
4105.000000	65.327477 
4104.000000	65.311551 
4103.000000	65.290570 
4102.000000	65.267419 
4101.000000	65.244793 
4100.000000	65.225458 
4099.000000	65.211558 
4098.000000	65.204906 
4097.000000	65.206098 
4096.000000	65.214753 
4095.000000	65.228939 
4094.000000	65.245676 
4093.000000	65.261387 
4092.000000	65.272784 
4091.000000	65.277457 
4090.000000	65.274500 
4089.000000	65.264654 
4088.000000	65.250182 
4087.000000	65.234327 
4086.000000	65.220594 
4085.000000	65.211653 
4084.000000	65.209007 
4083.000000	65.212702 
4082.000000	65.221476 
4081.000000	65.233445 
4080.000000	65.246605 
4079.000000	65.258932 
4078.000000	65.269160 
4077.000000	65.276765 
4076.000000	65.281748 
4075.000000	65.284109 
4074.000000	65.284252 
4073.000000	65.282797 
4072.000000	65.280508 
4071.000000	65.278220 
4070.000000	65.276479 
4069.000000	65.275573 
4068.000000	65.275239 
4067.000000	65.274906 
4066.000000	65.273714 
4065.000000	65.270805 
4064.000000	65.265798 
4063.000000	65.258812 
4062.000000	65.250492 
4061.000000	65.241813 
4060.000000	65.233898 
4059.000000	65.227699 
4058.000000	65.223908 
4057.000000	65.222859 
4056.000000	65.224480 
4055.000000	65.228247 
4054.000000	65.233659 
4053.000000	65.239739 
4052.000000	65.245294 
4051.000000	65.248680 
4050.000000	65.247869 
4049.000000	65.240669 
4048.000000	65.224981 
4047.000000	65.199542 
4046.000000	65.164470 
4045.000000	65.121674 
4044.000000	65.074753 
4043.000000	65.028643 
4042.000000	64.988636 
4041.000000	64.959406 
4040.000000	64.944195 
4039.000000	64.944362 
4038.000000	64.958953 
4037.000000	64.985489 
4036.000000	65.020108 
4035.000000	65.058350 
4034.000000	65.095639 
4033.000000	65.127873 
4032.000000	65.151691 
4031.000000	65.164399 
4030.000000	65.164089 
4029.000000	65.149879 
4028.000000	65.122008 
4027.000000	65.081715 
4026.000000	65.031504 
4025.000000	64.975142 
4024.000000	64.916896 
4023.000000	64.861488 
4022.000000	64.813208 
4021.000000	64.775395 
4020.000000	64.750123 
4019.000000	64.737915 
4018.000000	64.738178 
4017.000000	64.749240 
4016.000000	64.769005 
4015.000000	64.795207 
4014.000000	64.825987 
4013.000000	64.859557 
4012.000000	64.894270 
4011.000000	64.928364 
4010.000000	64.960074 
4009.000000	64.987754 
4008.000000	65.010094 
4007.000000	65.026164 
4006.000000	65.035939 
4005.000000	65.040016 
4004.000000	65.039777 
4003.000000	65.036654 
4002.000000	65.032148 
4001.000000	65.027070 
4000.000000	65.021848 
3999.000000	65.016388 
3998.000000	65.010523 
3997.000000	65.004205 
3996.000000	64.997577 
3995.000000	64.991140 
3994.000000	64.985823 
3993.000000	64.982414 
3992.000000	64.981102 
3991.000000	64.981770 
3990.000000	64.983749 
3989.000000	64.986515 
3988.000000	64.990067 
3987.000000	64.995098 
3986.000000	65.002918 
3985.000000	65.015006 
3984.000000	65.032505 
3983.000000	65.055227 
3982.000000	65.081596 
3981.000000	65.108633 
3980.000000	65.132689 
3979.000000	65.150165 
3978.000000	65.158534 
3977.000000	65.157032 
3976.000000	65.146946 
3975.000000	65.131282 
3974.000000	65.114212 
3973.000000	65.100240 
3972.000000	65.093040 
3971.000000	65.095019 
3970.000000	65.106368 
3969.000000	65.125489 
3968.000000	65.148925 
3967.000000	65.172648 
3966.000000	65.192031 
3965.000000	65.202808 
3964.000000	65.201616 
3963.000000	65.186500 
3962.000000	65.157532 
3961.000000	65.116834 
3960.000000	65.068435 
3959.000000	65.017509 
3958.000000	64.969921 
3957.000000	64.931321 
3956.000000	64.906001 
3955.000000	64.896368 
3954.000000	64.902806 
3953.000000	64.923810 
3952.000000	64.956164 
3951.000000	64.995527 
3950.000000	65.036988 
3949.000000	65.075826 
3948.000000	65.107703 
3947.000000	65.129828 
3946.000000	65.140986 
3945.000000	65.142202 
3944.000000	65.136051 
3943.000000	65.126633 
3942.000000	65.118932 
3941.000000	65.117597 
3940.000000	65.126419 
3939.000000	65.146589 
3938.000000	65.177273 
3937.000000	65.214467 
3936.000000	65.252518 
3935.000000	65.284347 
3934.000000	65.303277 
3933.000000	65.304040 
3932.000000	65.284204 
3931.000000	65.244412 
3930.000000	65.188527 
3929.000000	65.123057 
3928.000000	65.056157 
3927.000000	64.996194 
3926.000000	64.950323 
3925.000000	64.923739 
3924.000000	64.918708 
3923.000000	64.934325 
3922.000000	64.966535 
3921.000000	65.009093 
3920.000000	65.054273 
3919.000000	65.094256 
3918.000000	65.122270 
3917.000000	65.133190 
3916.000000	65.124535 
3915.000000	65.096521 
3914.000000	65.052056 
3913.000000	64.995837 
3912.000000	64.933967 
3911.000000	64.873194 
3910.000000	64.819812 
3909.000000	64.778900 
3908.000000	64.753675 
3907.000000	64.745330 
3906.000000	64.753103 
3905.000000	64.774346 
3904.000000	64.805459 
3903.000000	64.842510 
3902.000000	64.881896 
3901.000000	64.920735 
3900.000000	64.956927 
3899.000000	64.989185 
3898.000000	65.017294 
3897.000000	65.041542 
3896.000000	65.062260 
3895.000000	65.079617 
3894.000000	65.094208 
3893.000000	65.106534 
3892.000000	65.117025 
3891.000000	65.125560 
3890.000000	65.132260 
3889.000000	65.136408 
3888.000000	65.136623 
3887.000000	65.130734 
3886.000000	65.116643 
3885.000000	65.092539 
3884.000000	65.057706 
3883.000000	65.013051 
3882.000000	64.961290 
3881.000000	64.906501 
3880.000000	64.853358 
3879.000000	64.806437 
3878.000000	64.769482 
3877.000000	64.745163 
3876.000000	64.734721 
3875.000000	64.738321 
3874.000000	64.755320 
3873.000000	64.784693 
3872.000000	64.825057 
3871.000000	64.874362 
3870.000000	64.930152 
3869.000000	64.989423 
3868.000000	65.049338 
3867.000000	65.106487 
3866.000000	65.158319 
3865.000000	65.203452 
3864.000000	65.242052 
3863.000000	65.275716 
3862.000000	65.306830 
3861.000000	65.338301 
3860.000000	65.371966 
3859.000000	65.408539 
3858.000000	65.446305 
3857.000000	65.482163 
3856.000000	65.511727 
3855.000000	65.530967 
3854.000000	65.536999 
3853.000000	65.529227 
3852.000000	65.509486 
3851.000000	65.482115 
3850.000000	65.452480 
3849.000000	65.425920 
3848.000000	65.406560 
3847.000000	65.396451 
3846.000000	65.395402 
3845.000000	65.401124 
3844.000000	65.410304 
3843.000000	65.419292 
3842.000000	65.424776 
3841.000000	65.424418 
3840.000000	65.416646 
3839.000000	65.401196 
3838.000000	65.378546 
3837.000000	65.350151 
3836.000000	65.317583 
3835.000000	65.282893 
3834.000000	65.248394 
3833.000000	65.216422 
3832.000000	65.189146 
3831.000000	65.168190 
3830.000000	65.154743 
3829.000000	65.149044 
3828.000000	65.150260 
3827.000000	65.156745 
3826.000000	65.166664 
3825.000000	65.177917 
3824.000000	65.188598 
3823.000000	65.197300 
3822.000000	65.203356 
3821.000000	65.206933 
3820.000000	65.208745 
3819.000000	65.210223 
3818.000000	65.212917 
3817.000000	65.218353 
3816.000000	65.227723 
3815.000000	65.241217 
3814.000000	65.258097 
3813.000000	65.276598 
3812.000000	65.294647 
3811.000000	65.310263 
3810.000000	65.322089 
3809.000000	65.330100 
3808.000000	65.334844 
3807.000000	65.337920 
3806.000000	65.340375 
3805.000000	65.342926 
3804.000000	65.344810 
3803.000000	65.343904 
3802.000000	65.337276 
3801.000000	65.322113 
3800.000000	65.296864 
3799.000000	65.262007 
3798.000000	65.220570 
3797.000000	65.177679 
3796.000000	65.139698 
3795.000000	65.112829 
3794.000000	65.101480 
3793.000000	65.107154 
3792.000000	65.128564 
3791.000000	65.161752 
3790.000000	65.201187 
3789.000000	65.240836 
3788.000000	65.275597 
3787.000000	65.301966 
3786.000000	65.318465 
3785.000000	65.325427 
3784.000000	65.324211 
3783.000000	65.316843 
3782.000000	65.305280 
3781.000000	65.291190 
3780.000000	65.275931 
3779.000000	65.260529 
3778.000000	65.246224 
3777.000000	65.233945 
3776.000000	65.224552 
3775.000000	65.218234 
3774.000000	65.214824 
3773.000000	65.213322 
3772.000000	65.212178 
3771.000000	65.209627 
3770.000000	65.204048 
3769.000000	65.194320 
3768.000000	65.180134 
3767.000000	65.161919 
3766.000000	65.140914 
3765.000000	65.118765 
3764.000000	65.097308 
3763.000000	65.078377 
3762.000000	65.063691 
3761.000000	65.054869 
3760.000000	65.053462 
3759.000000	65.060520 
3758.000000	65.076613 
3757.000000	65.101528 
3756.000000	65.134286 
3755.000000	65.172338 
3754.000000	65.212726 
3753.000000	65.252065 
3752.000000	65.287470 
3751.000000	65.316820 
3750.000000	65.339517 
3749.000000	65.356111 
3748.000000	65.368342 
3747.000000	65.378594 
3746.000000	65.389013 
3745.000000	65.400958 
3744.000000	65.414667 
3743.000000	65.429353 
3742.000000	65.443253 
3741.000000	65.454220 
3740.000000	65.460228 
3739.000000	65.459799 
3738.000000	65.452194 
3737.000000	65.437340 
3736.000000	65.415835 
3735.000000	65.388655 
3734.000000	65.357136 
3733.000000	65.322875 
3732.000000	65.287566 
3731.000000	65.252995 
3730.000000	65.220904 
3729.000000	65.192747 
3728.000000	65.169596 
3727.000000	65.152120 
3726.000000	65.140581 
3725.000000	65.135073 
3724.000000	65.135097 
3723.000000	65.140414 
3722.000000	65.150618 
3721.000000	65.165567 
3720.000000	65.184736 
3719.000000	65.207600 
3718.000000	65.233302 
3717.000000	65.260529 
3716.000000	65.287446 
3715.000000	65.311932 
3714.000000	65.331864 
3713.000000	65.345501 
3712.000000	65.351629 
3711.000000	65.349912 
3710.000000	65.340828 
3709.000000	65.325760 
3708.000000	65.306520 
3707.000000	65.285158 
3706.000000	65.263438 
3705.000000	65.243101 
3704.000000	65.225505 
3703.000000	65.211439 
3702.000000	65.201497 
3701.000000	65.195989 
3700.000000	65.195274 
3699.000000	65.199351 
3698.000000	65.208029 
3697.000000	65.220785 
3696.000000	65.236759 
3695.000000	65.254735 
3694.000000	65.273261 
3693.000000	65.290617 
3692.000000	65.305089 
3691.000000	65.315198 
3690.000000	65.319800 
3689.000000	65.318202 
3688.000000	65.310311 
3687.000000	65.296983 
3686.000000	65.279793 
3685.000000	65.260958 
3684.000000	65.243458 
3683.000000	65.230464 
3682.000000	65.225076 
3681.000000	65.229654 
3680.000000	65.245437 
3679.000000	65.271878 
3678.000000	65.307021 
3677.000000	65.347313 
3676.000000	65.388202 
3675.000000	65.424919 
3674.000000	65.453243 
3673.000000	65.469980 
3672.000000	65.473747 
3671.000000	65.464854 
3670.000000	65.445137 
3669.000000	65.417695 
3668.000000	65.386438 
3667.000000	65.355062 
3666.000000	65.326762 
3665.000000	65.303516 
3664.000000	65.286231 
3663.000000	65.274596 
3662.000000	65.267324 
3661.000000	65.262866 
3660.000000	65.259742 
3659.000000	65.257000 
3658.000000	65.254616 
3657.000000	65.253520 
3656.000000	65.255618 
3655.000000	65.263056 
3654.000000	65.277647 
3653.000000	65.300464 
3652.000000	65.331244 
3651.000000	65.368199 
3650.000000	65.408182 
3649.000000	65.447378 
3648.000000	65.481638 
3647.000000	65.507578 
3646.000000	65.522456 
3645.000000	65.524792 
3644.000000	65.514230 
3643.000000	65.491580 
3642.000000	65.458536 
3641.000000	65.417551 
3640.000000	65.371608 
3639.000000	65.324139 
3638.000000	65.278911 
3637.000000	65.239834 
3636.000000	65.210604 
3635.000000	65.194034 
3634.000000	65.191817 
3633.000000	65.203809 
3632.000000	65.228056 
3631.000000	65.260744 
3630.000000	65.296792 
3629.000000	65.330624 
3628.000000	65.356874 
3627.000000	65.371155 
3626.000000	65.370702 
3625.000000	65.355229 
3624.000000	65.326213 
3623.000000	65.287256 
3622.000000	65.243315 
3621.000000	65.200114 
3620.000000	65.163636 
3619.000000	65.138721 
3618.000000	65.128970 
3617.000000	65.135192 
3616.000000	65.156173 
3615.000000	65.187501 
3614.000000	65.222787 
3613.000000	65.254449 
3612.000000	65.275049 
3611.000000	65.279197 
3610.000000	65.264415 
3609.000000	65.232181 
3608.000000	65.187525 
3607.000000	65.137767 
3606.000000	65.090823 
3605.000000	65.053510 
3604.000000	65.029954 
3603.000000	65.020775 
3602.000000	65.023183 
3601.000000	65.032219 
3600.000000	65.042328 
3599.000000	65.049052 
3598.000000	65.050578 
3597.000000	65.047454 
3596.000000	65.042853 
3595.000000	65.041375 
3594.000000	65.047693 
3593.000000	65.064787 
3592.000000	65.093374 
3591.000000	65.131878 
3590.000000	65.176439 
3589.000000	65.222334 
3588.000000	65.264463 
3587.000000	65.298557 
3586.000000	65.321445 
3585.000000	65.331840 
3584.000000	65.329980 
3583.000000	65.317416 
3582.000000	65.296792 
3581.000000	65.271401 
3580.000000	65.244817 
3579.000000	65.220475 
3578.000000	65.201377 
3577.000000	65.189719 
3576.000000	65.186262 
3575.000000	65.190291 
3574.000000	65.199613 
3573.000000	65.210914 
3572.000000	65.220260 
3571.000000	65.223932 
3570.000000	65.219092 
3569.000000	65.204453 
3568.000000	65.180349 
3567.000000	65.148997 
3566.000000	65.113377 
3565.000000	65.077447 
3564.000000	65.045189 
3563.000000	65.020084 
3562.000000	65.004539 
3561.000000	64.999699 
3560.000000	65.005373 
3559.000000	65.020132 
3558.000000	65.041470 
3557.000000	65.066576 
3556.000000	65.092730 
3555.000000	65.117716 
3554.000000	65.139961 
3553.000000	65.158891 
3552.000000	65.174651 
3551.000000	65.187954 
3550.000000	65.199565 
3549.000000	65.209937 
3548.000000	65.218877 
3547.000000	65.225744 
3546.000000	65.229606 
3545.000000	65.229725 
3544.000000	65.225815 
3543.000000	65.218806 
3542.000000	65.210127 
3541.000000	65.201473 
3540.000000	65.194320 
3539.000000	65.189599 
3538.000000	65.187454 
3537.000000	65.187168 
3536.000000	65.187406 
3535.000000	65.187048 
3534.000000	65.185236 
3533.000000	65.181660 
3532.000000	65.176463 
3531.000000	65.170383 
3530.000000	65.164494 
3529.000000	65.159726 
3528.000000	65.156722 
3527.000000	65.155529 
3526.000000	65.155601 
3525.000000	65.155959 
3524.000000	65.155148 
3523.000000	65.151762 
3522.000000	65.144944 
3521.000000	65.134930 
3520.000000	65.122652 
3519.000000	65.110039 
3518.000000	65.099596 
3517.000000	65.094375 
3516.000000	65.096855 
3515.000000	65.108990 
3514.000000	65.131688 
3513.000000	65.164446 
3512.000000	65.205597 
3511.000000	65.252327 
3510.000000	65.301036 
3509.000000	65.347766 
3508.000000	65.388941 
3507.000000	65.421485 
3506.000000	65.443468 
3505.000000	65.454292 
3504.000000	65.454578 
3503.000000	65.446066 
3502.000000	65.431451 
3501.000000	65.413284 
3500.000000	65.393877 
3499.000000	65.374422 
3498.000000	65.355038 
3497.000000	65.334653 
3496.000000	65.311717 
3495.000000	65.284800 
3494.000000	65.253448 
3493.000000	65.218687 
3492.000000	65.183162 
3491.000000	65.150570 
3490.000000	65.124750 
3489.000000	65.108942 
3488.000000	65.104794 
3487.000000	65.111660 
3486.000000	65.127158 
3485.000000	65.147233 
3484.000000	65.167546 
3483.000000	65.184307 
3482.000000	65.195178 
3481.000000	65.199398 
3480.000000	65.197825 
3479.000000	65.192222 
3478.000000	65.184426 
3477.000000	65.175414 
3476.000000	65.164971 
3475.000000	65.151762 
3474.000000	65.133976 
3473.000000	65.110111 
3472.000000	65.079665 
3471.000000	65.043759 
3470.000000	65.005373 
3469.000000	64.969038 
3468.000000	64.939665 
3467.000000	64.921689 
3466.000000	64.918279 
3465.000000	64.930367 
3464.000000	64.956426 
3463.000000	64.992809 
3462.000000	65.034389 
3461.000000	65.075612 
3460.000000	65.111160 
3459.000000	65.136957 
3458.000000	65.150713 
3457.000000	65.151929 
3456.000000	65.141797 
3455.000000	65.122699 
3454.000000	65.097880 
3453.000000	65.070676 
3452.000000	65.044355 
3451.000000	65.021657 
3450.000000	65.004682 
3449.000000	64.994883 
3448.000000	64.993190 
3447.000000	64.999890 
3446.000000	65.014767 
3445.000000	65.037250 
3444.000000	65.066385 
3443.000000	65.100908 
3442.000000	65.139102 
3441.000000	65.179109 
3440.000000	65.218758 
3439.000000	65.256071 
3438.000000	65.289139 
3437.000000	65.316224 
3436.000000	65.335869 
3435.000000	65.347504 
3434.000000	65.351200 
3433.000000	65.347647 
3432.000000	65.338206 
3431.000000	65.324687 
3430.000000	65.309000 
3429.000000	65.293335 
3428.000000	65.279507 
3427.000000	65.268898 
3426.000000	65.262126 
3425.000000	65.259480 
3424.000000	65.260434 
3423.000000	65.264081 
3422.000000	65.268778 
3421.000000	65.272569 
3420.000000	65.273141 
3419.000000	65.268278 
3418.000000	65.256214 
3417.000000	65.235900 
3416.000000	65.207576 
3415.000000	65.173029 
3414.000000	65.135526 
3413.000000	65.099549 
3412.000000	65.070176 
3411.000000	65.051984 
3410.000000	65.048289 
3409.000000	65.060329 
3408.000000	65.086531 
3407.000000	65.122866 
3406.000000	65.163707 
3405.000000	65.202808 
3404.000000	65.234375 
3403.000000	65.254306 
3402.000000	65.260744 
3401.000000	65.254259 
3400.000000	65.237545 
3399.000000	65.214347 
3398.000000	65.188574 
3397.000000	65.163469 
3396.000000	65.141010 
3395.000000	65.121865 
3394.000000	65.105700 
3393.000000	65.091896 
3392.000000	65.079951 
3391.000000	65.070438 
3390.000000	65.064859 
3389.000000	65.065360 
3388.000000	65.074038 
3387.000000	65.092325 
3386.000000	65.120196 
3385.000000	65.155720 
3384.000000	65.195226 
3383.000000	65.233755 
3382.000000	65.265893 
3381.000000	65.287137 
3380.000000	65.294790 
3379.000000	65.288543 
3378.000000	65.270519 
3377.000000	65.245246 
3376.000000	65.218234 
3375.000000	65.194940 
3374.000000	65.179419 
3373.000000	65.173864 
3372.000000	65.177845 
3371.000000	65.188956 
3370.000000	65.202975 
3369.000000	65.215444 
3368.000000	65.222096 
3367.000000	65.219807 
3366.000000	65.207219 
3365.000000	65.184807 
3364.000000	65.154814 
3363.000000	65.120601 
3362.000000	65.086197 
3361.000000	65.055513 
3360.000000	65.031790 
3359.000000	65.017056 
3358.000000	65.011906 
3357.000000	65.015673 
3356.000000	65.026450 
3355.000000	65.042138 
3354.000000	65.060305 
3353.000000	65.079212 
3352.000000	65.098142 
3351.000000	65.117645 
3350.000000	65.138792 
3349.000000	65.162968 
3348.000000	65.191245 
3347.000000	65.223670 
3346.000000	65.259242 
3345.000000	65.295481 
3344.000000	65.329194 
3343.000000	65.356922 
3342.000000	65.376186 
3341.000000	65.385699 
3340.000000	65.385627 
3339.000000	65.377664 
3338.000000	65.364575 
3337.000000	65.349578 
3336.000000	65.335464 
3335.000000	65.324044 
3334.000000	65.316033 
3333.000000	65.310978 
3332.000000	65.307521 
3331.000000	65.304040 
3330.000000	65.299105 
3329.000000	65.291738 
3328.000000	65.281605 
3327.000000	65.268921 
3326.000000	65.254354 
3325.000000	65.238642 
3324.000000	65.222573 
3323.000000	65.206766 
3322.000000	65.191650 
3321.000000	65.177655 
3320.000000	65.165495 
3319.000000	65.155768 
3318.000000	65.149188 
3317.000000	65.146493 
3316.000000	65.148234 
3315.000000	65.154433 
3314.000000	65.164494 
3313.000000	65.177249 
3312.000000	65.190982 
3311.000000	65.203690 
3310.000000	65.213203 
3309.000000	65.217471 
3308.000000	65.214943 
3307.000000	65.204715 
3306.000000	65.186572 
3305.000000	65.161037 
3304.000000	65.129518 
3303.000000	65.094065 
3302.000000	65.057420 
3301.000000	65.022492 
3300.000000	64.992284 
3299.000000	64.969205 
3298.000000	64.954900 
3297.000000	64.949774 
3296.000000	64.952921 
3295.000000	64.962458 
3294.000000	64.975786 
3293.000000	64.990401 
3292.000000	65.004038 
3291.000000	65.015411 
3290.000000	65.024375 
3289.000000	65.031838 
3288.000000	65.039396 
3287.000000	65.049076 
3286.000000	65.062499 
3285.000000	65.080714 
3284.000000	65.103888 
3283.000000	65.131139 
3282.000000	65.160679 
3281.000000	65.190219 
3280.000000	65.217280 
3279.000000	65.239691 
3278.000000	65.255784 
3277.000000	65.264725 
3276.000000	65.266537 
3275.000000	65.261936 
3274.000000	65.252089 
3273.000000	65.238666 
3272.000000	65.223217 
3271.000000	65.207219 
3270.000000	65.191578 
3269.000000	65.176916 
3268.000000	65.163278 
3267.000000	65.150403 
3266.000000	65.137863 
3265.000000	65.125250 
3264.000000	65.112709 
3263.000000	65.101122 
3262.000000	65.091776 
3261.000000	65.086245 
3260.000000	65.085768 
3259.000000	65.091156 
3258.000000	65.102052 
3257.000000	65.116882 
3256.000000	65.133047 
3255.000000	65.147519 
3254.000000	65.157556 
3253.000000	65.161275 
3252.000000	65.158343 
3251.000000	65.149784 
3250.000000	65.137934 
3249.000000	65.125441 
3248.000000	65.114498 
3247.000000	65.106129 
3246.000000	65.099883 
3245.000000	65.094208 
3244.000000	65.086984 
3243.000000	65.076375 
3242.000000	65.061855 
3241.000000	65.043997 
3240.000000	65.024638 
3239.000000	65.005993 
3238.000000	64.990186 
3237.000000	64.978337 
3236.000000	64.970064 
3235.000000	64.963960 
3234.000000	64.957857 
3233.000000	64.950084 
3232.000000	64.939928 
3231.000000	64.928388 
3230.000000	64.917898 
3229.000000	64.911961 
3228.000000	64.914011 
3227.000000	64.926576 
3226.000000	64.950275 
3225.000000	64.983916 
3224.000000	65.024423 
3223.000000	65.067648 
3222.000000	65.109181 
3221.000000	65.144944 
3220.000000	65.172123 
3219.000000	65.189242 
3218.000000	65.196442 
3217.000000	65.195059 
3216.000000	65.187454 
3215.000000	65.176606 
3214.000000	65.165615 
3213.000000	65.157437 
3212.000000	65.154004 
3211.000000	65.156769 
3210.000000	65.165805 
3209.000000	65.180277 
3208.000000	65.198302 
3207.000000	65.217375 
3206.000000	65.234827 
3205.000000	65.248370 
3204.000000	65.256524 
3203.000000	65.259027 
3202.000000	65.256667 
3201.000000	65.251159 
3200.000000	65.244674 
3199.000000	65.239310 
3198.000000	65.236663 
3197.000000	65.237426 
3196.000000	65.241336 
3195.000000	65.247273 
3194.000000	65.253639 
3193.000000	65.258932 
3192.000000	65.261840 
3191.000000	65.261888 
3190.000000	65.259599 
3189.000000	65.256357 
3188.000000	65.253853 
3187.000000	65.253567 
3186.000000	65.256214 
3185.000000	65.261507 
3184.000000	65.268206 
3183.000000	65.274190 
3182.000000	65.277290 
3181.000000	65.276026 
3180.000000	65.270042 
3179.000000	65.260529 
3178.000000	65.249824 
3177.000000	65.240931 
3176.000000	65.236568 
3175.000000	65.238261 
3174.000000	65.245914 
3173.000000	65.257453 
3172.000000	65.269327 
3171.000000	65.277314 
3170.000000	65.277671 
3169.000000	65.268111 
3168.000000	65.248250 
3167.000000	65.219616 
3166.000000	65.185570 
3165.000000	65.150189 
3164.000000	65.117812 
3163.000000	65.091800 
3162.000000	65.074396 
3161.000000	65.066552 
3160.000000	65.067791 
3159.000000	65.076804 
3158.000000	65.091514 
3157.000000	65.109848 
3156.000000	65.129685 
3155.000000	65.149140 
3154.000000	65.166854 
3153.000000	65.181612 
3152.000000	65.192699 
3151.000000	65.199661 
3150.000000	65.202379 
3149.000000	65.201020 
3148.000000	65.195965 
3147.000000	65.187859 
3146.000000	65.177297 
3145.000000	65.165090 
3144.000000	65.151882 
3143.000000	65.138316 
3142.000000	65.125107 
3141.000000	65.113162 
3140.000000	65.103721 
3139.000000	65.098166 
3138.000000	65.097832 
3137.000000	65.103554 
3136.000000	65.115118 
3135.000000	65.131378 
3134.000000	65.149760 
3133.000000	65.167355 
3132.000000	65.180921 
3131.000000	65.188193 
3130.000000	65.188288 
3129.000000	65.182018 
3128.000000	65.171599 
3127.000000	65.159988 
3126.000000	65.150260 
3125.000000	65.144491 
3124.000000	65.143394 
3123.000000	65.146136 
3122.000000	65.150666 
3121.000000	65.154671 
3120.000000	65.156269 
3119.000000	65.154647 
3118.000000	65.150427 
3117.000000	65.145301 
3116.000000	65.141510 
3115.000000	65.140938 
3114.000000	65.144681 
3113.000000	65.152382 
3112.000000	65.162467 
3111.000000	65.172648 
3110.000000	65.180373 
3109.000000	65.183544 
3108.000000	65.181159 
3107.000000	65.173339 
3106.000000	65.161275 
3105.000000	65.146756 
3104.000000	65.131974 
3103.000000	65.118741 
3102.000000	65.108513 
3101.000000	65.102338 
3100.000000	65.100574 
3099.000000	65.103387 
3098.000000	65.110373 
3097.000000	65.120911 
3096.000000	65.134024 
3095.000000	65.148329 
3094.000000	65.162324 
3093.000000	65.174484 
3092.000000	65.183544 
3091.000000	65.188789 
3090.000000	65.190267 
3089.000000	65.188670 
3088.000000	65.185284 
3087.000000	65.181493 
3086.000000	65.178513 
3085.000000	65.177083 
3084.000000	65.177392 
3083.000000	65.178871 
3082.000000	65.180635 
3081.000000	65.181732 
3080.000000	65.181326 
3079.000000	65.179300 
3078.000000	65.176177 
3077.000000	65.172839 
3076.000000	65.170383 
3075.000000	65.169525 
3074.000000	65.170526 
3073.000000	65.173172 
3072.000000	65.176701 
3071.000000	65.180182 
3070.000000	65.182733 
3069.000000	65.183830 
3068.000000	65.183568 
3067.000000	65.182518 
3066.000000	65.181493 
3065.000000	65.180993 
3064.000000	65.181231 
3063.000000	65.181851 
3062.000000	65.182209 
3061.000000	65.181565 
3060.000000	65.179562 
3059.000000	65.176439 
3058.000000	65.172934 
3057.000000	65.170669 
3056.000000	65.171098 
3055.000000	65.175080 
3054.000000	65.182447 
3053.000000	65.191841 
3052.000000	65.201020 
3051.000000	65.207099 
3050.000000	65.207719 
3049.000000	65.201354 
3048.000000	65.188169 
3047.000000	65.169882 
3046.000000	65.149354 
3045.000000	65.129876 
3044.000000	65.114116 
3043.000000	65.103363 
3042.000000	65.097165 
3041.000000	65.093469 
3040.000000	65.089225 
3039.000000	65.081405 
3038.000000	65.068078 
3037.000000	65.049076 
3036.000000	65.026378 
3035.000000	65.003871 
3034.000000	64.986181 
3033.000000	64.977860 
3032.000000	64.982223 
3031.000000	65.000772 
3030.000000	65.032315 
3029.000000	65.073800 
3028.000000	65.120768 
3027.000000	65.168666 
3026.000000	65.213298 
3025.000000	65.251874 
3024.000000	65.283274 
3023.000000	65.307760 
3022.000000	65.326595 
3021.000000	65.341281 
3020.000000	65.353202 
3019.000000	65.362954 
3018.000000	65.370583 
3017.000000	65.375494 
3016.000000	65.376973 
3015.000000	65.374684 
3014.000000	65.369009 
3013.000000	65.360975 
3012.000000	65.352034 
3011.000000	65.343928 
3010.000000	65.338015 
3009.000000	65.334796 
3008.000000	65.333795 
3007.000000	65.333485 
3006.000000	65.331554 
3005.000000	65.325403 
3004.000000	65.312862 
3003.000000	65.292811 
3002.000000	65.265321 
3001.000000	65.232110 
3000.000000	65.196061 
2999.000000	65.160632 
2998.000000	65.129184 
2997.000000	65.104460 
2996.000000	65.087866 
2995.000000	65.079021 
2994.000000	65.076327 
2993.000000	65.077424 
2992.000000	65.079855 
2991.000000	65.081572 
2990.000000	65.081548 
2989.000000	65.079927 
2988.000000	65.077829 
2987.000000	65.076708 
2986.000000	65.077948 
2985.000000	65.082168 
2984.000000	65.089106 
2983.000000	65.097475 
2982.000000	65.105390 
2981.000000	65.110754 
2980.000000	65.112161 
2979.000000	65.108919 
2978.000000	65.101265 
2977.000000	65.090322 
2976.000000	65.077638 
2975.000000	65.064930 
2974.000000	65.053391 
2973.000000	65.043640 
2972.000000	65.035796 
2971.000000	65.029573 
2970.000000	65.024209 
2969.000000	65.019130 
2968.000000	65.014171 
2967.000000	65.009427 
2966.000000	65.005135 
2965.000000	65.001606 
2964.000000	64.999222 
2963.000000	64.998054 
2962.000000	64.997911 
2961.000000	64.998388 
2960.000000	64.999008 
2959.000000	64.999413 
2958.000000	64.999318 
2957.000000	64.998579 
2956.000000	64.997482 
2955.000000	64.996337 
2954.000000	64.995622 
2953.000000	64.995789 
2952.000000	64.997291 
2951.000000	65.000486 
2950.000000	65.005612 
2949.000000	65.012669 
2948.000000	65.021562 
2947.000000	65.031981 
2946.000000	65.043592 
2945.000000	65.055918 
2944.000000	65.068364 
2943.000000	65.080308 
2942.000000	65.090990 
2941.000000	65.099930 
2940.000000	65.106678 
2939.000000	65.111017 
2938.000000	65.112876 
2937.000000	65.112471 
2936.000000	65.110254 
2935.000000	65.106701 
2934.000000	65.102529 
2933.000000	65.098428 
2932.000000	65.095019 
2931.000000	65.092802 
2930.000000	65.092134 
2929.000000	65.093135 
2928.000000	65.095782 
2927.000000	65.099692 
2926.000000	65.104341 
2925.000000	65.108680 
2924.000000	65.111565 
2923.000000	65.111660 
2922.000000	65.107774 
2921.000000	65.099143 
2920.000000	65.085625 
2919.000000	65.068125 
2918.000000	65.048503 
2917.000000	65.029215 
2916.000000	65.013122 
2915.000000	65.002632 
2914.000000	64.999365 
2913.000000	65.003585 
2912.000000	65.014052 
2911.000000	65.028285 
2910.000000	65.043020 
2909.000000	65.055155 
2908.000000	65.062427 
2907.000000	65.063810 
2906.000000	65.059804 
2905.000000	65.051937 
2904.000000	65.042114 
2903.000000	65.032196 
2902.000000	65.023231 
2901.000000	65.015196 
2900.000000	65.007352 
2899.000000	64.998555 
2898.000000	64.988112 
2897.000000	64.975905 
2896.000000	64.962935 
2895.000000	64.950895 
2894.000000	64.942073 
2893.000000	64.938378 
2892.000000	64.940977 
2891.000000	64.949870 
2890.000000	64.963865 
2889.000000	64.980983 
2888.000000	64.998936 
2887.000000	65.015625 
2886.000000	65.029597 
2885.000000	65.040016 
2884.000000	65.046620 
2883.000000	65.049529 
2882.000000	65.049028 
2881.000000	65.045380 
2880.000000	65.038871 
2879.000000	65.029883 
2878.000000	65.019178 
2877.000000	65.008115 
2876.000000	64.998483 
2875.000000	64.992237 
2874.000000	64.991116 
2873.000000	64.996576 
2872.000000	65.009045 
2871.000000	65.028071 
2870.000000	65.052032 
2869.000000	65.078687 
2868.000000	65.105533 
2867.000000	65.130233 
2866.000000	65.151000 
2865.000000	65.166640 
2864.000000	65.176892 
2863.000000	65.181994 
2862.000000	65.182733 
2861.000000	65.179991 
2860.000000	65.174841 
2859.000000	65.168166 
2858.000000	65.160942 
2857.000000	65.153717 
2856.000000	65.146970 
2855.000000	65.140748 
2854.000000	65.134882 
2853.000000	65.128970 
2852.000000	65.122318 
2851.000000	65.114307 
2850.000000	65.104460 
2849.000000	65.092825 
2848.000000	65.080142 
2847.000000	65.067720 
2846.000000	65.057396 
2845.000000	65.051078 
2844.000000	65.050387 
2843.000000	65.056395 
2842.000000	65.069174 
2841.000000	65.087771 
2840.000000	65.110397 
2839.000000	65.134620 
2838.000000	65.158128 
2837.000000	65.178728 
2836.000000	65.195083 
2835.000000	65.206623 
2834.000000	65.213489 
2833.000000	65.216279 
2832.000000	65.215682 
2831.000000	65.212273 
2830.000000	65.206241 
2829.000000	65.197539 
2828.000000	65.185999 
2827.000000	65.171742 
2826.000000	65.155220 
2825.000000	65.137505 
2824.000000	65.120124 
2823.000000	65.104722 
2822.000000	65.092635 
2821.000000	65.084600 
2820.000000	65.080428 
2819.000000	65.079164 
2818.000000	65.079164 
2817.000000	65.078711 
2816.000000	65.076327 
2815.000000	65.071272 
2814.000000	65.063786 
2813.000000	65.054845 
2812.000000	65.046072 
2811.000000	65.039062 
2810.000000	65.035104 
2809.000000	65.034770 
2808.000000	65.037703 
2807.000000	65.042972 
2806.000000	65.049123 
2805.000000	65.054702 
2804.000000	65.058541 
2803.000000	65.059947 
2802.000000	65.059018 
2801.000000	65.056109 
2800.000000	65.051865 
2799.000000	65.046715 
2798.000000	65.041017 
2797.000000	65.034651 
2796.000000	65.027046 
2795.000000	65.017747 
2794.000000	65.006327 
2793.000000	64.992809 
2792.000000	64.977669 
2791.000000	64.961838 
2790.000000	64.946913 
2789.000000	64.934682 
2788.000000	64.927148 
2787.000000	64.925861 
2786.000000	64.931821 
2785.000000	64.945363 
2784.000000	64.965701 
2783.000000	64.991044 
2782.000000	65.018868 
2781.000000	65.046143 
2780.000000	65.069866 
2779.000000	65.087580 
2778.000000	65.097784 
2777.000000	65.100145 
2776.000000	65.095567 
2775.000000	65.086007 
2774.000000	65.074133 
2773.000000	65.062761 
2772.000000	65.054249 
2771.000000	65.050053 
2770.000000	65.050387 
2769.000000	65.054106 
2768.000000	65.059351 
2767.000000	65.063905 
2766.000000	65.065789 
2765.000000	65.063953 
2764.000000	65.058422 
2763.000000	65.050292 
2762.000000	65.041017 
2761.000000	65.032052 
2760.000000	65.024328 
2759.000000	65.017986 
2758.000000	65.012407 
2757.000000	65.006494 
2756.000000	64.999485 
2755.000000	64.990830 
2754.000000	64.981007 
2753.000000	64.971184 
2752.000000	64.962673 
2751.000000	64.956855 
2750.000000	64.954519 
2749.000000	64.955663 
2748.000000	64.959287 
2747.000000	64.964079 
2746.000000	64.968824 
2745.000000	64.973020 
2744.000000	64.977002 
2743.000000	64.982008 
2742.000000	64.989781 
2741.000000	65.001964 
2740.000000	65.019512 
2739.000000	65.042138 
2738.000000	65.068340 
2737.000000	65.095686 
2736.000000	65.121221 
2735.000000	65.142154 
2734.000000	65.156364 
2733.000000	65.163183 
2732.000000	65.163040 
2731.000000	65.157341 
2730.000000	65.148043 
2729.000000	65.137267 
2728.000000	65.126681 
2727.000000	65.117239 
2726.000000	65.109086 
2725.000000	65.102005 
2724.000000	65.095186 
2723.000000	65.088033 
2722.000000	65.079975 
2721.000000	65.070652 
2720.000000	65.060067 
2719.000000	65.048480 
2718.000000	65.036153 
2717.000000	65.023422 
2716.000000	65.010499 
2715.000000	64.997601 
2714.000000	64.984989 
2713.000000	64.973044 
2712.000000	64.962601 
2711.000000	64.955019 
2710.000000	64.951825 
2709.000000	64.954710 
2708.000000	64.965200 
2707.000000	64.984273 
2706.000000	65.011787 
2705.000000	65.046358 
2704.000000	65.085625 
2703.000000	65.126276 
2702.000000	65.164518 
2701.000000	65.196681 
2700.000000	65.219616 
2699.000000	65.231323 
2698.000000	65.231251 
2697.000000	65.220308 
2696.000000	65.200710 
2695.000000	65.175414 
2694.000000	65.147995 
2693.000000	65.121722 
2692.000000	65.099596 
2691.000000	65.083575 
2690.000000	65.074825 
2689.000000	65.073275 
2688.000000	65.078043 
2687.000000	65.087509 
2686.000000	65.099668 
2685.000000	65.112280 
2684.000000	65.123271 
2683.000000	65.130734 
2682.000000	65.133428 
2681.000000	65.130472 
2680.000000	65.121626 
2679.000000	65.107226 
2678.000000	65.088534 
2677.000000	65.067481 
2676.000000	65.046572 
2675.000000	65.028762 
2674.000000	65.016555 
2673.000000	65.012168 
2672.000000	65.016484 
2671.000000	65.029048 
2670.000000	65.047788 
2669.000000	65.069651 
2668.000000	65.091061 
2667.000000	65.108323 
2666.000000	65.118575 
2665.000000	65.120315 
2664.000000	65.113472 
2663.000000	65.099453 
2662.000000	65.080595 
2661.000000	65.059518 
2660.000000	65.038967 
2659.000000	65.021157 
2658.000000	65.007495 
2657.000000	64.998650 
2656.000000	64.994812 
2655.000000	64.995837 
2654.000000	65.001106 
2653.000000	65.010023 
2652.000000	65.021538 
2651.000000	65.034437 
2650.000000	65.047287 
2649.000000	65.058469 
2648.000000	65.066623 
2647.000000	65.070509 
2646.000000	65.069413 
2645.000000	65.063142 
2644.000000	65.052151 
2643.000000	65.037274 
2642.000000	65.019488 
2641.000000	64.999675 
2640.000000	64.978671 
2639.000000	64.956974 
2638.000000	64.935016 
2637.000000	64.913153 
2636.000000	64.891815 
2635.000000	64.871835 
2634.000000	64.854407 
2633.000000	64.841079 
2632.000000	64.833283 
2631.000000	64.832234 
2630.000000	64.838552 
2629.000000	64.852023 
2628.000000	64.871764 
2627.000000	64.896035 
2626.000000	64.922690 
2625.000000	64.949345 
2624.000000	64.973998 
2623.000000	64.994955 
2622.000000	65.011239 
2621.000000	65.022397 
2620.000000	65.028595 
2619.000000	65.030670 
2618.000000	65.029597 
2617.000000	65.026688 
2616.000000	65.023112 
2615.000000	65.019941 
2614.000000	65.017819 
2613.000000	65.017223 
2612.000000	65.018129 
2611.000000	65.020155 
2610.000000	65.022683 
2609.000000	65.025138 
2608.000000	65.027093 
2607.000000	65.028476 
2606.000000	65.029549 
2605.000000	65.030908 
2604.000000	65.033411 
2603.000000	65.037894 
2602.000000	65.044879 
2601.000000	65.054583 
2600.000000	65.067028 
2599.000000	65.081787 
2598.000000	65.098214 
2597.000000	65.115261 
2596.000000	65.131592 
2595.000000	65.145826 
2594.000000	65.156340 
2593.000000	65.161991 
2592.000000	65.162253 
2591.000000	65.157485 
2590.000000	65.149021 
2589.000000	65.138840 
2588.000000	65.129208 
2587.000000	65.122056 
2586.000000	65.118718 
2585.000000	65.119290 
2584.000000	65.122914 
2583.000000	65.127825 
2582.000000	65.132045 
2581.000000	65.133619 
2580.000000	65.131354 
2579.000000	65.124845 
2578.000000	65.114498 
2577.000000	65.101361 
2576.000000	65.086889 
2575.000000	65.072274 
2574.000000	65.058469 
2573.000000	65.046000 
2572.000000	65.035295 
2571.000000	65.026521 
2570.000000	65.019965 
2569.000000	65.015840 
2568.000000	65.014481 
2567.000000	65.015959 
2566.000000	65.020275 
2565.000000	65.027046 
2564.000000	65.035676 
2563.000000	65.045404 
2562.000000	65.055537 
2561.000000	65.065622 
2560.000000	65.075325 
2559.000000	65.084648 
2558.000000	65.093636 
2557.000000	65.102386 
2556.000000	65.110778 
2555.000000	65.118384 
2554.000000	65.124487 
2553.000000	65.128350 
2552.000000	65.129160 
2551.000000	65.126323 
2550.000000	65.119433 
2549.000000	65.108609 
2548.000000	65.094208 
2547.000000	65.077209 
2546.000000	65.059018 
2545.000000	65.041565 
2544.000000	65.026926 
2543.000000	65.017127 
2542.000000	65.013527 
2541.000000	65.016770 
2540.000000	65.026116 
2539.000000	65.040111 
2538.000000	65.056681 
2537.000000	65.073561 
2536.000000	65.088772 
2535.000000	65.100979 
2534.000000	65.109610 
2533.000000	65.114808 
2532.000000	65.117025 
2531.000000	65.116858 
2530.000000	65.114688 
2529.000000	65.110445 
2528.000000	65.103936 
2527.000000	65.094757 
2526.000000	65.082740 
2525.000000	65.068125 
2524.000000	65.051913 
2523.000000	65.035653 
2522.000000	65.021204 
2521.000000	65.010547 
2520.000000	65.005159 
2519.000000	65.005683 
2518.000000	65.011596 
2517.000000	65.021467 
2516.000000	65.032958 
2515.000000	65.043330 
2514.000000	65.049886 
2513.000000	65.050578 
2512.000000	65.044403 
2511.000000	65.031361 
2510.000000	65.012860 
2509.000000	64.991140 
2508.000000	64.969182 
2507.000000	64.950013 
2506.000000	64.936351 
2505.000000	64.929890 
2504.000000	64.931201 
2503.000000	64.939618 
2502.000000	64.953303 
2501.000000	64.969706 
2500.000000	64.986133 
2499.000000	65.000081 
2498.000000	65.009975 
2497.000000	65.015339 
2496.000000	65.016841 
2495.000000	65.016007 
2494.000000	65.014863 
2493.000000	65.015196 
2492.000000	65.018248 
2491.000000	65.024256 
2490.000000	65.032458 
2489.000000	65.041399 
2488.000000	65.049266 
2487.000000	65.054631 
2486.000000	65.056848 
2485.000000	65.056204 
2484.000000	65.053796 
2483.000000	65.051364 
2482.000000	65.050697 
2481.000000	65.053176 
2480.000000	65.059304 
2479.000000	65.068483 
2478.000000	65.079379 
2477.000000	65.090084 
2476.000000	65.098619 
2475.000000	65.103483 
2474.000000	65.104007 
2473.000000	65.100479 
2472.000000	65.094041 
2471.000000	65.086126 
2470.000000	65.078020 
2469.000000	65.070605 
2468.000000	65.063691 
2467.000000	65.056228 
2466.000000	65.046501 
2465.000000	65.032768 
2464.000000	65.013837 
2463.000000	64.989352 
2462.000000	64.960455 
2461.000000	64.929366 
2460.000000	64.899611 
2459.000000	64.874577 
2458.000000	64.857554 
2457.000000	64.850783 
2456.000000	64.855265 
2455.000000	64.870238 
2454.000000	64.893794 
2453.000000	64.923000 
2452.000000	64.954614 
2451.000000	64.985585 
2450.000000	65.013432 
2449.000000	65.036129 
2448.000000	65.052771 
2447.000000	65.063095 
2446.000000	65.067362 
2445.000000	65.066194 
2444.000000	65.060472 
2443.000000	65.051388 
2442.000000	65.039968 
2441.000000	65.026974 
2440.000000	65.013241 
2439.000000	64.999246 
2438.000000	64.985179 
2437.000000	64.970803 
2436.000000	64.955782 
2435.000000	64.939618 
2434.000000	64.921641 
2433.000000	64.901328 
2432.000000	64.878225 
2431.000000	64.852595 
2430.000000	64.825224 
2429.000000	64.797782 
2428.000000	64.772295 
2427.000000	64.751696 
2426.000000	64.738750 
2425.000000	64.736199 
2424.000000	64.745593 
2423.000000	64.767646 
2422.000000	64.801478 
2421.000000	64.844799 
2420.000000	64.893960 
2419.000000	64.944720 
2418.000000	64.992833 
2417.000000	65.034627 
2416.000000	65.067481 
2415.000000	65.090250 
2414.000000	65.103054 
2413.000000	65.107345 
2412.000000	65.105342 
2411.000000	65.099525 
2410.000000	65.092110 
2409.000000	65.085124 
2408.000000	65.079569 
2407.000000	65.075707 
2406.000000	65.072870 
2405.000000	65.070080 
2404.000000	65.066146 
2403.000000	65.060138 
2402.000000	65.051531 
2401.000000	65.040564 
2400.000000	65.028023 
2399.000000	65.015006 
2398.000000	65.002775 
2397.000000	64.992475 
2396.000000	64.984917 
2395.000000	64.980244 
2394.000000	64.978075 
2393.000000	64.977598 
2392.000000	64.977908 
2391.000000	64.978241 
2390.000000	64.978003 
2389.000000	64.976906 
2388.000000	64.975261 
2387.000000	64.973711 
2386.000000	64.973044 
2385.000000	64.973759 
2384.000000	64.976096 
2383.000000	64.980053 
2382.000000	64.985060 
2381.000000	64.990258 
2380.000000	64.994716 
2379.000000	64.997577 
2378.000000	64.998340 
2377.000000	64.997100 
2376.000000	64.994382 
2375.000000	64.991188 
2374.000000	64.988827 
2373.000000	64.988613 
2372.000000	64.991569 
2371.000000	64.998412 
2370.000000	65.009140 
2369.000000	65.023159 
2368.000000	65.039205 
2367.000000	65.055584 
2366.000000	65.070462 
2365.000000	65.082025 
2364.000000	65.088748 
2363.000000	65.089654 
2362.000000	65.084433 
2361.000000	65.073537 
2360.000000	65.058207 
2359.000000	65.040230 
2358.000000	65.021729 
2357.000000	65.004825 
2356.000000	64.991331 
2355.000000	64.982461 
2354.000000	64.978480 
2353.000000	64.978981 
2352.000000	64.982700 
2351.000000	64.987778 
2350.000000	64.992165 
2349.000000	64.993786 
2348.000000	64.991164 
2347.000000	64.983510 
2346.000000	64.971256 
2345.000000	64.955735 
2344.000000	64.939332 
2343.000000	64.924740 
2342.000000	64.914727 
2341.000000	64.911222 
2340.000000	64.915180 
2339.000000	64.926052 
2338.000000	64.942336 
2337.000000	64.961791 
2336.000000	64.981937 
2335.000000	65.000557 
2334.000000	65.016102 
2333.000000	65.027832 
2332.000000	65.035676 
2331.000000	65.039920 
2330.000000	65.040659 
2329.000000	65.037941 
2328.000000	65.031504 
2327.000000	65.021109 
2326.000000	65.006732 
2325.000000	64.988756 
2324.000000	64.968466 
2323.000000	64.947915 
2322.000000	64.929485 
2321.000000	64.915585 
2320.000000	64.908194 
2319.000000	64.908456 
2318.000000	64.916634 
2317.000000	64.931893 
2316.000000	64.952468 
2315.000000	64.975905 
2314.000000	64.999365 
2313.000000	65.019845 
2312.000000	65.034699 
2311.000000	65.041851 
2310.000000	65.040087 
2309.000000	65.029335 
2308.000000	65.010738 
2307.000000	64.986562 
2306.000000	64.959883 
2305.000000	64.934158 
2304.000000	64.912509 
2303.000000	64.897656 
2302.000000	64.891028 
2301.000000	64.892888 
2300.000000	64.902210 
2299.000000	64.917182 
2298.000000	64.935636 
2297.000000	64.955329 
2296.000000	64.974498 
2295.000000	64.991664 
2294.000000	65.005946 
2293.000000	65.016698 
2292.000000	65.023589 
2291.000000	65.026211 
2290.000000	65.024399 
2289.000000	65.018200 
2288.000000	65.007996 
2287.000000	64.994740 
2286.000000	64.979696 
2285.000000	64.964675 
2284.000000	64.951395 
2283.000000	64.941477 
2282.000000	64.935898 
2281.000000	64.934897 
2280.000000	64.937973 
2279.000000	64.943957 
2278.000000	64.951419 
2277.000000	64.958977 
2276.000000	64.965438 
2275.000000	64.970374 
2274.000000	64.973711 
2273.000000	64.975976 
2272.000000	64.977860 
2271.000000	64.979887 
2270.000000	64.982461 
2269.000000	64.985394 
2268.000000	64.988207 
2267.000000	64.989924 
2266.000000	64.989542 
2265.000000	64.986181 
2264.000000	64.979410 
2263.000000	64.969491 
2262.000000	64.957356 
2261.000000	64.944314 
2260.000000	64.932084 
2259.000000	64.922356 
2258.000000	64.916443 
2257.000000	64.915108 
2256.000000	64.918279 
2255.000000	64.925193 
2254.000000	64.934706 
2253.000000	64.945459 
2252.000000	64.956116 
2251.000000	64.965915 
2250.000000	64.974474 
2249.000000	64.981889 
2248.000000	64.988517 
2247.000000	64.994740 
2246.000000	65.000724 
2245.000000	65.006422 
2244.000000	65.011262 
2243.000000	65.014529 
2242.000000	65.015149 
2241.000000	65.012240 
2240.000000	65.005159 
2239.000000	64.993834 
2238.000000	64.978837 
2237.000000	64.961409 
2236.000000	64.943313 
2235.000000	64.926671 
2234.000000	64.913582 
2233.000000	64.905786 
2232.000000	64.904379 
2231.000000	64.909529 
2230.000000	64.920473 
2229.000000	64.935636 
2228.000000	64.953041 
2227.000000	64.970588 
2226.000000	64.986538 
2225.000000	64.999890 
2224.000000	65.010237 
2223.000000	65.017819 
2222.000000	65.023136 
2221.000000	65.026473 
2220.000000	65.027785 
2219.000000	65.026617 
2218.000000	65.022611 
2217.000000	65.015435 
2216.000000	65.005445 
2215.000000	64.993786 
2214.000000	64.982271 
2213.000000	64.973306 
2212.000000	64.969015 
2211.000000	64.970898 
2210.000000	64.979195 
2209.000000	64.992761 
2208.000000	65.009307 
2207.000000	65.025877 
2206.000000	65.039539 
2205.000000	65.048098 
2204.000000	65.050745 
2203.000000	65.047812 
2202.000000	65.040564 
2201.000000	65.030980 
2200.000000	65.021014 
2199.000000	65.012264 
2198.000000	65.005636 
2197.000000	65.001368 
2196.000000	64.998912 
2195.000000	64.997172 
2194.000000	64.994645 
2193.000000	64.989590 
2192.000000	64.980673 
2191.000000	64.967060 
2190.000000	64.948868 
2189.000000	64.927101 
2188.000000	64.903759 
2187.000000	64.881467 
2186.000000	64.863204 
2185.000000	64.851498 
2184.000000	64.848160 
2183.000000	64.853644 
2182.000000	64.867043 
2181.000000	64.886164 
2180.000000	64.908051 
2179.000000	64.929676 
2178.000000	64.948368 
2177.000000	64.962196 
2176.000000	64.970445 
2175.000000	64.973235 
2174.000000	64.971423 
2173.000000	64.966201 
2172.000000	64.959192 
2171.000000	64.952087 
2170.000000	64.946579 
2169.000000	64.943933 
2168.000000	64.944672 
2167.000000	64.948439 
2166.000000	64.954018 
2165.000000	64.959430 
2164.000000	64.962410 
2163.000000	64.960837 
2162.000000	64.953541 
2161.000000	64.940452 
2160.000000	64.922547 
2159.000000	64.901781 
2158.000000	64.880728 
2157.000000	64.861941 
2156.000000	64.847493 
2155.000000	64.838480 
2154.000000	64.835190 
2153.000000	64.836859 
2152.000000	64.842104 
2151.000000	64.849305 
2150.000000	64.856958 
2149.000000	64.863657 
2148.000000	64.868474 
2147.000000	64.870667 
2146.000000	64.869642 
2145.000000	64.865207 
2144.000000	64.857530 
2143.000000	64.847159 
2142.000000	64.835000 
2141.000000	64.822173 
2140.000000	64.810180 
2139.000000	64.800500 
2138.000000	64.794492 
2137.000000	64.793562 
2136.000000	64.798855 
2135.000000	64.810943 
2134.000000	64.829730 
2133.000000	64.854383 
2132.000000	64.883351 
2131.000000	64.914155 
2130.000000	64.944124 
2129.000000	64.970612 
2128.000000	64.991664 
2127.000000	65.006279 
2126.000000	65.014576 
2125.000000	65.017700 
2124.000000	65.017580 
2123.000000	65.016412 
2122.000000	65.015864 
2121.000000	65.016889 
2120.000000	65.019512 
2119.000000	65.022897 
2118.000000	65.025901 
2117.000000	65.027427 
2116.000000	65.026950 
2115.000000	65.024447 
2114.000000	65.020537 
2113.000000	65.015864 
2112.000000	65.010786 
2111.000000	65.005064 
2110.000000	64.997887 
2109.000000	64.987874 
2108.000000	64.973783 
2107.000000	64.954781 
2106.000000	64.931201 
2105.000000	64.904403 
2104.000000	64.876723 
2103.000000	64.851260 
2102.000000	64.831137 
2101.000000	64.819002 
2100.000000	64.816045 
2099.000000	64.822220 
2098.000000	64.836049 
2097.000000	64.855074 
2096.000000	64.876341 
2095.000000	64.897155 
2094.000000	64.915537 
2093.000000	64.930415 
2092.000000	64.941668 
2091.000000	64.950013 
2090.000000	64.956355 
2089.000000	64.961695 
2088.000000	64.966559 
2087.000000	64.971041 
2086.000000	64.974594 
2085.000000	64.976572 
2084.000000	64.976167 
2083.000000	64.972805 
2082.000000	64.966130 
2081.000000	64.956188 
2080.000000	64.943218 
2079.000000	64.927458 
2078.000000	64.909124 
2077.000000	64.888501 
2076.000000	64.866161 
2075.000000	64.842963 
2074.000000	64.820599 
2073.000000	64.801096 
2072.000000	64.786791 
2071.000000	64.779901 
2070.000000	64.781880 
2069.000000	64.793014 
2068.000000	64.812231 
2067.000000	64.836978 
2066.000000	64.863705 
2065.000000	64.888381 
2064.000000	64.907240 
2063.000000	64.917540 
2062.000000	64.917969 
2061.000000	64.908885 
2060.000000	64.892172 
2059.000000	64.870953 
2058.000000	64.848852 
2057.000000	64.829611 
2056.000000	64.816403 
2055.000000	64.811372 
2054.000000	64.815568 
2053.000000	64.828562 
2052.000000	64.848732 
2051.000000	64.873433 
2050.000000	64.899516 
2049.000000	64.923739 
2048.000000	64.943170 
2047.000000	64.955902 
2046.000000	64.961147 
2045.000000	64.959263 
2044.000000	64.951419 
2043.000000	64.939427 
2042.000000	64.925360 
2041.000000	64.910936 
2040.000000	64.897322 
2039.000000	64.885163 
2038.000000	64.874625 
2037.000000	64.865660 
2036.000000	64.858365 
2035.000000	64.852929 
2034.000000	64.849805 
2033.000000	64.849424 
2032.000000	64.852285 
2031.000000	64.858365 
2030.000000	64.867210 
2029.000000	64.877986 
2028.000000	64.889717 
2027.000000	64.901471 
2026.000000	64.912676 
2025.000000	64.923024 
2024.000000	64.932727 
2023.000000	64.942121 
2022.000000	64.951658 
2021.000000	64.961481 
2020.000000	64.971351 
2019.000000	64.980721 
2018.000000	64.988493 
2017.000000	64.993572 
2016.000000	64.994859 
2015.000000	64.991617 
2014.000000	64.983415 
2013.000000	64.970326 
2012.000000	64.952921 
2011.000000	64.932250 
2010.000000	64.909672 
2009.000000	64.886903 
2008.000000	64.865899 
2007.000000	64.848542 
2006.000000	64.836335 
2005.000000	64.830112 
2004.000000	64.829874 
2003.000000	64.834618 
2002.000000	64.842391 
2001.000000	64.850592 
2000.000000	64.856553 
1999.000000	64.857983 
1998.000000	64.853525 
1997.000000	64.843082 
1996.000000	64.827775 
1995.000000	64.809775 
1994.000000	64.791750 
1993.000000	64.776444 
1992.000000	64.765787 
1991.000000	64.760780 
1990.000000	64.761495 
1989.000000	64.767193 
1988.000000	64.776492 
1987.000000	64.787817 
1986.000000	64.799833 
1985.000000	64.811468 
1984.000000	64.822101 
1983.000000	64.831423 
1982.000000	64.839243 
1981.000000	64.845442 
1980.000000	64.849948 
1979.000000	64.852833 
1978.000000	64.854240 
1977.000000	64.854645 
1976.000000	64.854836 
1975.000000	64.855766 
1974.000000	64.858555 
1973.000000	64.864110 
1972.000000	64.873051 
1971.000000	64.885354 
1970.000000	64.900350 
1969.000000	64.916706 
1968.000000	64.932632 
1967.000000	64.946126 
1966.000000	64.955353 
1965.000000	64.959049 
1964.000000	64.956665 
1963.000000	64.948439 
1962.000000	64.935469 
1961.000000	64.919710 
1960.000000	64.903402 
1959.000000	64.888715 
1958.000000	64.877343 
1957.000000	64.870238 
1956.000000	64.867115 
1955.000000	64.866709 
1954.000000	64.866924 
1953.000000	64.865589 
1952.000000	64.861106 
1951.000000	64.853000 
1950.000000	64.842033 
1949.000000	64.830207 
1948.000000	64.819979 
1947.000000	64.813756 
1946.000000	64.812946 
1945.000000	64.817881 
1944.000000	64.827275 
1943.000000	64.839005 
1942.000000	64.850616 
1941.000000	64.859986 
1940.000000	64.865922 
1939.000000	64.868378 
1938.000000	64.868307 
1937.000000	64.867281 
1936.000000	64.866805 
1935.000000	64.867711 
1934.000000	64.869976 
1933.000000	64.872550 
1932.000000	64.873862 
1931.000000	64.872360 
1930.000000	64.866948 
1929.000000	64.857268 
1928.000000	64.843869 
1927.000000	64.828014 
1926.000000	64.811396 
1925.000000	64.795708 
1924.000000	64.782524 
1923.000000	64.772891 
1922.000000	64.767575 
1921.000000	64.766883 
1920.000000	64.770936 
1919.000000	64.779567 
1918.000000	64.792442 
1917.000000	64.808797 
1916.000000	64.827585 
1915.000000	64.847254 
1914.000000	64.865875 
1913.000000	64.881300 
1912.000000	64.891743 
1911.000000	64.895749 
1910.000000	64.893007 
1909.000000	64.884281 
1908.000000	64.871263 
1907.000000	64.856410 
1906.000000	64.842104 
1905.000000	64.830231 
1904.000000	64.821767 
1903.000000	64.816904 
1902.000000	64.814925 
1901.000000	64.814877 
1900.000000	64.815902 
1899.000000	64.817595 
1898.000000	64.819884 
1897.000000	64.823079 
1896.000000	64.827442 
1895.000000	64.832925 
1894.000000	64.838814 
1893.000000	64.844131 
1892.000000	64.847588 
1891.000000	64.848160 
1890.000000	64.845275 
1889.000000	64.839076 
1888.000000	64.830565 
1887.000000	64.821171 
1886.000000	64.812517 
1885.000000	64.806008 
1884.000000	64.802360 
1883.000000	64.801764 
1882.000000	64.803957 
1881.000000	64.808464 
1880.000000	64.814829 
1879.000000	64.822554 
1878.000000	64.831352 
1877.000000	64.840912 
1876.000000	64.850807 
1875.000000	64.860510 
1874.000000	64.869379 
1873.000000	64.876675 
1872.000000	64.881777 
1871.000000	64.884281 
1870.000000	64.883947 
1869.000000	64.880943 
1868.000000	64.875602 
1867.000000	64.868593 
1866.000000	64.860677 
1865.000000	64.852881 
1864.000000	64.846014 
1863.000000	64.840817 
1862.000000	64.837551 
1861.000000	64.836311 
1860.000000	64.836859 
1859.000000	64.838504 
1858.000000	64.840412 
1857.000000	64.841723 
1856.000000	64.841818 
1855.000000	64.840698 
1854.000000	64.838719 
1853.000000	64.836812 
1852.000000	64.835858 
1851.000000	64.836382 
1850.000000	64.838337 
1849.000000	64.840984 
1848.000000	64.843082 
1847.000000	64.843034 
1846.000000	64.839529 
1845.000000	64.831852 
1844.000000	64.820194 
1843.000000	64.805579 
1842.000000	64.789605 
1841.000000	64.774250 
1840.000000	64.761471 
1839.000000	64.752697 
1838.000000	64.748740 
1837.000000	64.749383 
1836.000000	64.753890 
1835.000000	64.761042 
1834.000000	64.769387 
1833.000000	64.777541 
1832.000000	64.784288 
1831.000000	64.788913 
1830.000000	64.791131 
1829.000000	64.791202 
1828.000000	64.789772 
1827.000000	64.787936 
1826.000000	64.786958 
1825.000000	64.788246 
1824.000000	64.793038 
1823.000000	64.802265 
1822.000000	64.816021 
1821.000000	64.833784 
1820.000000	64.854288 
1819.000000	64.875602 
1818.000000	64.895462 
1817.000000	64.911413 
1816.000000	64.921331 
1815.000000	64.923739 
1814.000000	64.917850 
1813.000000	64.904141 
1812.000000	64.883804 
1811.000000	64.858889 
1810.000000	64.831709 
1809.000000	64.804673 
1808.000000	64.779949 
1807.000000	64.759206 
1806.000000	64.743638 
1805.000000	64.733958 
1804.000000	64.730405 
1803.000000	64.732694 
1802.000000	64.739966 
1801.000000	64.751005 
1800.000000	64.763855 
1799.000000	64.776206 
1798.000000	64.785599 
1797.000000	64.790010 
1796.000000	64.788222 
1795.000000	64.780259 
1794.000000	64.767646 
1793.000000	64.753007 
1792.000000	64.739847 
1791.000000	64.731454 
1790.000000	64.730310 
1789.000000	64.737200 
1788.000000	64.750933 
1787.000000	64.768671 
1786.000000	64.786624 
1785.000000	64.800858 
1784.000000	64.808440 
1783.000000	64.807796 
1782.000000	64.799356 
1781.000000	64.785003 
1780.000000	64.767646 
1779.000000	64.750432 
1778.000000	64.735817 
1777.000000	64.725041 
1776.000000	64.718103 
1775.000000	64.713907 
1774.000000	64.710760 
1773.000000	64.707064 
1772.000000	64.701962 
1771.000000	64.695453 
1770.000000	64.688515 
1769.000000	64.682745 
1768.000000	64.679765 
1767.000000	64.680647 
1766.000000	64.685606 
1765.000000	64.693808 
1764.000000	64.703559 
1763.000000	64.712715 
1762.000000	64.718937 
1761.000000	64.720606 
1760.000000	64.716982 
1759.000000	64.708328 
1758.000000	64.695715 
1757.000000	64.680886 
1756.000000	64.665555 
1755.000000	64.651226 
1754.000000	64.638352 
1753.000000	64.626789 
1752.000000	64.615511 
1751.000000	64.603137 
1750.000000	64.588141 
1749.000000	64.569592 
1748.000000	64.547371 
1747.000000	64.521932 
1746.000000	64.494872 
1745.000000	64.468312 
1744.000000	64.444804 
1743.000000	64.426732 
1742.000000	64.415955 
1741.000000	64.413571 
1740.000000	64.419674 
1739.000000	64.433312 
1738.000000	64.452600 
1737.000000	64.475131 
1736.000000	64.498281 
1735.000000	64.519667 
1734.000000	64.537572 
1733.000000	64.551115 
1732.000000	64.560079 
1731.000000	64.564967 
1730.000000	64.566755 
1729.000000	64.566588 
1728.000000	64.565420 
1727.000000	64.563894 
1726.000000	64.562487 
1725.000000	64.561462 
1724.000000	64.561319 
1723.000000	64.562487 
1722.000000	64.565658 
1721.000000	64.571571 
1720.000000	64.580678 
1719.000000	64.593029 
1718.000000	64.608216 
1717.000000	64.625120 
1716.000000	64.642119 
1715.000000	64.657258 
1714.000000	64.668989 
1713.000000	64.676117 
1712.000000	64.678359 
1711.000000	64.676284 
1710.000000	64.671564 
1709.000000	64.666628 
1708.000000	64.664578 
1707.000000	64.668369 
1706.000000	64.680600 
1705.000000	64.703202 
1704.000000	64.736652 
1703.000000	64.779925 
1702.000000	64.829921 
1701.000000	64.882206 
1700.000000	64.931225 
1699.000000	64.970993 
1698.000000	64.996647 
1697.000000	65.005254 
1696.000000	64.996743 
1695.000000	64.974093 
1694.000000	64.942836 
1693.000000	64.909934 
1692.000000	64.882230 
1691.000000	64.865279 
1690.000000	64.861679 
1689.000000	64.870977 
1688.000000	64.889502 
1687.000000	64.911699 
1686.000000	64.931297 
1685.000000	64.942908 
1684.000000	64.943027 
1683.000000	64.930677 
1682.000000	64.907670 
1681.000000	64.877724 
1680.000000	64.845347 
1679.000000	64.814424 
1678.000000	64.787793 
1677.000000	64.766502 
1676.000000	64.750123 
1675.000000	64.736962 
1674.000000	64.725184 
1673.000000	64.713430 
1672.000000	64.701271 
1671.000000	64.689469 
1670.000000	64.679431 
1669.000000	64.673018 
1668.000000	64.671373 
1667.000000	64.674925 
1666.000000	64.683151 
1665.000000	64.694762 
1664.000000	64.707946 
1663.000000	64.721202 
1662.000000	64.733529 
1661.000000	64.744710 
1660.000000	64.755129 
1659.000000	64.764952 
1658.000000	64.773821 
1657.000000	64.780592 
1656.000000	64.783358 
1655.000000	64.779973 
1654.000000	64.768481 
1653.000000	64.748144 
1652.000000	64.719772 
1651.000000	64.685797 
1650.000000	64.650011 
1649.000000	64.616775 
1648.000000	64.590311 
1647.000000	64.573407 
1646.000000	64.567208 
1645.000000	64.570999 
1644.000000	64.582586 
1643.000000	64.598822 
1642.000000	64.616346 
1641.000000	64.632225 
1640.000000	64.644336 
1639.000000	64.651465 
1638.000000	64.653396 
1637.000000	64.650440 
1636.000000	64.643478 
1635.000000	64.633798 
1634.000000	64.622831 
1633.000000	64.612007 
1632.000000	64.602613 
1631.000000	64.595580 
1630.000000	64.591264 
1629.000000	64.589715 
1628.000000	64.590358 
1627.000000	64.592742 
1626.000000	64.596414 
1625.000000	64.601540 
1624.000000	64.608526 
1623.000000	64.618086 
1622.000000	64.630961 
1621.000000	64.647531 
1620.000000	64.667153 
1619.000000	64.688229 
1618.000000	64.708471 
1617.000000	64.725136 
1616.000000	64.735603 
1615.000000	64.738059 
1614.000000	64.732265 
1613.000000	64.719176 
1612.000000	64.700818 
1611.000000	64.679741 
1610.000000	64.658617 
1609.000000	64.639449 
1608.000000	64.623641 
1607.000000	64.611768 
1606.000000	64.603757 
1605.000000	64.599323 
1604.000000	64.598178 
1603.000000	64.600181 
1602.000000	64.605402 
1601.000000	64.614200 
1600.000000	64.626884 
1599.000000	64.643406 
1598.000000	64.663243 
1597.000000	64.685440 
1596.000000	64.708542 
1595.000000	64.730858 
1594.000000	64.750528 
1593.000000	64.765954 
1592.000000	64.776062 
1591.000000	64.780545 
1590.000000	64.779973 
1589.000000	64.775705 
1588.000000	64.769816 
1587.000000	64.764761 
1586.000000	64.763116 
1585.000000	64.767241 
1584.000000	64.778470 
1583.000000	64.796996 
1582.000000	64.821362 
1581.000000	64.848732 
1580.000000	64.875197 
1579.000000	64.896464 
1578.000000	64.908814 
1577.000000	64.909577 
1576.000000	64.897990 
1575.000000	64.875078 
1574.000000	64.843201 
1573.000000	64.805531 
1572.000000	64.765405 
1571.000000	64.726138 
1570.000000	64.690780 
1569.000000	64.662241 
1568.000000	64.643168 
1567.000000	64.635777 
1566.000000	64.641809 
1565.000000	64.661741 
1564.000000	64.694523 
1563.000000	64.737057 
1562.000000	64.784288 
1561.000000	64.830017 
1560.000000	64.867448 
1559.000000	64.890575 
1558.000000	64.895248 
1557.000000	64.880156 
1556.000000	64.847230 
1555.000000	64.800930 
1554.000000	64.747500 
1553.000000	64.693808 
1552.000000	64.646005 
1551.000000	64.608788 
1550.000000	64.584708 
1549.000000	64.574146 
1548.000000	64.575529 
1547.000000	64.585947 
1546.000000	64.601802 
1545.000000	64.619278 
1544.000000	64.635276 
1543.000000	64.647436 
1542.000000	64.654612 
1541.000000	64.656829 
1540.000000	64.654850 
1539.000000	64.649844 
1538.000000	64.642977 
1537.000000	64.635252 
1536.000000	64.627432 
1535.000000	64.620137 
1534.000000	64.613890 
1533.000000	64.609217 
1532.000000	64.606904 
1531.000000	64.607882 
1530.000000	64.613032 
1529.000000	64.622807 
1528.000000	64.636993 
1527.000000	64.654564 
1526.000000	64.673590 
1525.000000	64.691495 
1524.000000	64.705634 
1523.000000	64.713907 
1522.000000	64.715170 
1521.000000	64.709734 
1520.000000	64.699006 
1519.000000	64.685463 
1518.000000	64.672088 
1517.000000	64.661884 
1516.000000	64.657354 
1515.000000	64.659833 
1514.000000	64.669561 
1513.000000	64.685249 
1512.000000	64.704656 
1511.000000	64.724564 
1510.000000	64.741563 
1509.000000	64.752483 
1508.000000	64.754867 
1507.000000	64.747714 
1506.000000	64.731574 
1505.000000	64.708828 
1504.000000	64.683103 
1503.000000	64.658617 
1502.000000	64.639472 
1501.000000	64.628243 
1500.000000	64.625668 
1499.000000	64.630198 
1498.000000	64.638447 
1497.000000	64.646244 
1496.000000	64.649653 
1495.000000	64.646077 
1494.000000	64.634895 
1493.000000	64.617538 
1492.000000	64.597105 
1491.000000	64.576983 
1490.000000	64.560413 
1489.000000	64.549374 
1488.000000	64.544630 
1487.000000	64.545536 
1486.000000	64.550709 
1485.000000	64.558744 
1484.000000	64.568591 
1483.000000	64.579987 
1482.000000	64.593362 
1481.000000	64.609336 
1480.000000	64.628386 
1479.000000	64.650034 
1478.000000	64.673089 
1477.000000	64.695572 
1476.000000	64.715242 
1475.000000	64.730119 
1474.000000	64.738845 
1473.000000	64.740967 
1472.000000	64.736986 
1471.000000	64.728355 
1470.000000	64.716744 
1469.000000	64.703536 
1468.000000	64.689898 
1467.000000	64.676356 
1466.000000	64.662981 
1465.000000	64.649415 
1464.000000	64.635252 
1463.000000	64.620065 
1462.000000	64.603638 
1461.000000	64.586043 
1460.000000	64.567470 
1459.000000	64.548611 
1458.000000	64.530181 
1457.000000	64.513158 
1456.000000	64.498567 
1455.000000	64.487338 
1454.000000	64.480137 
1453.000000	64.477276 
1452.000000	64.478421 
1451.000000	64.482975 
1450.000000	64.489865 
1449.000000	64.498138 
1448.000000	64.506816 
1447.000000	64.515376 
1446.000000	64.523744 
1445.000000	64.531922 
1444.000000	64.539909 
1443.000000	64.547348 
1442.000000	64.553427 
1441.000000	64.556860 
1440.000000	64.556288 
1439.000000	64.550685 
1438.000000	64.539837 
1437.000000	64.524745 
1436.000000	64.507246 
1435.000000	64.489626 
1434.000000	64.474010 
1433.000000	64.461898 
1432.000000	64.453792 
1431.000000	64.449000 
1430.000000	64.446330 
1429.000000	64.444494 
1428.000000	64.442586 
1427.000000	64.440488 
1426.000000	64.438939 
1425.000000	64.439201 
1424.000000	64.442396 
1423.000000	64.449048 
1422.000000	64.458441 
1421.000000	64.468717 
1420.000000	64.477133 
1419.000000	64.480686 
1418.000000	64.477038 
1417.000000	64.465093 
1416.000000	64.445400 
1415.000000	64.420056 
1414.000000	64.392232 
1413.000000	64.365696 
1412.000000	64.343881 
1411.000000	64.329457 
1410.000000	64.323782 
1409.000000	64.326882 
1408.000000	64.337396 
1407.000000	64.353251 
1406.000000	64.371848 
1405.000000	64.390611 
1404.000000	64.407324 
1403.000000	64.420485 
1402.000000	64.429187 
1401.000000	64.433169 
1400.000000	64.432454 
1399.000000	64.427399 
1398.000000	64.418768 
1397.000000	64.407444 
1396.000000	64.394593 
1395.000000	64.381599 
1394.000000	64.370155 
1393.000000	64.361786 
1392.000000	64.357781 
1391.000000	64.358806 
1390.000000	64.364790 
1389.000000	64.374756 
1388.000000	64.387226 
1387.000000	64.400315 
1386.000000	64.412117 
1385.000000	64.421129 
1384.000000	64.426422 
1383.000000	64.427781 
1382.000000	64.425611 
1381.000000	64.420652 
1380.000000	64.413642 
1379.000000	64.405131 
1378.000000	64.395546 
1377.000000	64.385128 
1376.000000	64.374208 
1375.000000	64.363288 
1374.000000	64.353609 
1373.000000	64.346957 
1372.000000	64.345574 
1371.000000	64.351487 
1370.000000	64.365863 
1369.000000	64.388823 
1368.000000	64.418864 
1367.000000	64.452981 
1366.000000	64.487099 
1365.000000	64.516901 
1364.000000	64.538764 
1363.000000	64.550375 
1362.000000	64.551305 
1361.000000	64.543032 
1360.000000	64.528608 
1359.000000	64.511847 
1358.000000	64.496326 
1357.000000	64.484691 
1356.000000	64.478254 
1355.000000	64.476656 
1354.000000	64.478468 
1353.000000	64.481592 
1352.000000	64.484000 
1351.000000	64.484095 
1350.000000	64.481043 
1349.000000	64.474844 
1348.000000	64.465856 
1347.000000	64.454817 
1346.000000	64.442443 
1345.000000	64.429354 
1344.000000	64.416050 
1343.000000	64.402818 
1342.000000	64.390015 
1341.000000	64.377999 
1340.000000	64.367318 
1339.000000	64.358425 
1338.000000	64.351844 
1337.000000	64.347672 
1336.000000	64.345765 
1335.000000	64.345836 
1334.000000	64.347648 
1333.000000	64.350795 
1332.000000	64.355182 
1331.000000	64.360809 
1330.000000	64.368009 
1329.000000	64.377069 
1328.000000	64.388227 
1327.000000	64.401531 
1326.000000	64.416408 
1325.000000	64.432191 
1324.000000	64.447307 
1323.000000	64.459705 
1322.000000	64.467191 
1321.000000	64.467787 
1320.000000	64.460301 
1319.000000	64.444780 
1318.000000	64.422678 
1317.000000	64.396786 
1316.000000	64.370727 
1315.000000	64.348125 
1314.000000	64.331769 
1313.000000	64.323043 
1312.000000	64.321684 
1311.000000	64.326024 
1310.000000	64.333510 
1309.000000	64.341354 
1308.000000	64.347219 
1307.000000	64.349889 
1306.000000	64.349198 
1305.000000	64.346122 
1304.000000	64.341878 
1303.000000	64.337897 
1302.000000	64.335036 
1301.000000	64.333581 
1300.000000	64.333343 
1299.000000	64.334106 
1298.000000	64.335751 
1297.000000	64.338421 
1296.000000	64.342856 
1295.000000	64.349579 
1294.000000	64.358997 
1293.000000	64.370584 
1292.000000	64.383029 
1291.000000	64.394044 
1290.000000	64.400887 
1289.000000	64.400839 
1288.000000	64.391994 
1287.000000	64.373898 
1286.000000	64.347720 
1285.000000	64.316439 
1284.000000	64.284062 
1283.000000	64.255094 
1282.000000	64.233684 
1281.000000	64.222717 
1280.000000	64.223170 
1279.000000	64.234113 
1278.000000	64.252829 
1277.000000	64.275479 
1276.000000	64.298057 
1275.000000	64.316678 
1274.000000	64.328813 
1273.000000	64.333271 
1272.000000	64.330554 
1271.000000	64.322257 
1270.000000	64.310884 
1269.000000	64.299011 
1268.000000	64.288854 
1267.000000	64.281845 
1266.000000	64.278435 
1265.000000	64.278316 
1264.000000	64.280557 
1263.000000	64.283990 
1262.000000	64.287662 
1261.000000	64.290928 
1260.000000	64.293766 
1259.000000	64.296507 
1258.000000	64.299988 
1257.000000	64.305090 
1256.000000	64.312696 
1255.000000	64.323353 
1254.000000	64.336967 
1253.000000	64.352750 
1252.000000	64.369392 
1251.000000	64.385151 
1250.000000	64.398169 
1249.000000	64.406490 
1248.000000	64.408755 
1247.000000	64.404153 
1246.000000	64.392614 
1245.000000	64.374613 
1244.000000	64.351344 
1243.000000	64.324355 
1242.000000	64.295506 
1241.000000	64.266610 
1240.000000	64.239430 
1239.000000	64.215183 
1238.000000	64.194393 
1237.000000	64.177060 
1236.000000	64.162659 
1235.000000	64.150667 
1234.000000	64.140510 
1233.000000	64.132142 
1232.000000	64.125943 
1231.000000	64.122843 
1230.000000	64.123988 
1229.000000	64.130401 
1228.000000	64.142322 
1227.000000	64.159011 
1226.000000	64.178752 
1225.000000	64.198946 
1224.000000	64.216589 
1223.000000	64.229059 
1222.000000	64.234876 
1221.000000	64.233899 
1220.000000	64.227485 
1219.000000	64.218115 
1218.000000	64.208841 
1217.000000	64.202427 
1216.000000	64.200854 
1215.000000	64.205121 
1214.000000	64.214682 
1213.000000	64.228343 
1212.000000	64.243984 
1211.000000	64.259433 
1210.000000	64.272689 
1209.000000	64.282321 
1208.000000	64.287829 
1207.000000	64.289617 
1206.000000	64.288997 
1205.000000	64.287662 
1204.000000	64.287352 
1203.000000	64.289259 
1202.000000	64.293932 
1201.000000	64.301061 
1200.000000	64.309573 
1199.000000	64.317893 
1198.000000	64.324283 
1197.000000	64.327383 
1196.000000	64.326381 
1195.000000	64.321446 
1194.000000	64.313411 
1193.000000	64.303660 
1192.000000	64.293932 
1191.000000	64.285731 
1190.000000	64.280176 
1189.000000	64.277386 
1188.000000	64.276933 
1187.000000	64.277434 
1186.000000	64.277052 
1185.000000	64.273738 
1184.000000	64.265608 
1183.000000	64.251542 
1182.000000	64.231181 
1181.000000	64.205789 
1180.000000	64.177918 
1179.000000	64.151501 
1178.000000	64.130663 
1177.000000	64.119338 
1176.000000	64.120125 
1175.000000	64.133572 
1174.000000	64.158058 
1173.000000	64.189934 
1172.000000	64.224147 
1171.000000	64.255452 
1170.000000	64.279437 
1169.000000	64.293360 
1168.000000	64.296340 
1167.000000	64.289712 
1166.000000	64.276242 
1165.000000	64.259696 
1164.000000	64.243602 
1163.000000	64.231061 
1162.000000	64.223432 
1161.000000	64.220738 
1160.000000	64.221191 
1159.000000	64.222455 
1158.000000	64.221835 
1157.000000	64.217138 
1156.000000	64.207077 
1155.000000	64.191675 
1154.000000	64.172124 
1153.000000	64.150500 
1152.000000	64.129519 
1151.000000	64.111614 
1150.000000	64.098930 
1149.000000	64.092993 
1148.000000	64.094591 
1147.000000	64.103770 
1146.000000	64.119911 
1145.000000	64.141917 
1144.000000	64.168214 
1143.000000	64.197039 
1142.000000	64.226388 
1141.000000	64.254474 
1140.000000	64.279294 
1139.000000	64.299416 
1138.000000	64.314198 
1137.000000	64.323735 
1136.000000	64.328813 
1135.000000	64.330673 
1134.000000	64.330744 
1133.000000	64.330172 
1132.000000	64.329791 
1131.000000	64.329695 
1130.000000	64.329433 
1129.000000	64.328098 
1128.000000	64.324855 
1127.000000	64.318728 
1126.000000	64.309191 
1125.000000	64.296102 
1124.000000	64.279890 
1123.000000	64.261627 
1122.000000	64.242744 
1121.000000	64.225196 
1120.000000	64.211130 
1119.000000	64.202594 
1118.000000	64.200949 
1117.000000	64.206695 
1116.000000	64.219021 
1115.000000	64.235806 
1114.000000	64.253759 
1113.000000	64.268970 
1112.000000	64.277625 
1111.000000	64.276957 
1110.000000	64.266085 
1109.000000	64.245724 
1108.000000	64.218688 
1107.000000	64.189028 
1106.000000	64.161491 
1105.000000	64.139986 
1104.000000	64.127230 
1103.000000	64.124059 
1102.000000	64.129662 
1101.000000	64.141869 
1100.000000	64.158391 
1099.000000	64.177417 
1098.000000	64.198136 
1097.000000	64.220571 
1096.000000	64.245200 
1095.000000	64.272022 
1094.000000	64.300298 
1093.000000	64.328122 
1092.000000	64.353060 
1091.000000	64.372611 
1090.000000	64.385414 
1089.000000	64.391422 
1088.000000	64.391779 
1087.000000	64.388203 
1086.000000	64.382553 
1085.000000	64.375638 
1084.000000	64.367008 
1083.000000	64.354896 
1082.000000	64.337182 
1081.000000	64.312052 
1080.000000	64.279484 
1079.000000	64.241003 
1078.000000	64.200329 
1077.000000	64.161920 
1076.000000	64.130115 
1075.000000	64.107489 
1074.000000	64.094185 
1073.000000	64.088010 
1072.000000	64.085078 
1071.000000	64.081263 
1070.000000	64.073467 
1069.000000	64.060783 
1068.000000	64.044833 
1067.000000	64.029049 
1066.000000	64.017748 
1065.000000	64.015007 
1064.000000	64.023566 
1063.000000	64.043712 
1062.000000	64.073443 
1061.000000	64.108824 
1060.000000	64.145207 
1059.000000	64.178204 
1058.000000	64.204764 
1057.000000	64.223790 
1056.000000	64.235734 
1055.000000	64.242386 
1054.000000	64.245724 
1053.000000	64.246726 
1052.000000	64.244842 
1051.000000	64.238619 
1050.000000	64.225673 
1049.000000	64.203977 
1048.000000	64.172720 
1047.000000	64.133477 
1046.000000	64.089870 
1045.000000	64.047217 
1044.000000	64.011192 
1043.000000	63.986635 
1042.000000	63.976001 
1041.000000	63.978981 
1040.000000	63.992166 
1039.000000	64.010143 
1038.000000	64.026713 
1037.000000	64.036536 
1036.000000	64.036369 
1035.000000	64.025735 
1034.000000	64.007019 
1033.000000	63.984847 
1032.000000	63.964533 
1031.000000	63.950967 
1030.000000	63.947582 
1029.000000	63.955783 
1028.000000	63.974833 
1027.000000	64.002299 
1026.000000	64.035248 
1025.000000	64.070582 
1024.000000	64.105820 
1023.000000	64.139223 
1022.000000	64.169430 
1021.000000	64.195394 
1020.000000	64.216136 
1019.000000	64.230298 
1018.000000	64.236426 
1017.000000	64.233613 
1016.000000	64.221787 
1015.000000	64.201974 
1014.000000	64.176392 
1013.000000	64.148211 
1012.000000	64.121127 
1011.000000	64.098238 
1010.000000	64.081501 
1009.000000	64.071345 
1008.000000	64.066648 
1007.000000	64.065313 
1006.000000	64.064812 
1005.000000	64.062809 
1004.000000	64.058017 
1003.000000	64.050388 
1002.000000	64.041161 
1001.000000	64.032268 
1000.000000	64.025783 
999.000000	 64.023303 
998.000000	 64.025568 
997.000000	 64.032340 
996.000000	 64.042592 
995.000000	 64.054775 
994.000000	 64.067292 
993.000000	 64.078736 
992.000000	 64.088273 
991.000000	 64.095616 
990.000000	 64.100980 
989.000000	 64.104819 
988.000000	 64.107918 
987.000000	 64.110946 
986.000000	 64.114665 
985.000000	 64.119505 
984.000000	 64.125704 
983.000000	 64.132857 
982.000000	 64.140081 
981.000000	 64.145970 
980.000000	 64.148497 
979.000000	 64.145731 
978.000000	 64.136052 
977.000000	 64.119100 
976.000000	 64.095711 
975.000000	 64.068484 
974.000000	 64.041209 
973.000000	 64.018440 
972.000000	 64.004325 
971.000000	 64.001965 
970.000000	 64.012432 
969.000000	 64.034771 
968.000000	 64.066290 
967.000000	 64.103126 
966.000000	 64.141058 
965.000000	 64.176559 
964.000000	 64.207196 
963.000000	 64.231944 
962.000000	 64.250922 
961.000000	 64.264798 
960.000000	 64.274263 
959.000000	 64.279675 
958.000000	 64.280986 
957.000000	 64.277672 
956.000000	 64.269137 
955.000000	 64.255356 
954.000000	 64.237213 
953.000000	 64.216542 
952.000000	 64.196014 
951.000000	 64.178586 
950.000000	 64.167022 
949.000000	 64.163136 
948.000000	 64.167690 
947.000000	 64.179992 
946.000000	 64.198327 
945.000000	 64.220142 
944.000000	 64.242696 
943.000000	 64.263176 
942.000000	 64.279460 
941.000000	 64.290142 
940.000000	 64.294862 
939.000000	 64.293766 
938.000000	 64.288258 
937.000000	 64.280557 
936.000000	 64.273476 
935.000000	 64.269852 
934.000000	 64.272594 
933.000000	 64.283800 
932.000000	 64.304161 
931.000000	 64.332795 
930.000000	 64.366984 
929.000000	 64.402651 
928.000000	 64.435052 
927.000000	 64.459753 
926.000000	 64.473748 
925.000000	 64.475965 
924.000000	 64.467763 
923.000000	 64.452219 
922.000000	 64.433622 
921.000000	 64.415884 
920.000000	 64.402008 
919.000000	 64.392805 
918.000000	 64.387249 
917.000000	 64.382362 
916.000000	 64.374899 
915.000000	 64.361643 
914.000000	 64.340949 
913.000000	 64.312767 
912.000000	 64.278888 
911.000000	 64.242434 
910.000000	 64.206862 
909.000000	 64.175295 
908.000000	 64.149665 
907.000000	 64.130592 
906.000000	 64.117455 
905.000000	 64.108967 
904.000000	 64.103603 
903.000000	 64.100074 
902.000000	 64.097547 
901.000000	 64.095497 
900.000000	 64.093518 
899.000000	 64.090895 
898.000000	 64.086842 
897.000000	 64.080071 
896.000000	 64.069366 
895.000000	 64.054107 
894.000000	 64.034652 
893.000000	 64.012503 
892.000000	 63.990449 
891.000000	 63.972187 
890.000000	 63.961601 
889.000000	 63.961791 
888.000000	 63.974356 
887.000000	 63.998913 
886.000000	 64.033102 
885.000000	 64.072918 
884.000000	 64.113807 
883.000000	 64.151334 
882.000000	 64.182424 
881.000000	 64.205670 
880.000000	 64.221429 
879.000000	 64.231204 
878.000000	 64.237165 
877.000000	 64.241456 
876.000000	 64.245200 
875.000000	 64.248394 
874.000000	 64.250326 
873.000000	 64.249920 
872.000000	 64.246702 
871.000000	 64.240765 
870.000000	 64.233422 
869.000000	 64.226579 
868.000000	 64.222121 
867.000000	 64.221000 
866.000000	 64.222979 
865.000000	 64.226174 
864.000000	 64.227938 
863.000000	 64.225363 
862.000000	 64.216232 
861.000000	 64.199852 
860.000000	 64.177250 
859.000000	 64.151382 
858.000000	 64.126014 
857.000000	 64.105558 
856.000000	 64.093899 
855.000000	 64.093828 
854.000000	 64.106130 
853.000000	 64.129829 
852.000000	 64.162468 
851.000000	 64.200401 
850.000000	 64.239406 
849.000000	 64.275407 
848.000000	 64.305233 
847.000000	 64.326667 
846.000000	 64.338898 
845.000000	 64.342403 
844.000000	 64.338707 
843.000000	 64.330196 
842.000000	 64.319396 
841.000000	 64.308404 
840.000000	 64.298295 
839.000000	 64.289641 
838.000000	 64.281749 
837.000000	 64.273691 
836.000000	 64.263772 
835.000000	 64.250969 
834.000000	 64.234161 
833.000000	 64.212775 
832.000000	 64.186525 
831.000000	 64.155292 
830.000000	 64.119505 
829.000000	 64.079761 
828.000000	 64.037370 
827.000000	 63.994121 
826.000000	 63.952469 
825.000000	 63.915061 
824.000000	 63.884592 
823.000000	 63.863348 
822.000000	 63.852787 
821.000000	 63.853454 
820.000000	 63.864541 
819.000000	 63.884472 
818.000000	 63.911318 
817.000000	 63.943386 
816.000000	 63.979244 
815.000000	 64.017748 
814.000000	 64.057826 
813.000000	 64.098143 
812.000000	 64.136791 
811.000000	 64.171314 
810.000000	 64.198851 
809.000000	 64.216756 
808.000000	 64.223432 
807.000000	 64.218497 
806.000000	 64.203405 
805.000000	 64.181113 
804.000000	 64.155864 
803.000000	 64.132261 
802.000000	 64.114642 
801.000000	 64.106035 
800.000000	 64.107751 
799.000000	 64.119029 
798.000000	 64.137411 
797.000000	 64.159107 
796.000000	 64.180040 
795.000000	 64.196538 
794.000000	 64.206147 
793.000000	 64.208054 
792.000000	 64.203262 
791.000000	 64.193701 
790.000000	 64.181876 
789.000000	 64.170145 
788.000000	 64.160251 
787.000000	 64.152908 
786.000000	 64.147758 
785.000000	 64.143538 
784.000000	 64.138555 
783.000000	 64.131665 
782.000000	 64.122366 
781.000000	 64.110922 
780.000000	 64.098358 
779.000000	 64.086318 
778.000000	 64.076209 
777.000000	 64.068961 
776.000000	 64.064359 
775.000000	 64.061093 
774.000000	 64.056968 
773.000000	 64.049220 
772.000000	 64.035534 
771.000000	 64.014816 
770.000000	 63.987851 
769.000000	 63.957405 
768.000000	 63.928437 
767.000000	 63.907265 
766.000000	 63.900089 
765.000000	 63.911437 
764.000000	 63.943147 
763.000000	 63.993120 
762.000000	 64.055776 
761.000000	 64.122319 
760.000000	 64.182329 
759.000000	 64.225983 
758.000000	 64.246296 
757.000000	 64.240527 
756.000000	 64.210820 
755.000000	 64.163732 
754.000000	 64.109110 
753.000000	 64.057183 
752.000000	 64.016747 
751.000000	 63.992738 
750.000000	 63.985991 
749.000000	 63.992929 
748.000000	 64.007449 
747.000000	 64.022135 
746.000000	 64.030575 
745.000000	 64.027976 
744.000000	 64.011955 
743.000000	 63.982248 
742.000000	 63.940382 
741.000000	 63.889026 
740.000000	 63.831639 
739.000000	 63.772106 
738.000000	 63.714861 
737.000000	 63.664913 
736.000000	 63.627767 
735.000000	 63.608765 
734.000000	 63.612365 
733.000000	 63.640832 
732.000000	 63.693881 
731.000000	 63.767671 
730.000000	 63.855719 
729.000000	 63.949728 
728.000000	 64.040851 
727.000000	 64.120912 
726.000000	 64.183378 
725.000000	 64.224195 
724.000000	 64.241862 
723.000000	 64.237475 
722.000000	 64.214110 
721.000000	 64.176249 
720.000000	 64.129424 
719.000000	 64.080047 
718.000000	 64.033532 
717.000000	 63.994073 
716.000000	 63.963866 
715.000000	 63.943099 
714.000000	 63.929796 
713.000000	 63.920783 
712.000000	 63.912296 
711.000000	 63.901376 
710.000000	 63.887000 
709.000000	 63.870739 
708.000000	 63.856387 
707.000000	 63.849067 
706.000000	 63.853216 
705.000000	 63.871359 
704.000000	 63.902997 
703.000000	 63.944458 
702.000000	 63.989782 
701.000000	 64.031815 
700.000000	 64.063882 
699.000000	 64.081335 
698.000000	 64.082646 
697.000000	 64.069533 
696.000000	 64.045500 
695.000000	 64.016079 
694.000000	 63.987779 
693.000000	 63.966655 
692.000000	 63.957238 
691.000000	 63.961482 
690.000000	 63.978672 
689.000000	 64.005422 
688.000000	 64.036560 
687.000000	 64.065623 
686.000000	 64.086341 
685.000000	 64.093780 
684.000000	 64.085721 
683.000000	 64.063286 
682.000000	 64.030885 
681.000000	 63.995885 
680.000000	 63.966512 
679.000000	 63.950324 
678.000000	 63.951849 
677.000000	 63.972115 
676.000000	 64.007067 
675.000000	 64.049124 
674.000000	 64.087700 
673.000000	 64.111971 
672.000000	 64.112925 
671.000000	 64.084982 
670.000000	 64.027953 
669.000000	 63.946557 
668.000000	 63.850903 
667.000000	 63.753843 
666.000000	 63.669419 
665.000000	 63.609886 
664.000000	 63.583374 
663.000000	 63.592290 
662.000000	 63.632535 
661.000000	 63.694405 
660.000000	 63.764214 
659.000000	 63.827633 
658.000000	 63.871979 
657.000000	 63.889503 
656.000000	 63.878989 
655.000000	 63.846182 
654.000000	 63.802051 
653.000000	 63.759732 
652.000000	 63.731002 
651.000000	 63.723182 
650.000000	 63.737678 
649.000000	 63.769960 
648.000000	 63.811016 
647.000000	 63.850545 
646.000000	 63.879942 
645.000000	 63.895082 
644.000000	 63.897323 
643.000000	 63.892674 
642.000000	 63.889217 
641.000000	 63.894438 
640.000000	 63.912558 
639.000000	 63.942623 
638.000000	 63.978505 
637.000000	 64.010477 
636.000000	 64.028239 
635.000000	 64.023733 
634.000000	 63.993763 
633.000000	 63.940286 
632.000000	 63.870358 
631.000000	 63.793778 
630.000000	 63.721537 
629.000000	 63.664913 
628.000000	 63.633203 
627.000000	 63.631606 
626.000000	 63.660526 
625.000000	 63.717579 
624.000000	 63.796186 
623.000000	 63.886976 
622.000000	 63.978290 
621.000000	 64.057493 
620.000000	 64.113020 
619.000000	 64.136362 
618.000000	 64.123368 
617.000000	 64.074850 
616.000000	 63.996267 
615.000000	 63.897418 
614.000000	 63.789391 
613.000000	 63.682699 
612.000000	 63.585805 
611.000000	 63.504743 
610.000000	 63.442993 
609.000000	 63.401937 
608.000000	 63.381719 
607.000000	 63.381075 
606.000000	 63.395309 
605.000000	 63.415431 
604.000000	 63.426995 
603.000000	 63.411808 
602.000000	 63.349437 
601.000000	 63.223528 
600.000000	 63.025617 
599.000000	 62.761282 
598.000000	 62.450432 
597.000000	 62.127017 
596.000000	 61.833238 
595.000000	 61.611580 
594.000000	 61.494278 
593.000000	 61.497259 
592.000000	 61.614418 
591.000000	 61.821794 
590.000000	 62.082076 
589.000000	 62.355136 
588.000000	 62.604594 
587.000000	 62.807703 
586.000000	 62.956809 
585.000000	 63.059186 
584.000000	 63.130497 
583.000000	 63.188576 
582.000000	 63.245892 
581.000000	 63.307189 
580.000000	 63.368344 
579.000000	 63.418841 
578.000000	 63.446307 
577.000000	 63.443183 
576.000000	 63.410210 
575.000000	 63.356041 
574.000000	 63.296556 
573.000000	 63.250851 
572.000000	 63.237190 
571.000000	 63.268399 
570.000000	 63.348484 
569.000000	 63.473987 
568.000000	 63.631582 
567.000000	 63.801884 
566.000000	 63.960766 
565.000000	 64.085149 
564.000000	 64.155769 
563.000000	 64.159917 
562.000000	 64.095139 
561.000000	 63.969326 
560.000000	 63.799858 
559.000000	 63.610339 
558.000000	 63.426375 
557.000000	 63.271141 
556.000000	 63.162207 
555.000000	 63.110041 
554.000000	 63.115215 
553.000000	 63.170051 
552.000000	 63.261508 
551.000000	 63.375139 
550.000000	 63.497114 
549.000000	 63.617658 
548.000000	 63.732600 
547.000000	 63.842678 
546.000000	 63.951468 
545.000000	 64.061832 
544.000000	 64.173316 
543.000000	 64.280247 
542.000000	 64.372205 
541.000000	 64.436435 
540.000000	 64.462661 
539.000000	 64.445757 
538.000000	 64.389419 
537.000000	 64.305090 
536.000000	 64.210867 
535.000000	 64.126849 
534.000000	 64.070248 
533.000000	 64.052343 
532.000000	 64.077258 
531.000000	 64.139842 
530.000000	 64.228415 
529.000000	 64.324736 
528.000000	 64.408254 
527.000000	 64.459919 
526.000000	 64.466452 
525.000000	 64.422941 
524.000000	 64.334034 
523.000000	 64.214348 
522.000000	 64.084911 
521.000000	 63.968491 
520.000000	 63.883519 
519.000000	 63.840603 
518.000000	 63.839221 
517.000000	 63.869762 
516.000000	 63.915109 
515.000000	 63.955831 
514.000000	 63.974857 
513.000000	 63.961577 
512.000000	 63.914179 
511.000000	 63.838458 
510.000000	 63.746356 
509.000000	 63.650941 
508.000000	 63.563990 
507.000000	 63.492488 
506.000000	 63.438725 
505.000000	 63.400411 
504.000000	 63.374066 
503.000000	 63.357353 
502.000000	 63.351392 
501.000000	 63.361072 
500.000000	 63.393235 
499.000000	 63.453674 
498.000000	 63.546109 
497.000000	 63.669538 
496.000000	 63.815951 
495.000000	 63.971281 
494.000000	 64.119052 
493.000000	 64.243292 
492.000000	 64.332270 
491.000000	 64.380741 
490.000000	 64.389657 
489.000000	 64.366817 
488.000000	 64.325070 
487.000000	 64.280247 
486.000000	 64.246797 
485.000000	 64.236521 
484.000000	 64.257955 
483.000000	 64.314246 
482.000000	 64.404273 
481.000000	 64.521622 
480.000000	 64.657640 
479.000000	 64.799880 
478.000000	 64.934492 
477.000000	 65.045857 
476.000000	 65.119433 
475.000000	 65.140652 
474.000000	 65.097570 
473.000000	 64.981412 
472.000000	 64.789295 
471.000000	 64.525079 
470.000000	 64.201545 
469.000000	 63.839459 
468.000000	 63.467454 
467.000000	 63.119292 
466.000000	 62.830448 
465.000000	 62.631916 
464.000000	 62.546062 
463.000000	 62.582159 
462.000000	 62.734937 
461.000000	 62.981986 
460.000000	 63.290715 
459.000000	 63.621926 
458.000000	 63.939499 
457.000000	 64.212608 
456.000000	 64.423608 
455.000000	 64.567255 
454.000000	 64.650511 
453.000000	 64.687943 
452.000000	 64.695763 
451.000000	 64.688086 
450.000000	 64.671373 
449.000000	 64.645671 
448.000000	 64.604163 
447.000000	 64.538717 
446.000000	 64.442420 
445.000000	 64.314913 
444.000000	 64.164280 
443.000000	 64.007329 
442.000000	 63.865399 
441.000000	 63.759732 
440.000000	 63.706326 
439.000000	 63.711428 
438.000000	 63.768839 
437.000000	 63.861751 
436.000000	 63.966774 
435.000000	 64.059400 
434.000000	 64.121460 
433.000000	 64.143562 
432.000000	 64.122366 
431.000000	 64.064073 
430.000000	 63.984322 
429.000000	 63.900995 
428.000000	 63.826894 
427.000000	 63.769412 
426.000000	 63.730740 
425.000000	 63.706278 
424.000000	 63.689517 
423.000000	 63.669776 
422.000000	 63.634920 
421.000000	 63.576412 
420.000000	 63.492488 
419.000000	 63.384366 
418.000000	 63.254380 
417.000000	 63.109874 
416.000000	 62.959432 
415.000000	 62.805104 
414.000000	 62.641978 
413.000000	 62.458252 
412.000000	 62.242555 
411.000000	 61.981940 
410.000000	 61.680221 
409.000000	 61.352038 
408.000000	 61.044287 
407.000000	 60.817909 
406.000000	 60.758352 
405.000000	 60.958886 
404.000000	 61.496734 
403.000000	 62.416815 
402.000000	 63.697409 
401.000000	 65.237808 
400.000000	 66.869997 
399.000000	 68.401598 
398.000000	 69.628000 
397.000000	 70.370864 
396.000000	 70.520043 
395.000000	 70.066428 
394.000000	 69.075655 
393.000000	 67.668175 
392.000000	 66.005778 
391.000000	 64.272570 
390.000000	 62.568664 
389.000000	 60.920500 
388.000000	 59.377169 
387.000000	 57.968926 
386.000000	 56.942272 
385.000000	 56.609988 
384.000000	 56.653761 
383.000000	 56.610083 
382.000000	 56.125497 
381.000000	 55.057954 
380.000000	 54.506945 
379.000000	 55.481266 
378.000000	 58.086681 
377.000000	 61.798405 
376.000000	 63.760209 
375.000000	 62.017583 
374.000000	 57.150912 
373.000000	 51.484751 
372.000000	 50.844573 
371.000000	 58.633327 
370.000000	 73.368644 

