PE IR       SPECTRUM    SPECTRUM    ASCII       PEDS        1.60        
  -1
BZBCF5~1.ASC
17/04/07
23:11:28.00
17/04/07
23:11:28.00
tln
$BZ1503107-1_t0121$<tbV0>[-13.0,13.0,8.0,0.0,27,1,0]
370.000000
64









2002,4.07    
MIRTGS : RIGHTBACK : INTERNAL 2
MIR : ON : INTERNAL 2
OPTKBR

0.200000
8
8.000000
FILLER
RATIO
SPECTRUM
UNLOCKED 256

DOUBLE
64
COMBINED
1
0
0


1.000000
RATIO


1
0
TRUE
51149
0
LEFT NOT FITTED RIGHT NOT FITTED 0
NONE
NONE
15600
12.000000
4.427000
51148
TRUE
1 0 8 72 0 0 0 0 

15798.010000






#HDR
-1
-1
#GR
CM-1
%T
0.00002384185791015625
0.0
5000.000000
-1.000000
4631
8
69.704914
44.892621
#DATA
5000.000000	66.336178 
4999.000000	66.073966 
4998.000000	65.748190 
4997.000000	65.408372 
4996.000000	65.103149 
4995.000000	64.874792 
4994.000000	64.750957 
4993.000000	64.744758 
4992.000000	64.850044 
4991.000000	65.046477 
4990.000000	65.301012 
4989.000000	65.575265 
4988.000000	65.829825 
4987.000000	66.029739 
4986.000000	66.150045 
4985.000000	66.177749 
4984.000000	66.112685 
4983.000000	65.964984 
4982.000000	65.753173 
4981.000000	65.498995 
4980.000000	65.222764 
4979.000000	64.939808 
4978.000000	64.660024 
4977.000000	64.388561 
4976.000000	64.130091 
4975.000000	63.890480 
4974.000000	63.676857 
4973.000000	63.498830 
4972.000000	63.365650 
4971.000000	63.286042 
4970.000000	63.260507 
4969.000000	63.286256 
4968.000000	63.353371 
4967.000000	63.451790 
4966.000000	63.570833 
4965.000000	63.703513 
4964.000000	63.844227 
4963.000000	63.990998 
4962.000000	64.143419 
4961.000000	64.299917 
4960.000000	64.454865 
4959.000000	64.599919 
4958.000000	64.724469 
4957.000000	64.819288 
4956.000000	64.878535 
4955.000000	64.901447 
4954.000000	64.891266 
4953.000000	64.851903 
4952.000000	64.785814 
4951.000000	64.692640 
4950.000000	64.570164 
4949.000000	64.416170 
4948.000000	64.232063 
4947.000000	64.027380 
4946.000000	63.819456 
4945.000000	63.629531 
4944.000000	63.480639 
4943.000000	63.390994 
4942.000000	63.373088 
4941.000000	63.427877 
4940.000000	63.549232 
4939.000000	63.723015 
4938.000000	63.933539 
4937.000000	64.166164 
4936.000000	64.409208 
4935.000000	64.653658 
4934.000000	64.892148 
4933.000000	65.116620 
4932.000000	65.317130 
4931.000000	65.481185 
4930.000000	65.598225 
4929.000000	65.661644 
4928.000000	65.672254 
4927.000000	65.638351 
4926.000000	65.573596 
4925.000000	65.493535 
4924.000000	65.411424 
4923.000000	65.335893 
4922.000000	65.270757 
4921.000000	65.215492 
4920.000000	65.169024 
4919.000000	65.130400 
4918.000000	65.100836 
4917.000000	65.082597 
4916.000000	65.078711 
4915.000000	65.090537 
4914.000000	65.114903 
4913.000000	65.145492 
4912.000000	65.172457 
4911.000000	65.186429 
4910.000000	65.180659 
4909.000000	65.153694 
4908.000000	65.110015 
4907.000000	65.058803 
4906.000000	65.011882 
4905.000000	64.979219 
4904.000000	64.965844 
4903.000000	64.972400 
4902.000000	64.995145 
4901.000000	65.027666 
4900.000000	65.062332 
4899.000000	65.092206 
4898.000000	65.111947 
4897.000000	65.117216 
4896.000000	65.105533 
4895.000000	65.076017 
4894.000000	65.030217 
4893.000000	64.972066 
4892.000000	64.907884 
4891.000000	64.845323 
4890.000000	64.792466 
4889.000000	64.757347 
4888.000000	64.745044 
4887.000000	64.757418 
4886.000000	64.791226 
4885.000000	64.838933 
4884.000000	64.889717 
4883.000000	64.931607 
4882.000000	64.954423 
4881.000000	64.951777 
4880.000000	64.923262 
4879.000000	64.874243 
4878.000000	64.815044 
4877.000000	64.758014 
4876.000000	64.715123 
4875.000000	64.694809 
4874.000000	64.700579 
4873.000000	64.730286 
4872.000000	64.775991 
4871.000000	64.826560 
4870.000000	64.870548 
4869.000000	64.899230 
4868.000000	64.909076 
4867.000000	64.902234 
4866.000000	64.885687 
4865.000000	64.868521 
4864.000000	64.858579 
4863.000000	64.859938 
4862.000000	64.871430 
4861.000000	64.887046 
4860.000000	64.898681 
4859.000000	64.897942 
4858.000000	64.880228 
4857.000000	64.844918 
4856.000000	64.796209 
4855.000000	64.741611 
4854.000000	64.688992 
4853.000000	64.645695 
4852.000000	64.616441 
4851.000000	64.603185 
4850.000000	64.604759 
4849.000000	64.619040 
4848.000000	64.643955 
4847.000000	64.678382 
4846.000000	64.722228 
4845.000000	64.775633 
4844.000000	64.838075 
4843.000000	64.907336 
4842.000000	64.979171 
4841.000000	65.047764 
4840.000000	65.106439 
4839.000000	65.150046 
4838.000000	65.174603 
4837.000000	65.178990 
4836.000000	65.163660 
4835.000000	65.131354 
4834.000000	65.085363 
4833.000000	65.029478 
4832.000000	64.966320 
4831.000000	64.898753 
4830.000000	64.827847 
4829.000000	64.753890 
4828.000000	64.676475 
4827.000000	64.595675 
4826.000000	64.512634 
4825.000000	64.430117 
4824.000000	64.352488 
4823.000000	64.284729 
4822.000000	64.231443 
4821.000000	64.195513 
4820.000000	64.177083 
4819.000000	64.173555 
4818.000000	64.180564 
4817.000000	64.193344 
4816.000000	64.207649 
4815.000000	64.221549 
4814.000000	64.235925 
4813.000000	64.254212 
4812.000000	64.280509 
4811.000000	64.318275 
4810.000000	64.368319 
4809.000000	64.428472 
4808.000000	64.493036 
4807.000000	64.554643 
4806.000000	64.606261 
4805.000000	64.643096 
4804.000000	64.664554 
4803.000000	64.673399 
4802.000000	64.675092 
4801.000000	64.675545 
4800.000000	64.679813 
4799.000000	64.689922 
4798.000000	64.704203 
4797.000000	64.718270 
4796.000000	64.726972 
4795.000000	64.724683 
4794.000000	64.707350 
4793.000000	64.673757 
4792.000000	64.626049 
4791.000000	64.568471 
4790.000000	64.506745 
4789.000000	64.446640 
4788.000000	64.393210 
4787.000000	64.349532 
4786.000000	64.316773 
4785.000000	64.294433 
4784.000000	64.280915 
4783.000000	64.274930 
4782.000000	64.275646 
4781.000000	64.282202 
4780.000000	64.294409 
4779.000000	64.311957 
4778.000000	64.334440 
4777.000000	64.359807 
4776.000000	64.385843 
4775.000000	64.409875 
4774.000000	64.429879 
4773.000000	64.444518 
4772.000000	64.454460 
4771.000000	64.461946 
4770.000000	64.470720 
4769.000000	64.485001 
4768.000000	64.508390 
4767.000000	64.542746 
4766.000000	64.587497 
4765.000000	64.639806 
4764.000000	64.695453 
4763.000000	64.749526 
4762.000000	64.797711 
4761.000000	64.836597 
4760.000000	64.864492 
4759.000000	64.880490 
4758.000000	64.884829 
4757.000000	64.877581 
4756.000000	64.858889 
4755.000000	64.828109 
4754.000000	64.785361 
4753.000000	64.731097 
4752.000000	64.666962 
4751.000000	64.596223 
4750.000000	64.523863 
4749.000000	64.456248 
4748.000000	64.400053 
4747.000000	64.361405 
4746.000000	64.344668 
4745.000000	64.351415 
4744.000000	64.380121 
4743.000000	64.425992 
4742.000000	64.481735 
4741.000000	64.538693 
4740.000000	64.588022 
4739.000000	64.622306 
4738.000000	64.636516 
4737.000000	64.628982 
4736.000000	64.601349 
4735.000000	64.558124 
4734.000000	64.505290 
4733.000000	64.449691 
4732.000000	64.397072 
4731.000000	64.351701 
4730.000000	64.315485 
4729.000000	64.288902 
4728.000000	64.271140 
4727.000000	64.260745 
4726.000000	64.257025 
4725.000000	64.259791 
4724.000000	64.270305 
4723.000000	64.289593 
4722.000000	64.319133 
4721.000000	64.359188 
4720.000000	64.409208 
4719.000000	64.467048 
4718.000000	64.529609 
4717.000000	64.593219 
4716.000000	64.654469 
4715.000000	64.710664 
4714.000000	64.759683 
4713.000000	64.800143 
4712.000000	64.831018 
4711.000000	64.851331 
4710.000000	64.860415 
4709.000000	64.857864 
4708.000000	64.843630 
4707.000000	64.818358 
4706.000000	64.783644 
4705.000000	64.741730 
4704.000000	64.696025 
4703.000000	64.649915 
4702.000000	64.606475 
4701.000000	64.567708 
4700.000000	64.535045 
4699.000000	64.508509 
4698.000000	64.487004 
4697.000000	64.468812 
4696.000000	64.452075 
4695.000000	64.435410 
4694.000000	64.417934 
4693.000000	64.400005 
4692.000000	64.382624 
4691.000000	64.367842 
4690.000000	64.357924 
4689.000000	64.355206 
4688.000000	64.361310 
4687.000000	64.376187 
4686.000000	64.398002 
4685.000000	64.423036 
4684.000000	64.446496 
4683.000000	64.463448 
4682.000000	64.470100 
4681.000000	64.464569 
4680.000000	64.447736 
4679.000000	64.423060 
4678.000000	64.396023 
4677.000000	64.372992 
4676.000000	64.359641 
4675.000000	64.360141 
4674.000000	64.375853 
4673.000000	64.405632 
4672.000000	64.445543 
4671.000000	64.489722 
4670.000000	64.531850 
4669.000000	64.566040 
4668.000000	64.588856 
4667.000000	64.599275 
4666.000000	64.599967 
4665.000000	64.595818 
4664.000000	64.594125 
4663.000000	64.602470 
4662.000000	64.627647 
4661.000000	64.673686 
4660.000000	64.741134 
4659.000000	64.826512 
4658.000000	64.922666 
4657.000000	65.019774 
4656.000000	65.107250 
4655.000000	65.175461 
4654.000000	65.217518 
4653.000000	65.230321 
4652.000000	65.214776 
4651.000000	65.175199 
4650.000000	65.118956 
4649.000000	65.054154 
4648.000000	64.989113 
4647.000000	64.930081 
4646.000000	64.881825 
4645.000000	64.845895 
4644.000000	64.821386 
4643.000000	64.805269 
4642.000000	64.793658 
4641.000000	64.782857 
4640.000000	64.770174 
4639.000000	64.754509 
4638.000000	64.736008 
4637.000000	64.716148 
4636.000000	64.696764 
4635.000000	64.679384 
4634.000000	64.664220 
4633.000000	64.650797 
4632.000000	64.638113 
4631.000000	64.625120 
4630.000000	64.611506 
4629.000000	64.598512 
4628.000000	64.588952 
4627.000000	64.586138 
4626.000000	64.593434 
4625.000000	64.613223 
4624.000000	64.646577 
4623.000000	64.691424 
4622.000000	64.744138 
4621.000000	64.800119 
4620.000000	64.855217 
4619.000000	64.906620 
4618.000000	64.953112 
4617.000000	64.995265 
4616.000000	65.034389 
4615.000000	65.072441 
4614.000000	65.110015 
4613.000000	65.146088 
4612.000000	65.177536 
4611.000000	65.200757 
4610.000000	65.211534 
4609.000000	65.206813 
4608.000000	65.185165 
4607.000000	65.147924 
4606.000000	65.098667 
4605.000000	65.042495 
4604.000000	64.985084 
4603.000000	64.931464 
4602.000000	64.884781 
4601.000000	64.845728 
4600.000000	64.812994 
4599.000000	64.783644 
4598.000000	64.753890 
4597.000000	64.720416 
4596.000000	64.681100 
4595.000000	64.636254 
4594.000000	64.587616 
4593.000000	64.539456 
4592.000000	64.496254 
4591.000000	64.463376 
4590.000000	64.445257 
4589.000000	64.445018 
4588.000000	64.463353 
4587.000000	64.498901 
4586.000000	64.548325 
4585.000000	64.606523 
4584.000000	64.667129 
4583.000000	64.723658 
4582.000000	64.770364 
4581.000000	64.802932 
4580.000000	64.818954 
4579.000000	64.818501 
4578.000000	64.804005 
4577.000000	64.780068 
4576.000000	64.752793 
4575.000000	64.728498 
4574.000000	64.712667 
4573.000000	64.709758 
4572.000000	64.722132 
4571.000000	64.750099 
4570.000000	64.791655 
4569.000000	64.843225 
4568.000000	64.900207 
4567.000000	64.957928 
4566.000000	65.011906 
4565.000000	65.058517 
4564.000000	65.095114 
4563.000000	65.120077 
4562.000000	65.132570 
4561.000000	65.132784 
4560.000000	65.121150 
4559.000000	65.098762 
4558.000000	65.066742 
4557.000000	65.026903 
4556.000000	64.981389 
4555.000000	64.933037 
4554.000000	64.885449 
4553.000000	64.842820 
4552.000000	64.810276 
4551.000000	64.793252 
4550.000000	64.796447 
4549.000000	64.822649 
4548.000000	64.871716 
4547.000000	64.939522 
4546.000000	65.018057 
4545.000000	65.096163 
4544.000000	65.161204 
4543.000000	65.201568 
4542.000000	65.208864 
4541.000000	65.179944 
4540.000000	65.118050 
4539.000000	65.031957 
4538.000000	64.934086 
4537.000000	64.838099 
4536.000000	64.756298 
4535.000000	64.696979 
4534.000000	64.663290 
4533.000000	64.653372 
4532.000000	64.661574 
4531.000000	64.680576 
4530.000000	64.703583 
4529.000000	64.725899 
4528.000000	64.745593 
4527.000000	64.763474 
4526.000000	64.781665 
4525.000000	64.802575 
4524.000000	64.827322 
4523.000000	64.855337 
4522.000000	64.884042 
4521.000000	64.910101 
4520.000000	64.930057 
4519.000000	64.941406 
4518.000000	64.942693 
4517.000000	64.933538 
4516.000000	64.913916 
4515.000000	64.883780 
4514.000000	64.842963 
4513.000000	64.791774 
4512.000000	64.731740 
4511.000000	64.665985 
4510.000000	64.599347 
4509.000000	64.537692 
4508.000000	64.487695 
4507.000000	64.455318 
4506.000000	64.445137 
4505.000000	64.459013 
4504.000000	64.495873 
4503.000000	64.552211 
4502.000000	64.621376 
4501.000000	64.694547 
4500.000000	64.762282 
4499.000000	64.816021 
4498.000000	64.848923 
4497.000000	64.856529 
4496.000000	64.838171 
4495.000000	64.796710 
4494.000000	64.737439 
4493.000000	64.666581 
4492.000000	64.591550 
4491.000000	64.518809 
4490.000000	64.452600 
4489.000000	64.394974 
4488.000000	64.345860 
4487.000000	64.304900 
4486.000000	64.273357 
4485.000000	64.253902 
4484.000000	64.250159 
4483.000000	64.265084 
4482.000000	64.299035 
4481.000000	64.349532 
4480.000000	64.408206 
4479.000000	64.466643 
4478.000000	64.516949 
4477.000000	64.556837 
4476.000000	64.591288 
4475.000000	64.629077 
4474.000000	64.678263 
4473.000000	64.747691 
4472.000000	64.843559 
4471.000000	64.969563 
4470.000000	65.126466 
4469.000000	65.307807 
4468.000000	65.500879 
4467.000000	65.698766 
4466.000000	65.898275 
4465.000000	66.094946 
4464.000000	66.281223 
4463.000000	66.445302 
4462.000000	66.571211 
4461.000000	66.644048 
4460.000000	66.650676 
4459.000000	66.587829 
4458.000000	66.457343 
4457.000000	66.273307 
4456.000000	66.050910 
4455.000000	65.797519 
4454.000000	65.522575 
4453.000000	65.225887 
4452.000000	64.927983 
4451.000000	64.667391 
4450.000000	64.511513 
4449.000000	64.549303 
4448.000000	64.857411 
4447.000000	65.478801 
4446.000000	66.380786 
4445.000000	67.451262 
4444.000000	68.488264 
4443.000000	69.240117 
4442.000000	69.453573 
4441.000000	68.942356 
4440.000000	67.641639 
4439.000000	65.642476 
4438.000000	63.187289 
4437.000000	60.627365 
4436.000000	58.352136 
4435.000000	56.702423 
4434.000000	55.897831 
4433.000000	55.989074 
4432.000000	56.857275 
4431.000000	58.249711 
4430.000000	59.843420 
4429.000000	61.330986 
4428.000000	62.478399 
4427.000000	63.180875 
4426.000000	63.447737 
4425.000000	63.401174 
4424.000000	63.204312 
4423.000000	63.027858 
4422.000000	62.989473 
4421.000000	63.141870 
4420.000000	63.470745 
4419.000000	63.913226 
4418.000000	64.395213 
4417.000000	64.842939 
4416.000000	65.209484 
4415.000000	65.472102 
4414.000000	65.634322 
4413.000000	65.713787 
4412.000000	65.734362 
4411.000000	65.717744 
4410.000000	65.678858 
4409.000000	65.628886 
4408.000000	65.572762 
4407.000000	65.521788 
4406.000000	65.485000 
4405.000000	65.466570 
4404.000000	65.465140 
4403.000000	65.478610 
4402.000000	65.500426 
4401.000000	65.519237 
4400.000000	65.523982 
4399.000000	65.505838 
4398.000000	65.461683 
4397.000000	65.398335 
4396.000000	65.325331 
4395.000000	65.247988 
4394.000000	65.173649 
4393.000000	65.110301 
4392.000000	65.066099 
4391.000000	65.048599 
4390.000000	65.061902 
4389.000000	65.105438 
4388.000000	65.172195 
4387.000000	65.249967 
4386.000000	65.325403 
4385.000000	65.386915 
4384.000000	65.426111 
4383.000000	65.439772 
4382.000000	65.430450 
4381.000000	65.405058 
4380.000000	65.371942 
4379.000000	65.338730 
4378.000000	65.309906 
4377.000000	65.286469 
4376.000000	65.266728 
4375.000000	65.247178 
4374.000000	65.224742 
4373.000000	65.197706 
4372.000000	65.167522 
4371.000000	65.137243 
4370.000000	65.110874 
4369.000000	65.091323 
4368.000000	65.078997 
4367.000000	65.071916 
4366.000000	65.066194 
4365.000000	65.057778 
4364.000000	65.044045 
4363.000000	65.025091 
4362.000000	65.004181 
4361.000000	64.986920 
4360.000000	64.979791 
4359.000000	64.988398 
4358.000000	65.015578 
4357.000000	65.060329 
4356.000000	65.117907 
4355.000000	65.180993 
4354.000000	65.241551 
4353.000000	65.292549 
4352.000000	65.329885 
4351.000000	65.353035 
4350.000000	65.364861 
4349.000000	65.370678 
4348.000000	65.376091 
4347.000000	65.385150 
4346.000000	65.399193 
4345.000000	65.417075 
4344.000000	65.434956 
4343.000000	65.448069 
4342.000000	65.451598 
4341.000000	65.442967 
4340.000000	65.421295 
4339.000000	65.388083 
4338.000000	65.346050 
4337.000000	65.298557 
4336.000000	65.248537 
4335.000000	65.197992 
4334.000000	65.147948 
4333.000000	65.098786 
4332.000000	65.050792 
4331.000000	65.004777 
4330.000000	64.962053 
4329.000000	64.924693 
4328.000000	64.895105 
4327.000000	64.875888 
4326.000000	64.868211 
4325.000000	64.872360 
4324.000000	64.887380 
4323.000000	64.911174 
4322.000000	64.940547 
4321.000000	64.972019 
4320.000000	65.002536 
4319.000000	65.029692 
4318.000000	65.051817 
4317.000000	65.067839 
4316.000000	65.077114 
4315.000000	65.079450 
4314.000000	65.074896 
4313.000000	65.063524 
4312.000000	65.045762 
4311.000000	65.022230 
4310.000000	64.994120 
4309.000000	64.962697 
4308.000000	64.929294 
4307.000000	64.895296 
4306.000000	64.861965 
4305.000000	64.830064 
4304.000000	64.799690 
4303.000000	64.770555 
4302.000000	64.742088 
4301.000000	64.713048 
4300.000000	64.682126 
4299.000000	64.648056 
4298.000000	64.610457 
4297.000000	64.569592 
4296.000000	64.527368 
4295.000000	64.486789 
4294.000000	64.452147 
4293.000000	64.427638 
4292.000000	64.417195 
4291.000000	64.422821 
4290.000000	64.444565 
4289.000000	64.479923 
4288.000000	64.524555 
4287.000000	64.572644 
4286.000000	64.618611 
4285.000000	64.657878 
4284.000000	64.688158 
4283.000000	64.709615 
4282.000000	64.724493 
4281.000000	64.735984 
4280.000000	64.747309 
4279.000000	64.760518 
4278.000000	64.775729 
4277.000000	64.791035 
4276.000000	64.803242 
4275.000000	64.809131 
4274.000000	64.806413 
4273.000000	64.794826 
4272.000000	64.776492 
4271.000000	64.755725 
4270.000000	64.737844 
4269.000000	64.727735 
4268.000000	64.728593 
4267.000000	64.740586 
4266.000000	64.760947 
4265.000000	64.784431 
4264.000000	64.804911 
4263.000000	64.817047 
4262.000000	64.817786 
4261.000000	64.807677 
4260.000000	64.790582 
4259.000000	64.772748 
4258.000000	64.760971 
4257.000000	64.760684 
4256.000000	64.774322 
4255.000000	64.800739 
4254.000000	64.835476 
4253.000000	64.871931 
4252.000000	64.903044 
4251.000000	64.923071 
4250.000000	64.928722 
4249.000000	64.919877 
4248.000000	64.899063 
4247.000000	64.870333 
4246.000000	64.838027 
4245.000000	64.805603 
4244.000000	64.774990 
4243.000000	64.746689 
4242.000000	64.719891 
4241.000000	64.693880 
4240.000000	64.668393 
4239.000000	64.644098 
4238.000000	64.623069 
4237.000000	64.607524 
4236.000000	64.600062 
4235.000000	64.602351 
4234.000000	64.614915 
4233.000000	64.636516 
4232.000000	64.664959 
4231.000000	64.697504 
4230.000000	64.731478 
4229.000000	64.764642 
4228.000000	64.796042 
4227.000000	64.825820 
4226.000000	64.855074 
4225.000000	64.885377 
4224.000000	64.918327 
4223.000000	64.954948 
4222.000000	64.995551 
4221.000000	65.039277 
4220.000000	65.084385 
4219.000000	65.128087 
4218.000000	65.167498 
4217.000000	65.199327 
4216.000000	65.221071 
4215.000000	65.230727 
4214.000000	65.228080 
4213.000000	65.213632 
4212.000000	65.188956 
4211.000000	65.156078 
4210.000000	65.117549 
4209.000000	65.075635 
4208.000000	65.032553 
4207.000000	64.989995 
4206.000000	64.949417 
4205.000000	64.912033 
4204.000000	64.878869 
4203.000000	64.851188 
4202.000000	64.830255 
4201.000000	64.817523 
4200.000000	64.814305 
4199.000000	64.821243 
4198.000000	64.838147 
4197.000000	64.863848 
4196.000000	64.896249 
4195.000000	64.932155 
4194.000000	64.967823 
4193.000000	64.999485 
4192.000000	65.024137 
4191.000000	65.039944 
4190.000000	65.046572 
4189.000000	65.045523 
4188.000000	65.039253 
4187.000000	65.031313 
4186.000000	65.024065 
4185.000000	65.018844 
4184.000000	65.014791 
4183.000000	65.009498 
4182.000000	64.999890 
4181.000000	64.983177 
4180.000000	64.958429 
4179.000000	64.927291 
4178.000000	64.893937 
4177.000000	64.864253 
4176.000000	64.844489 
4175.000000	64.839553 
4174.000000	64.851474 
4173.000000	64.878606 
4172.000000	64.915800 
4171.000000	64.955520 
4170.000000	64.989519 
4169.000000	65.010857 
4168.000000	65.015339 
4167.000000	65.002799 
4166.000000	64.976739 
4165.000000	64.943933 
4164.000000	64.912128 
4163.000000	64.888906 
4162.000000	64.880228 
4161.000000	64.889121 
4160.000000	64.915680 
4159.000000	64.956641 
4158.000000	65.006828 
4157.000000	65.059638 
4156.000000	65.108537 
4155.000000	65.147900 
4154.000000	65.173840 
4153.000000	65.184473 
4152.000000	65.179896 
4151.000000	65.162038 
4150.000000	65.134096 
4149.000000	65.099906 
4148.000000	65.063309 
4147.000000	65.027785 
4146.000000	64.996242 
4145.000000	64.970731 
4144.000000	64.952445 
4143.000000	64.941596 
4142.000000	64.937543 
4141.000000	64.938902 
4140.000000	64.943790 
4139.000000	64.950013 
4138.000000	64.955568 
4137.000000	64.958405 
4136.000000	64.957451 
4135.000000	64.952397 
4134.000000	64.944076 
4133.000000	64.933991 
4132.000000	64.923954 
4131.000000	64.915752 
4130.000000	64.910411 
4129.000000	64.908242 
4128.000000	64.908051 
4127.000000	64.907717 
4126.000000	64.904212 
4125.000000	64.894556 
4124.000000	64.876461 
4123.000000	64.849019 
4122.000000	64.813208 
4121.000000	64.771747 
4120.000000	64.728856 
4119.000000	64.689564 
4118.000000	64.659070 
4117.000000	64.641809 
4116.000000	64.640569 
4115.000000	64.655804 
4114.000000	64.685940 
4113.000000	64.727163 
4112.000000	64.773797 
4111.000000	64.818978 
4110.000000	64.855957 
4109.000000	64.878869 
4108.000000	64.883637 
4107.000000	64.868927 
4106.000000	64.836263 
4105.000000	64.790010 
4104.000000	64.736700 
4103.000000	64.683866 
4102.000000	64.638948 
4101.000000	64.607501 
4100.000000	64.592480 
4099.000000	64.593672 
4098.000000	64.608120 
4097.000000	64.631199 
4096.000000	64.657616 
4095.000000	64.682936 
4094.000000	64.704227 
4093.000000	64.720559 
4092.000000	64.732694 
4091.000000	64.742541 
4090.000000	64.752054 
4089.000000	64.762783 
4088.000000	64.775109 
4087.000000	64.788722 
4086.000000	64.802980 
4085.000000	64.817237 
4084.000000	64.831042 
4083.000000	64.844703 
4082.000000	64.858627 
4081.000000	64.873242 
4080.000000	64.888501 
4079.000000	64.903497 
4078.000000	64.916729 
4077.000000	64.927101 
4076.000000	64.933490 
4075.000000	64.936089 
4074.000000	64.935135 
4073.000000	64.931035 
4072.000000	64.923787 
4071.000000	64.912796 
4070.000000	64.896941 
4069.000000	64.874839 
4068.000000	64.845967 
4067.000000	64.811229 
4066.000000	64.773297 
4065.000000	64.736604 
4064.000000	64.706420 
4063.000000	64.687919 
4062.000000	64.684915 
4061.000000	64.698886 
4060.000000	64.728236 
4059.000000	64.768481 
4058.000000	64.813399 
4057.000000	64.856171 
4056.000000	64.890623 
4055.000000	64.912533 
4054.000000	64.920234 
4053.000000	64.914894 
4052.000000	64.899468 
4051.000000	64.878225 
4050.000000	64.855813 
4049.000000	64.836359 
4048.000000	64.822983 
4047.000000	64.817023 
4046.000000	64.818286 
4045.000000	64.825320 
4044.000000	64.835977 
4043.000000	64.848113 
4042.000000	64.859843 
4041.000000	64.870190 
4040.000000	64.879035 
4039.000000	64.886665 
4038.000000	64.893627 
4037.000000	64.900088 
4036.000000	64.905643 
4035.000000	64.909195 
4034.000000	64.909100 
4033.000000	64.903688 
4032.000000	64.891719 
4031.000000	64.873003 
4030.000000	64.848351 
4029.000000	64.819836 
4028.000000	64.790225 
4027.000000	64.762210 
4026.000000	64.738035 
4025.000000	64.718651 
4024.000000	64.704608 
4023.000000	64.695668 
4022.000000	64.691805 
4021.000000	64.693021 
4020.000000	64.699983 
4019.000000	64.713716 
4018.000000	64.735221 
4017.000000	64.764714 
4016.000000	64.801478 
4015.000000	64.843535 
4014.000000	64.887690 
4013.000000	64.929986 
4012.000000	64.966130 
4011.000000	64.992260 
4010.000000	65.005517 
4009.000000	65.004539 
4008.000000	64.989686 
4007.000000	64.963150 
4006.000000	64.928507 
4005.000000	64.890384 
4004.000000	64.854145 
4003.000000	64.824938 
4002.000000	64.807319 
4001.000000	64.804100 
4000.000000	64.816308 
3999.000000	64.842414 
3998.000000	64.878988 
3997.000000	64.920639 
3996.000000	64.960980 
3995.000000	64.993524 
3994.000000	65.013217 
3993.000000	65.016674 
3992.000000	65.002799 
3991.000000	64.972734 
3990.000000	64.929747 
3989.000000	64.878654 
3988.000000	64.824843 
3987.000000	64.773583 
3986.000000	64.729166 
3985.000000	64.694476 
3984.000000	64.670753 
3983.000000	64.657497 
3982.000000	64.652943 
3981.000000	64.654374 
3980.000000	64.659047 
3979.000000	64.664149 
3978.000000	64.667654 
3977.000000	64.668393 
3976.000000	64.666557 
3975.000000	64.662885 
3974.000000	64.659404 
3973.000000	64.658212 
3972.000000	64.661908 
3971.000000	64.672613 
3970.000000	64.691805 
3969.000000	64.720225 
3968.000000	64.757204 
3967.000000	64.800930 
3966.000000	64.848256 
3965.000000	64.895200 
3964.000000	64.937448 
3963.000000	64.970850 
3962.000000	64.992737 
3961.000000	65.002417 
3960.000000	65.001583 
3959.000000	64.993691 
3958.000000	64.983248 
3957.000000	64.974737 
3956.000000	64.971661 
3955.000000	64.975810 
3954.000000	64.986824 
3953.000000	65.002489 
3952.000000	65.019607 
3951.000000	65.034461 
3950.000000	65.044188 
3949.000000	65.046787 
3948.000000	65.041708 
3947.000000	65.029525 
3946.000000	65.011453 
3945.000000	64.989304 
3944.000000	64.964962 
3943.000000	64.940333 
3942.000000	64.917254 
3941.000000	64.896917 
3940.000000	64.880514 
3939.000000	64.867949 
3938.000000	64.858126 
3937.000000	64.848613 
3936.000000	64.836192 
3935.000000	64.817619 
3934.000000	64.790534 
3933.000000	64.754486 
3932.000000	64.711284 
3931.000000	64.664912 
3930.000000	64.620542 
3929.000000	64.583230 
3928.000000	64.556455 
3927.000000	64.541149 
3926.000000	64.535641 
3925.000000	64.535737 
3924.000000	64.536571 
3923.000000	64.534091 
3922.000000	64.526891 
3921.000000	64.516472 
3920.000000	64.507269 
3919.000000	64.504933 
3918.000000	64.515042 
3917.000000	64.540529 
3916.000000	64.581513 
3915.000000	64.634370 
3914.000000	64.693045 
3913.000000	64.750671 
3912.000000	64.801311 
3911.000000	64.841461 
3910.000000	64.870882 
3909.000000	64.892411 
3908.000000	64.910864 
3907.000000	64.931154 
3906.000000	64.956951 
3905.000000	64.989304 
3904.000000	65.025854 
3903.000000	65.061378 
3902.000000	65.089058 
3901.000000	65.102291 
3900.000000	65.096163 
3899.000000	65.069150 
3898.000000	65.023279 
3897.000000	64.964413 
3896.000000	64.900684 
3895.000000	64.841532 
3894.000000	64.795708 
3893.000000	64.769911 
3892.000000	64.767789 
3891.000000	64.789414 
3890.000000	64.831519 
3889.000000	64.888119 
3888.000000	64.951801 
3887.000000	65.014815 
3886.000000	65.070033 
3885.000000	65.112304 
3884.000000	65.138697 
3883.000000	65.149021 
3882.000000	65.145063 
3881.000000	65.130496 
3880.000000	65.110111 
3879.000000	65.088486 
3878.000000	65.069270 
3877.000000	65.054321 
3876.000000	65.043902 
3875.000000	65.036463 
3874.000000	65.029525 
3873.000000	65.020585 
3872.000000	65.008330 
3871.000000	64.992761 
3870.000000	64.975738 
3869.000000	64.960575 
3868.000000	64.951205 
3867.000000	64.950966 
3866.000000	64.961862 
3865.000000	64.983415 
3864.000000	65.013051 
3863.000000	65.046525 
3862.000000	65.079021 
3861.000000	65.105748 
3860.000000	65.123105 
3859.000000	65.129494 
3858.000000	65.125107 
3857.000000	65.111970 
3856.000000	65.092873 
3855.000000	65.070319 
3854.000000	65.046167 
3853.000000	65.021586 
3852.000000	64.996767 
3851.000000	64.971351 
3850.000000	64.944767 
3849.000000	64.916825 
3848.000000	64.887833 
3847.000000	64.858722 
3846.000000	64.830708 
3845.000000	64.805054 
3844.000000	64.782810 
3843.000000	64.764761 
3842.000000	64.751195 
3841.000000	64.742517 
3840.000000	64.739370 
3839.000000	64.742803 
3838.000000	64.754033 
3837.000000	64.774394 
3836.000000	64.804768 
3835.000000	64.844608 
3834.000000	64.891600 
3833.000000	64.941453 
3832.000000	64.988303 
3831.000000	65.025687 
3830.000000	65.047907 
3829.000000	65.050935 
3828.000000	65.033602 
3827.000000	64.997935 
3826.000000	64.949131 
3825.000000	64.894104 
3824.000000	64.840412 
3823.000000	64.794301 
3822.000000	64.759635 
3821.000000	64.737200 
3820.000000	64.725327 
3819.000000	64.720654 
3818.000000	64.719700 
3817.000000	64.719748 
3816.000000	64.720273 
3815.000000	64.722561 
3814.000000	64.729833 
3813.000000	64.745473 
3812.000000	64.772582 
3811.000000	64.812374 
3810.000000	64.863824 
3809.000000	64.923858 
3808.000000	64.987301 
3807.000000	65.048050 
3806.000000	65.099716 
3805.000000	65.136957 
3804.000000	65.155959 
3803.000000	65.155172 
3802.000000	65.135216 
3801.000000	65.098786 
3800.000000	65.050005 
3799.000000	64.994263 
3798.000000	64.936923 
3797.000000	64.882898 
3796.000000	64.835667 
3795.000000	64.797067 
3794.000000	64.767169 
3793.000000	64.744615 
3792.000000	64.727210 
3791.000000	64.712786 
3790.000000	64.699888 
3789.000000	64.688563 
3788.000000	64.680314 
3787.000000	64.678096 
3786.000000	64.684963 
3785.000000	64.703726 
3784.000000	64.735746 
3783.000000	64.780473 
3782.000000	64.834976 
3781.000000	64.894199 
3780.000000	64.952349 
3779.000000	65.003299 
3778.000000	65.042114 
3777.000000	65.065336 
3776.000000	65.071845 
3775.000000	65.062594 
3774.000000	65.040349 
3773.000000	65.008974 
3772.000000	64.972758 
3771.000000	64.935684 
3770.000000	64.901161 
3769.000000	64.871191 
3768.000000	64.846467 
3767.000000	64.826774 
3766.000000	64.811253 
3765.000000	64.798784 
3764.000000	64.788222 
3763.000000	64.778947 
3762.000000	64.770960 
3761.000000	64.764428 
3760.000000	64.759516 
3759.000000	64.756155 
3758.000000	64.753723 
3757.000000	64.750790 
3756.000000	64.745926 
3755.000000	64.737582 
3754.000000	64.725184 
3753.000000	64.709329 
3752.000000	64.692258 
3751.000000	64.677286 
3750.000000	64.668393 
3749.000000	64.669179 
3748.000000	64.681816 
3747.000000	64.706277 
3746.000000	64.740228 
3745.000000	64.779376 
3744.000000	64.818286 
3743.000000	64.851546 
3742.000000	64.874815 
3741.000000	64.885783 
3740.000000	64.884328 
3739.000000	64.872455 
3738.000000	64.853453 
3737.000000	64.830970 
3736.000000	64.808464 
3735.000000	64.788365 
3734.000000	64.772248 
3733.000000	64.760708 
3732.000000	64.753913 
3731.000000	64.751863 
3730.000000	64.754796 
3729.000000	64.763379 
3728.000000	64.777779 
3727.000000	64.798307 
3726.000000	64.824628 
3725.000000	64.855980 
3724.000000	64.890861 
3723.000000	64.927506 
3722.000000	64.963984 
3721.000000	64.998531 
3720.000000	65.029740 
3719.000000	65.056419 
3718.000000	65.077543 
3717.000000	65.092301 
3716.000000	65.100169 
3715.000000	65.101242 
3714.000000	65.096259 
3713.000000	65.086674 
3712.000000	65.074658 
3711.000000	65.062689 
3710.000000	65.052914 
3709.000000	65.046572 
3708.000000	65.043592 
3707.000000	65.042328 
3706.000000	65.039849 
3705.000000	65.032720 
3704.000000	65.017890 
3703.000000	64.993500 
3702.000000	64.959716 
3701.000000	64.918875 
3700.000000	64.875268 
3699.000000	64.834237 
3698.000000	64.800977 
3697.000000	64.779496 
3696.000000	64.771866 
3695.000000	64.777827 
3694.000000	64.794921 
3693.000000	64.819002 
3692.000000	64.845418 
3691.000000	64.869856 
3690.000000	64.889264 
3689.000000	64.901971 
3688.000000	64.908075 
3687.000000	64.908933 
3686.000000	64.906620 
3685.000000	64.903116 
3684.000000	64.899945 
3683.000000	64.897775 
3682.000000	64.896464 
3681.000000	64.895367 
3680.000000	64.893555 
3679.000000	64.890551 
3678.000000	64.886450 
3677.000000	64.882278 
3676.000000	64.879727 
3675.000000	64.880943 
3674.000000	64.887857 
3673.000000	64.901518 
3672.000000	64.921641 
3671.000000	64.946413 
3670.000000	64.972972 
3669.000000	64.997792 
3668.000000	65.017509 
3667.000000	65.029907 
3666.000000	65.034413 
3665.000000	65.032172 
3664.000000	65.025472 
3663.000000	65.017199 
3662.000000	65.010166 
3661.000000	65.006256 
3660.000000	65.006136 
3659.000000	65.009093 
3658.000000	65.013313 
3657.000000	65.016555 
3656.000000	65.016674 
3655.000000	65.012145 
3654.000000	65.002226 
3653.000000	64.987206 
3652.000000	64.968037 
3651.000000	64.946174 
3650.000000	64.923071 
3649.000000	64.900088 
3648.000000	64.878416 
3647.000000	64.859008 
3646.000000	64.842724 
3645.000000	64.830493 
3644.000000	64.823365 
3643.000000	64.822053 
3642.000000	64.827442 
3641.000000	64.839935 
3640.000000	64.859485 
3639.000000	64.885306 
3638.000000	64.916086 
3637.000000	64.949917 
3636.000000	64.984393 
3635.000000	65.016746 
3634.000000	65.044236 
3633.000000	65.064454 
3632.000000	65.075612 
3631.000000	65.076661 
3630.000000	65.067672 
3629.000000	65.049982 
3628.000000	65.026140 
3627.000000	64.999556 
3626.000000	64.974236 
3625.000000	64.953804 
3624.000000	64.941334 
3623.000000	64.938378 
3622.000000	64.944887 
3621.000000	64.959096 
3620.000000	64.977955 
3619.000000	64.997982 
3618.000000	65.015602 
3617.000000	65.028452 
3616.000000	65.035390 
3615.000000	65.036630 
3614.000000	65.033483 
3613.000000	65.027832 
3612.000000	65.021419 
3611.000000	65.015149 
3610.000000	65.008997 
3609.000000	65.001940 
3608.000000	64.992570 
3607.000000	64.979481 
3606.000000	64.962100 
3605.000000	64.940714 
3604.000000	64.916491 
3603.000000	64.891505 
3602.000000	64.867949 
3601.000000	64.847445 
3600.000000	64.830923 
3599.000000	64.818477 
3598.000000	64.809703 
3597.000000	64.803719 
3596.000000	64.799666 
3595.000000	64.797043 
3594.000000	64.795756 
3593.000000	64.796018 
3592.000000	64.798378 
3591.000000	64.803147 
3590.000000	64.810633 
3589.000000	64.820671 
3588.000000	64.833021 
3587.000000	64.847040 
3586.000000	64.862155 
3585.000000	64.877700 
3584.000000	64.893102 
3583.000000	64.907550 
3582.000000	64.920258 
3581.000000	64.930248 
3580.000000	64.936542 
3579.000000	64.938092 
3578.000000	64.934086 
3577.000000	64.924097 
3576.000000	64.907956 
3575.000000	64.886045 
3574.000000	64.859080 
3573.000000	64.828324 
3572.000000	64.795231 
3571.000000	64.761614 
3570.000000	64.729523 
3569.000000	64.701151 
3568.000000	64.678788 
3567.000000	64.664435 
3566.000000	64.659357 
3565.000000	64.664316 
3564.000000	64.678764 
3563.000000	64.701557 
3562.000000	64.730381 
3561.000000	64.762783 
3560.000000	64.796400 
3559.000000	64.829373 
3558.000000	64.860463 
3557.000000	64.888954 
3556.000000	64.914488 
3555.000000	64.936542 
3554.000000	64.954400 
3553.000000	64.967107 
3552.000000	64.973807 
3551.000000	64.974093 
3550.000000	64.968395 
3549.000000	64.958500 
3548.000000	64.947080 
3547.000000	64.937639 
3546.000000	64.933061 
3545.000000	64.935088 
3544.000000	64.943504 
3543.000000	64.956045 
3542.000000	64.968895 
3541.000000	64.977502 
3540.000000	64.977693 
3539.000000	64.967083 
3538.000000	64.945316 
3537.000000	64.914202 
3536.000000	64.877438 
3535.000000	64.839363 
3534.000000	64.804434 
3533.000000	64.776301 
3532.000000	64.757418 
3531.000000	64.748787 
3530.000000	64.750289 
3529.000000	64.760994 
3528.000000	64.779257 
3527.000000	64.802837 
3526.000000	64.828968 
3525.000000	64.854550 
3524.000000	64.876055 
3523.000000	64.890217 
3522.000000	64.894580 
3521.000000	64.887928 
3520.000000	64.871096 
3519.000000	64.846515 
3518.000000	64.818000 
3517.000000	64.789581 
3516.000000	64.764952 
3515.000000	64.746308 
3514.000000	64.734005 
3513.000000	64.726710 
3512.000000	64.722037 
3511.000000	64.717364 
3510.000000	64.710688 
3509.000000	64.701294 
3508.000000	64.689993 
3507.000000	64.678812 
3506.000000	64.670300 
3505.000000	64.666938 
3504.000000	64.670228 
3503.000000	64.680504 
3502.000000	64.696812 
3501.000000	64.717268 
3500.000000	64.739894 
3499.000000	64.762854 
3498.000000	64.784908 
3497.000000	64.805269 
3496.000000	64.823532 
3495.000000	64.839529 
3494.000000	64.852905 
3493.000000	64.863014 
3492.000000	64.868879 
3491.000000	64.869713 
3490.000000	64.865088 
3489.000000	64.855551 
3488.000000	64.842247 
3487.000000	64.827322 
3486.000000	64.813375 
3485.000000	64.803004 
3484.000000	64.798235 
3483.000000	64.799833 
3482.000000	64.807510 
3481.000000	64.819836 
3480.000000	64.834761 
3479.000000	64.850020 
3478.000000	64.863753 
3477.000000	64.874887 
3476.000000	64.882946 
3475.000000	64.888095 
3474.000000	64.890694 
3473.000000	64.891028 
3472.000000	64.889001 
3471.000000	64.883875 
3470.000000	64.874696 
3469.000000	64.860606 
3468.000000	64.841079 
3467.000000	64.816379 
3466.000000	64.787673 
3465.000000	64.757061 
3464.000000	64.727020 
3463.000000	64.700245 
3462.000000	64.678883 
3461.000000	64.664530 
3460.000000	64.657616 
3459.000000	64.657998 
3458.000000	64.664244 
3457.000000	64.674639 
3456.000000	64.687061 
3455.000000	64.699697 
3454.000000	64.710903 
3453.000000	64.720034 
3452.000000	64.727044 
3451.000000	64.733004 
3450.000000	64.739155 
3449.000000	64.747262 
3448.000000	64.758563 
3447.000000	64.773750 
3446.000000	64.792609 
3445.000000	64.814090 
3444.000000	64.836597 
3443.000000	64.858484 
3442.000000	64.878582 
3441.000000	64.896392 
3440.000000	64.912223 
3439.000000	64.927220 
3438.000000	64.942622 
3437.000000	64.959406 
3436.000000	64.977312 
3435.000000	64.995479 
3434.000000	65.011739 
3433.000000	65.023612 
3432.000000	65.028619 
3431.000000	65.025424 
3430.000000	65.013694 
3429.000000	64.994502 
3428.000000	64.970111 
3427.000000	64.943385 
3426.000000	64.917325 
3425.000000	64.894628 
3424.000000	64.877390 
3423.000000	64.866685 
3422.000000	64.862990 
3421.000000	64.866280 
3420.000000	64.876222 
3419.000000	64.891839 
3418.000000	64.912009 
3417.000000	64.935255 
3416.000000	64.959645 
3415.000000	64.982986 
3414.000000	65.003108 
3413.000000	65.018320 
3412.000000	65.027546 
3411.000000	65.030455 
3410.000000	65.027546 
3409.000000	65.019845 
3408.000000	65.008640 
3407.000000	64.995193 
3406.000000	64.980506 
3405.000000	64.965200 
3404.000000	64.949917 
3403.000000	64.935064 
3402.000000	64.921188 
3401.000000	64.908623 
3400.000000	64.898037 
3399.000000	64.889597 
3398.000000	64.883232 
3397.000000	64.878034 
3396.000000	64.872646 
3395.000000	64.865159 
3394.000000	64.853644 
3393.000000	64.836549 
3392.000000	64.813232 
3391.000000	64.784121 
3390.000000	64.750862 
3389.000000	64.715981 
3388.000000	64.682459 
3387.000000	64.653325 
3386.000000	64.630961 
3385.000000	64.616847 
3384.000000	64.611434 
3383.000000	64.614152 
3382.000000	64.624023 
3381.000000	64.639520 
3380.000000	64.659547 
3379.000000	64.683270 
3378.000000	64.710545 
3377.000000	64.741110 
3376.000000	64.774680 
3375.000000	64.810252 
3374.000000	64.846181 
3373.000000	64.880204 
3372.000000	64.909625 
3371.000000	64.931750 
3370.000000	64.944577 
3369.000000	64.947342 
3368.000000	64.940547 
3367.000000	64.925718 
3366.000000	64.905333 
3365.000000	64.882397 
3364.000000	64.859843 
3363.000000	64.840149 
3362.000000	64.825439 
3361.000000	64.817142 
3360.000000	64.816379 
3359.000000	64.823365 
3358.000000	64.838051 
3357.000000	64.859223 
3356.000000	64.884114 
3355.000000	64.908647 
3354.000000	64.927721 
3353.000000	64.936184 
3352.000000	64.929723 
3351.000000	64.906477 
3350.000000	64.867234 
3349.000000	64.816093 
3348.000000	64.759612 
3347.000000	64.705729 
3346.000000	64.661908 
3345.000000	64.634060 
3344.000000	64.625382 
3343.000000	64.635944 
3342.000000	64.662694 
3341.000000	64.700722 
3340.000000	64.744448 
3339.000000	64.788460 
3338.000000	64.828491 
3337.000000	64.861822 
3336.000000	64.887380 
3335.000000	64.905238 
3334.000000	64.916253 
3333.000000	64.921736 
3332.000000	64.923095 
3331.000000	64.921855 
3330.000000	64.919328 
3329.000000	64.916586 
3328.000000	64.914083 
3327.000000	64.911961 
3326.000000	64.909911 
3325.000000	64.907431 
3324.000000	64.903950 
3323.000000	64.899206 
3322.000000	64.893269 
3321.000000	64.886641 
3320.000000	64.879941 
3319.000000	64.874005 
3318.000000	64.869260 
3317.000000	64.865541 
3316.000000	64.862108 
3315.000000	64.858102 
3314.000000	64.852380 
3313.000000	64.844155 
3312.000000	64.833283 
3311.000000	64.820337 
3310.000000	64.806461 
3309.000000	64.793229 
3308.000000	64.781785 
3307.000000	64.772653 
3306.000000	64.765954 
3305.000000	64.761519 
3304.000000	64.758682 
3303.000000	64.756965 
3302.000000	64.755988 
3301.000000	64.755678 
3300.000000	64.756274 
3299.000000	64.758205 
3298.000000	64.761781 
3297.000000	64.767360 
3296.000000	64.774990 
3295.000000	64.784550 
3294.000000	64.795422 
3293.000000	64.806962 
3292.000000	64.818477 
3291.000000	64.829206 
3290.000000	64.838814 
3289.000000	64.847016 
3288.000000	64.853906 
3287.000000	64.859509 
3286.000000	64.863657 
3285.000000	64.865994 
3284.000000	64.865922 
3283.000000	64.862608 
3282.000000	64.855432 
3281.000000	64.843845 
3280.000000	64.828062 
3279.000000	64.808821 
3278.000000	64.787578 
3277.000000	64.766240 
3276.000000	64.747047 
3275.000000	64.732217 
3274.000000	64.723825 
3273.000000	64.723110 
3272.000000	64.730525 
3271.000000	64.745879 
3270.000000	64.768028 
3269.000000	64.795088 
3268.000000	64.824819 
3267.000000	64.854907 
3266.000000	64.883255 
3265.000000	64.908194 
3264.000000	64.928555 
3263.000000	64.943861 
3262.000000	64.954304 
3261.000000	64.960527 
3260.000000	64.963555 
3259.000000	64.964675 
3258.000000	64.965009 
3257.000000	64.965581 
3256.000000	64.967060 
3255.000000	64.969825 
3254.000000	64.973974 
3253.000000	64.979124 
3252.000000	64.984560 
3251.000000	64.989233 
3250.000000	64.991998 
3249.000000	64.991521 
3248.000000	64.986681 
3247.000000	64.976429 
3246.000000	64.960122 
3245.000000	64.937710 
3244.000000	64.909791 
3243.000000	64.877820 
3242.000000	64.843797 
3241.000000	64.810252 
3240.000000	64.779853 
3239.000000	64.754939 
3238.000000	64.737248 
3237.000000	64.727520 
3236.000000	64.725470 
3235.000000	64.729785 
3234.000000	64.738130 
3233.000000	64.747834 
3232.000000	64.756393 
3231.000000	64.761662 
3230.000000	64.762401 
3229.000000	64.758253 
3228.000000	64.749884 
3227.000000	64.738750 
3226.000000	64.726686 
3225.000000	64.715456 
3224.000000	64.706492 
3223.000000	64.700627 
3222.000000	64.698028 
3221.000000	64.698243 
3220.000000	64.700555 
3219.000000	64.703869 
3218.000000	64.707565 
3217.000000	64.711308 
3216.000000	64.715576 
3215.000000	64.721131 
3214.000000	64.729213 
3213.000000	64.740824 
3212.000000	64.756536 
3211.000000	64.776396 
3210.000000	64.799308 
3209.000000	64.823269 
3208.000000	64.845705 
3207.000000	64.864015 
3206.000000	64.875984 
3205.000000	64.880180 
3204.000000	64.876556 
3203.000000	64.866352 
3202.000000	64.852070 
3201.000000	64.836788 
3200.000000	64.823794 
3199.000000	64.815616 
3198.000000	64.813733 
3197.000000	64.818048 
3196.000000	64.827108 
3195.000000	64.838600 
3194.000000	64.849734 
3193.000000	64.857959 
3192.000000	64.861512 
3191.000000	64.859795 
3190.000000	64.853167 
3189.000000	64.843034 
3188.000000	64.831042 
3187.000000	64.819097 
3186.000000	64.808869 
3185.000000	64.801573 
3184.000000	64.797997 
3183.000000	64.798307 
3182.000000	64.802336 
3181.000000	64.809560 
3180.000000	64.819049 
3179.000000	64.829635 
3178.000000	64.840078 
3177.000000	64.849233 
3176.000000	64.855980 
3175.000000	64.859890 
3174.000000	64.861083 
3173.000000	64.860510 
3172.000000	64.859509 
3171.000000	64.859604 
3170.000000	64.862227 
3169.000000	64.868068 
3168.000000	64.877057 
3167.000000	64.888238 
3166.000000	64.899969 
3165.000000	64.910411 
3164.000000	64.917874 
3163.000000	64.921140 
3162.000000	64.919877 
3161.000000	64.914369 
3160.000000	64.905738 
3159.000000	64.895534 
3158.000000	64.885282 
3157.000000	64.876246 
3156.000000	64.868998 
3155.000000	64.863348 
3154.000000	64.858460 
3153.000000	64.853167 
3152.000000	64.846277 
3151.000000	64.837098 
3150.000000	64.825606 
3149.000000	64.812445 
3148.000000	64.798665 
3147.000000	64.785480 
3146.000000	64.773750 
3145.000000	64.764046 
3144.000000	64.756560 
3143.000000	64.751195 
3142.000000	64.747858 
3141.000000	64.746618 
3140.000000	64.747929 
3139.000000	64.752554 
3138.000000	64.761161 
3137.000000	64.774298 
3136.000000	64.791822 
3135.000000	64.812803 
3134.000000	64.835739 
3133.000000	64.858341 
3132.000000	64.878368 
3131.000000	64.893651 
3130.000000	64.902663 
3129.000000	64.904475 
3128.000000	64.898967 
3127.000000	64.886760 
3126.000000	64.868950 
3125.000000	64.847493 
3124.000000	64.824509 
3123.000000	64.802598 
3122.000000	64.784336 
3121.000000	64.771962 
3120.000000	64.766907 
3119.000000	64.769577 
3118.000000	64.779186 
3117.000000	64.793515 
3116.000000	64.809536 
3115.000000	64.823722 
3114.000000	64.833068 
3113.000000	64.835476 
3112.000000	64.830541 
3111.000000	64.819240 
3110.000000	64.803743 
3109.000000	64.787101 
3108.000000	64.772319 
3107.000000	64.761590 
3106.000000	64.755940 
3105.000000	64.755463 
3104.000000	64.759325 
3103.000000	64.765954 
3102.000000	64.773607 
3101.000000	64.780855 
3100.000000	64.786458 
3099.000000	64.789509 
3098.000000	64.789700 
3097.000000	64.787197 
3096.000000	64.782714 
3095.000000	64.777207 
3094.000000	64.772033 
3093.000000	64.768505 
3092.000000	64.767980 
3091.000000	64.771413 
3090.000000	64.779162 
3089.000000	64.790606 
3088.000000	64.804506 
3087.000000	64.818906 
3086.000000	64.831519 
3085.000000	64.840126 
3084.000000	64.843225 
3083.000000	64.839887 
3082.000000	64.830231 
3081.000000	64.815044 
3080.000000	64.795732 
3079.000000	64.773845 
3078.000000	64.750862 
3077.000000	64.727807 
3076.000000	64.705395 
3075.000000	64.683866 
3074.000000	64.663267 
3073.000000	64.643573 
3072.000000	64.624762 
3071.000000	64.607405 
3070.000000	64.592266 
3069.000000	64.580678 
3068.000000	64.573860 
3067.000000	64.572978 
3066.000000	64.578819 
3065.000000	64.591598 
3064.000000	64.610815 
3063.000000	64.635062 
3062.000000	64.662194 
3061.000000	64.689707 
3060.000000	64.715147 
3059.000000	64.736294 
3058.000000	64.751625 
3057.000000	64.760351 
3056.000000	64.762568 
3055.000000	64.759159 
3054.000000	64.751529 
3053.000000	64.741230 
3052.000000	64.729809 
3051.000000	64.718508 
3050.000000	64.708137 
3049.000000	64.699244 
3048.000000	64.692020 
3047.000000	64.686441 
3046.000000	64.682435 
3045.000000	64.680051 
3044.000000	64.679360 
3043.000000	64.680457 
3042.000000	64.683508 
3041.000000	64.688587 
3040.000000	64.695906 
3039.000000	64.705681 
3038.000000	64.718079 
3037.000000	64.733099 
3036.000000	64.750456 
3035.000000	64.769387 
3034.000000	64.788556 
3033.000000	64.805984 
3032.000000	64.819645 
3031.000000	64.827394 
3030.000000	64.827537 
3029.000000	64.819121 
3028.000000	64.802479 
3027.000000	64.779090 
3026.000000	64.751434 
3025.000000	64.722537 
3024.000000	64.695787 
3023.000000	64.674139 
3022.000000	64.659690 
3021.000000	64.653468 
3020.000000	64.655232 
3019.000000	64.663743 
3018.000000	64.677023 
3017.000000	64.692664 
3016.000000	64.708185 
3015.000000	64.721560 
3014.000000	64.731431 
3013.000000	64.737200 
3012.000000	64.739036 
3011.000000	64.737796 
3010.000000	64.734721 
3009.000000	64.731144 
3008.000000	64.728164 
3007.000000	64.726495 
3006.000000	64.726114 
3005.000000	64.726638 
3004.000000	64.727330 
3003.000000	64.727401 
3002.000000	64.726161 
3001.000000	64.723229 
3000.000000	64.718723 
2999.000000	64.713072 
2998.000000	64.706969 
2997.000000	64.701080 
2996.000000	64.696002 
2995.000000	64.692091 
2994.000000	64.689373 
2993.000000	64.687538 
2992.000000	64.686131 
2991.000000	64.684748 
2990.000000	64.683341 
2989.000000	64.682126 
2988.000000	64.681601 
2987.000000	64.682340 
2986.000000	64.684867 
2985.000000	64.689564 
2984.000000	64.696288 
2983.000000	64.704346 
2982.000000	64.712762 
2981.000000	64.720535 
2980.000000	64.726805 
2979.000000	64.730954 
2978.000000	64.732742 
2977.000000	64.732336 
2976.000000	64.729976 
2975.000000	64.725899 
2974.000000	64.720129 
2973.000000	64.712595 
2972.000000	64.703011 
2971.000000	64.691543 
2970.000000	64.678835 
2969.000000	64.666104 
2968.000000	64.655184 
2967.000000	64.647889 
2966.000000	64.645457 
2965.000000	64.648032 
2964.000000	64.654445 
2963.000000	64.662456 
2962.000000	64.669132 
2961.000000	64.671492 
2960.000000	64.667320 
2959.000000	64.655637 
2958.000000	64.637017 
2957.000000	64.613413 
2956.000000	64.587426 
2955.000000	64.561867 
2954.000000	64.538860 
2953.000000	64.519691 
2952.000000	64.504384 
2951.000000	64.492273 
2950.000000	64.482235 
2949.000000	64.473080 
2948.000000	64.464092 
2947.000000	64.455080 
2946.000000	64.446640 
2945.000000	64.439392 
2944.000000	64.434719 
2943.000000	64.433956 
2942.000000	64.438486 
2941.000000	64.449286 
2940.000000	64.466452 
2939.000000	64.488959 
2938.000000	64.514541 
2937.000000	64.539980 
2936.000000	64.561295 
2935.000000	64.574599 
2934.000000	64.577007 
2933.000000	64.567446 
2932.000000	64.546871 
2931.000000	64.518475 
2930.000000	64.486956 
2929.000000	64.457631 
2928.000000	64.435195 
2927.000000	64.422631 
2926.000000	64.420652 
2925.000000	64.427757 
2924.000000	64.440584 
2923.000000	64.454841 
2922.000000	64.466404 
2921.000000	64.472126 
2920.000000	64.470076 
2919.000000	64.459824 
2918.000000	64.441967 
2917.000000	64.418244 
2916.000000	64.390993 
2915.000000	64.362978 
2914.000000	64.337062 
2913.000000	64.315915 
2912.000000	64.301800 
2911.000000	64.296030 
2910.000000	64.298939 
2909.000000	64.309740 
2908.000000	64.326643 
2907.000000	64.347267 
2906.000000	64.368677 
2905.000000	64.388585 
2904.000000	64.405441 
2903.000000	64.419007 
2902.000000	64.430022 
2901.000000	64.440274 
2900.000000	64.451861 
2899.000000	64.466691 
2898.000000	64.485740 
2897.000000	64.508819 
2896.000000	64.534306 
2895.000000	64.559841 
2894.000000	64.582896 
2893.000000	64.600992 
2892.000000	64.612674 
2891.000000	64.617681 
2890.000000	64.616870 
2889.000000	64.612007 
2888.000000	64.605021 
2887.000000	64.597845 
2886.000000	64.591598 
2885.000000	64.586520 
2884.000000	64.582037 
2883.000000	64.577245 
2882.000000	64.571118 
2881.000000	64.562964 
2880.000000	64.552736 
2879.000000	64.541053 
2878.000000	64.528894 
2877.000000	64.517378 
2876.000000	64.507222 
2875.000000	64.498782 
2874.000000	64.491891 
2873.000000	64.486122 
2872.000000	64.480948 
2871.000000	64.476108 
2870.000000	64.471936 
2869.000000	64.469218 
2868.000000	64.469099 
2867.000000	64.472651 
2866.000000	64.480710 
2865.000000	64.493513 
2864.000000	64.510393 
2863.000000	64.529943 
2862.000000	64.550542 
2861.000000	64.570426 
2860.000000	64.587950 
2859.000000	64.601969 
2858.000000	64.611887 
2857.000000	64.617609 
2856.000000	64.619541 
2855.000000	64.618468 
2854.000000	64.615416 
2853.000000	64.611601 
2852.000000	64.608430 
2851.000000	64.607286 
2850.000000	64.609146 
2849.000000	64.614582 
2848.000000	64.623594 
2847.000000	64.635419 
2846.000000	64.648556 
2845.000000	64.661192 
2844.000000	64.671277 
2843.000000	64.677214 
2842.000000	64.677858 
2841.000000	64.672899 
2840.000000	64.662766 
2839.000000	64.648532 
2838.000000	64.631509 
2837.000000	64.612936 
2836.000000	64.593911 
2835.000000	64.575123 
2834.000000	64.557194 
2833.000000	64.540386 
2832.000000	64.525246 
2831.000000	64.512610 
2830.000000	64.503502 
2829.000000	64.498996 
2828.000000	64.500141 
2827.000000	64.507508 
2826.000000	64.520978 
2825.000000	64.539647 
2824.000000	64.561867 
2823.000000	64.585399 
2822.000000	64.607906 
2821.000000	64.627003 
2820.000000	64.640784 
2819.000000	64.647984 
2818.000000	64.648246 
2817.000000	64.642047 
2816.000000	64.630556 
2815.000000	64.615464 
2814.000000	64.599061 
2813.000000	64.583349 
2812.000000	64.570236 
2811.000000	64.560961 
2810.000000	64.556169 
2809.000000	64.555692 
2808.000000	64.558744 
2807.000000	64.564132 
2806.000000	64.570593 
2805.000000	64.576983 
2804.000000	64.582467 
2803.000000	64.586758 
2802.000000	64.589929 
2801.000000	64.592361 
2800.000000	64.594268 
2799.000000	64.595770 
2798.000000	64.596652 
2797.000000	64.596366 
2796.000000	64.594173 
2795.000000	64.589500 
2794.000000	64.582109 
2793.000000	64.572620 
2792.000000	64.562439 
2791.000000	64.553380 
2790.000000	64.547634 
2789.000000	64.546942 
2788.000000	64.552378 
2787.000000	64.563870 
2786.000000	64.580416 
2785.000000	64.599919 
2784.000000	64.620184 
2783.000000	64.639043 
2782.000000	64.654994 
2781.000000	64.667224 
2780.000000	64.675712 
2779.000000	64.681053 
2778.000000	64.684152 
2777.000000	64.686107 
2776.000000	64.687752 
2775.000000	64.689803 
2774.000000	64.692425 
2773.000000	64.695644 
2772.000000	64.699006 
2771.000000	64.701890 
2770.000000	64.703392 
2769.000000	64.702415 
2768.000000	64.697861 
2767.000000	64.688897 
2766.000000	64.675140 
2765.000000	64.656877 
2764.000000	64.635229 
2763.000000	64.611959 
2762.000000	64.589405 
2761.000000	64.570140 
2760.000000	64.556336 
2759.000000	64.549589 
2758.000000	64.550614 
2757.000000	64.559125 
2756.000000	64.573907 
2755.000000	64.592957 
2754.000000	64.613962 
2753.000000	64.634537 
2752.000000	64.652538 
2751.000000	64.666223 
2750.000000	64.674639 
2749.000000	64.677500 
2748.000000	64.675140 
2747.000000	64.668440 
2746.000000	64.658784 
2745.000000	64.647626 
2744.000000	64.636445 
2743.000000	64.626312 
2742.000000	64.617633 
2741.000000	64.610362 
2740.000000	64.603853 
2739.000000	64.597153 
2738.000000	64.589476 
2737.000000	64.580392 
2736.000000	64.569950 
2735.000000	64.558601 
2734.000000	64.547324 
2733.000000	64.537072 
2732.000000	64.528870 
2731.000000	64.523363 
2730.000000	64.520883 
2729.000000	64.521408 
2728.000000	64.524793 
2727.000000	64.530658 
2726.000000	64.538764 
2725.000000	64.548826 
2724.000000	64.560437 
2723.000000	64.573240 
2722.000000	64.586663 
2721.000000	64.599823 
2720.000000	64.611625 
2719.000000	64.621162 
2718.000000	64.627504 
2717.000000	64.630103 
2716.000000	64.628791 
2715.000000	64.623856 
2714.000000	64.615917 
2713.000000	64.606165 
2712.000000	64.596056 
2711.000000	64.587068 
2710.000000	64.580702 
2709.000000	64.578056 
2708.000000	64.579606 
2707.000000	64.585161 
2706.000000	64.593791 
2705.000000	64.603781 
2704.000000	64.612936 
2703.000000	64.618921 
2702.000000	64.619851 
2701.000000	64.614486 
2700.000000	64.602303 
2699.000000	64.583754 
2698.000000	64.560079 
2697.000000	64.533209 
2696.000000	64.505076 
2695.000000	64.477729 
2694.000000	64.452934 
2693.000000	64.432072 
2692.000000	64.416193 
2691.000000	64.406013 
2690.000000	64.401936 
2689.000000	64.404010 
2688.000000	64.411830 
2687.000000	64.424467 
2686.000000	64.440250 
2685.000000	64.456939 
2684.000000	64.472103 
2683.000000	64.483451 
2682.000000	64.489316 
2681.000000	64.489245 
2680.000000	64.484095 
2679.000000	64.476013 
2678.000000	64.467859 
2677.000000	64.462590 
2676.000000	64.462327 
2675.000000	64.468073 
2674.000000	64.479207 
2673.000000	64.493918 
2672.000000	64.509439 
2671.000000	64.523243 
2670.000000	64.533162 
2669.000000	64.538311 
2668.000000	64.539051 
2667.000000	64.536643 
2666.000000	64.532971 
2665.000000	64.529681 
2664.000000	64.528012 
2663.000000	64.528203 
2662.000000	64.529776 
2661.000000	64.531826 
2660.000000	64.533257 
2659.000000	64.533185 
2658.000000	64.530992 
2657.000000	64.526295 
2656.000000	64.518904 
2655.000000	64.508962 
2654.000000	64.496731 
2653.000000	64.482855 
2652.000000	64.468407 
2651.000000	64.454603 
2650.000000	64.442873 
2649.000000	64.434576 
2648.000000	64.430427 
2647.000000	64.430856 
2646.000000	64.435601 
2645.000000	64.443874 
2644.000000	64.454555 
2643.000000	64.466357 
2642.000000	64.478015 
2641.000000	64.488554 
2640.000000	64.497041 
2639.000000	64.502716 
2638.000000	64.504861 
2637.000000	64.502835 
2636.000000	64.496135 
2635.000000	64.484786 
2634.000000	64.469480 
2633.000000	64.451718 
2632.000000	64.433693 
2631.000000	64.417719 
2630.000000	64.406085 
2629.000000	64.400315 
2628.000000	64.401030 
2627.000000	64.407706 
2626.000000	64.418911 
2625.000000	64.432716 
2624.000000	64.446878 
2623.000000	64.459538 
2622.000000	64.469313 
2621.000000	64.475440 
2620.000000	64.477896 
2619.000000	64.477086 
2618.000000	64.473938 
2617.000000	64.469432 
2616.000000	64.464545 
2615.000000	64.460182 
2614.000000	64.456748 
2613.000000	64.454603 
2612.000000	64.453268 
2611.000000	64.451909 
2610.000000	64.449119 
2609.000000	64.443469 
2608.000000	64.433908 
2607.000000	64.420008 
2606.000000	64.402341 
2605.000000	64.382505 
2604.000000	64.362621 
2603.000000	64.344954 
2602.000000	64.331436 
2601.000000	64.323043 
2600.000000	64.319586 
2599.000000	64.319825 
2598.000000	64.321708 
2597.000000	64.322972 
2596.000000	64.321637 
2595.000000	64.316487 
2594.000000	64.307212 
2593.000000	64.294576 
2592.000000	64.280104 
2591.000000	64.265966 
2590.000000	64.254355 
2589.000000	64.247274 
2588.000000	64.246273 
2587.000000	64.252257 
2586.000000	64.265322 
2585.000000	64.284706 
2584.000000	64.308857 
2583.000000	64.335393 
2582.000000	64.361619 
2581.000000	64.384770 
2580.000000	64.402580 
2579.000000	64.413809 
2578.000000	64.418268 
2577.000000	64.416956 
2576.000000	64.411830 
2575.000000	64.405298 
2574.000000	64.399743 
2573.000000	64.396905 
2572.000000	64.397525 
2571.000000	64.401340 
2570.000000	64.407300 
2569.000000	64.413738 
2568.000000	64.419126 
2567.000000	64.422392 
2566.000000	64.423298 
2565.000000	64.422512 
2564.000000	64.421343 
2563.000000	64.421200 
2562.000000	64.423131 
2561.000000	64.427304 
2560.000000	64.432859 
2559.000000	64.438176 
2558.000000	64.441180 
2557.000000	64.440321 
2556.000000	64.434790 
2555.000000	64.425134 
2554.000000	64.413189 
2553.000000	64.401483 
2552.000000	64.392614 
2551.000000	64.388561 
2550.000000	64.390301 
2549.000000	64.397573 
2548.000000	64.408898 
2547.000000	64.421987 
2546.000000	64.434337 
2545.000000	64.443826 
2544.000000	64.449167 
2543.000000	64.450025 
2542.000000	64.447188 
2541.000000	64.442086 
2540.000000	64.436554 
2539.000000	64.432215 
2538.000000	64.430165 
2537.000000	64.430713 
2536.000000	64.433479 
2535.000000	64.437365 
2534.000000	64.441227 
2533.000000	64.443898 
2532.000000	64.444684 
2531.000000	64.443445 
2530.000000	64.440464 
2529.000000	64.436554 
2528.000000	64.432597 
2527.000000	64.429426 
2526.000000	64.427566 
2525.000000	64.427208 
2524.000000	64.428257 
2523.000000	64.430356 
2522.000000	64.432978 
2521.000000	64.435768 
2520.000000	64.438509 
2519.000000	64.441037 
2518.000000	64.443087 
2517.000000	64.444541 
2516.000000	64.445090 
2515.000000	64.444255 
2514.000000	64.441561 
2513.000000	64.436626 
2512.000000	64.429330 
2511.000000	64.419913 
2510.000000	64.408969 
2509.000000	64.397430 
2508.000000	64.386343 
2507.000000	64.376592 
2506.000000	64.368653 
2505.000000	64.362645 
2504.000000	64.358234 
2503.000000	64.354872 
2502.000000	64.352035 
2501.000000	64.349579 
2500.000000	64.347743 
2499.000000	64.347076 
2498.000000	64.348483 
2497.000000	64.352869 
2496.000000	64.360666 
2495.000000	64.371705 
2494.000000	64.385056 
2493.000000	64.399337 
2492.000000	64.412832 
2491.000000	64.423990 
2490.000000	64.431619 
2489.000000	64.435434 
2488.000000	64.435815 
2487.000000	64.433908 
2486.000000	64.431071 
2485.000000	64.428591 
2484.000000	64.427256 
2483.000000	64.427304 
2482.000000	64.428424 
2481.000000	64.429783 
2480.000000	64.430642 
2479.000000	64.430522 
2478.000000	64.429497 
2477.000000	64.428353 
2476.000000	64.428234 
2475.000000	64.430761 
2474.000000	64.437174 
2473.000000	64.448332 
2472.000000	64.464282 
2471.000000	64.484167 
2470.000000	64.506340 
2469.000000	64.528584 
2468.000000	64.548373 
2467.000000	64.563345 
2466.000000	64.571619 
2465.000000	64.572167 
2464.000000	64.564800 
2463.000000	64.550375 
2462.000000	64.530539 
2461.000000	64.507579 
2460.000000	64.483833 
2459.000000	64.461660 
2458.000000	64.442682 
2457.000000	64.427971 
2456.000000	64.417695 
2455.000000	64.411187 
2454.000000	64.407348 
2453.000000	64.404916 
2452.000000	64.402770 
2451.000000	64.400267 
2450.000000	64.397382 
2449.000000	64.394497 
2448.000000	64.392471 
2447.000000	64.391946 
2446.000000	64.393401 
2445.000000	64.396810 
2444.000000	64.401364 
2443.000000	64.405775 
2442.000000	64.408278 
2441.000000	64.407014 
2440.000000	64.400410 
2439.000000	64.387702 
2438.000000	64.369082 
2437.000000	64.345836 
2436.000000	64.320087 
2435.000000	64.294505 
2434.000000	64.271545 
2433.000000	64.253401 
2432.000000	64.240980 
2431.000000	64.234423 
2430.000000	64.232611 
2429.000000	64.233922 
2428.000000	64.236736 
2427.000000	64.239788 
2426.000000	64.242482 
2425.000000	64.245271 
2424.000000	64.249014 
2423.000000	64.254999 
2422.000000	64.264106 
2421.000000	64.276576 
2420.000000	64.291667 
2419.000000	64.307975 
2418.000000	64.323544 
2417.000000	64.336562 
2416.000000	64.345550 
2415.000000	64.349770 
2414.000000	64.349317 
2413.000000	64.344716 
2412.000000	64.337086 
2411.000000	64.327502 
2410.000000	64.316892 
2409.000000	64.305877 
2408.000000	64.295172 
2407.000000	64.285278 
2406.000000	64.276719 
2405.000000	64.270257 
2404.000000	64.266681 
2403.000000	64.266538 
2402.000000	64.269995 
2401.000000	64.276766 
2400.000000	64.285898 
2399.000000	64.295935 
2398.000000	64.305043 
2397.000000	64.311504 
2396.000000	64.313912 
2395.000000	64.311599 
2394.000000	64.304637 
2393.000000	64.293885 
2392.000000	64.280605 
2391.000000	64.266347 
2390.000000	64.252400 
2389.000000	64.239835 
2388.000000	64.229369 
2387.000000	64.221596 
2386.000000	64.216828 
2385.000000	64.215326 
2384.000000	64.217257 
2383.000000	64.222860 
2382.000000	64.232063 
2381.000000	64.244675 
2380.000000	64.260125 
2379.000000	64.277577 
2378.000000	64.296174 
2377.000000	64.314818 
2376.000000	64.332509 
2375.000000	64.348149 
2374.000000	64.361000 
2373.000000	64.370465 
2372.000000	64.376211 
2371.000000	64.378118 
2370.000000	64.376449 
2369.000000	64.371657 
2368.000000	64.364409 
2367.000000	64.355468 
2366.000000	64.345765 
2365.000000	64.335751 
2364.000000	64.325737 
2363.000000	64.315629 
2362.000000	64.305210 
2361.000000	64.294171 
2360.000000	64.282321 
2359.000000	64.269876 
2358.000000	64.257526 
2357.000000	64.246201 
2356.000000	64.237046 
2355.000000	64.231038 
2354.000000	64.228796 
2353.000000	64.230799 
2352.000000	64.237022 
2351.000000	64.247035 
2350.000000	64.259934 
2349.000000	64.274644 
2348.000000	64.289808 
2347.000000	64.303779 
2346.000000	64.315199 
2345.000000	64.322972 
2344.000000	64.326453 
2343.000000	64.325499 
2342.000000	64.320683 
2341.000000	64.313173 
2340.000000	64.304542 
2339.000000	64.296531 
2338.000000	64.290642 
2337.000000	64.287853 
2336.000000	64.288496 
2335.000000	64.292263 
2334.000000	64.298272 
2333.000000	64.305210 
2332.000000	64.311742 
2331.000000	64.316678 
2330.000000	64.318990 
2329.000000	64.318060 
2328.000000	64.313530 
2327.000000	64.305615 
2326.000000	64.294934 
2325.000000	64.282584 
2324.000000	64.269995 
2323.000000	64.258456 
2322.000000	64.249277 
2321.000000	64.243006 
2320.000000	64.239478 
2319.000000	64.237737 
2318.000000	64.236211 
2317.000000	64.233160 
2316.000000	64.226984 
2315.000000	64.216947 
2314.000000	64.203190 
2313.000000	64.187073 
2312.000000	64.170598 
2311.000000	64.156198 
2310.000000	64.146113 
2309.000000	64.141821 
2308.000000	64.143681 
2307.000000	64.151000 
2306.000000	64.162278 
2305.000000	64.175462 
2304.000000	64.188742 
2303.000000	64.200592 
2302.000000	64.210176 
2301.000000	64.217305 
2300.000000	64.222168 
2299.000000	64.225053 
2298.000000	64.226150 
2297.000000	64.225554 
2296.000000	64.223098 
2295.000000	64.218473 
2294.000000	64.211702 
2293.000000	64.203214 
2292.000000	64.193964 
2291.000000	64.185380 
2290.000000	64.178919 
2289.000000	64.175987 
2288.000000	64.177441 
2287.000000	64.183402 
2286.000000	64.193034 
2285.000000	64.204835 
2284.000000	64.216732 
2283.000000	64.226627 
2282.000000	64.232850 
2281.000000	64.234375 
2280.000000	64.230966 
2279.000000	64.223361 
2278.000000	64.212965 
2277.000000	64.201664 
2276.000000	64.191436 
2275.000000	64.183998 
2274.000000	64.180493 
2273.000000	64.181375 
2272.000000	64.186453 
2271.000000	64.195108 
2270.000000	64.206051 
2269.000000	64.218044 
2268.000000	64.229893 
2267.000000	64.240574 
2266.000000	64.249324 
2265.000000	64.255785 
2264.000000	64.259696 
2263.000000	64.261007 
2262.000000	64.259624 
2261.000000	64.255642 
2260.000000	64.249229 
2259.000000	64.240837 
2258.000000	64.231181 
2257.000000	64.221310 
2256.000000	64.212560 
2255.000000	64.206361 
2254.000000	64.203977 
2253.000000	64.206171 
2252.000000	64.213013 
2251.000000	64.223718 
2250.000000	64.236593 
2249.000000	64.249348 
2248.000000	64.259457 
2247.000000	64.264655 
2246.000000	64.263367 
2245.000000	64.254927 
2244.000000	64.239597 
2243.000000	64.218783 
2242.000000	64.194440 
2241.000000	64.169001 
2240.000000	64.144539 
2239.000000	64.122819 
2238.000000	64.104557 
2237.000000	64.089822 
2236.000000	64.077973 
2235.000000	64.068007 
2234.000000	64.059042 
2233.000000	64.050698 
2232.000000	64.043307 
2231.000000	64.037728 
2230.000000	64.035296 
2229.000000	64.037275 
2228.000000	64.044260 
2227.000000	64.056134 
2226.000000	64.071679 
2225.000000	64.089083 
2224.000000	64.106130 
2223.000000	64.121150 
2222.000000	64.133143 
2221.000000	64.142489 
2220.000000	64.150571 
2219.000000	64.159226 
2218.000000	64.170336 
2217.000000	64.184832 
2216.000000	64.202332 
2215.000000	64.221262 
2214.000000	64.239144 
2213.000000	64.253187 
2212.000000	64.261341 
2211.000000	64.262700 
2210.000000	64.257884 
2209.000000	64.248728 
2208.000000	64.238047 
2207.000000	64.228510 
2206.000000	64.221978 
2205.000000	64.218926 
2204.000000	64.218544 
2203.000000	64.218854 
2202.000000	64.217638 
2201.000000	64.213037 
2200.000000	64.204144 
2199.000000	64.191293 
2198.000000	64.176106 
2197.000000	64.160799 
2196.000000	64.147710 
2195.000000	64.138865 
2194.000000	64.135432 
2193.000000	64.137554 
2192.000000	64.144253 
2191.000000	64.153909 
2190.000000	64.164328 
2189.000000	64.173364 
2188.000000	64.179372 
2187.000000	64.181470 
2186.000000	64.179611 
2185.000000	64.174437 
2184.000000	64.167189 
2183.000000	64.159274 
2182.000000	64.151859 
2181.000000	64.145541 
2180.000000	64.140248 
2179.000000	64.135336 
2178.000000	64.129590 
2177.000000	64.121818 
2176.000000	64.110803 
2175.000000	64.095807 
2174.000000	64.076685 
2173.000000	64.054083 
2172.000000	64.029312 
2171.000000	64.004111 
2170.000000	63.980317 
2169.000000	63.959884 
2168.000000	63.944649 
2167.000000	63.936018 
2166.000000	63.935041 
2165.000000	63.942122 
2164.000000	63.956856 
2163.000000	63.978123 
2162.000000	64.003944 
2161.000000	64.031577 
2160.000000	64.057898 
2159.000000	64.079856 
2158.000000	64.094734 
2157.000000	64.100933 
2156.000000	64.098215 
2155.000000	64.087915 
2154.000000	64.072656 
2153.000000	64.056181 
2152.000000	64.042520 
2151.000000	64.035320 
2150.000000	64.037084 
2149.000000	64.048695 
2148.000000	64.069128 
2147.000000	64.095807 
2146.000000	64.125227 
2145.000000	64.153361 
2144.000000	64.176511 
2143.000000	64.191961 
2142.000000	64.198565 
2141.000000	64.196443 
2140.000000	64.186906 
2139.000000	64.172124 
2138.000000	64.154386 
2137.000000	64.135909 
2136.000000	64.118051 
2135.000000	64.101862 
2134.000000	64.087605 
2133.000000	64.075636 
2132.000000	64.065909 
2131.000000	64.058470 
2130.000000	64.053153 
2129.000000	64.049577 
2128.000000	64.046859 
2127.000000	64.043641 
2126.000000	64.038348 
2125.000000	64.029669 
2124.000000	64.017081 
2123.000000	64.000988 
2122.000000	63.983106 
2121.000000	63.966226 
2120.000000	63.953685 
2119.000000	63.948512 
2118.000000	63.952684 
2117.000000	63.966488 
2116.000000	63.988375 
2115.000000	64.015245 
2114.000000	64.043235 
2113.000000	64.068603 
2112.000000	64.088535 
2111.000000	64.101672 
2110.000000	64.108276 
2109.000000	64.109849 
2108.000000	64.108467 
2107.000000	64.106035 
2106.000000	64.103960 
2105.000000	64.102530 
2104.000000	64.101433 
2103.000000	64.099407 
2102.000000	64.095425 
2101.000000	64.088439 
2100.000000	64.078378 
2099.000000	64.065790 
2098.000000	64.051890 
2097.000000	64.038252 
2096.000000	64.026308 
2095.000000	64.017295 
2094.000000	64.011812 
2093.000000	64.009809 
2092.000000	64.010858 
2091.000000	64.014458 
2090.000000	64.020037 
2089.000000	64.027285 
2088.000000	64.035868 
2087.000000	64.045429 
2086.000000	64.055418 
2085.000000	64.064764 
2084.000000	64.072084 
2083.000000	64.075636 
2082.000000	64.073753 
2081.000000	64.065194 
2080.000000	64.049434 
2079.000000	64.027070 
2078.000000	63.999652 
2077.000000	63.969683 
2076.000000	63.940215 
2075.000000	63.914394 
2074.000000	63.894963 
2073.000000	63.883829 
2072.000000	63.881778 
2071.000000	63.888287 
2070.000000	63.901805 
2069.000000	63.919878 
2068.000000	63.939714 
2067.000000	63.958549 
2066.000000	63.974142 
2065.000000	63.985085 
2064.000000	63.990616 
2063.000000	63.990783 
2062.000000	63.986229 
2061.000000	63.978123 
2060.000000	63.967943 
2059.000000	63.957309 
2058.000000	63.947963 
2057.000000	63.941240 
2056.000000	63.938140 
2055.000000	63.939023 
2054.000000	63.943648 
2053.000000	63.951134 
2052.000000	63.960194 
2051.000000	63.969397 
2050.000000	63.977360 
2049.000000	63.982987 
2048.000000	63.985562 
2047.000000	63.984918 
2046.000000	63.981318 
2045.000000	63.975381 
2044.000000	63.967943 
2043.000000	63.959932 
2042.000000	63.952255 
2041.000000	63.945865 
2040.000000	63.941526 
2039.000000	63.939595 
2038.000000	63.940167 
2037.000000	63.942766 
2036.000000	63.946580 
2035.000000	63.950395 
2034.000000	63.953089 
2033.000000	63.953685 
2032.000000	63.952064 
2031.000000	63.948631 
2030.000000	63.944411 
2029.000000	63.940691 
2028.000000	63.938617 
2027.000000	63.938784 
2026.000000	63.941216 
2025.000000	63.945388 
2024.000000	63.950395 
2023.000000	63.955330 
2022.000000	63.959407 
2021.000000	63.962483 
2020.000000	63.964581 
2019.000000	63.966035 
2018.000000	63.967037 
2017.000000	63.967466 
2016.000000	63.966894 
2015.000000	63.964509 
2014.000000	63.959455 
2013.000000	63.951373 
2012.000000	63.940572 
2011.000000	63.928151 
2010.000000	63.915753 
2009.000000	63.905167 
2008.000000	63.897943 
2007.000000	63.894939 
2006.000000	63.895893 
2005.000000	63.899588 
2004.000000	63.904333 
2003.000000	63.908147 
2002.000000	63.909173 
2001.000000	63.906288 
2000.000000	63.899087 
1999.000000	63.888025 
1998.000000	63.874292 
1997.000000	63.859319 
1996.000000	63.844585 
1995.000000	63.831090 
1994.000000	63.819360 
1993.000000	63.809275 
1992.000000	63.800406 
1991.000000	63.792085 
1990.000000	63.783955 
1989.000000	63.775873 
1988.000000	63.768076 
1987.000000	63.761115 
1986.000000	63.755559 
1985.000000	63.751935 
1984.000000	63.750433 
1983.000000	63.751077 
1982.000000	63.753819 
1981.000000	63.758444 
1980.000000	63.764953 
1979.000000	63.773202 
1978.000000	63.783168 
1977.000000	63.794684 
1976.000000	63.807296 
1975.000000	63.820147 
1974.000000	63.831949 
1973.000000	63.841557 
1972.000000	63.847756 
1971.000000	63.849973 
1970.000000	63.848114 
1969.000000	63.842916 
1968.000000	63.835453 
1967.000000	63.827013 
1966.000000	63.818645 
1965.000000	63.811206 
1964.000000	63.804936 
1963.000000	63.799691 
1962.000000	63.795065 
1961.000000	63.790869 
1960.000000	63.786745 
1959.000000	63.782453 
1958.000000	63.777732 
1957.000000	63.772344 
1956.000000	63.766098 
1955.000000	63.758993 
1954.000000	63.751244 
1953.000000	63.743448 
1952.000000	63.736581 
1951.000000	63.732123 
1950.000000	63.731527 
1949.000000	63.736128 
1948.000000	63.746738 
1947.000000	63.763451 
1946.000000	63.785266 
1945.000000	63.810420 
1944.000000	63.836431 
1943.000000	63.860726 
1942.000000	63.880991 
1941.000000	63.895821 
1940.000000	63.904881 
1939.000000	63.909006 
1938.000000	63.909959 
1937.000000	63.910079 
1936.000000	63.911437 
1935.000000	63.915610 
1934.000000	63.923192 
1933.000000	63.933634 
1932.000000	63.945508 
1931.000000	63.956832 
1930.000000	63.965606 
1929.000000	63.970160 
1928.000000	63.969397 
1927.000000	63.963198 
1926.000000	63.951992 
1925.000000	63.936853 
1924.000000	63.919234 
1923.000000	63.900637 
1922.000000	63.882446 
1921.000000	63.865971 
1920.000000	63.852286 
1919.000000	63.842296 
1918.000000	63.836669 
1917.000000	63.835716 
1916.000000	63.839364 
1915.000000	63.847041 
1914.000000	63.857817 
1913.000000	63.870334 
1912.000000	63.883090 
1911.000000	63.894701 
1910.000000	63.903737 
1909.000000	63.909268 
1908.000000	63.910603 
1907.000000	63.907647 
1906.000000	63.900637 
1905.000000	63.890218 
1904.000000	63.877201 
1903.000000	63.862633 
1902.000000	63.847470 
1901.000000	63.832545 
1900.000000	63.818430 
1899.000000	63.805341 
1898.000000	63.793325 
1897.000000	63.782358 
1896.000000	63.772296 
1895.000000	63.763236 
1894.000000	63.755273 
1893.000000	63.748931 
1892.000000	63.744664 
1891.000000	63.743329 
1890.000000	63.745427 
1889.000000	63.751530 
1888.000000	63.761782 
1887.000000	63.775897 
1886.000000	63.793277 
1885.000000	63.812828 
1884.000000	63.833332 
1883.000000	63.853335 
1882.000000	63.871312 
1881.000000	63.885903 
1880.000000	63.896036 
1879.000000	63.900852 
1878.000000	63.899946 
1877.000000	63.893485 
1876.000000	63.882088 
1875.000000	63.866829 
1874.000000	63.849329 
1873.000000	63.831496 
1872.000000	63.815236 
1871.000000	63.802242 
1870.000000	63.793754 
1869.000000	63.790416 
1868.000000	63.792133 
1867.000000	63.798141 
1866.000000	63.807249 
1865.000000	63.817930 
1864.000000	63.828945 
1863.000000	63.839221 
1862.000000	63.848280 
1861.000000	63.856005 
1860.000000	63.862490 
1859.000000	63.867974 
1858.000000	63.872432 
1857.000000	63.875794 
1856.000000	63.877606 
1855.000000	63.877415 
1854.000000	63.874602 
1853.000000	63.868880 
1852.000000	63.859939 
1851.000000	63.847804 
1850.000000	63.832592 
1849.000000	63.814640 
1848.000000	63.794755 
1847.000000	63.774108 
1846.000000	63.754272 
1845.000000	63.737130 
1844.000000	63.724517 
1843.000000	63.717842 
1842.000000	63.717818 
1841.000000	63.724255 
1840.000000	63.735818 
1839.000000	63.750481 
1838.000000	63.765764 
1837.000000	63.779163 
1836.000000	63.788938 
1835.000000	63.794159 
1834.000000	63.794970 
1833.000000	63.792443 
1832.000000	63.788247 
1831.000000	63.784241 
1830.000000	63.781785 
1829.000000	63.781833 
1828.000000	63.784623 
1827.000000	63.789701 
1826.000000	63.796281 
1825.000000	63.803410 
1824.000000	63.810205 
1823.000000	63.815903 
1822.000000	63.820028 
1821.000000	63.822340 
1820.000000	63.822674 
1819.000000	63.820958 
1818.000000	63.817238 
1817.000000	63.811588 
1816.000000	63.804125 
1815.000000	63.795280 
1814.000000	63.785552 
1813.000000	63.775515 
1812.000000	63.765788 
1811.000000	63.756895 
1810.000000	63.749313 
1809.000000	63.743424 
1808.000000	63.739490 
1807.000000	63.737607 
1806.000000	63.737702 
1805.000000	63.739633 
1804.000000	63.742947 
1803.000000	63.746953 
1802.000000	63.750863 
1801.000000	63.753986 
1800.000000	63.755702 
1799.000000	63.755726 
1798.000000	63.753914 
1797.000000	63.750433 
1796.000000	63.745546 
1795.000000	63.739705 
1794.000000	63.733482 
1793.000000	63.727641 
1792.000000	63.723134 
1791.000000	63.720822 
1790.000000	63.721346 
1789.000000	63.725066 
1788.000000	63.731765 
1787.000000	63.740777 
1786.000000	63.751149 
1785.000000	63.761520 
1784.000000	63.770604 
1783.000000	63.777232 
1782.000000	63.780665 
1781.000000	63.780355 
1780.000000	63.776350 
1779.000000	63.768792 
1778.000000	63.758230 
1777.000000	63.745236 
1776.000000	63.730525 
1775.000000	63.714647 
1774.000000	63.698244 
1773.000000	63.681960 
1772.000000	63.666343 
1771.000000	63.652038 
1770.000000	63.639736 
1769.000000	63.629961 
1768.000000	63.623166 
1767.000000	63.619709 
1766.000000	63.619804 
1765.000000	63.623404 
1764.000000	63.630104 
1763.000000	63.639163 
1762.000000	63.649415 
1761.000000	63.659429 
1760.000000	63.667559 
1759.000000	63.672399 
1758.000000	63.672709 
1757.000000	63.667869 
1756.000000	63.657665 
1755.000000	63.642597 
1754.000000	63.623547 
1753.000000	63.601803 
1752.000000	63.578867 
1751.000000	63.556289 
1750.000000	63.535475 
1749.000000	63.517713 
1748.000000	63.503670 
1747.000000	63.493514 
1746.000000	63.486838 
1745.000000	63.482689 
1744.000000	63.479566 
1743.000000	63.475775 
1742.000000	63.469743 
1741.000000	63.460302 
1740.000000	63.446974 
1739.000000	63.430142 
1738.000000	63.410902 
1737.000000	63.390922 
1736.000000	63.371992 
1735.000000	63.355851 
1734.000000	63.343572 
1733.000000	63.335776 
1732.000000	63.332462 
1731.000000	63.333201 
1730.000000	63.337254 
1729.000000	63.344025 
1728.000000	63.352799 
1727.000000	63.363170 
1726.000000	63.374567 
1725.000000	63.386654 
1724.000000	63.398933 
1723.000000	63.411188 
1722.000000	63.423156 
1721.000000	63.434910 
1720.000000	63.446593 
1719.000000	63.458561 
1718.000000	63.471341 
1717.000000	63.484978 
1716.000000	63.499259 
1715.000000	63.513326 
1714.000000	63.525962 
1713.000000	63.535523 
1712.000000	63.540434 
1711.000000	63.539457 
1710.000000	63.532185 
1709.000000	63.519215 
1708.000000	63.501954 
1707.000000	63.482546 
1706.000000	63.463568 
1705.000000	63.447570 
1704.000000	63.436412 
1703.000000	63.431334 
1702.000000	63.432526 
1701.000000	63.439297 
1700.000000	63.450384 
1699.000000	63.463902 
1698.000000	63.478231 
1697.000000	63.491868 
1696.000000	63.503932 
1695.000000	63.513755 
1694.000000	63.521361 
1693.000000	63.527274 
1692.000000	63.532185 
1691.000000	63.536810 
1690.000000	63.541865 
1689.000000	63.547825 
1688.000000	63.554668 
1687.000000	63.562178 
1686.000000	63.569664 
1685.000000	63.576292 
1684.000000	63.581132 
1683.000000	63.583230 
1682.000000	63.582086 
1681.000000	63.577580 
1680.000000	63.570070 
1679.000000	63.560438 
1678.000000	63.549780 
1677.000000	63.539195 
1676.000000	63.529706 
1675.000000	63.522005 
1674.000000	63.516163 
1673.000000	63.511991 
1672.000000	63.508939 
1671.000000	63.506174 
1670.000000	63.502883 
1669.000000	63.498353 
1668.000000	63.492155 
1667.000000	63.484334 
1666.000000	63.475346 
1665.000000	63.465976 
1664.000000	63.457083 
1663.000000	63.449406 
1662.000000	63.443398 
1661.000000	63.438963 
1660.000000	63.435554 
1659.000000	63.432455 
1658.000000	63.428974 
1657.000000	63.424468 
1656.000000	63.418889 
1655.000000	63.412880 
1654.000000	63.407754 
1653.000000	63.405084 
1652.000000	63.406348 
1651.000000	63.412284 
1650.000000	63.423109 
1649.000000	63.437914 
1648.000000	63.455176 
1647.000000	63.472890 
1646.000000	63.489294 
1645.000000	63.502931 
1644.000000	63.513183 
1643.000000	63.519859 
1642.000000	63.523411 
1641.000000	63.524389 
1640.000000	63.523459 
1639.000000	63.521194 
1638.000000	63.517999 
1637.000000	63.514137 
1636.000000	63.509607 
1635.000000	63.504290 
1634.000000	63.497853 
1633.000000	63.489842 
1632.000000	63.479685 
1631.000000	63.466882 
1630.000000	63.451027 
1629.000000	63.432288 
1628.000000	63.411450 
1627.000000	63.390016 
1626.000000	63.370060 
1625.000000	63.353753 
1624.000000	63.342976 
1623.000000	63.338685 
1622.000000	63.340711 
1621.000000	63.347768 
1620.000000	63.357639 
1619.000000	63.367748 
1618.000000	63.375568 
1617.000000	63.379263 
1616.000000	63.378119 
1615.000000	63.372516 
1614.000000	63.363575 
1613.000000	63.353061 
1612.000000	63.343071 
1611.000000	63.335371 
1610.000000	63.331198 
1609.000000	63.330841 
1608.000000	63.333845 
1607.000000	63.338899 
1606.000000	63.344287 
1605.000000	63.348054 
1604.000000	63.348603 
1603.000000	63.344836 
1602.000000	63.336706 
1601.000000	63.325095 
1600.000000	63.311839 
1599.000000	63.299441 
1598.000000	63.290691 
1597.000000	63.287973 
1596.000000	63.292622 
1595.000000	63.304853 
1594.000000	63.323354 
1593.000000	63.345432 
1592.000000	63.367414 
1591.000000	63.385534 
1590.000000	63.396692 
1589.000000	63.399100 
1588.000000	63.392567 
1587.000000	63.378715 
1586.000000	63.360309 
1585.000000	63.340783 
1584.000000	63.323235 
1583.000000	63.309955 
1582.000000	63.302063 
1581.000000	63.299489 
1580.000000	63.301324 
1579.000000	63.306140 
1578.000000	63.312339 
1577.000000	63.318634 
1576.000000	63.324069 
1575.000000	63.328242 
1574.000000	63.331127 
1573.000000	63.333201 
1572.000000	63.335061 
1571.000000	63.337206 
1570.000000	63.339996 
1569.000000	63.343572 
1568.000000	63.347744 
1567.000000	63.352274 
1566.000000	63.356924 
1565.000000	63.361501 
1564.000000	63.366031 
1563.000000	63.370466 
1562.000000	63.374495 
1561.000000	63.377594 
1560.000000	63.378858 
1559.000000	63.377237 
1558.000000	63.371920 
1557.000000	63.362479 
1556.000000	63.349366 
1555.000000	63.333654 
1554.000000	63.316965 
1553.000000	63.301324 
1552.000000	63.288640 
1551.000000	63.280320 
1550.000000	63.276886 
1549.000000	63.278055 
1548.000000	63.282608 
1547.000000	63.288545 
1546.000000	63.293576 
1545.000000	63.295507 
1544.000000	63.292932 
1543.000000	63.285446 
1542.000000	63.273978 
1541.000000	63.260555 
1540.000000	63.247799 
1539.000000	63.238143 
1538.000000	63.233399 
1537.000000	63.234162 
1536.000000	63.239789 
1535.000000	63.248515 
1534.000000	63.257956 
1533.000000	63.265800 
1532.000000	63.270282 
1531.000000	63.270592 
1530.000000	63.267111 
1529.000000	63.261103 
1528.000000	63.254570 
1527.000000	63.249611 
1526.000000	63.248014 
1525.000000	63.250827 
1524.000000	63.258218 
1523.000000	63.269567 
1522.000000	63.283514 
1521.000000	63.298320 
1520.000000	63.312220 
1519.000000	63.323760 
1518.000000	63.331747 
1517.000000	63.335895 
1516.000000	63.336610 
1515.000000	63.334989 
1514.000000	63.332581 
1513.000000	63.330984 
1512.000000	63.331699 
1511.000000	63.335514 
1510.000000	63.342547 
1509.000000	63.352084 
1508.000000	63.362884 
1507.000000	63.373279 
1506.000000	63.381743 
1505.000000	63.386964 
1504.000000	63.388252 
1503.000000	63.385486 
1502.000000	63.379049 
1501.000000	63.369703 
1500.000000	63.358426 
1499.000000	63.346099 
1498.000000	63.333439 
1497.000000	63.320970 
1496.000000	63.309073 
1495.000000	63.298153 
1494.000000	63.288378 
1493.000000	63.279914 
1492.000000	63.272738 
1491.000000	63.266468 
1490.000000	63.260769 
1489.000000	63.255071 
1488.000000	63.249206 
1487.000000	63.242864 
1486.000000	63.236308 
1485.000000	63.229846 
1484.000000	63.223838 
1483.000000	63.218617 
1482.000000	63.214230 
1481.000000	63.210773 
1480.000000	63.207864 
1479.000000	63.205122 
1478.000000	63.201737 
1477.000000	63.197016 
1476.000000	63.190126 
1475.000000	63.180375 
1474.000000	63.167238 
1473.000000	63.150715 
1472.000000	63.131284 
1471.000000	63.109946 
1470.000000	63.088154 
1469.000000	63.067698 
1468.000000	63.050460 
1467.000000	63.038134 
1466.000000	63.031959 
1465.000000	63.032460 
1464.000000	63.039326 
1463.000000	63.051724 
1462.000000	63.068199 
1461.000000	63.087105 
1460.000000	63.106632 
1459.000000	63.125157 
1458.000000	63.141107 
1457.000000	63.153386 
1456.000000	63.160967 
1455.000000	63.163352 
1454.000000	63.160514 
1453.000000	63.152956 
1452.000000	63.141942 
1451.000000	63.129067 
1450.000000	63.115978 
1449.000000	63.104176 
1448.000000	63.095021 
1447.000000	63.089251 
1446.000000	63.087105 
1445.000000	63.088440 
1444.000000	63.092803 
1443.000000	63.099408 
1442.000000	63.107466 
1441.000000	63.116121 
1440.000000	63.124608 
1439.000000	63.132190 
1438.000000	63.138103 
1437.000000	63.141775 
1436.000000	63.142776 
1435.000000	63.140916 
1434.000000	63.136196 
1433.000000	63.128948 
1432.000000	63.119578 
1431.000000	63.108801 
1430.000000	63.097405 
1429.000000	63.086009 
1428.000000	63.075637 
1427.000000	63.067340 
1426.000000	63.062429 
1425.000000	63.062047 
1424.000000	63.067317 
1423.000000	63.078737 
1422.000000	63.096189 
1421.000000	63.118624 
1420.000000	63.144063 
1419.000000	63.170027 
1418.000000	63.193798 
1417.000000	63.212895 
1416.000000	63.225698 
1415.000000	63.231444 
1414.000000	63.230562 
1413.000000	63.224458 
1412.000000	63.214993 
1411.000000	63.204121 
1410.000000	63.193511 
1409.000000	63.183689 
1408.000000	63.174414 
1407.000000	63.164424 
1406.000000	63.152289 
1405.000000	63.136744 
1404.000000	63.117313 
1403.000000	63.094806 
1402.000000	63.071250 
1401.000000	63.049530 
1400.000000	63.032793 
1399.000000	63.023710 
1398.000000	63.023638 
1397.000000	63.032150 
1396.000000	63.047266 
1395.000000	63.065600 
1394.000000	63.083195 
1393.000000	63.096332 
1392.000000	63.102436 
1391.000000	63.100409 
1390.000000	63.090944 
1389.000000	63.076138 
1388.000000	63.059091 
1387.000000	63.042950 
1386.000000	63.030219 
1385.000000	63.022494 
1384.000000	63.020157 
1383.000000	63.022756 
1382.000000	63.028979 
1381.000000	63.037371 
1380.000000	63.046550 
1379.000000	63.055634 
1378.000000	63.064122 
1377.000000	63.071775 
1376.000000	63.078379 
1375.000000	63.083600 
1374.000000	63.086938 
1373.000000	63.087415 
1372.000000	63.084101 
1371.000000	63.076305 
1370.000000	63.063955 
1369.000000	63.047814 
1368.000000	63.029479 
1367.000000	63.011312 
1366.000000	62.995743 
1365.000000	62.984943 
1364.000000	62.980079 
1363.000000	62.981247 
1362.000000	62.987232 
1361.000000	62.995862 
1360.000000	63.004398 
1359.000000	63.010287 
1358.000000	63.011813 
1357.000000	63.008546 
1356.000000	63.001346 
1355.000000	62.992286 
1354.000000	62.983822 
1353.000000	62.978339 
1352.000000	62.977695 
1351.000000	62.982535 
1350.000000	62.992596 
1349.000000	63.006258 
1348.000000	63.021469 
1347.000000	63.035583 
1346.000000	63.046073 
1345.000000	63.050889 
1344.000000	63.048648 
1343.000000	63.039135 
1342.000000	63.022947 
1341.000000	63.001918 
1340.000000	62.978529 
1339.000000	62.955784 
1338.000000	62.936544 
1337.000000	62.923192 
1336.000000	62.917184 
1335.000000	62.918639 
1334.000000	62.926363 
1333.000000	62.938165 
1332.000000	62.951326 
1331.000000	62.963104 
1330.000000	62.971496 
1329.000000	62.975502 
1328.000000	62.975168 
1327.000000	62.971377 
1326.000000	62.965917 
1325.000000	62.960267 
1324.000000	62.955832 
1323.000000	62.953567 
1322.000000	62.954068 
1321.000000	62.957549 
1320.000000	62.963938 
1319.000000	62.972998 
1318.000000	62.984132 
1317.000000	62.996816 
1316.000000	63.010120 
1315.000000	63.022971 
1314.000000	63.034033 
1313.000000	63.042020 
1312.000000	63.045620 
1311.000000	63.043975 
1310.000000	63.036561 
1309.000000	63.023662 
1308.000000	63.006234 
1307.000000	62.985968 
1306.000000	62.965011 
1305.000000	62.945652 
1304.000000	62.929987 
1303.000000	62.919354 
1302.000000	62.914228 
1301.000000	62.913870 
1300.000000	62.916660 
1299.000000	62.920331 
1298.000000	62.922310 
1297.000000	62.920594 
1296.000000	62.914133 
1295.000000	62.903285 
1294.000000	62.889504 
1293.000000	62.875556 
1292.000000	62.864685 
1291.000000	62.859964 
1290.000000	62.863564 
1289.000000	62.875986 
1288.000000	62.896203 
1287.000000	62.921380 
1286.000000	62.947630 
1285.000000	62.970757 
1284.000000	62.987065 
1283.000000	62.994122 
1282.000000	62.990951 
1281.000000	62.978267 
1280.000000	62.958216 
1279.000000	62.933850 
1278.000000	62.908315 
1277.000000	62.884378 
1276.000000	62.864065 
1275.000000	62.848401 
1274.000000	62.837576 
1273.000000	62.830901 
1272.000000	62.827110 
1271.000000	62.824845 
1270.000000	62.822723 
1269.000000	62.819623 
1268.000000	62.814807 
1267.000000	62.807846 
1266.000000	62.798929 
1265.000000	62.788605 
1264.000000	62.777948 
1263.000000	62.768149 
1262.000000	62.760400 
1261.000000	62.755680 
1260.000000	62.754321 
1259.000000	62.756061 
1258.000000	62.759971 
1257.000000	62.764644 
1256.000000	62.768340 
1255.000000	62.769627 
1254.000000	62.767505 
1253.000000	62.761783 
1252.000000	62.753152 
1251.000000	62.743115 
1250.000000	62.733435 
1249.000000	62.725877 
1248.000000	62.721896 
1247.000000	62.722039 
1246.000000	62.725901 
1245.000000	62.731957 
1244.000000	62.738442 
1243.000000	62.743544 
1242.000000	62.745904 
1241.000000	62.744998 
1240.000000	62.741374 
1239.000000	62.736272 
1238.000000	62.731242 
1237.000000	62.727546 
1236.000000	62.725806 
1235.000000	62.725615 
1234.000000	62.725877 
1233.000000	62.725090 
1232.000000	62.721824 
1231.000000	62.715411 
1230.000000	62.706255 
1229.000000	62.695932 
1228.000000	62.686872 
1227.000000	62.681889 
1226.000000	62.683486 
1225.000000	62.693214 
1224.000000	62.711310 
1223.000000	62.736773 
1222.000000	62.767338 
1221.000000	62.800168 
1220.000000	62.832403 
1219.000000	62.861561 
1218.000000	62.885928 
1217.000000	62.904691 
1216.000000	62.917661 
1215.000000	62.925124 
1214.000000	62.927341 
1213.000000	62.924671 
1212.000000	62.917280 
1211.000000	62.905287 
1210.000000	62.888956 
1209.000000	62.868905 
1208.000000	62.846040 
1207.000000	62.821888 
1206.000000	62.798261 
1205.000000	62.777018 
1204.000000	62.759947 
1203.000000	62.748479 
1202.000000	62.743425 
1201.000000	62.744808 
1200.000000	62.751913 
1199.000000	62.763214 
1198.000000	62.776684 
1197.000000	62.789869 
1196.000000	62.800145 
1195.000000	62.805199 
1194.000000	62.803483 
1193.000000	62.794351 
1192.000000	62.778377 
1191.000000	62.757539 
1190.000000	62.734484 
1189.000000	62.712430 
1188.000000	62.694501 
1187.000000	62.682890 
1186.000000	62.678527 
1185.000000	62.680792 
1184.000000	62.687873 
1183.000000	62.696981 
1182.000000	62.705159 
1181.000000	62.709617 
1180.000000	62.708449 
1179.000000	62.700748 
1178.000000	62.686896 
1177.000000	62.668371 
1176.000000	62.647342 
1175.000000	62.626290 
1174.000000	62.607765 
1173.000000	62.593650 
1172.000000	62.585115 
1171.000000	62.582421 
1170.000000	62.585258 
1169.000000	62.592792 
1168.000000	62.603783 
1167.000000	62.617063 
1166.000000	62.631320 
1165.000000	62.645220 
1164.000000	62.657475 
1163.000000	62.666797 
1162.000000	62.672090 
1161.000000	62.672591 
1160.000000	62.668085 
1159.000000	62.659120 
1158.000000	62.646865 
1157.000000	62.632727 
1156.000000	62.618136 
1155.000000	62.604403 
1154.000000	62.592387 
1153.000000	62.582349 
1152.000000	62.574195 
1151.000000	62.567472 
1150.000000	62.561893 
1149.000000	62.557458 
1148.000000	62.554502 
1147.000000	62.553501 
1146.000000	62.554931 
1145.000000	62.559032 
1144.000000	62.565684 
1143.000000	62.574124 
1142.000000	62.583208 
1141.000000	62.591814 
1140.000000	62.598824 
1139.000000	62.603735 
1138.000000	62.606620 
1137.000000	62.608385 
1136.000000	62.610173 
1135.000000	62.613534 
1134.000000	62.619709 
1133.000000	62.629699 
1132.000000	62.643885 
1131.000000	62.661576 
1130.000000	62.681412 
1129.000000	62.700915 
1128.000000	62.717652 
1127.000000	62.728953 
1126.000000	62.732720 
1125.000000	62.727808 
1124.000000	62.714385 
1123.000000	62.693881 
1122.000000	62.668776 
1121.000000	62.642192 
1120.000000	62.617397 
1119.000000	62.596964 
1118.000000	62.582230 
1117.000000	62.573146 
1116.000000	62.568259 
1115.000000	62.564992 
1114.000000	62.560296 
1113.000000	62.551283 
1112.000000	62.536334 
1111.000000	62.515115 
1110.000000	62.489128 
1109.000000	62.460994 
1108.000000	62.434339 
1107.000000	62.412691 
1106.000000	62.399220 
1105.000000	62.395453 
1104.000000	62.401604 
1103.000000	62.416505 
1102.000000	62.438058 
1101.000000	62.463688 
1100.000000	62.490725 
1099.000000	62.516760 
1098.000000	62.539958 
1097.000000	62.558937 
1096.000000	62.572860 
1095.000000	62.581372 
1094.000000	62.584567 
1093.000000	62.582683 
1092.000000	62.576293 
1091.000000	62.566256 
1090.000000	62.553858 
1089.000000	62.540721 
1088.000000	62.528872 
1087.000000	62.520122 
1086.000000	62.516355 
1085.000000	62.518429 
1084.000000	62.526106 
1083.000000	62.537646 
1082.000000	62.549901 
1081.000000	62.559080 
1080.000000	62.561202 
1079.000000	62.553429 
1078.000000	62.534594 
1077.000000	62.505888 
1076.000000	62.470698 
1075.000000	62.434077 
1074.000000	62.401771 
1073.000000	62.378597 
1072.000000	62.367677 
1071.000000	62.369465 
1070.000000	62.381601 
1069.000000	62.399673 
1068.000000	62.418222 
1067.000000	62.432098 
1066.000000	62.437677 
1065.000000	62.433362 
1064.000000	62.419891 
1063.000000	62.399959 
1062.000000	62.377238 
1061.000000	62.355756 
1060.000000	62.338757 
1059.000000	62.328457 
1058.000000	62.325358 
1057.000000	62.328743 
1056.000000	62.336802 
1055.000000	62.347483 
1054.000000	62.358880 
1053.000000	62.369632 
1052.000000	62.379169 
1051.000000	62.387442 
1050.000000	62.394809 
1049.000000	62.401390 
1048.000000	62.407112 
1047.000000	62.411332 
1046.000000	62.413144 
1045.000000	62.411379 
1044.000000	62.405323 
1043.000000	62.395238 
1042.000000	62.382388 
1041.000000	62.368965 
1040.000000	62.357902 
1039.000000	62.352275 
1038.000000	62.354278 
1037.000000	62.364745 
1036.000000	62.382817 
1035.000000	62.406086 
1034.000000	62.431263 
1033.000000	62.455034 
1032.000000	62.474679 
1031.000000	62.488913 
1030.000000	62.497687 
1029.000000	62.502121 
1028.000000	62.504005 
1027.000000	62.505030 
1026.000000	62.506389 
1025.000000	62.508392 
1024.000000	62.510609 
1023.000000	62.512111 
1022.000000	62.512159 
1021.000000	62.510442 
1020.000000	62.507367 
1019.000000	62.503933 
1018.000000	62.501621 
1017.000000	62.501978 
1016.000000	62.506103 
1015.000000	62.514543 
1014.000000	62.526941 
1013.000000	62.542486 
1012.000000	62.560033 
1011.000000	62.578272 
1010.000000	62.595939 
1009.000000	62.611842 
1008.000000	62.624931 
1007.000000	62.634539 
1006.000000	62.640261 
1005.000000	62.642002 
1004.000000	62.639737 
1003.000000	62.634134 
1002.000000	62.625861 
1001.000000	62.615942 
1000.000000	62.605190 
999.000000	 62.594532 
998.000000	 62.584495 
997.000000	 62.575292 
996.000000	 62.566709 
995.000000	 62.558102 
994.000000	 62.548995 
993.000000	 62.539052 
992.000000	 62.528777 
991.000000	 62.519335 
990.000000	 62.512850 
989.000000	 62.511634 
988.000000	 62.517690 
987.000000	 62.532067 
986.000000	 62.554216 
985.000000	 62.581777 
984.000000	 62.610626 
983.000000	 62.635850 
982.000000	 62.652492 
981.000000	 62.656712 
980.000000	 62.646722 
979.000000	 62.623047 
978.000000	 62.588667 
977.000000	 62.548136 
976.000000	 62.506580 
975.000000	 62.468528 
974.000000	 62.437200 
973.000000	 62.413883 
972.000000	 62.398386 
971.000000	 62.389063 
970.000000	 62.383866 
969.000000	 62.380790 
968.000000	 62.378501 
967.000000	 62.376356 
966.000000	 62.374067 
965.000000	 62.371730 
964.000000	 62.369418 
963.000000	 62.367010 
962.000000	 62.364101 
961.000000	 62.360334 
960.000000	 62.355518 
959.000000	 62.350010 
958.000000	 62.344908 
957.000000	 62.341785 
956.000000	 62.342619 
955.000000	 62.349247 
954.000000	 62.363100 
953.000000	 62.384748 
952.000000	 62.413692 
951.000000	 62.448668 
950.000000	 62.487339 
949.000000	 62.526726 
948.000000	 62.563419 
947.000000	 62.594270 
946.000000	 62.616252 
945.000000	 62.626981 
944.000000	 62.625002 
943.000000	 62.609958 
942.000000	 62.582564 
941.000000	 62.544608 
940.000000	 62.498950 
939.000000	 62.449264 
938.000000	 62.399959 
937.000000	 62.355685 
936.000000	 62.320756 
935.000000	 62.298655 
934.000000	 62.291216 
933.000000	 62.298488 
932.000000	 62.318515 
931.000000	 62.347579 
930.000000	 62.381029 
929.000000	 62.414336 
928.000000	 62.443757 
927.000000	 62.467122 
926.000000	 62.484312 
925.000000	 62.496852 
924.000000	 62.507486 
923.000000	 62.518858 
922.000000	 62.532711 
921.000000	 62.548732 
920.000000	 62.564873 
919.000000	 62.577295 
918.000000	 62.581825 
917.000000	 62.574505 
916.000000	 62.553262 
915.000000	 62.518072 
914.000000	 62.471580 
913.000000	 62.418508 
912.000000	 62.364506 
911.000000	 62.315416 
910.000000	 62.276077 
909.000000	 62.249708 
908.000000	 62.237477 
907.000000	 62.238192 
906.000000	 62.248849 
905.000000	 62.265372 
904.000000	 62.283754 
903.000000	 62.300372 
902.000000	 62.312698 
901.000000	 62.319707 
900.000000	 62.321901 
899.000000	 62.320899 
898.000000	 62.318968 
897.000000	 62.318444 
896.000000	 62.320947 
895.000000	 62.327170 
894.000000	 62.336063 
893.000000	 62.345838 
892.000000	 62.353229 
891.000000	 62.355327 
890.000000	 62.348914 
889.000000	 62.332105 
888.000000	 62.303972 
887.000000	 62.264728 
886.000000	 62.216138 
885.000000	 62.160992 
884.000000	 62.103533 
883.000000	 62.048745 
882.000000	 62.002396 
881.000000	 61.970043 
880.000000	 61.956334 
879.000000	 61.964035 
878.000000	 61.993265 
877.000000	 62.041616 
876.000000	 62.104010 
875.000000	 62.173724 
874.000000	 62.243485 
873.000000	 62.306547 
872.000000	 62.358212 
871.000000	 62.396168 
870.000000	 62.420392 
869.000000	 62.432599 
868.000000	 62.435460 
867.000000	 62.431550 
866.000000	 62.423038 
865.000000	 62.411403 
864.000000	 62.397909 
863.000000	 62.383747 
862.000000	 62.371134 
861.000000	 62.362217 
860.000000	 62.359237 
859.000000	 62.363553 
858.000000	 62.375402 
857.000000	 62.393403 
856.000000	 62.414407 
855.000000	 62.434744 
854.000000	 62.450909 
853.000000	 62.460350 
852.000000	 62.462258 
851.000000	 62.457656 
850.000000	 62.449026 
849.000000	 62.439203 
848.000000	 62.430548 
847.000000	 62.423992 
846.000000	 62.418818 
845.000000	 62.413263 
844.000000	 62.405109 
843.000000	 62.392330 
842.000000	 62.373852 
841.000000	 62.349915 
840.000000	 62.322258 
839.000000	 62.293124 
838.000000	 62.265372 
837.000000	 62.241721 
836.000000	 62.224817 
835.000000	 62.216591 
834.000000	 62.218451 
833.000000	 62.231373 
832.000000	 62.255501 
831.000000	 62.290000 
830.000000	 62.332868 
829.000000	 62.380623 
828.000000	 62.428903 
827.000000	 62.472581 
826.000000	 62.507247 
825.000000	 62.529706 
824.000000	 62.538719 
823.000000	 62.535119 
822.000000	 62.521076 
821.000000	 62.499451 
820.000000	 62.472844 
819.000000	 62.443184 
818.000000	 62.411808 
817.000000	 62.379622 
816.000000	 62.348103 
815.000000	 62.318801 
814.000000	 62.293887 
813.000000	 62.275242 
812.000000	 62.264108 
811.000000	 62.260937 
810.000000	 62.264657 
809.000000	 62.273383 
808.000000	 62.284255 
807.000000	 62.294626 
806.000000	 62.302589 
805.000000	 62.307429 
804.000000	 62.309598 
803.000000	 62.310528 
802.000000	 62.311840 
801.000000	 62.314748 
800.000000	 62.319231 
799.000000	 62.324309 
798.000000	 62.328195 
797.000000	 62.328577 
796.000000	 62.323546 
795.000000	 62.312197 
794.000000	 62.294912 
793.000000	 62.273359 
792.000000	 62.250161 
791.000000	 62.228465 
790.000000	 62.211275 
789.000000	 62.201142 
788.000000	 62.199211 
787.000000	 62.205100 
786.000000	 62.216663 
785.000000	 62.230420 
784.000000	 62.242269 
783.000000	 62.248110 
782.000000	 62.244844 
781.000000	 62.230634 
780.000000	 62.205624 
779.000000	 62.171435 
778.000000	 62.131404 
777.000000	 62.089443 
776.000000	 62.049746 
775.000000	 62.015748 
774.000000	 61.989688 
773.000000	 61.972260 
772.000000	 61.962771 
771.000000	 61.959409 
770.000000	 61.959886 
769.000000	 61.962175 
768.000000	 61.964941 
767.000000	 61.967968 
766.000000	 61.972141 
765.000000	 61.978912 
764.000000	 61.989760 
763.000000	 62.005448 
762.000000	 62.025570 
761.000000	 62.048006 
760.000000	 62.069201 
759.000000	 62.084794 
758.000000	 62.090635 
757.000000	 62.083935 
756.000000	 62.064123 
755.000000	 62.033128 
754.000000	 61.995244 
753.000000	 61.955976 
752.000000	 61.921262 
751.000000	 61.895728 
750.000000	 61.881852 
749.000000	 61.879539 
748.000000	 61.886382 
747.000000	 61.898708 
746.000000	 61.912655 
745.000000	 61.925411 
744.000000	 61.935806 
743.000000	 61.944580 
742.000000	 61.954092 
741.000000	 61.966943 
740.000000	 61.985111 
739.000000	 62.009167 
738.000000	 62.037825 
737.000000	 62.068462 
736.000000	 62.097620 
735.000000	 62.122082 
734.000000	 62.139368 
733.000000	 62.148356 
732.000000	 62.149000 
731.000000	 62.141871 
730.000000	 62.127876 
729.000000	 62.108111 
728.000000	 62.083387 
727.000000	 62.054419 
726.000000	 62.021684 
725.000000	 61.986160 
724.000000	 61.949038 
723.000000	 61.912393 
722.000000	 61.878561 
721.000000	 61.849832 
720.000000	 61.828231 
719.000000	 61.815094 
718.000000	 61.810851 
717.000000	 61.814928 
716.000000	 61.825823 
715.000000	 61.841583 
714.000000	 61.860299 
713.000000	 61.880350 
712.000000	 61.900877 
711.000000	 61.921405 
710.000000	 61.941528 
709.000000	 61.960291 
708.000000	 61.976265 
707.000000	 61.987066 
706.000000	 61.989402 
705.000000	 61.979889 
704.000000	 61.955547 
703.000000	 61.915159 
702.000000	 61.859798 
701.000000	 61.793470 
700.000000	 61.722564 
699.000000	 61.655473 
698.000000	 61.601138 
697.000000	 61.567306 
696.000000	 61.558651 
695.000000	 61.575603 
694.000000	 61.614155 
693.000000	 61.666464 
692.000000	 61.722373 
691.000000	 61.771821 
690.000000	 61.806964 
689.000000	 61.824202 
688.000000	 61.824727 
687.000000	 61.814570 
686.000000	 61.802673 
685.000000	 61.798501 
684.000000	 61.809301 
683.000000	 61.838388 
682.000000	 61.883854 
681.000000	 61.939477 
680.000000	 61.996006 
679.000000	 62.044262 
678.000000	 62.076807 
677.000000	 62.090253 
676.000000	 62.084937 
675.000000	 62.064290 
674.000000	 62.033033 
673.000000	 61.995458 
672.000000	 61.954092 
671.000000	 61.909484 
670.000000	 61.860609 
669.000000	 61.806559 
668.000000	 61.747574 
667.000000	 61.686491 
666.000000	 61.628270 
665.000000	 61.579489 
664.000000	 61.545991 
663.000000	 61.531257 
662.000000	 61.534595 
661.000000	 61.550974 
660.000000	 61.572670 
659.000000	 61.591243 
658.000000	 61.599802 
657.000000	 61.594772 
656.000000	 61.576437 
655.000000	 61.549019 
654.000000	 61.518836 
653.000000	 61.492872 
652.000000	 61.476635 
651.000000	 61.472797 
650.000000	 61.481404 
649.000000	 61.498880 
648.000000	 61.519265 
647.000000	 61.535286 
646.000000	 61.540436 
645.000000	 61.530566 
644.000000	 61.504435 
643.000000	 61.464715 
642.000000	 61.417102 
641.000000	 61.368775 
640.000000	 61.326384 
639.000000	 61.294531 
638.000000	 61.274981 
637.000000	 61.266064 
636.000000	 61.263751 
635.000000	 61.262774 
634.000000	 61.258482 
633.000000	 61.248803 
632.000000	 61.235213 
631.000000	 61.222267 
630.000000	 61.216735 
629.000000	 61.224746 
628.000000	 61.250734 
627.000000	 61.295843 
626.000000	 61.358571 
625.000000	 61.435055 
624.000000	 61.520719 
623.000000	 61.611843 
622.000000	 61.705613 
621.000000	 61.800456 
620.000000	 61.894893 
619.000000	 61.986422 
618.000000	 62.071895 
617.000000	 62.148308 
616.000000	 62.212014 
615.000000	 62.260317 
614.000000	 62.290287 
613.000000	 62.301254 
612.000000	 62.291669 
611.000000	 62.260174 
610.000000	 62.204980 
609.000000	 62.125134 
608.000000	 62.020897 
607.000000	 61.895465 
606.000000	 61.756467 
605.000000	 61.616206 
604.000000	 61.491274 
603.000000	 61.400151 
602.000000	 61.359786 
601.000000	 61.381721 
600.000000	 61.468529 
599.000000	 61.612105 
598.000000	 61.794614 
597.000000	 61.990594 
596.000000	 62.172436 
595.000000	 62.313652 
594.000000	 62.393665 
593.000000	 62.400245 
592.000000	 62.332630 
591.000000	 62.198400 
590.000000	 62.012171 
589.000000	 61.790394 
588.000000	 61.550116 
587.000000	 61.303472 
586.000000	 61.058068 
585.000000	 60.816717 
584.000000	 60.580253 
583.000000	 60.351085 
582.000000	 60.135698 
581.000000	 59.945821 
580.000000	 59.796810 
579.000000	 59.703731 
578.000000	 59.677243 
577.000000	 59.718775 
576.000000	 59.819531 
575.000000	 59.959292 
574.000000	 60.112595 
573.000000	 60.252404 
572.000000	 60.359740 
571.000000	 60.425758 
570.000000	 60.457539 
569.000000	 60.473752 
568.000000	 60.502195 
567.000000	 60.571551 
566.000000	 60.703158 
565.000000	 60.904955 
564.000000	 61.167120 
563.000000	 61.466193 
562.000000	 61.766767 
561.000000	 62.030911 
560.000000	 62.225389 
559.000000	 62.329983 
558.000000	 62.341022 
557.000000	 62.271928 
556.000000	 62.148928 
555.000000	 62.004184 
554.000000	 61.870026 
553.000000	 61.772489 
552.000000	 61.726307 
551.000000	 61.733651 
550.000000	 61.787271 
549.000000	 61.873865 
548.000000	 61.977887 
547.000000	 62.085866 
546.000000	 62.187910 
545.000000	 62.278842 
544.000000	 62.358045 
543.000000	 62.426257 
542.000000	 62.483668 
541.000000	 62.526106 
540.000000	 62.546586 
539.000000	 62.533473 
538.000000	 62.474989 
537.000000	 62.360930 
536.000000	 62.188792 
535.000000	 61.963415 
534.000000	 61.698627 
533.000000	 61.414146 
532.000000	 61.132812 
531.000000	 60.876631 
530.000000	 60.662341 
529.000000	 60.502672 
528.000000	 60.405039 
527.000000	 60.372090 
526.000000	 60.401821 
525.000000	 60.486435 
524.000000	 60.612821 
523.000000	 60.762310 
522.000000	 60.913372 
521.000000	 61.042737 
520.000000	 61.131048 
519.000000	 61.165237 
518.000000	 61.143040 
517.000000	 61.074066 
516.000000	 60.977196 
515.000000	 60.876893 
514.000000	 60.795545 
513.000000	 60.749745 
512.000000	 60.744094 
511.000000	 60.771584 
510.000000	 60.815429 
509.000000	 60.855078 
508.000000	 60.872340 
507.000000	 60.857558 
506.000000	 60.812139 
505.000000	 60.746693 
504.000000	 60.679960 
503.000000	 60.632014 
502.000000	 60.621714 
501.000000	 60.660934 
500.000000	 60.754656 
499.000000	 60.899734 
498.000000	 61.085081 
497.000000	 61.293339 
496.000000	 61.504340 
495.000000	 61.697602 
494.000000	 61.854910 
493.000000	 61.962032 
492.000000	 62.010478 
491.000000	 61.997389 
490.000000	 61.926102 
489.000000	 61.804938 
488.000000	 61.645960 
487.000000	 61.464405 
486.000000	 61.279201 
485.000000	 61.109185 
484.000000	 60.973024 
483.000000	 60.884404 
482.000000	 60.850787 
481.000000	 60.871362 
480.000000	 60.937356 
479.000000	 61.033821 
478.000000	 61.142253 
477.000000	 61.244058 
476.000000	 61.323118 
475.000000	 61.369180 
474.000000	 61.378812 
473.000000	 61.355018 
472.000000	 61.305356 
471.000000	 61.242604 
470.000000	 61.181211 
469.000000	 61.136031 
468.000000	 61.117911 
467.000000	 61.132597 
466.000000	 61.177515 
465.000000	 61.242389 
464.000000	 61.309957 
463.000000	 61.360096 
462.000000	 61.373448 
461.000000	 61.335873 
460.000000	 61.242485 
459.000000	 61.096930 
458.000000	 60.913753 
457.000000	 60.715413 
456.000000	 60.528540 
455.000000	 60.378575 
454.000000	 60.284304 
453.000000	 60.256075 
452.000000	 60.290241 
451.000000	 60.371208 
450.000000	 60.472822 
449.000000	 60.564422 
448.000000	 60.617041 
447.000000	 60.610222 
446.000000	 60.535216 
445.000000	 60.396337 
444.000000	 60.211777 
443.000000	 60.008597 
442.000000	 59.816575 
441.000000	 59.661769 
440.000000	 59.559941 
439.000000	 59.515833 
438.000000	 59.524202 
437.000000	 59.574842 
436.000000	 59.656000 
435.000000	 59.760451 
434.000000	 59.886693 
433.000000	 60.038971 
432.000000	 60.223078 
431.000000	 60.442137 
430.000000	 60.687756 
429.000000	 60.943675 
428.000000	 61.188507 
427.000000	 61.398196 
426.000000	 61.553812 
425.000000	 61.640977 
424.000000	 61.654138 
423.000000	 61.594963 
422.000000	 61.474299 
421.000000	 61.303544 
420.000000	 61.092829 
419.000000	 60.852432 
418.000000	 60.595083 
417.000000	 60.331869 
416.000000	 60.075902 
415.000000	 59.849858 
414.000000	 59.684419 
413.000000	 59.612822 
412.000000	 59.663295 
411.000000	 59.851121 
410.000000	 60.168194 
409.000000	 60.591197 
408.000000	 61.069560 
407.000000	 61.524248 
406.000000	 61.863565 
405.000000	 62.006974 
404.000000	 61.899185 
403.000000	 61.515712 
402.000000	 60.882949 
401.000000	 60.074543 
400.000000	 59.203696 
399.000000	 58.401536 
398.000000	 57.791638 
397.000000	 57.461357 
396.000000	 57.454133 
395.000000	 57.763481 
394.000000	 58.344006 
393.000000	 59.122800 
392.000000	 60.038185 
391.000000	 61.051726 
390.000000	 62.156605 
389.000000	 63.358044 
388.000000	 64.670705 
387.000000	 66.071200 
386.000000	 67.472767 
385.000000	 68.702197 
384.000000	 69.531559 
383.000000	 69.704914 
382.000000	 69.009280 
381.000000	 67.325329 
380.000000	 64.686155 
379.000000	 61.280894 
378.000000	 57.443904 
377.000000	 53.593230 
376.000000	 50.118517 
375.000000	 47.363781 
374.000000	 45.581078 
373.000000	 44.892621 
372.000000	 45.277690 
371.000000	 46.594929 
370.000000	 48.599624 

