PE IR       SPECTRUM    SPECTRUM    ASCII       PEDS        1.60        
  -1
BZ6032~1.ASC
17/04/07
13:52:49.00
17/04/07
13:52:49.00
tln
$BZ1503107-1_t0008$<tbV0>[-5.2,-13.0,8.0,0.0,27,1,0]
370.000000
64









2002,4.07    
MIRTGS : RIGHTBACK : INTERNAL 2
MIR : ON : INTERNAL 2
OPTKBR

0.200000
8
8.000000
FILLER
RATIO
SPECTRUM
UNLOCKED 256

DOUBLE
64
COMBINED
1
0
0


1.000000
RATIO


1
0
TRUE
51149
0
LEFT NOT FITTED RIGHT NOT FITTED 0
NONE
NONE
15600
12.000000
4.427000
51148
TRUE
1 0 8 72 0 0 0 0 

15798.010000






#HDR
-1
-1
#GR
CM-1
%T
0.00002384185791015625
0.0
5000.000000
-1.000000
4631
8
85.573005
44.066548
#DATA
5000.000000	61.925411 
4999.000000	61.948394 
4998.000000	61.979269 
4997.000000	62.023115 
4996.000000	62.086892 
4995.000000	62.175130 
4994.000000	62.291812 
4993.000000	62.437987 
4992.000000	62.612652 
4991.000000	62.812566 
4990.000000	63.031077 
4989.000000	63.258814 
4988.000000	63.481974 
4987.000000	63.684058 
4986.000000	63.846778 
4985.000000	63.953471 
4984.000000	63.991737 
4983.000000	63.956403 
4982.000000	63.852381 
4981.000000	63.693952 
4980.000000	63.501954 
4979.000000	63.299179 
4978.000000	63.106656 
4977.000000	62.939310 
4976.000000	62.804675 
4975.000000	62.702679 
4974.000000	62.627482 
4973.000000	62.571310 
4972.000000	62.528109 
4971.000000	62.496376 
4970.000000	62.478280 
4969.000000	62.479853 
4968.000000	62.505888 
4967.000000	62.559485 
4966.000000	62.638044 
4965.000000	62.734246 
4964.000000	62.835621 
4963.000000	62.928867 
4962.000000	63.002800 
4961.000000	63.051271 
4960.000000	63.074588 
4959.000000	63.078284 
4958.000000	63.070583 
4957.000000	63.060379 
4956.000000	63.053774 
4955.000000	63.051104 
4954.000000	63.045573 
4953.000000	63.025021 
4952.000000	62.974119 
4951.000000	62.878441 
4950.000000	62.728786 
4949.000000	62.522983 
4948.000000	62.269973 
4947.000000	61.987328 
4946.000000	61.702537 
4945.000000	61.445689 
4944.000000	61.249089 
4943.000000	61.138629 
4942.000000	61.133718 
4941.000000	61.242270 
4940.000000	61.461257 
4939.000000	61.775422 
4938.000000	62.159609 
4937.000000	62.580847 
4936.000000	63.002157 
4935.000000	63.386726 
4934.000000	63.701248 
4933.000000	63.919210 
4932.000000	64.024281 
4931.000000	64.012217 
4930.000000	63.890910 
4929.000000	63.679242 
4928.000000	63.405561 
4927.000000	63.103342 
4926.000000	62.807416 
4925.000000	62.547898 
4924.000000	62.348508 
4923.000000	62.221384 
4922.000000	62.166428 
4921.000000	62.171649 
4920.000000	62.216091 
4919.000000	62.275457 
4918.000000	62.325072 
4917.000000	62.348151 
4916.000000	62.335538 
4915.000000	62.291145 
4914.000000	62.226176 
4913.000000	62.160253 
4912.000000	62.114048 
4911.000000	62.106442 
4910.000000	62.149071 
4909.000000	62.244701 
4908.000000	62.386441 
4907.000000	62.560057 
4906.000000	62.748360 
4905.000000	62.932348 
4904.000000	63.094806 
4903.000000	63.223528 
4902.000000	63.312602 
4901.000000	63.361167 
4900.000000	63.372516 
4899.000000	63.353204 
4898.000000	63.311100 
4897.000000	63.256192 
4896.000000	63.198041 
4895.000000	63.144040 
4894.000000	63.098859 
4893.000000	63.066434 
4892.000000	63.049173 
4891.000000	63.047695 
4890.000000	63.061881 
4889.000000	63.091206 
4888.000000	63.134789 
4887.000000	63.190960 
4886.000000	63.256788 
4885.000000	63.327932 
4884.000000	63.398051 
4883.000000	63.459587 
4882.000000	63.504052 
4881.000000	63.523864 
4880.000000	63.512802 
4879.000000	63.467645 
4878.000000	63.388729 
4877.000000	63.280630 
4876.000000	63.152003 
4875.000000	63.015198 
4874.000000	62.884306 
4873.000000	62.773704 
4872.000000	62.698125 
4871.000000	62.670445 
4870.000000	62.699103 
4869.000000	62.786054 
4868.000000	62.925744 
4867.000000	63.105130 
4866.000000	63.303828 
4865.000000	63.498735 
4864.000000	63.667511 
4863.000000	63.793587 
4862.000000	63.868522 
4861.000000	63.893866 
4860.000000	63.879632 
4859.000000	63.841915 
4858.000000	63.798856 
4857.000000	63.766026 
4856.000000	63.754200 
4855.000000	63.766455 
4854.000000	63.799953 
4853.000000	63.846087 
4852.000000	63.894915 
4851.000000	63.936138 
4850.000000	63.962149 
4849.000000	63.968181 
4848.000000	63.953065 
4847.000000	63.918542 
4846.000000	63.868498 
4845.000000	63.807916 
4844.000000	63.741445 
4843.000000	63.674211 
4842.000000	63.609933 
4841.000000	63.550710 
4840.000000	63.496232 
4839.000000	63.444018 
4838.000000	63.390851 
4837.000000	63.333559 
4836.000000	63.271546 
4835.000000	63.207197 
4834.000000	63.146567 
4833.000000	63.097977 
4832.000000	63.069725 
4831.000000	63.067793 
4830.000000	63.092780 
4829.000000	63.138842 
4828.000000	63.193845 
4827.000000	63.241410 
4826.000000	63.265562 
4825.000000	63.254332 
4824.000000	63.204836 
4823.000000	63.124036 
4822.000000	63.028931 
4821.000000	62.942314 
4820.000000	62.887215 
4819.000000	62.880349 
4818.000000	62.927269 
4817.000000	63.020396 
4816.000000	63.139533 
4815.000000	63.257622 
4814.000000	63.347363 
4813.000000	63.389992 
4812.000000	63.378930 
4811.000000	63.324308 
4810.000000	63.249588 
4809.000000	63.187146 
4808.000000	63.168907 
4807.000000	63.218235 
4806.000000	63.343715 
4805.000000	63.535642 
4804.000000	63.769650 
4803.000000	64.010715 
4802.000000	64.222979 
4801.000000	64.376640 
4800.000000	64.455103 
4799.000000	64.457154 
4798.000000	64.395713 
4797.000000	64.293313 
4796.000000	64.175391 
4795.000000	64.064145 
4794.000000	63.973712 
4793.000000	63.909339 
4792.000000	63.867735 
4791.000000	63.839030 
4790.000000	63.810467 
4789.000000	63.770866 
4788.000000	63.713121 
4787.000000	63.634300 
4786.000000	63.537096 
4785.000000	63.426136 
4784.000000	63.309574 
4783.000000	63.196921 
4782.000000	63.098549 
4781.000000	63.023686 
4780.000000	62.978839 
4779.000000	62.967419 
4778.000000	62.986993 
4777.000000	63.029909 
4776.000000	63.083100 
4775.000000	63.129830 
4774.000000	63.153767 
4773.000000	63.141036 
4772.000000	63.086128 
4771.000000	62.992858 
4770.000000	62.875556 
4769.000000	62.755370 
4768.000000	62.659072 
4767.000000	62.612533 
4766.000000	62.635445 
4765.000000	62.735795 
4764.000000	62.906551 
4763.000000	63.125801 
4762.000000	63.361358 
4761.000000	63.576531 
4760.000000	63.737201 
4759.000000	63.818979 
4758.000000	63.812041 
4757.000000	63.722777 
4756.000000	63.570880 
4755.000000	63.385272 
4754.000000	63.197398 
4753.000000	63.035035 
4752.000000	62.918543 
4751.000000	62.857007 
4750.000000	62.850546 
4749.000000	62.889552 
4748.000000	62.959766 
4747.000000	63.044142 
4746.000000	63.127040 
4745.000000	63.195562 
4744.000000	63.240385 
4743.000000	63.256788 
4742.000000	63.243317 
4741.000000	63.203477 
4740.000000	63.144159 
4739.000000	63.075470 
4738.000000	63.009023 
4737.000000	62.956237 
4736.000000	62.926554 
4735.000000	62.926173 
4734.000000	62.956404 
4733.000000	63.014292 
4732.000000	63.092088 
4731.000000	63.179278 
4730.000000	63.263106 
4729.000000	63.331055 
4728.000000	63.371992 
4727.000000	63.376879 
4726.000000	63.341474 
4725.000000	63.266444 
4724.000000	63.159132 
4723.000000	63.032293 
4722.000000	62.902665 
4721.000000	62.788081 
4720.000000	62.704229 
4719.000000	62.662720 
4718.000000	62.666916 
4717.000000	62.711429 
4716.000000	62.782311 
4715.000000	62.860298 
4714.000000	62.925028 
4713.000000	62.959837 
4712.000000	62.955307 
4711.000000	62.911629 
4710.000000	62.838077 
4709.000000	62.750911 
4708.000000	62.669324 
4707.000000	62.610721 
4706.000000	62.587189 
4705.000000	62.602281 
4704.000000	62.651896 
4703.000000	62.724232 
4702.000000	62.803578 
4701.000000	62.873411 
4700.000000	62.919735 
4699.000000	62.934589 
4698.000000	62.916421 
4697.000000	62.871432 
4696.000000	62.810254 
4695.000000	62.746953 
4694.000000	62.695074 
4693.000000	62.665486 
4692.000000	62.664914 
4691.000000	62.693810 
4690.000000	62.746953 
4689.000000	62.815093 
4688.000000	62.887597 
4687.000000	62.954545 
4686.000000	63.008856 
4685.000000	63.047575 
4684.000000	63.071703 
4683.000000	63.085746 
4682.000000	63.095664 
4681.000000	63.106703 
4680.000000	63.121414 
4679.000000	63.139367 
4678.000000	63.156914 
4677.000000	63.169264 
4676.000000	63.171434 
4675.000000	63.159990 
4674.000000	63.134169 
4673.000000	63.096809 
4672.000000	63.053750 
4671.000000	63.012266 
4670.000000	62.980151 
4669.000000	62.963080 
4668.000000	62.964940 
4667.000000	62.987399 
4666.000000	63.029599 
4665.000000	63.088583 
4664.000000	63.159179 
4663.000000	63.235211 
4662.000000	63.309049 
4661.000000	63.372516 
4660.000000	63.417625 
4659.000000	63.437914 
4658.000000	63.429117 
4657.000000	63.390350 
4656.000000	63.325333 
4655.000000	63.242149 
4654.000000	63.152074 
4653.000000	63.067865 
4652.000000	63.002204 
4651.000000	62.965369 
4650.000000	62.963342 
4649.000000	62.996768 
4648.000000	63.061475 
4647.000000	63.148522 
4646.000000	63.246560 
4645.000000	63.342785 
4644.000000	63.425016 
4643.000000	63.483047 
4642.000000	63.509726 
4641.000000	63.501834 
4640.000000	63.459730 
4639.000000	63.387584 
4638.000000	63.292932 
4637.000000	63.184952 
4636.000000	63.073420 
4635.000000	62.967181 
4634.000000	62.873458 
4633.000000	62.796425 
4632.000000	62.737202 
4631.000000	62.693715 
4630.000000	62.661957 
4629.000000	62.637209 
4628.000000	62.615776 
4627.000000	62.594890 
4626.000000	62.574005 
4625.000000	62.553668 
4624.000000	62.536025 
4623.000000	62.522983 
4622.000000	62.516427 
4621.000000	62.516689 
4620.000000	62.523603 
4619.000000	62.536144 
4618.000000	62.553262 
4617.000000	62.573909 
4616.000000	62.597513 
4615.000000	62.623476 
4614.000000	62.651729 
4613.000000	62.682199 
4612.000000	62.714982 
4611.000000	62.749576 
4610.000000	62.785649 
4609.000000	62.822747 
4608.000000	62.860441 
4607.000000	62.898349 
4606.000000	62.934494 
4605.000000	62.965536 
4604.000000	62.987112 
4603.000000	62.994766 
4602.000000	62.984848 
4601.000000	62.955784 
4600.000000	62.909650 
4599.000000	62.851953 
4598.000000	62.791061 
4597.000000	62.736654 
4596.000000	62.697410 
4595.000000	62.679362 
4594.000000	62.684988 
4593.000000	62.712454 
4592.000000	62.756013 
4591.000000	62.807345 
4590.000000	62.857532 
4589.000000	62.898707 
4588.000000	62.924933 
4587.000000	62.933945 
4586.000000	62.926697 
4585.000000	62.907528 
4584.000000	62.882161 
4583.000000	62.857604 
4582.000000	62.840461 
4581.000000	62.836194 
4580.000000	62.847971 
4579.000000	62.876081 
4578.000000	62.917900 
4577.000000	62.967944 
4576.000000	63.019037 
4575.000000	63.063120 
4574.000000	63.092732 
4573.000000	63.102364 
4572.000000	63.089084 
4571.000000	63.052439 
4570.000000	62.994170 
4569.000000	62.918281 
4568.000000	62.829661 
4567.000000	62.733530 
4566.000000	62.634539 
4565.000000	62.537217 
4564.000000	62.444782 
4563.000000	62.359666 
4562.000000	62.283325 
4561.000000	62.216210 
4560.000000	62.158846 
4559.000000	62.111854 
4558.000000	62.076306 
4557.000000	62.052726 
4556.000000	62.041854 
4555.000000	62.043881 
4554.000000	62.058019 
4553.000000	62.081694 
4552.000000	62.112236 
4551.000000	62.146973 
4550.000000	62.183880 
4549.000000	62.221932 
4548.000000	62.260961 
4547.000000	62.301969 
4546.000000	62.346529 
4545.000000	62.396383 
4544.000000	62.453293 
4543.000000	62.517499 
4542.000000	62.588620 
4541.000000	62.663626 
4540.000000	62.736654 
4539.000000	62.799024 
4538.000000	62.842154 
4537.000000	62.858462 
4536.000000	62.843656 
4535.000000	62.797665 
4534.000000	62.727499 
4533.000000	62.642598 
4532.000000	62.553739 
4531.000000	62.469315 
4530.000000	62.394905 
4529.000000	62.330007 
4528.000000	62.268996 
4527.000000	62.204003 
4526.000000	62.128376 
4525.000000	62.038779 
4524.000000	61.937046 
4523.000000	61.831831 
4522.000000	61.737179 
4521.000000	61.667513 
4520.000000	61.635136 
4519.000000	61.646080 
4518.000000	61.700177 
4517.000000	61.791896 
4516.000000	61.912107 
4515.000000	62.051606 
4514.000000	62.201714 
4513.000000	62.352299 
4512.000000	62.495398 
4511.000000	62.623119 
4510.000000	62.731671 
4509.000000	62.821102 
4508.000000	62.895560 
4507.000000	62.961459 
4506.000000	63.026070 
4505.000000	63.096690 
4504.000000	63.177776 
4503.000000	63.268113 
4502.000000	63.367104 
4501.000000	63.476109 
4500.000000	63.600730 
4499.000000	63.749670 
4498.000000	63.934946 
4497.000000	64.167690 
4496.000000	64.450120 
4495.000000	64.772057 
4494.000000	65.108633 
4493.000000	65.426182 
4492.000000	65.685534 
4491.000000	65.857148 
4490.000000	65.934848 
4489.000000	65.938806 
4488.000000	65.915870 
4487.000000	65.921401 
4486.000000	66.010117 
4485.000000	66.208791 
4484.000000	66.506814 
4483.000000	66.851997 
4482.000000	67.169976 
4481.000000	67.373585 
4480.000000	67.396092 
4479.000000	67.196321 
4478.000000	66.768145 
4477.000000	66.145610 
4476.000000	65.401268 
4475.000000	64.618611 
4474.000000	63.871574 
4473.000000	63.215732 
4472.000000	62.681961 
4471.000000	62.268185 
4470.000000	61.946702 
4469.000000	61.676645 
4468.000000	61.418175 
4467.000000	61.139273 
4466.000000	60.824561 
4465.000000	60.473036 
4464.000000	60.095262 
4463.000000	59.715127 
4462.000000	59.351921 
4461.000000	59.010052 
4460.000000	58.672523 
4459.000000	58.293890 
4458.000000	57.829809 
4457.000000	57.224535 
4456.000000	56.481528 
4455.000000	55.657982 
4454.000000	54.901719 
4453.000000	54.408335 
4452.000000	54.406332 
4451.000000	55.089902 
4450.000000	56.572699 
4449.000000	58.835959 
4448.000000	61.728501 
4447.000000	64.982318 
4446.000000	68.267059 
4445.000000	71.252751 
4444.000000	73.675370 
4443.000000	75.379395 
4442.000000	76.339721 
4441.000000	76.642298 
4440.000000	76.436066 
4439.000000	75.878500 
4438.000000	75.105190 
4437.000000	74.193787 
4436.000000	73.182559 
4435.000000	72.067165 
4434.000000	70.864176 
4433.000000	69.599103 
4432.000000	68.331313 
4431.000000	67.135000 
4430.000000	66.082310 
4429.000000	65.231990 
4428.000000	64.605879 
4427.000000	64.196729 
4426.000000	63.961958 
4425.000000	63.846826 
4424.000000	63.793468 
4423.000000	63.758254 
4422.000000	63.711667 
4421.000000	63.647603 
4420.000000	63.573670 
4419.000000	63.505101 
4418.000000	63.449144 
4417.000000	63.413953 
4416.000000	63.404393 
4415.000000	63.417959 
4414.000000	63.445067 
4413.000000	63.481378 
4412.000000	63.526558 
4411.000000	63.573789 
4410.000000	63.613247 
4409.000000	63.635563 
4408.000000	63.632893 
4407.000000	63.604927 
4406.000000	63.555097 
4405.000000	63.485646 
4404.000000	63.398933 
4403.000000	63.299965 
4402.000000	63.193488 
4401.000000	63.080668 
4400.000000	62.963962 
4399.000000	62.852025 
4398.000000	62.754034 
4397.000000	62.676119 
4396.000000	62.623095 
4395.000000	62.597823 
4394.000000	62.598991 
4393.000000	62.620258 
4392.000000	62.652683 
4391.000000	62.686133 
4390.000000	62.711882 
4389.000000	62.724518 
4388.000000	62.722921 
4387.000000	62.710285 
4386.000000	62.692379 
4385.000000	62.675786 
4384.000000	62.665748 
4383.000000	62.664985 
4382.000000	62.673282 
4381.000000	62.688064 
4380.000000	62.705540 
4379.000000	62.722277 
4378.000000	62.736392 
4377.000000	62.748241 
4376.000000	62.759995 
4375.000000	62.775206 
4374.000000	62.797331 
4373.000000	62.829017 
4372.000000	62.871432 
4371.000000	62.923073 
4370.000000	62.979841 
4369.000000	63.035559 
4368.000000	63.083839 
4367.000000	63.118267 
4366.000000	63.134121 
4365.000000	63.129210 
4364.000000	63.104462 
4363.000000	63.063812 
4362.000000	63.013124 
4361.000000	62.959671 
4360.000000	62.910461 
4359.000000	62.871384 
4358.000000	62.846016 
4357.000000	62.835264 
4356.000000	62.837195 
4355.000000	62.847304 
4354.000000	62.859940 
4353.000000	62.869048 
4352.000000	62.870311 
4351.000000	62.861943 
4350.000000	62.845706 
4349.000000	62.826013 
4348.000000	62.808895 
4347.000000	62.800097 
4346.000000	62.803602 
4345.000000	62.820267 
4344.000000	62.847709 
4343.000000	62.881159 
4342.000000	62.914419 
4341.000000	62.941598 
4340.000000	62.957739 
4339.000000	62.959861 
4338.000000	62.947082 
4337.000000	62.920641 
4336.000000	62.884116 
4335.000000	62.842607 
4334.000000	62.802433 
4333.000000	62.769794 
4332.000000	62.749791 
4331.000000	62.745308 
4330.000000	62.756443 
4329.000000	62.780404 
4328.000000	62.811470 
4327.000000	62.842726 
4326.000000	62.867164 
4325.000000	62.879896 
4324.000000	62.879133 
4323.000000	62.866830 
4322.000000	62.847971 
4321.000000	62.829327 
4320.000000	62.817716 
4319.000000	62.818193 
4318.000000	62.832593 
4317.000000	62.859487 
4316.000000	62.895083 
4315.000000	62.934207 
4314.000000	62.972116 
4313.000000	63.005042 
4312.000000	63.031268 
4311.000000	63.050675 
4310.000000	63.064289 
4309.000000	63.073682 
4308.000000	63.080382 
4307.000000	63.085699 
4306.000000	63.090443 
4305.000000	63.095331 
4304.000000	63.100552 
4303.000000	63.106703 
4302.000000	63.114190 
4301.000000	63.122868 
4300.000000	63.131713 
4299.000000	63.138985 
4298.000000	63.142371 
4297.000000	63.139677 
4296.000000	63.129186 
4295.000000	63.110303 
4294.000000	63.083791 
4293.000000	63.051939 
4292.000000	63.018083 
4291.000000	62.985444 
4290.000000	62.956857 
4289.000000	62.934207 
4288.000000	62.918233 
4287.000000	62.908649 
4286.000000	62.904787 
4285.000000	62.905883 
4284.000000	62.911581 
4283.000000	62.921881 
4282.000000	62.937116 
4281.000000	62.957811 
4280.000000	62.984085 
4279.000000	63.015556 
4278.000000	63.051319 
4277.000000	63.090181 
4276.000000	63.130974 
4275.000000	63.172316 
4274.000000	63.212656 
4273.000000	63.249802 
4272.000000	63.281512 
4271.000000	63.304948 
4270.000000	63.317108 
4269.000000	63.315057 
4268.000000	63.297247 
4267.000000	63.263249 
4266.000000	63.214612 
4265.000000	63.154268 
4264.000000	63.086891 
4263.000000	63.017559 
4262.000000	62.951397 
4261.000000	62.892723 
4260.000000	62.844753 
4259.000000	62.809586 
4258.000000	62.788081 
4257.000000	62.780570 
4256.000000	62.786793 
4255.000000	62.805819 
4254.000000	62.836265 
4253.000000	62.875819 
4252.000000	62.921476 
4251.000000	62.969970 
4250.000000	63.018417 
4249.000000	63.064575 
4248.000000	63.107275 
4247.000000	63.146853 
4246.000000	63.184809 
4245.000000	63.223075 
4244.000000	63.263154 
4243.000000	63.305783 
4242.000000	63.349866 
4241.000000	63.393044 
4240.000000	63.431596 
4239.000000	63.461399 
4238.000000	63.478851 
4237.000000	63.482117 
4236.000000	63.471460 
4235.000000	63.449430 
4234.000000	63.420462 
4233.000000	63.390254 
4232.000000	63.364338 
4231.000000	63.347172 
4230.000000	63.341212 
4229.000000	63.346791 
4228.000000	63.362097 
4227.000000	63.383793 
4226.000000	63.407540 
4225.000000	63.428807 
4224.000000	63.443922 
4223.000000	63.450455 
4222.000000	63.447284 
4221.000000	63.434910 
4220.000000	63.415265 
4219.000000	63.391733 
4218.000000	63.368129 
4217.000000	63.348531 
4216.000000	63.336968 
4215.000000	63.336610 
4214.000000	63.348984 
4213.000000	63.373756 
4212.000000	63.408684 
4211.000000	63.449954 
4210.000000	63.492608 
4209.000000	63.531565 
4208.000000	63.562488 
4207.000000	63.582348 
4206.000000	63.590145 
4205.000000	63.585805 
4204.000000	63.569998 
4203.000000	63.543629 
4202.000000	63.507795 
4201.000000	63.463592 
4200.000000	63.412618 
4199.000000	63.357400 
4198.000000	63.301682 
4197.000000	63.250660 
4196.000000	63.210201 
4195.000000	63.185453 
4194.000000	63.179707 
4193.000000	63.193202 
4192.000000	63.222789 
4191.000000	63.261961 
4190.000000	63.302683 
4189.000000	63.336634 
4188.000000	63.357734 
4187.000000	63.363027 
4186.000000	63.353753 
4185.000000	63.333868 
4184.000000	63.310217 
4183.000000	63.289809 
4182.000000	63.279628 
4181.000000	63.285183 
4180.000000	63.309669 
4179.000000	63.354039 
4178.000000	63.416099 
4177.000000	63.491392 
4176.000000	63.572430 
4175.000000	63.650155 
4174.000000	63.714075 
4173.000000	63.754057 
4172.000000	63.761949 
4171.000000	63.733696 
4170.000000	63.670492 
4169.000000	63.579130 
4168.000000	63.471722 
4167.000000	63.363337 
4166.000000	63.269400 
4165.000000	63.202548 
4164.000000	63.170337 
4163.000000	63.174009 
4162.000000	63.208842 
4161.000000	63.265562 
4160.000000	63.332748 
4159.000000	63.399481 
4158.000000	63.456940 
4157.000000	63.500213 
4156.000000	63.527178 
4155.000000	63.539361 
4154.000000	63.539695 
4153.000000	63.532447 
4152.000000	63.521409 
4151.000000	63.509893 
4150.000000	63.500642 
4149.000000	63.495659 
4148.000000	63.496685 
4147.000000	63.504695 
4146.000000	63.520145 
4145.000000	63.541984 
4144.000000	63.567948 
4143.000000	63.594484 
4142.000000	63.617324 
4141.000000	63.632321 
4140.000000	63.636422 
4139.000000	63.628292 
4138.000000	63.608956 
4137.000000	63.581752 
4136.000000	63.551735 
4135.000000	63.524270 
4134.000000	63.504219 
4133.000000	63.495230 
4132.000000	63.499140 
4131.000000	63.515639 
4130.000000	63.542723 
4129.000000	63.577079 
4128.000000	63.614964 
4127.000000	63.653182 
4126.000000	63.689041 
4125.000000	63.720083 
4124.000000	63.744711 
4123.000000	63.761758 
4122.000000	63.770961 
4121.000000	63.772583 
4120.000000	63.767981 
4119.000000	63.759374 
4118.000000	63.749861 
4117.000000	63.742995 
4116.000000	63.741898 
4115.000000	63.748621 
4114.000000	63.763594 
4113.000000	63.785624 
4112.000000	63.812184 
4111.000000	63.840079 
4110.000000	63.866305 
4109.000000	63.888716 
4108.000000	63.906311 
4107.000000	63.918924 
4106.000000	63.927173 
4105.000000	63.931298 
4104.000000	63.930726 
4103.000000	63.923907 
4102.000000	63.908553 
4101.000000	63.882660 
4100.000000	63.845348 
4099.000000	63.797736 
4098.000000	63.743185 
4097.000000	63.687252 
4096.000000	63.636684 
4095.000000	63.598084 
4094.000000	63.576221 
4093.000000	63.573193 
4092.000000	63.588094 
4091.000000	63.617086 
4090.000000	63.654255 
4089.000000	63.693094 
4088.000000	63.727951 
4087.000000	63.754653 
4086.000000	63.771605 
4085.000000	63.779282 
4084.000000	63.780021 
4083.000000	63.777041 
4082.000000	63.773727 
4081.000000	63.773202 
4080.000000	63.777327 
4079.000000	63.787055 
4078.000000	63.801169 
4077.000000	63.817548 
4076.000000	63.832521 
4075.000000	63.841962 
4074.000000	63.842272 
4073.000000	63.831043 
4072.000000	63.808202 
4071.000000	63.776183 
4070.000000	63.739609 
4069.000000	63.704371 
4068.000000	63.676452 
4067.000000	63.660788 
4066.000000	63.659834 
4065.000000	63.673305 
4064.000000	63.698148 
4063.000000	63.729476 
4062.000000	63.761663 
4061.000000	63.789486 
4060.000000	63.809156 
4059.000000	63.818907 
4058.000000	63.819026 
4057.000000	63.811564 
4056.000000	63.798880 
4055.000000	63.783264 
4054.000000	63.766670 
4053.000000	63.750147 
4052.000000	63.734245 
4051.000000	63.718962 
4050.000000	63.704442 
4049.000000	63.691067 
4048.000000	63.679599 
4047.000000	63.671207 
4046.000000	63.667249 
4045.000000	63.668680 
4044.000000	63.675880 
4043.000000	63.688397 
4042.000000	63.704919 
4041.000000	63.723492 
4040.000000	63.741779 
4039.000000	63.757491 
4038.000000	63.768792 
4037.000000	63.774585 
4036.000000	63.774585 
4035.000000	63.768863 
4034.000000	63.757681 
4033.000000	63.741445 
4032.000000	63.720297 
4031.000000	63.694357 
4030.000000	63.663840 
4029.000000	63.629126 
4028.000000	63.591361 
4027.000000	63.552403 
4026.000000	63.514780 
4025.000000	63.481283 
4024.000000	63.454604 
4023.000000	63.436508 
4022.000000	63.427639 
4021.000000	63.427114 
4020.000000	63.433074 
4019.000000	63.442659 
4018.000000	63.453125 
4017.000000	63.461899 
4016.000000	63.467407 
4015.000000	63.468861 
4014.000000	63.466572 
4013.000000	63.461399 
4012.000000	63.454747 
4011.000000	63.448023 
4010.000000	63.442492 
4009.000000	63.439059 
4008.000000	63.438391 
4007.000000	63.440656 
4006.000000	63.445806 
4005.000000	63.453364 
4004.000000	63.462233 
4003.000000	63.471055 
4002.000000	63.478350 
4001.000000	63.482928 
4000.000000	63.483715 
3999.000000	63.480186 
3998.000000	63.472843 
3997.000000	63.462567 
3996.000000	63.450479 
3995.000000	63.437700 
3994.000000	63.425064 
3993.000000	63.413262 
3992.000000	63.402676 
3991.000000	63.393664 
3990.000000	63.386726 
3989.000000	63.382411 
3988.000000	63.381457 
3987.000000	63.384342 
3986.000000	63.391041 
3985.000000	63.400983 
3984.000000	63.412928 
3983.000000	63.425159 
3982.000000	63.436245 
3981.000000	63.445401 
3980.000000	63.453054 
3979.000000	63.460922 
3978.000000	63.471722 
3977.000000	63.488483 
3976.000000	63.513827 
3975.000000	63.548827 
3974.000000	63.592767 
3973.000000	63.643121 
3972.000000	63.695836 
3971.000000	63.746142 
3970.000000	63.789153 
3969.000000	63.820886 
3968.000000	63.838553 
3967.000000	63.841176 
3966.000000	63.829326 
3965.000000	63.805055 
3964.000000	63.771557 
3963.000000	63.732838 
3962.000000	63.693380 
3961.000000	63.657712 
3960.000000	63.630032 
3959.000000	63.613629 
3958.000000	63.610672 
3957.000000	63.621711 
3956.000000	63.645362 
3955.000000	63.678312 
3954.000000	63.715791 
3953.000000	63.752126 
3952.000000	63.781571 
3951.000000	63.799190 
3950.000000	63.801598 
3949.000000	63.787531 
3948.000000	63.758087 
3947.000000	63.716530 
3946.000000	63.667654 
3945.000000	63.616919 
3944.000000	63.569784 
3943.000000	63.530588 
3942.000000	63.502478 
3941.000000	63.486433 
3940.000000	63.481664 
3939.000000	63.485693 
3938.000000	63.495159 
3937.000000	63.506221 
3936.000000	63.515281 
3935.000000	63.519239 
3934.000000	63.516068 
3933.000000	63.504910 
3932.000000	63.485932 
3931.000000	63.460087 
3930.000000	63.428783 
3929.000000	63.393759 
3928.000000	63.357329 
3927.000000	63.322162 
3926.000000	63.291311 
3925.000000	63.268041 
3924.000000	63.255596 
3923.000000	63.256978 
3922.000000	63.274121 
3921.000000	63.307070 
3920.000000	63.353800 
3919.000000	63.409829 
3918.000000	63.469099 
3917.000000	63.524460 
3916.000000	63.569355 
3915.000000	63.598871 
3914.000000	63.610839 
3913.000000	63.606262 
3912.000000	63.588905 
3911.000000	63.564205 
3910.000000	63.538074 
3909.000000	63.515615 
3908.000000	63.500308 
3907.000000	63.493537 
3906.000000	63.494873 
3905.000000	63.502621 
3904.000000	63.514518 
3903.000000	63.528323 
3902.000000	63.542103 
3901.000000	63.554430 
3900.000000	63.564014 
3899.000000	63.569664 
3898.000000	63.570308 
3897.000000	63.565301 
3896.000000	63.554859 
3895.000000	63.540077 
3894.000000	63.523578 
3893.000000	63.508296 
3892.000000	63.497304 
3891.000000	63.492393 
3890.000000	63.493847 
3889.000000	63.499927 
3888.000000	63.507151 
3887.000000	63.511347 
3886.000000	63.508796 
3885.000000	63.497233 
3884.000000	63.476514 
3883.000000	63.448739 
3882.000000	63.417458 
3881.000000	63.386845 
3880.000000	63.360333 
3879.000000	63.339781 
3878.000000	63.325214 
3877.000000	63.315129 
3876.000000	63.307309 
3875.000000	63.299798 
3874.000000	63.291883 
3873.000000	63.284039 
3872.000000	63.277792 
3871.000000	63.275051 
3870.000000	63.277149 
3869.000000	63.284182 
3868.000000	63.295078 
3867.000000	63.307642 
3866.000000	63.319730 
3865.000000	63.329482 
3864.000000	63.336777 
3863.000000	63.343095 
3862.000000	63.351440 
3861.000000	63.365578 
3860.000000	63.388824 
3859.000000	63.423204 
3858.000000	63.468217 
3857.000000	63.520622 
3856.000000	63.574838 
3855.000000	63.624310 
3854.000000	63.662958 
3853.000000	63.686633 
3852.000000	63.694095 
3851.000000	63.687324 
3850.000000	63.670706 
3849.000000	63.650012 
3848.000000	63.630986 
3847.000000	63.618159 
3846.000000	63.614439 
3845.000000	63.620638 
3844.000000	63.636064 
3843.000000	63.658499 
3842.000000	63.685131 
3841.000000	63.712930 
3840.000000	63.738799 
3839.000000	63.760399 
3838.000000	63.775944 
3837.000000	63.784909 
3836.000000	63.787841 
3835.000000	63.786315 
3834.000000	63.782739 
3833.000000	63.779616 
3832.000000	63.779139 
3831.000000	63.782525 
3830.000000	63.789963 
3829.000000	63.800239 
3828.000000	63.811135 
3827.000000	63.819956 
3826.000000	63.824534 
3825.000000	63.823461 
3824.000000	63.816285 
3823.000000	63.803529 
3822.000000	63.786339 
3821.000000	63.765811 
3820.000000	63.742780 
3819.000000	63.717508 
3818.000000	63.690042 
3817.000000	63.660621 
3816.000000	63.630032 
3815.000000	63.599681 
3814.000000	63.571691 
3813.000000	63.548421 
3812.000000	63.532352 
3811.000000	63.525342 
3810.000000	63.528609 
3809.000000	63.541650 
3808.000000	63.562679 
3807.000000	63.588762 
3806.000000	63.616251 
3805.000000	63.641262 
3804.000000	63.660311 
3803.000000	63.670730 
3802.000000	63.671326 
3801.000000	63.662219 
3800.000000	63.645052 
3799.000000	63.622426 
3798.000000	63.597774 
3797.000000	63.574743 
3796.000000	63.556694 
3795.000000	63.546228 
3794.000000	63.544845 
3793.000000	63.552808 
3792.000000	63.568925 
3791.000000	63.590884 
3790.000000	63.615727 
3789.000000	63.640236 
3788.000000	63.661026 
3787.000000	63.675498 
3786.000000	63.682031 
3785.000000	63.680315 
3784.000000	63.671183 
3783.000000	63.656520 
3782.000000	63.639211 
3781.000000	63.622522 
3780.000000	63.609623 
3779.000000	63.603234 
3778.000000	63.605141 
3777.000000	63.615918 
3776.000000	63.634777 
3775.000000	63.659667 
3774.000000	63.687825 
3773.000000	63.716006 
3772.000000	63.741159 
3771.000000	63.760828 
3770.000000	63.773465 
3769.000000	63.778471 
3768.000000	63.776302 
3767.000000	63.768339 
3766.000000	63.756704 
3765.000000	63.744163 
3764.000000	63.733863 
3763.000000	63.728952 
3762.000000	63.732290 
3761.000000	63.746023 
3760.000000	63.770818 
3759.000000	63.805627 
3758.000000	63.847398 
3757.000000	63.891601 
3756.000000	63.932681 
3755.000000	63.965058 
3754.000000	63.984465 
3753.000000	63.989067 
3752.000000	63.979721 
3751.000000	63.960242 
3750.000000	63.935828 
3749.000000	63.912129 
3748.000000	63.893461 
3747.000000	63.882184 
3746.000000	63.877964 
3745.000000	63.878464 
3744.000000	63.879942 
3743.000000	63.878798 
3742.000000	63.872456 
3741.000000	63.860321 
3740.000000	63.843321 
3739.000000	63.823699 
3738.000000	63.804197 
3737.000000	63.787245 
3736.000000	63.774156 
3735.000000	63.765048 
3734.000000	63.758873 
3733.000000	63.754010 
3732.000000	63.748908 
3731.000000	63.742780 
3730.000000	63.735675 
3729.000000	63.728570 
3728.000000	63.722729 
3727.000000	63.719606 
3726.000000	63.720273 
3725.000000	63.725495 
3724.000000	63.735032 
3723.000000	63.748264 
3722.000000	63.764190 
3721.000000	63.781833 
3720.000000	63.800334 
3719.000000	63.818907 
3718.000000	63.836956 
3717.000000	63.854026 
3716.000000	63.869571 
3715.000000	63.882923 
3714.000000	63.893222 
3713.000000	63.899707 
3712.000000	63.902068 
3711.000000	63.900685 
3710.000000	63.896608 
3709.000000	63.891768 
3708.000000	63.888406 
3707.000000	63.888335 
3706.000000	63.892316 
3705.000000	63.900041 
3704.000000	63.909816 
3703.000000	63.918781 
3702.000000	63.923549 
3701.000000	63.921117 
3700.000000	63.909602 
3699.000000	63.888955 
3698.000000	63.860988 
3697.000000	63.828873 
3696.000000	63.796877 
3695.000000	63.769507 
3694.000000	63.750529 
3693.000000	63.742160 
3692.000000	63.745069 
3691.000000	63.758182 
3690.000000	63.779091 
3689.000000	63.804626 
3688.000000	63.831758 
3687.000000	63.858222 
3686.000000	63.882684 
3685.000000	63.904905 
3684.000000	63.925671 
3683.000000	63.946390 
3682.000000	63.968443 
3681.000000	63.992881 
3680.000000	64.020252 
3679.000000	64.050149 
3678.000000	64.081716 
3677.000000	64.112973 
3676.000000	64.141488 
3675.000000	64.164090 
3674.000000	64.178109 
3673.000000	64.181065 
3672.000000	64.171457 
3671.000000	64.149093 
3670.000000	64.115285 
3669.000000	64.072823 
3668.000000	64.025712 
3667.000000	63.978385 
3666.000000	63.935184 
3665.000000	63.899612 
3664.000000	63.873934 
3663.000000	63.858675 
3662.000000	63.852977 
3661.000000	63.854551 
3660.000000	63.860464 
3659.000000	63.867521 
3658.000000	63.872814 
3657.000000	63.873958 
3656.000000	63.869786 
3655.000000	63.859748 
3654.000000	63.844490 
3653.000000	63.825702 
3652.000000	63.806128 
3651.000000	63.788843 
3650.000000	63.777112 
3649.000000	63.773894 
3648.000000	63.780951 
3647.000000	63.798499 
3646.000000	63.824844 
3645.000000	63.856744 
3644.000000	63.889455 
3643.000000	63.917899 
3642.000000	63.937187 
3641.000000	63.943767 
3640.000000	63.936066 
3639.000000	63.914918 
3638.000000	63.883185 
3637.000000	63.845157 
3636.000000	63.805937 
3635.000000	63.770604 
3634.000000	63.743305 
3633.000000	63.726687 
3632.000000	63.721776 
3631.000000	63.728237 
3630.000000	63.744521 
3629.000000	63.768315 
3628.000000	63.796734 
3627.000000	63.826632 
3626.000000	63.854980 
3625.000000	63.879203 
3624.000000	63.896918 
3623.000000	63.906621 
3622.000000	63.907313 
3621.000000	63.899254 
3620.000000	63.883948 
3619.000000	63.863945 
3618.000000	63.842678 
3617.000000	63.823795 
3616.000000	63.810896 
3615.000000	63.806176 
3614.000000	63.810420 
3613.000000	63.822507 
3612.000000	63.839793 
3611.000000	63.859009 
3610.000000	63.876986 
3609.000000	63.891363 
3608.000000	63.901042 
3607.000000	63.905858 
3606.000000	63.906216 
3605.000000	63.902688 
3604.000000	63.895249 
3603.000000	63.883256 
3602.000000	63.865685 
3601.000000	63.841748 
3600.000000	63.811421 
3599.000000	63.776397 
3598.000000	63.739705 
3597.000000	63.705635 
3596.000000	63.678717 
3595.000000	63.662672 
3594.000000	63.659548 
3593.000000	63.668823 
3592.000000	63.687801 
3591.000000	63.712477 
3590.000000	63.738298 
3589.000000	63.761329 
3588.000000	63.778829 
3587.000000	63.789558 
3586.000000	63.793969 
3585.000000	63.793182 
3584.000000	63.789033 
3583.000000	63.783216 
3582.000000	63.776922 
3581.000000	63.770937 
3580.000000	63.765335 
3579.000000	63.759756 
3578.000000	63.753628 
3577.000000	63.746190 
3576.000000	63.736796 
3575.000000	63.725185 
3574.000000	63.711500 
3573.000000	63.696599 
3572.000000	63.681888 
3571.000000	63.668942 
3570.000000	63.659811 
3569.000000	63.655853 
3568.000000	63.657593 
3567.000000	63.664388 
3566.000000	63.674330 
3565.000000	63.684892 
3564.000000	63.693571 
3563.000000	63.698506 
3562.000000	63.699102 
3561.000000	63.696050 
3560.000000	63.691139 
3559.000000	63.686513 
3558.000000	63.683891 
3557.000000	63.684058 
3556.000000	63.686895 
3555.000000	63.691139 
3554.000000	63.694906 
3553.000000	63.696479 
3552.000000	63.694906 
3551.000000	63.690543 
3550.000000	63.684868 
3549.000000	63.680124 
3548.000000	63.678598 
3547.000000	63.682031 
3546.000000	63.690996 
3545.000000	63.704586 
3544.000000	63.720607 
3543.000000	63.736200 
3542.000000	63.748049 
3541.000000	63.753008 
3540.000000	63.748741 
3539.000000	63.734316 
3538.000000	63.710284 
3537.000000	63.678479 
3536.000000	63.642001 
3535.000000	63.604784 
3534.000000	63.570618 
3533.000000	63.542461 
3532.000000	63.521766 
3531.000000	63.508462 
3530.000000	63.501214 
3529.000000	63.497853 
3528.000000	63.496232 
3527.000000	63.494706 
3526.000000	63.492774 
3525.000000	63.490915 
3524.000000	63.490462 
3523.000000	63.493037 
3522.000000	63.499975 
3521.000000	63.512039 
3520.000000	63.529014 
3519.000000	63.549685 
3518.000000	63.572168 
3517.000000	63.594579 
3516.000000	63.615298 
3515.000000	63.633799 
3514.000000	63.650536 
3513.000000	63.667321 
3512.000000	63.686299 
3511.000000	63.709759 
3510.000000	63.739609 
3509.000000	63.776350 
3508.000000	63.819193 
3507.000000	63.865494 
3506.000000	63.911581 
3505.000000	63.952922 
3504.000000	63.985443 
3503.000000	64.005804 
3502.000000	64.012432 
3501.000000	64.005470 
3500.000000	63.986873 
3499.000000	63.959741 
3498.000000	63.927817 
3497.000000	63.894557 
3496.000000	63.862824 
3495.000000	63.834786 
3494.000000	63.811635 
3493.000000	63.794088 
3492.000000	63.782262 
3491.000000	63.775968 
3490.000000	63.774633 
3489.000000	63.777232 
3488.000000	63.782262 
3487.000000	63.787817 
3486.000000	63.791966 
3485.000000	63.792610 
3484.000000	63.788366 
3483.000000	63.778829 
3482.000000	63.764643 
3481.000000	63.747477 
3480.000000	63.729500 
3479.000000	63.713097 
3478.000000	63.700103 
3477.000000	63.691306 
3476.000000	63.686203 
3475.000000	63.683390 
3474.000000	63.680648 
3473.000000	63.675689 
3472.000000	63.666677 
3471.000000	63.652634 
3470.000000	63.633871 
3469.000000	63.611769 
3468.000000	63.588714 
3467.000000	63.567733 
3466.000000	63.551902 
3465.000000	63.543796 
3464.000000	63.544988 
3463.000000	63.555598 
3462.000000	63.574624 
3461.000000	63.599872 
3460.000000	63.628315 
3459.000000	63.656735 
3458.000000	63.682126 
3457.000000	63.702249 
3456.000000	63.715577 
3455.000000	63.721752 
3454.000000	63.721251 
3453.000000	63.715553 
3452.000000	63.706445 
3451.000000	63.695979 
3450.000000	63.686347 
3449.000000	63.679385 
3448.000000	63.676524 
3447.000000	63.678526 
3446.000000	63.685703 
3445.000000	63.697338 
3444.000000	63.711786 
3443.000000	63.726878 
3442.000000	63.740253 
3441.000000	63.749909 
3440.000000	63.754487 
3439.000000	63.753890 
3438.000000	63.749098 
3437.000000	63.742160 
3436.000000	63.735556 
3435.000000	63.731741 
3434.000000	63.732624 
3433.000000	63.739085 
3432.000000	63.750886 
3431.000000	63.766932 
3430.000000	63.785266 
3429.000000	63.803887 
3428.000000	63.820767 
3427.000000	63.834190 
3426.000000	63.842749 
3425.000000	63.845467 
3424.000000	63.841962 
3423.000000	63.832211 
3422.000000	63.817048 
3421.000000	63.798260 
3420.000000	63.778424 
3419.000000	63.760828 
3418.000000	63.748669 
3417.000000	63.744354 
3416.000000	63.748884 
3415.000000	63.761425 
3414.000000	63.779401 
3413.000000	63.798856 
3412.000000	63.815522 
3411.000000	63.825631 
3410.000000	63.827037 
3409.000000	63.819479 
3408.000000	63.804674 
3407.000000	63.785648 
3406.000000	63.765883 
3405.000000	63.748383 
3404.000000	63.734865 
3403.000000	63.725495 
3402.000000	63.719153 
3401.000000	63.713836 
3400.000000	63.707661 
3399.000000	63.699269 
3398.000000	63.688373 
3397.000000	63.675642 
3396.000000	63.662338 
3395.000000	63.649964 
3394.000000	63.639760 
3393.000000	63.632512 
3392.000000	63.628268 
3391.000000	63.627004 
3390.000000	63.628768 
3389.000000	63.633918 
3388.000000	63.643193 
3387.000000	63.657474 
3386.000000	63.677310 
3385.000000	63.702511 
3384.000000	63.731622 
3383.000000	63.761878 
3382.000000	63.789677 
3381.000000	63.811206 
3380.000000	63.823246 
3379.000000	63.824081 
3378.000000	63.813996 
3377.000000	63.795399 
3376.000000	63.772177 
3375.000000	63.748908 
3374.000000	63.729882 
3373.000000	63.718533 
3372.000000	63.716673 
3371.000000	63.724374 
3370.000000	63.740110 
3369.000000	63.761615 
3368.000000	63.785791 
3367.000000	63.809204 
3366.000000	63.828539 
3365.000000	63.840913 
3364.000000	63.843989 
3363.000000	63.836336 
3362.000000	63.817763 
3361.000000	63.789248 
3360.000000	63.753342 
3359.000000	63.713598 
3358.000000	63.674211 
3357.000000	63.639116 
3356.000000	63.611459 
3355.000000	63.592982 
3354.000000	63.583636 
3353.000000	63.581871 
3352.000000	63.585448 
3351.000000	63.592219 
3350.000000	63.600397 
3349.000000	63.609528 
3348.000000	63.620018 
3347.000000	63.633418 
3346.000000	63.650941 
3345.000000	63.673758 
3344.000000	63.702034 
3343.000000	63.735008 
3342.000000	63.771080 
3341.000000	63.807916 
3340.000000	63.842940 
3339.000000	63.873577 
3338.000000	63.897895 
3337.000000	63.914489 
3336.000000	63.922786 
3335.000000	63.922691 
3334.000000	63.914704 
3333.000000	63.899731 
3332.000000	63.878774 
3331.000000	63.853120 
3330.000000	63.824367 
3329.000000	63.794255 
3328.000000	63.764524 
3327.000000	63.737106 
3326.000000	63.713741 
3325.000000	63.695693 
3324.000000	63.683772 
3323.000000	63.678097 
3322.000000	63.678288 
3321.000000	63.683176 
3320.000000	63.691425 
3319.000000	63.701367 
3318.000000	63.711690 
3317.000000	63.721585 
3316.000000	63.730883 
3315.000000	63.739609 
3314.000000	63.748240 
3313.000000	63.757252 
3312.000000	63.766813 
3311.000000	63.776612 
3310.000000	63.785982 
3309.000000	63.793945 
3308.000000	63.799524 
3307.000000	63.801956 
3306.000000	63.800954 
3305.000000	63.796901 
3304.000000	63.790750 
3303.000000	63.783645 
3302.000000	63.776826 
3301.000000	63.771271 
3300.000000	63.767576 
3299.000000	63.765954 
3298.000000	63.766217 
3297.000000	63.767957 
3296.000000	63.770818 
3295.000000	63.774561 
3294.000000	63.778781 
3293.000000	63.783168 
3292.000000	63.787198 
3291.000000	63.790559 
3290.000000	63.792896 
3289.000000	63.794088 
3288.000000	63.794183 
3287.000000	63.793563 
3286.000000	63.792800 
3285.000000	63.792490 
3284.000000	63.793039 
3283.000000	63.794469 
3282.000000	63.796544 
3281.000000	63.798642 
3280.000000	63.800001 
3279.000000	63.800215 
3278.000000	63.799214 
3277.000000	63.797426 
3276.000000	63.795661 
3275.000000	63.794946 
3274.000000	63.796067 
3273.000000	63.799405 
3272.000000	63.804864 
3271.000000	63.812017 
3270.000000	63.820219 
3269.000000	63.829040 
3268.000000	63.838052 
3267.000000	63.846826 
3266.000000	63.855028 
3265.000000	63.862133 
3264.000000	63.867521 
3263.000000	63.870716 
3262.000000	63.871121 
3261.000000	63.868546 
3260.000000	63.862919 
3259.000000	63.854527 
3258.000000	63.843774 
3257.000000	63.831162 
3256.000000	63.817191 
3255.000000	63.802194 
3254.000000	63.786435 
3253.000000	63.770246 
3252.000000	63.754153 
3251.000000	63.738775 
3250.000000	63.725066 
3249.000000	63.713860 
3248.000000	63.705801 
3247.000000	63.701081 
3246.000000	63.699388 
3245.000000	63.700294 
3244.000000	63.703179 
3243.000000	63.707709 
3242.000000	63.713908 
3241.000000	63.722014 
3240.000000	63.731956 
3239.000000	63.743281 
3238.000000	63.754773 
3237.000000	63.764786 
3236.000000	63.771224 
3235.000000	63.772344 
3234.000000	63.767266 
3233.000000	63.756370 
3232.000000	63.741421 
3231.000000	63.725161 
3230.000000	63.710951 
3229.000000	63.701629 
3228.000000	63.698816 
3227.000000	63.702797 
3226.000000	63.712286 
3225.000000	63.725090 
3224.000000	63.738846 
3223.000000	63.751721 
3222.000000	63.762998 
3221.000000	63.772892 
3220.000000	63.782763 
3219.000000	63.793945 
3218.000000	63.807845 
3217.000000	63.825225 
3216.000000	63.846158 
3215.000000	63.869929 
3214.000000	63.895320 
3213.000000	63.920879 
3212.000000	63.944840 
3211.000000	63.965654 
3210.000000	63.981890 
3209.000000	63.992428 
3208.000000	63.996529 
3207.000000	63.993930 
3206.000000	63.985228 
3205.000000	63.971734 
3204.000000	63.955569 
3203.000000	63.939571 
3202.000000	63.926315 
3201.000000	63.918018 
3200.000000	63.915729 
3199.000000	63.919258 
3198.000000	63.927102 
3197.000000	63.936781 
3196.000000	63.945412 
3195.000000	63.950300 
3194.000000	63.949275 
3193.000000	63.941216 
3192.000000	63.925909 
3191.000000	63.904237 
3190.000000	63.877892 
3189.000000	63.849186 
3188.000000	63.820433 
3187.000000	63.793706 
3186.000000	63.770627 
3185.000000	63.752150 
3184.000000	63.738322 
3183.000000	63.728809 
3182.000000	63.722658 
3181.000000	63.719153 
3180.000000	63.717603 
3179.000000	63.718080 
3178.000000	63.721299 
3177.000000	63.728380 
3176.000000	63.740563 
3175.000000	63.758444 
3174.000000	63.781714 
3173.000000	63.808774 
3172.000000	63.837099 
3171.000000	63.863825 
3170.000000	63.886284 
3169.000000	63.902854 
3168.000000	63.913249 
3167.000000	63.918685 
3166.000000	63.920950 
3165.000000	63.922095 
3164.000000	63.923382 
3163.000000	63.925170 
3162.000000	63.926362 
3161.000000	63.925004 
3160.000000	63.918995 
3159.000000	63.907027 
3158.000000	63.888931 
3157.000000	63.866376 
3156.000000	63.842368 
3155.000000	63.820576 
3154.000000	63.804340 
3153.000000	63.795828 
3152.000000	63.795518 
3151.000000	63.802003 
3150.000000	63.812637 
3149.000000	63.824081 
3148.000000	63.833498 
3147.000000	63.839054 
3146.000000	63.840317 
3145.000000	63.838148 
3144.000000	63.834142 
3143.000000	63.829946 
3142.000000	63.826656 
3141.000000	63.824343 
3140.000000	63.822221 
3139.000000	63.818669 
3138.000000	63.812279 
3137.000000	63.801956 
3136.000000	63.787674 
3135.000000	63.770318 
3134.000000	63.751792 
3133.000000	63.734364 
3132.000000	63.720250 
3131.000000	63.711285 
3130.000000	63.708400 
3129.000000	63.711714 
3128.000000	63.720393 
3127.000000	63.733100 
3126.000000	63.748192 
3125.000000	63.763618 
3124.000000	63.777375 
3123.000000	63.787508 
3122.000000	63.792443 
3121.000000	63.791131 
3120.000000	63.783144 
3119.000000	63.768911 
3118.000000	63.749790 
3117.000000	63.728094 
3116.000000	63.706898 
3115.000000	63.689303 
3114.000000	63.678073 
3113.000000	63.675355 
3112.000000	63.682055 
3111.000000	63.697791 
3110.000000	63.720965 
3109.000000	63.749027 
3108.000000	63.778805 
3107.000000	63.807153 
3106.000000	63.831448 
3105.000000	63.849854 
3104.000000	63.861656 
3103.000000	63.867330 
3102.000000	63.868403 
3101.000000	63.867115 
3100.000000	63.866043 
3099.000000	63.867712 
3098.000000	63.873839 
3097.000000	63.885378 
3096.000000	63.901758 
3095.000000	63.921260 
3094.000000	63.941001 
3093.000000	63.957715 
3092.000000	63.968133 
3091.000000	63.969707 
3090.000000	63.961338 
3089.000000	63.943624 
3088.000000	63.918876 
3087.000000	63.890647 
3086.000000	63.863134 
3085.000000	63.840484 
3084.000000	63.826036 
3083.000000	63.821649 
3082.000000	63.827681 
3081.000000	63.842964 
3080.000000	63.865184 
3079.000000	63.891696 
3078.000000	63.919782 
3077.000000	63.947248 
3076.000000	63.972330 
3075.000000	63.993716 
3074.000000	64.010477 
3073.000000	64.021706 
3072.000000	64.026641 
3071.000000	64.024734 
3070.000000	64.015889 
3069.000000	64.000606 
3068.000000	63.980269 
3067.000000	63.956522 
3066.000000	63.931345 
3065.000000	63.906359 
3064.000000	63.882827 
3063.000000	63.861298 
3062.000000	63.842010 
3061.000000	63.824844 
3060.000000	63.809752 
3059.000000	63.797187 
3058.000000	63.787984 
3057.000000	63.783240 
3056.000000	63.783693 
3055.000000	63.789463 
3054.000000	63.799738 
3053.000000	63.812732 
3052.000000	63.826131 
3051.000000	63.837456 
3050.000000	63.844847 
3049.000000	63.847661 
3048.000000	63.846516 
3047.000000	63.843131 
3046.000000	63.840007 
3045.000000	63.839411 
3044.000000	63.843274 
3043.000000	63.852429 
3042.000000	63.866591 
3041.000000	63.884544 
3040.000000	63.904356 
3039.000000	63.923859 
3038.000000	63.941001 
3037.000000	63.954186 
3036.000000	63.962292 
3035.000000	63.964962 
3034.000000	63.962221 
3033.000000	63.954615 
3032.000000	63.942956 
3031.000000	63.928508 
3030.000000	63.912677 
3029.000000	63.897180 
3028.000000	63.884091 
3027.000000	63.875412 
3026.000000	63.873052 
3025.000000	63.878440 
3024.000000	63.892555 
3023.000000	63.915538 
3022.000000	63.946390 
3021.000000	63.983106 
3020.000000	64.022850 
3019.000000	64.062047 
3018.000000	64.096832 
3017.000000	64.123725 
3016.000000	64.140129 
3015.000000	64.144802 
3014.000000	64.137911 
3013.000000	64.120674 
3012.000000	64.095211 
3011.000000	64.064121 
3010.000000	64.029884 
3009.000000	63.994789 
3008.000000	63.960599 
3007.000000	63.928580 
3006.000000	63.899612 
3005.000000	63.874268 
3004.000000	63.852930 
3003.000000	63.835716 
3002.000000	63.822722 
3001.000000	63.813543 
3000.000000	63.807725 
2999.000000	63.804364 
2998.000000	63.802647 
2997.000000	63.801765 
2996.000000	63.801169 
2995.000000	63.800239 
2994.000000	63.798666 
2993.000000	63.796281 
2992.000000	63.792991 
2991.000000	63.788580 
2990.000000	63.783144 
2989.000000	63.777160 
2988.000000	63.771414 
2987.000000	63.766980 
2986.000000	63.764858 
2985.000000	63.765931 
2984.000000	63.770318 
2983.000000	63.777565 
2982.000000	63.786339 
2981.000000	63.794970 
2980.000000	63.801789 
2979.000000	63.805770 
2978.000000	63.806653 
2977.000000	63.804888 
2976.000000	63.802051 
2975.000000	63.799619 
2974.000000	63.798642 
2973.000000	63.798928 
2972.000000	63.799428 
2971.000000	63.797879 
2970.000000	63.791632 
2969.000000	63.778185 
2968.000000	63.756275 
2967.000000	63.725972 
2966.000000	63.688898 
2965.000000	63.647890 
2964.000000	63.606452 
2963.000000	63.568162 
2962.000000	63.535952 
2961.000000	63.511943 
2960.000000	63.497138 
2959.000000	63.491535 
2958.000000	63.494420 
2957.000000	63.504672 
2956.000000	63.520789 
2955.000000	63.541150 
2954.000000	63.564252 
2953.000000	63.588452 
2952.000000	63.612246 
2951.000000	63.634371 
2950.000000	63.654088 
2949.000000	63.671088 
2948.000000	63.685655 
2947.000000	63.698482 
2946.000000	63.710427 
2945.000000	63.722372 
2944.000000	63.734841 
2943.000000	63.748049 
2942.000000	63.761687 
2941.000000	63.775277 
2940.000000	63.787889 
2939.000000	63.798451 
2938.000000	63.805747 
2937.000000	63.808965 
2936.000000	63.807511 
2935.000000	63.801240 
2934.000000	63.790464 
2933.000000	63.776183 
2932.000000	63.759756 
2931.000000	63.742542 
2930.000000	63.726115 
2929.000000	63.711857 
2928.000000	63.700652 
2927.000000	63.692641 
2926.000000	63.687419 
2925.000000	63.683938 
2924.000000	63.680887 
2923.000000	63.676810 
2922.000000	63.670396 
2921.000000	63.660693 
2920.000000	63.647294 
2919.000000	63.630557 
2918.000000	63.611125 
2917.000000	63.590359 
2916.000000	63.569974 
2915.000000	63.552069 
2914.000000	63.538312 
2913.000000	63.530206 
2912.000000	63.528585 
2911.000000	63.533663 
2910.000000	63.544559 
2909.000000	63.560009 
2908.000000	63.578510 
2907.000000	63.598608 
2906.000000	63.619089 
2905.000000	63.639163 
2904.000000	63.658356 
2903.000000	63.676595 
2902.000000	63.693952 
2901.000000	63.710784 
2900.000000	63.727378 
2899.000000	63.744211 
2898.000000	63.761663 
2897.000000	63.780069 
2896.000000	63.799428 
2895.000000	63.819575 
2894.000000	63.839936 
2893.000000	63.859581 
2892.000000	63.877296 
2891.000000	63.891792 
2890.000000	63.901853 
2889.000000	63.906431 
2888.000000	63.904976 
2887.000000	63.897585 
2886.000000	63.884806 
2885.000000	63.867926 
2884.000000	63.848423 
2883.000000	63.828253 
2882.000000	63.809299 
2881.000000	63.793349 
2880.000000	63.781881 
2879.000000	63.775992 
2878.000000	63.776326 
2877.000000	63.783144 
2876.000000	63.796138 
2875.000000	63.814544 
2874.000000	63.837361 
2873.000000	63.863134 
2872.000000	63.890051 
2871.000000	63.915920 
2870.000000	63.938379 
2869.000000	63.954830 
2868.000000	63.963150 
2867.000000	63.961720 
2866.000000	63.950085 
2865.000000	63.928961 
2864.000000	63.900566 
2863.000000	63.867950 
2862.000000	63.834714 
2861.000000	63.804268 
2860.000000	63.779354 
2859.000000	63.761425 
2858.000000	63.750696 
2857.000000	63.746118 
2856.000000	63.746047 
2855.000000	63.748764 
2854.000000	63.753080 
2853.000000	63.758707 
2852.000000	63.766050 
2851.000000	63.776016 
2850.000000	63.789534 
2849.000000	63.807034 
2848.000000	63.827943 
2847.000000	63.850855 
2846.000000	63.873696 
2845.000000	63.894295 
2844.000000	63.910865 
2843.000000	63.922500 
2842.000000	63.929390 
2841.000000	63.932585 
2840.000000	63.933682 
2839.000000	63.934421 
2838.000000	63.936257 
2837.000000	63.939857 
2836.000000	63.945198 
2835.000000	63.951683 
2834.000000	63.958454 
2833.000000	63.964796 
2832.000000	63.970065 
2831.000000	63.973808 
2830.000000	63.975644 
2829.000000	63.975429 
2828.000000	63.972830 
2827.000000	63.967418 
2826.000000	63.958764 
2825.000000	63.946747 
2824.000000	63.931918 
2823.000000	63.915371 
2822.000000	63.898777 
2821.000000	63.884115 
2820.000000	63.873291 
2819.000000	63.867712 
2818.000000	63.867688 
2817.000000	63.872599 
2816.000000	63.880872 
2815.000000	63.890385 
2814.000000	63.898849 
2813.000000	63.904356 
2812.000000	63.905763 
2811.000000	63.902902 
2810.000000	63.896131 
2809.000000	63.886809 
2808.000000	63.876056 
2807.000000	63.865351 
2806.000000	63.855600 
2805.000000	63.847684 
2804.000000	63.842272 
2803.000000	63.839817 
2802.000000	63.840651 
2801.000000	63.844871 
2800.000000	63.852071 
2799.000000	63.861393 
2798.000000	63.871407 
2797.000000	63.880395 
2796.000000	63.886642 
2795.000000	63.888883 
2794.000000	63.886761 
2793.000000	63.880872 
2792.000000	63.872647 
2791.000000	63.864159 
2790.000000	63.857698 
2789.000000	63.855314 
2788.000000	63.858270 
2787.000000	63.866925 
2786.000000	63.880634 
2785.000000	63.898086 
2784.000000	63.917183 
2783.000000	63.935923 
2782.000000	63.952302 
2781.000000	63.964629 
2780.000000	63.971614 
2779.000000	63.972592 
2778.000000	63.967490 
2777.000000	63.956785 
2776.000000	63.941526 
2775.000000	63.923406 
2774.000000	63.904523 
2773.000000	63.887310 
2772.000000	63.874149 
2771.000000	63.867068 
2770.000000	63.867306 
2769.000000	63.875150 
2768.000000	63.889694 
2767.000000	63.909173 
2766.000000	63.931012 
2765.000000	63.952183 
2764.000000	63.969731 
2763.000000	63.981318 
2762.000000	63.985443 
2761.000000	63.981795 
2760.000000	63.971138 
2759.000000	63.955473 
2758.000000	63.937544 
2757.000000	63.920617 
2756.000000	63.908028 
2755.000000	63.902330 
2754.000000	63.905167 
2753.000000	63.916230 
2752.000000	63.933825 
2751.000000	63.954734 
2750.000000	63.974857 
2749.000000	63.990020 
2748.000000	63.996839 
2747.000000	63.993620 
2746.000000	63.980674 
2745.000000	63.960671 
2744.000000	63.937950 
2743.000000	63.917732 
2742.000000	63.904953 
2741.000000	63.903212 
2740.000000	63.914012 
2739.000000	63.936305 
2738.000000	63.966703 
2737.000000	64.000368 
2736.000000	64.032006 
2735.000000	64.057016 
2734.000000	64.072442 
2733.000000	64.077520 
2732.000000	64.073538 
2731.000000	64.063358 
2730.000000	64.050292 
2729.000000	64.037775 
2728.000000	64.027810 
2727.000000	64.021253 
2726.000000	64.017391 
2725.000000	64.014744 
2724.000000	64.011526 
2723.000000	64.006280 
2722.000000	63.998365 
2721.000000	63.988161 
2720.000000	63.976979 
2719.000000	63.966584 
2718.000000	63.958787 
2717.000000	63.954615 
2716.000000	63.954186 
2715.000000	63.956809 
2714.000000	63.960933 
2713.000000	63.964819 
2712.000000	63.967037 
2711.000000	63.967013 
2710.000000	63.965153 
2709.000000	63.962841 
2708.000000	63.961887 
2707.000000	63.964104 
2706.000000	63.970518 
2705.000000	63.981175 
2704.000000	63.995218 
2703.000000	64.011001 
2702.000000	64.026260 
2701.000000	64.038944 
2700.000000	64.047646 
2699.000000	64.051938 
2698.000000	64.052295 
2697.000000	64.049863 
2696.000000	64.046096 
2695.000000	64.042234 
2694.000000	64.039182 
2693.000000	64.037084 
2692.000000	64.035511 
2691.000000	64.033651 
2690.000000	64.030671 
2689.000000	64.025855 
2688.000000	64.018869 
2687.000000	64.009904 
2686.000000	63.999605 
2685.000000	63.989067 
2684.000000	63.979411 
2683.000000	63.971638 
2682.000000	63.966298 
2681.000000	63.963341 
2680.000000	63.962078 
2679.000000	63.961172 
2678.000000	63.959074 
2677.000000	63.954281 
2676.000000	63.945627 
2675.000000	63.932919 
2674.000000	63.916826 
2673.000000	63.898873 
2672.000000	63.881301 
2671.000000	63.866329 
2670.000000	63.855862 
2669.000000	63.850927 
2668.000000	63.851618 
2667.000000	63.857030 
2666.000000	63.865923 
2665.000000	63.876938 
2664.000000	63.889241 
2663.000000	63.902497 
2662.000000	63.916921 
2661.000000	63.932752 
2660.000000	63.949918 
2659.000000	63.967609 
2658.000000	63.984227 
2657.000000	63.997626 
2656.000000	64.005684 
2655.000000	64.006876 
2654.000000	64.000916 
2653.000000	63.988757 
2652.000000	63.972830 
2651.000000	63.956308 
2650.000000	63.942337 
2649.000000	63.933348 
2648.000000	63.930606 
2647.000000	63.933825 
2646.000000	63.941645 
2645.000000	63.951992 
2644.000000	63.962960 
2643.000000	63.972997 
2642.000000	63.981294 
2641.000000	63.987755 
2640.000000	63.992738 
2639.000000	63.996529 
2638.000000	63.999080 
2637.000000	64.000058 
2636.000000	63.998723 
2635.000000	63.994383 
2634.000000	63.986825 
2633.000000	63.976597 
2632.000000	63.965058 
2631.000000	63.954162 
2630.000000	63.946270 
2629.000000	63.943147 
2628.000000	63.945746 
2627.000000	63.953900 
2626.000000	63.966155 
2625.000000	63.980436 
2624.000000	63.994407 
2623.000000	64.006114 
2622.000000	64.014506 
2621.000000	64.019751 
2620.000000	64.022970 
2619.000000	64.025783 
2618.000000	64.029788 
2617.000000	64.036130 
2616.000000	64.044761 
2615.000000	64.054632 
2614.000000	64.063644 
2613.000000	64.069485 
2612.000000	64.070129 
2611.000000	64.064526 
2610.000000	64.052867 
2609.000000	64.036583 
2608.000000	64.018201 
2607.000000	64.000558 
2606.000000	63.986229 
2605.000000	63.976955 
2604.000000	63.973307 
2603.000000	63.974857 
2602.000000	63.980221 
2601.000000	63.987946 
2600.000000	63.996601 
2599.000000	64.005589 
2598.000000	64.014959 
2597.000000	64.025282 
2596.000000	64.037156 
2595.000000	64.050960 
2594.000000	64.066314 
2593.000000	64.082145 
2592.000000	64.097046 
2591.000000	64.109373 
2590.000000	64.117789 
2589.000000	64.121341 
2588.000000	64.120030 
2587.000000	64.114379 
2586.000000	64.105439 
2585.000000	64.094400 
2584.000000	64.082431 
2583.000000	64.070487 
2582.000000	64.059138 
2581.000000	64.048838 
2580.000000	64.039826 
2579.000000	64.032220 
2578.000000	64.026212 
2577.000000	64.021849 
2576.000000	64.019083 
2575.000000	64.017820 
2574.000000	64.017987 
2573.000000	64.019417 
2572.000000	64.022111 
2571.000000	64.026069 
2570.000000	64.031243 
2569.000000	64.037394 
2568.000000	64.043927 
2567.000000	64.049816 
2566.000000	64.053940 
2565.000000	64.054989 
2564.000000	64.052176 
2563.000000	64.045238 
2562.000000	64.034962 
2561.000000	64.022898 
2560.000000	64.011240 
2559.000000	64.002323 
2558.000000	63.997888 
2557.000000	63.998675 
2556.000000	64.004158 
2555.000000	64.012551 
2554.000000	64.021539 
2553.000000	64.028668 
2552.000000	64.032244 
2551.000000	64.031577 
2550.000000	64.027118 
2549.000000	64.020180 
2548.000000	64.012312 
2547.000000	64.005064 
2546.000000	63.999557 
2545.000000	63.996148 
2544.000000	63.994860 
2543.000000	63.995242 
2542.000000	63.997006 
2541.000000	64.000058 
2540.000000	64.004421 
2539.000000	64.010381 
2538.000000	64.018058 
2537.000000	64.027571 
2536.000000	64.038372 
2535.000000	64.049625 
2534.000000	64.060044 
2533.000000	64.068365 
2532.000000	64.073586 
2531.000000	64.075112 
2530.000000	64.073085 
2529.000000	64.068222 
2528.000000	64.061760 
2527.000000	64.055132 
2526.000000	64.049386 
2525.000000	64.045381 
2524.000000	64.043545 
2523.000000	64.043951 
2522.000000	64.046263 
2521.000000	64.050221 
2520.000000	64.055514 
2519.000000	64.061737 
2518.000000	64.068293 
2517.000000	64.074611 
2516.000000	64.079785 
2515.000000	64.082860 
2514.000000	64.082694 
2513.000000	64.078569 
2512.000000	64.069914 
2511.000000	64.056706 
2510.000000	64.039349 
2509.000000	64.018750 
2508.000000	63.996005 
2507.000000	63.972520 
2506.000000	63.949704 
2505.000000	63.928866 
2504.000000	63.911199 
2503.000000	63.897585 
2502.000000	63.888716 
2501.000000	63.884711 
2500.000000	63.885426 
2499.000000	63.890457 
2498.000000	63.898968 
2497.000000	63.910079 
2496.000000	63.922977 
2495.000000	63.937163 
2494.000000	63.952398 
2493.000000	63.968849 
2492.000000	63.986706 
2491.000000	64.006042 
2490.000000	64.026618 
2489.000000	64.047574 
2488.000000	64.067435 
2487.000000	64.084362 
2486.000000	64.096355 
2485.000000	64.101815 
2484.000000	64.099931 
2483.000000	64.090800 
2482.000000	64.075756 
2481.000000	64.056968 
2480.000000	64.037275 
2479.000000	64.019417 
2478.000000	64.005780 
2477.000000	63.997769 
2476.000000	63.995695 
2475.000000	63.998723 
2474.000000	64.005374 
2473.000000	64.013814 
2472.000000	64.022397 
2471.000000	64.030075 
2470.000000	64.036512 
2469.000000	64.042043 
2468.000000	64.047551 
2467.000000	64.053964 
2466.000000	64.061903 
2465.000000	64.071464 
2464.000000	64.082121 
2463.000000	64.092779 
2462.000000	64.101767 
2461.000000	64.107656 
2460.000000	64.109277 
2459.000000	64.105987 
2458.000000	64.097929 
2457.000000	64.086031 
2456.000000	64.071774 
2455.000000	64.056730 
2454.000000	64.042496 
2453.000000	64.030337 
2452.000000	64.020967 
2451.000000	64.014601 
2450.000000	64.010906 
2449.000000	64.009237 
2448.000000	64.008951 
2447.000000	64.009380 
2446.000000	64.010095 
2445.000000	64.010834 
2444.000000	64.011502 
2443.000000	64.012145 
2442.000000	64.012813 
2441.000000	64.013504 
2440.000000	64.014101 
2439.000000	64.014363 
2438.000000	64.014029 
2437.000000	64.012861 
2436.000000	64.010643 
2435.000000	64.007067 
2434.000000	64.001917 
2433.000000	63.994932 
2432.000000	63.985967 
2431.000000	63.975191 
2430.000000	63.962888 
2429.000000	63.949942 
2428.000000	63.937425 
2427.000000	63.926839 
2426.000000	63.919448 
2425.000000	63.916468 
2424.000000	63.918590 
2423.000000	63.925886 
2422.000000	63.937783 
2421.000000	63.953208 
2420.000000	63.970756 
2419.000000	63.988900 
2418.000000	64.006161 
2417.000000	64.021277 
2416.000000	64.033198 
2415.000000	64.041113 
2414.000000	64.044332 
2413.000000	64.042496 
2412.000000	64.035487 
2411.000000	64.023780 
2410.000000	64.008402 
2409.000000	63.991093 
2408.000000	63.974237 
2407.000000	63.960194 
2406.000000	63.951134 
2405.000000	63.948535 
2404.000000	63.952946 
2403.000000	63.963627 
2402.000000	63.978910 
2401.000000	63.996267 
2400.000000	64.013123 
2399.000000	64.027070 
2398.000000	64.036464 
2397.000000	64.040541 
2396.000000	64.039611 
2395.000000	64.034628 
2394.000000	64.027190 
2393.000000	64.019012 
2392.000000	64.011645 
2391.000000	64.006257 
2390.000000	64.003610 
2389.000000	64.003872 
2388.000000	64.006948 
2387.000000	64.012312 
2386.000000	64.019298 
2385.000000	64.027214 
2384.000000	64.035511 
2383.000000	64.043998 
2382.000000	64.052677 
2381.000000	64.061856 
2380.000000	64.071774 
2379.000000	64.082479 
2378.000000	64.093923 
2377.000000	64.105463 
2376.000000	64.116072 
2375.000000	64.124369 
2374.000000	64.129137 
2373.000000	64.129328 
2372.000000	64.124584 
2371.000000	64.115190 
2370.000000	64.102149 
2369.000000	64.087009 
2368.000000	64.071512 
2367.000000	64.057397 
2366.000000	64.045882 
2365.000000	64.037632 
2364.000000	64.032697 
2363.000000	64.030551 
2362.000000	64.030456 
2361.000000	64.031410 
2360.000000	64.032721 
2359.000000	64.033699 
2358.000000	64.034056 
2357.000000	64.033722 
2356.000000	64.032840 
2355.000000	64.031720 
2354.000000	64.030694 
2353.000000	64.030241 
2352.000000	64.030718 
2351.000000	64.032483 
2350.000000	64.035654 
2349.000000	64.040184 
2348.000000	64.045596 
2347.000000	64.051270 
2346.000000	64.056372 
2345.000000	64.060378 
2344.000000	64.063024 
2343.000000	64.064455 
2342.000000	64.065456 
2341.000000	64.067029 
2340.000000	64.070439 
2339.000000	64.076638 
2338.000000	64.086055 
2337.000000	64.098501 
2336.000000	64.112973 
2335.000000	64.127945 
2334.000000	64.141583 
2333.000000	64.152169 
2332.000000	64.158344 
2331.000000	64.159464 
2330.000000	64.155626 
2329.000000	64.147710 
2328.000000	64.136910 
2327.000000	64.124870 
2326.000000	64.113235 
2325.000000	64.103293 
2324.000000	64.096093 
2323.000000	64.092040 
2322.000000	64.091110 
2321.000000	64.092683 
2320.000000	64.095878 
2319.000000	64.099431 
2318.000000	64.102196 
2317.000000	64.103198 
2316.000000	64.101767 
2315.000000	64.097642 
2314.000000	64.091110 
2313.000000	64.082932 
2312.000000	64.073824 
2311.000000	64.064621 
2310.000000	64.055895 
2309.000000	64.047884 
2308.000000	64.040565 
2307.000000	64.033699 
2306.000000	64.027118 
2305.000000	64.020824 
2304.000000	64.015126 
2303.000000	64.010477 
2302.000000	64.007496 
2301.000000	64.006733 
2300.000000	64.008498 
2299.000000	64.012718 
2298.000000	64.018964 
2297.000000	64.026737 
2296.000000	64.035201 
2295.000000	64.043521 
2294.000000	64.050745 
2293.000000	64.056134 
2292.000000	64.058852 
2291.000000	64.057898 
2290.000000	64.052391 
2289.000000	64.041686 
2288.000000	64.025688 
2287.000000	64.005041 
2286.000000	63.981270 
2285.000000	63.956713 
2284.000000	63.934159 
2283.000000	63.916206 
2282.000000	63.904833 
2281.000000	63.900899 
2280.000000	63.903760 
2279.000000	63.911581 
2278.000000	63.921737 
2277.000000	63.931417 
2276.000000	63.938236 
2275.000000	63.941025 
2274.000000	63.939762 
2273.000000	63.935947 
2272.000000	63.931727 
2271.000000	63.929677 
2270.000000	63.931822 
2269.000000	63.939595 
2268.000000	63.953280 
2267.000000	63.972258 
2266.000000	63.994979 
2265.000000	64.019489 
2264.000000	64.043951 
2263.000000	64.066624 
2262.000000	64.086294 
2261.000000	64.102220 
2260.000000	64.114069 
2259.000000	64.121961 
2258.000000	64.126372 
2257.000000	64.128041 
2256.000000	64.127922 
2255.000000	64.127111 
2254.000000	64.126729 
2253.000000	64.127612 
2252.000000	64.130210 
2251.000000	64.134359 
2250.000000	64.139437 
2249.000000	64.144372 
2248.000000	64.148092 
2247.000000	64.149475 
2246.000000	64.147996 
2245.000000	64.143824 
2244.000000	64.137816 
2243.000000	64.131164 
2242.000000	64.125037 
2241.000000	64.120364 
2240.000000	64.117479 
2239.000000	64.116072 
2238.000000	64.115357 
2237.000000	64.114308 
2236.000000	64.111995 
2235.000000	64.107799 
2234.000000	64.101576 
2233.000000	64.093518 
2232.000000	64.084029 
2231.000000	64.073491 
2230.000000	64.062142 
2229.000000	64.050149 
2228.000000	64.037752 
2227.000000	64.025282 
2226.000000	64.013361 
2225.000000	64.002847 
2224.000000	63.994717 
2223.000000	63.989710 
2222.000000	63.988161 
2221.000000	63.989782 
2220.000000	63.993358 
2219.000000	63.997244 
2218.000000	63.999724 
2217.000000	63.999533 
2216.000000	63.996148 
2215.000000	63.990116 
2214.000000	63.982677 
2213.000000	63.975667 
2212.000000	63.970780 
2211.000000	63.969492 
2210.000000	63.972473 
2209.000000	63.979601 
2208.000000	63.990092 
2207.000000	64.002776 
2206.000000	64.016366 
2205.000000	64.029836 
2204.000000	64.042592 
2203.000000	64.054560 
2202.000000	64.065837 
2201.000000	64.076709 
2200.000000	64.087176 
2199.000000	64.096999 
2198.000000	64.105439 
2197.000000	64.111495 
2196.000000	64.114165 
2195.000000	64.112663 
2194.000000	64.106750 
2193.000000	64.096808 
2192.000000	64.083933 
2191.000000	64.070034 
2190.000000	64.057350 
2189.000000	64.048004 
2188.000000	64.043283 
2187.000000	64.043688 
2186.000000	64.048480 
2185.000000	64.056015 
2184.000000	64.064192 
2183.000000	64.071059 
2182.000000	64.075565 
2181.000000	64.077663 
2180.000000	64.078378 
2179.000000	64.079523 
2178.000000	64.082860 
2177.000000	64.089703 
2176.000000	64.100289 
2175.000000	64.113807 
2174.000000	64.128422 
2173.000000	64.141893 
2172.000000	64.152264 
2171.000000	64.158105 
2170.000000	64.158987 
2169.000000	64.155077 
2168.000000	64.146900 
2167.000000	64.134764 
2166.000000	64.118599 
2165.000000	64.097929 
2164.000000	64.072179 
2163.000000	64.041328 
2162.000000	64.006352 
2161.000000	63.969373 
2160.000000	63.933229 
2159.000000	63.901472 
2158.000000	63.877129 
2157.000000	63.862586 
2156.000000	63.858604 
2155.000000	63.864636 
2154.000000	63.878583 
2153.000000	63.897895 
2152.000000	63.919830 
2151.000000	63.942241 
2150.000000	63.963651 
2149.000000	63.983321 
2148.000000	64.001178 
2147.000000	64.017200 
2146.000000	64.031243 
2145.000000	64.042997 
2144.000000	64.052009 
2143.000000	64.058089 
2142.000000	64.061188 
2141.000000	64.061784 
2140.000000	64.060664 
2139.000000	64.058971 
2138.000000	64.057874 
2137.000000	64.058566 
2136.000000	64.061903 
2135.000000	64.068365 
2134.000000	64.077854 
2133.000000	64.089560 
2132.000000	64.102053 
2131.000000	64.113807 
2130.000000	64.123153 
2129.000000	64.128971 
2128.000000	64.130759 
2127.000000	64.128994 
2126.000000	64.124679 
2125.000000	64.118981 
2124.000000	64.112997 
2123.000000	64.107441 
2122.000000	64.102411 
2121.000000	64.097523 
2120.000000	64.092183 
2119.000000	64.085912 
2118.000000	64.078760 
2117.000000	64.071607 
2116.000000	64.065790 
2115.000000	64.062929 
2114.000000	64.064288 
2113.000000	64.070510 
2112.000000	64.081048 
2111.000000	64.094376 
2110.000000	64.108443 
2109.000000	64.121103 
2108.000000	64.130544 
2107.000000	64.135766 
2106.000000	64.136528 
2105.000000	64.133453 
2104.000000	64.127469 
2103.000000	64.119696 
2102.000000	64.111161 
2101.000000	64.102697 
2100.000000	64.094901 
2099.000000	64.088368 
2098.000000	64.083766 
2097.000000	64.081692 
2096.000000	64.082884 
2095.000000	64.087653 
2094.000000	64.095973 
2093.000000	64.107346 
2092.000000	64.120650 
2091.000000	64.134550 
2090.000000	64.147496 
2089.000000	64.158129 
2088.000000	64.165377 
2087.000000	64.168477 
2086.000000	64.166831 
2085.000000	64.160132 
2084.000000	64.148402 
2083.000000	64.131903 
2082.000000	64.111518 
2081.000000	64.088845 
2080.000000	64.066004 
2079.000000	64.045643 
2078.000000	64.030337 
2077.000000	64.022040 
2076.000000	64.021897 
2075.000000	64.029598 
2074.000000	64.043450 
2073.000000	64.060544 
2072.000000	64.077377 
2071.000000	64.090633 
2070.000000	64.097857 
2069.000000	64.097881 
2068.000000	64.091229 
2067.000000	64.079713 
2066.000000	64.066100 
2065.000000	64.053225 
2064.000000	64.043521 
2063.000000	64.038610 
2062.000000	64.038991 
2061.000000	64.044237 
2060.000000	64.053297 
2059.000000	64.065074 
2058.000000	64.078712 
2057.000000	64.093756 
2056.000000	64.110350 
2055.000000	64.128780 
2054.000000	64.149355 
2053.000000	64.171838 
2052.000000	64.195346 
2051.000000	64.218139 
2050.000000	64.238142 
2049.000000	64.252924 
2048.000000	64.260458 
2047.000000	64.259171 
2046.000000	64.248967 
2045.000000	64.230704 
2044.000000	64.206147 
2043.000000	64.177703 
2042.000000	64.148211 
2041.000000	64.120149 
2040.000000	64.095401 
2039.000000	64.074969 
2038.000000	64.059185 
2037.000000	64.047741 
2036.000000	64.039897 
2035.000000	64.034771 
2034.000000	64.031791 
2033.000000	64.030408 
2032.000000	64.030408 
2031.000000	64.031624 
2030.000000	64.033913 
2029.000000	64.037013 
2028.000000	64.040493 
2027.000000	64.043712 
2026.000000	64.045810 
2025.000000	64.046096 
2024.000000	64.044260 
2023.000000	64.040160 
2022.000000	64.034628 
2021.000000	64.029049 
2020.000000	64.025545 
2019.000000	64.026379 
2018.000000	64.033627 
2017.000000	64.048576 
2016.000000	64.071440 
2015.000000	64.101171 
2014.000000	64.135551 
2013.000000	64.171409 
2012.000000	64.205479 
2011.000000	64.235019 
2010.000000	64.258122 
2009.000000	64.273786 
2008.000000	64.282369 
2007.000000	64.284849 
2006.000000	64.282488 
2005.000000	64.276289 
2004.000000	64.266896 
2003.000000	64.254498 
2002.000000	64.239215 
2001.000000	64.221215 
2000.000000	64.201307 
1999.000000	64.180898 
1998.000000	64.161539 
1997.000000	64.145040 
1996.000000	64.132571 
1995.000000	64.124703 
1994.000000	64.121127 
1993.000000	64.120841 
1992.000000	64.122414 
1991.000000	64.124655 
1990.000000	64.126682 
1989.000000	64.128279 
1988.000000	64.129757 
1987.000000	64.132046 
1986.000000	64.136028 
1985.000000	64.142322 
1984.000000	64.150786 
1983.000000	64.160537 
1982.000000	64.170336 
1981.000000	64.178347 
1980.000000	64.182925 
1979.000000	64.182996 
1978.000000	64.178419 
1977.000000	64.169740 
1976.000000	64.158391 
1975.000000	64.146113 
1974.000000	64.134812 
1973.000000	64.126062 
1972.000000	64.120960 
1971.000000	64.119863 
1970.000000	64.122700 
1969.000000	64.128994 
1968.000000	64.138102 
1967.000000	64.149546 
1966.000000	64.162755 
1965.000000	64.177250 
1964.000000	64.192390 
1963.000000	64.207196 
1962.000000	64.220213 
1961.000000	64.229846 
1960.000000	64.234614 
1959.000000	64.233517 
1958.000000	64.226245 
1957.000000	64.213442 
1956.000000	64.196300 
1955.000000	64.176559 
1954.000000	64.155983 
1953.000000	64.136028 
1952.000000	64.117813 
1951.000000	64.101982 
1950.000000	64.088869 
1949.000000	64.078569 
1948.000000	64.071249 
1947.000000	64.066982 
1946.000000	64.065861 
1945.000000	64.067745 
1944.000000	64.072179 
1943.000000	64.078545 
1942.000000	64.085698 
1941.000000	64.092469 
1940.000000	64.097738 
1939.000000	64.100790 
1938.000000	64.101266 
1937.000000	64.099407 
1936.000000	64.095544 
1935.000000	64.090156 
1934.000000	64.083552 
1933.000000	64.075922 
1932.000000	64.067268 
1931.000000	64.057660 
1930.000000	64.047288 
1929.000000	64.036536 
1928.000000	64.026212 
1927.000000	64.017128 
1926.000000	64.010357 
1925.000000	64.006876 
1924.000000	64.007663 
1923.000000	64.013242 
1922.000000	64.023804 
1921.000000	64.039182 
1920.000000	64.058780 
1919.000000	64.081573 
1918.000000	64.106130 
1917.000000	64.130640 
1916.000000	64.153313 
1915.000000	64.172220 
1914.000000	64.185905 
1913.000000	64.193511 
1912.000000	64.195013 
1911.000000	64.191269 
1910.000000	64.183807 
1909.000000	64.174532 
1908.000000	64.165282 
1907.000000	64.157581 
1906.000000	64.152336 
1905.000000	64.149904 
1904.000000	64.150142 
1903.000000	64.152359 
1902.000000	64.155554 
1901.000000	64.158582 
1900.000000	64.160251 
1899.000000	64.159560 
1898.000000	64.155578 
1897.000000	64.147830 
1896.000000	64.136219 
1895.000000	64.121079 
1894.000000	64.103317 
1893.000000	64.084315 
1892.000000	64.065527 
1891.000000	64.048266 
1890.000000	64.033651 
1889.000000	64.022278 
1888.000000	64.014172 
1887.000000	64.009118 
1886.000000	64.006829 
1885.000000	64.007425 
1884.000000	64.011096 
1883.000000	64.018130 
1882.000000	64.028859 
1881.000000	64.043164 
1880.000000	64.060282 
1879.000000	64.078783 
1878.000000	64.096689 
1877.000000	64.111995 
1876.000000	64.123129 
1875.000000	64.129495 
1874.000000	64.131474 
1873.000000	64.130520 
1872.000000	64.128613 
1871.000000	64.127635 
1870.000000	64.128708 
1869.000000	64.131927 
1868.000000	64.136219 
1867.000000	64.139842 
1866.000000	64.140939 
1865.000000	64.138364 
1864.000000	64.131951 
1863.000000	64.122700 
1862.000000	64.112520 
1861.000000	64.103794 
1860.000000	64.098620 
1859.000000	64.098191 
1858.000000	64.102721 
1857.000000	64.111304 
1856.000000	64.122247 
1855.000000	64.133810 
1854.000000	64.144396 
1853.000000	64.153146 
1852.000000	64.159846 
1851.000000	64.164853 
1850.000000	64.168620 
1849.000000	64.171385 
1848.000000	64.173054 
1847.000000	64.173126 
1846.000000	64.170742 
1845.000000	64.165258 
1844.000000	64.156293 
1843.000000	64.144229 
1842.000000	64.129924 
1841.000000	64.114880 
1840.000000	64.100837 
1839.000000	64.089488 
1838.000000	64.082098 
1837.000000	64.079332 
1836.000000	64.081001 
1835.000000	64.086270 
1834.000000	64.093780 
1833.000000	64.102053 
1832.000000	64.109683 
1831.000000	64.115762 
1830.000000	64.119911 
1829.000000	64.122366 
1828.000000	64.123702 
1827.000000	64.124941 
1826.000000	64.127016 
1825.000000	64.130735 
1824.000000	64.136433 
1823.000000	64.143919 
1822.000000	64.152574 
1821.000000	64.161419 
1820.000000	64.169526 
1819.000000	64.175820 
1818.000000	64.179539 
1817.000000	64.180183 
1816.000000	64.177775 
1815.000000	64.172458 
1814.000000	64.164924 
1813.000000	64.156246 
1812.000000	64.147543 
1811.000000	64.140176 
1810.000000	64.135217 
1809.000000	64.133310 
1808.000000	64.134430 
1807.000000	64.137983 
1806.000000	64.142942 
1805.000000	64.147925 
1804.000000	64.151835 
1803.000000	64.154052 
1802.000000	64.154767 
1801.000000	64.154815 
1800.000000	64.155411 
1799.000000	64.157795 
1798.000000	64.162731 
1797.000000	64.170050 
1796.000000	64.178776 
1795.000000	64.187049 
1794.000000	64.192652 
1793.000000	64.193677 
1792.000000	64.188814 
1791.000000	64.177870 
1790.000000	64.161562 
1789.000000	64.141559 
1788.000000	64.119672 
1787.000000	64.097738 
1786.000000	64.077305 
1785.000000	64.059662 
1784.000000	64.045572 
1783.000000	64.035701 
1782.000000	64.030671 
1781.000000	64.031195 
1780.000000	64.037823 
1779.000000	64.051032 
1778.000000	64.070701 
1777.000000	64.096307 
1776.000000	64.126229 
1775.000000	64.158248 
1774.000000	64.189624 
1773.000000	64.217591 
1772.000000	64.239716 
1771.000000	64.254379 
1770.000000	64.260959 
1769.000000	64.259839 
1768.000000	64.252257 
1767.000000	64.239883 
1766.000000	64.224338 
1765.000000	64.207005 
1764.000000	64.188623 
1763.000000	64.169526 
1762.000000	64.149594 
1761.000000	64.128684 
1760.000000	64.106702 
1759.000000	64.084100 
1758.000000	64.061617 
1757.000000	64.040327 
1756.000000	64.021229 
1755.000000	64.004850 
1754.000000	63.991165 
1753.000000	63.979482 
1752.000000	63.968753 
1751.000000	63.957667 
1750.000000	63.945221 
1749.000000	63.931083 
1748.000000	63.915729 
1747.000000	63.900256 
1746.000000	63.886189 
1745.000000	63.874959 
1744.000000	63.867759 
1743.000000	63.865113 
1742.000000	63.866567 
1741.000000	63.870954 
1740.000000	63.876485 
1739.000000	63.881063 
1738.000000	63.882827 
1737.000000	63.880324 
1736.000000	63.872718 
1735.000000	63.860082 
1734.000000	63.843202 
1733.000000	63.823723 
1732.000000	63.803482 
1731.000000	63.784646 
1730.000000	63.769316 
1729.000000	63.759613 
1728.000000	63.757252 
1727.000000	63.763499 
1726.000000	63.779044 
1725.000000	63.803768 
1724.000000	63.836574 
1723.000000	63.875293 
1722.000000	63.916921 
1721.000000	63.957786 
1720.000000	63.993787 
1719.000000	64.021396 
1718.000000	64.037919 
1717.000000	64.042353 
1716.000000	64.035367 
1715.000000	64.019513 
1714.000000	63.998770 
1713.000000	63.977575 
1712.000000	63.959932 
1711.000000	63.949084 
1710.000000	63.946723 
1709.000000	63.952922 
1708.000000	63.966298 
1707.000000	63.984584 
1706.000000	64.004826 
1705.000000	64.024066 
1704.000000	64.039468 
1703.000000	64.048600 
1702.000000	64.049887 
1701.000000	64.042568 
1700.000000	64.026951 
1699.000000	64.004397 
1698.000000	63.977098 
1697.000000	63.948106 
1696.000000	63.920640 
1695.000000	63.897657 
1694.000000	63.881301 
1693.000000	63.872885 
1692.000000	63.872361 
1691.000000	63.878512 
1690.000000	63.889622 
1689.000000	63.903927 
1688.000000	63.920068 
1687.000000	63.937497 
1686.000000	63.956379 
1685.000000	63.977456 
1684.000000	64.001488 
1683.000000	64.028763 
1682.000000	64.058804 
1681.000000	64.090037 
1680.000000	64.120149 
1679.000000	64.146256 
1678.000000	64.165496 
1677.000000	64.175462 
1676.000000	64.174914 
1675.000000	64.163851 
1674.000000	64.143967 
1673.000000	64.117741 
1672.000000	64.088439 
1671.000000	64.058852 
1670.000000	64.031291 
1669.000000	64.006829 
1668.000000	63.985490 
1667.000000	63.966536 
1666.000000	63.949060 
1665.000000	63.932776 
1664.000000	63.918280 
1663.000000	63.907527 
1662.000000	63.903117 
1661.000000	63.907718 
1660.000000	63.923430 
1659.000000	63.950562 
1658.000000	63.987302 
1657.000000	64.029669 
1656.000000	64.072084 
1655.000000	64.108753 
1654.000000	64.134788 
1653.000000	64.147138 
1652.000000	64.145088 
1651.000000	64.130282 
1650.000000	64.105916 
1649.000000	64.075994 
1648.000000	64.044260 
1647.000000	64.013600 
1646.000000	63.985610 
1645.000000	63.960909 
1644.000000	63.939166 
1643.000000	63.919997 
1642.000000	63.903021 
1641.000000	63.888382 
1640.000000	63.876867 
1639.000000	63.869380 
1638.000000	63.866949 
1637.000000	63.870334 
1636.000000	63.879847 
1635.000000	63.895153 
1634.000000	63.915252 
1633.000000	63.938784 
1632.000000	63.963842 
1631.000000	63.988304 
1630.000000	64.009928 
1629.000000	64.026713 
1628.000000	64.037322 
1627.000000	64.041352 
1626.000000	64.039397 
1625.000000	64.033102 
1624.000000	64.024829 
1623.000000	64.017033 
1622.000000	64.011883 
1621.000000	64.010429 
1620.000000	64.012527 
1619.000000	64.016842 
1618.000000	64.021253 
1617.000000	64.023351 
1616.000000	64.020967 
1615.000000	64.013290 
1614.000000	64.000797 
1613.000000	63.985562 
1612.000000	63.970470 
1611.000000	63.958883 
1610.000000	63.953614 
1609.000000	63.956356 
1608.000000	63.967132 
1607.000000	63.984274 
1606.000000	64.004921 
1605.000000	64.025616 
1604.000000	64.043140 
1603.000000	64.055275 
1602.000000	64.060997 
1601.000000	64.060997 
1600.000000	64.057135 
1599.000000	64.051914 
1598.000000	64.047551 
1597.000000	64.045882 
1596.000000	64.047598 
1595.000000	64.052319 
1594.000000	64.058327 
1593.000000	64.063620 
1592.000000	64.066052 
1591.000000	64.064097 
1590.000000	64.057064 
1589.000000	64.045333 
1588.000000	64.030385 
1587.000000	64.014339 
1586.000000	63.999652 
1585.000000	63.988637 
1584.000000	63.982915 
1583.000000	63.983297 
1582.000000	63.989567 
1581.000000	64.000606 
1580.000000	64.014673 
1579.000000	64.029765 
1578.000000	64.043927 
1577.000000	64.055514 
1576.000000	64.063358 
1575.000000	64.066648 
1574.000000	64.065027 
1573.000000	64.058279 
1572.000000	64.046311 
1571.000000	64.029383 
1570.000000	64.008188 
1569.000000	63.984131 
1568.000000	63.959240 
1567.000000	63.936352 
1566.000000	63.918828 
1565.000000	63.910031 
1564.000000	63.912653 
1563.000000	63.927912 
1562.000000	63.955211 
1561.000000	63.991999 
1560.000000	64.033961 
1559.000000	64.075970 
1558.000000	64.113044 
1557.000000	64.141297 
1556.000000	64.158630 
1555.000000	64.164757 
1554.000000	64.161062 
1553.000000	64.150023 
1552.000000	64.134597 
1551.000000	64.117670 
1550.000000	64.101696 
1549.000000	64.088392 
1548.000000	64.078617 
1547.000000	64.072632 
1546.000000	64.069914 
1545.000000	64.069485 
1544.000000	64.069843 
1543.000000	64.069271 
1542.000000	64.066100 
1541.000000	64.058828 
1540.000000	64.047026 
1539.000000	64.030885 
1538.000000	64.011716 
1537.000000	63.991689 
1536.000000	63.973402 
1535.000000	63.959050 
1534.000000	63.950061 
1533.000000	63.946819 
1532.000000	63.948607 
1531.000000	63.953757 
1530.000000	63.960337 
1529.000000	63.966608 
1528.000000	63.971447 
1527.000000	63.974714 
1526.000000	63.976836 
1525.000000	63.978695 
1524.000000	63.981223 
1523.000000	63.985276 
1522.000000	63.991379 
1521.000000	63.999533 
1520.000000	64.009523 
1519.000000	64.021229 
1518.000000	64.034581 
1517.000000	64.049696 
1516.000000	64.066481 
1515.000000	64.084649 
1514.000000	64.103436 
1513.000000	64.121627 
1512.000000	64.137887 
1511.000000	64.151048 
1510.000000	64.160442 
1509.000000	64.166021 
1508.000000	64.168596 
1507.000000	64.169526 
1506.000000	64.170575 
1505.000000	64.173579 
1504.000000	64.179849 
1503.000000	64.190053 
1502.000000	64.203977 
1501.000000	64.220046 
1500.000000	64.235758 
1499.000000	64.247798 
1498.000000	64.253020 
1497.000000	64.249062 
1496.000000	64.235067 
1495.000000	64.211988 
1494.000000	64.182496 
1493.000000	64.150142 
1492.000000	64.118933 
1491.000000	64.092135 
1490.000000	64.071893 
1489.000000	64.058732 
1488.000000	64.051866 
1487.000000	64.049482 
1486.000000	64.049363 
1485.000000	64.049673 
1484.000000	64.049386 
1483.000000	64.048027 
1482.000000	64.045786 
1481.000000	64.043307 
1480.000000	64.041185 
1479.000000	64.039468 
1478.000000	64.037895 
1477.000000	64.035749 
1476.000000	64.032316 
1475.000000	64.027023 
1474.000000	64.019727 
1473.000000	64.010810 
1472.000000	64.001154 
1471.000000	63.991928 
1470.000000	63.984298 
1469.000000	63.979220 
1468.000000	63.977384 
1467.000000	63.979077 
1466.000000	63.984560 
1465.000000	63.993620 
1464.000000	64.006018 
1463.000000	64.020848 
1462.000000	64.036607 
1461.000000	64.051032 
1460.000000	64.061379 
1459.000000	64.064908 
1458.000000	64.059638 
1457.000000	64.044642 
1456.000000	64.020800 
1455.000000	63.990616 
1454.000000	63.957643 
1453.000000	63.925909 
1452.000000	63.899111 
1451.000000	63.879966 
1450.000000	63.869690 
1449.000000	63.868403 
1448.000000	63.875079 
1447.000000	63.888430 
1446.000000	63.907361 
1445.000000	63.931179 
1444.000000	63.959312 
1443.000000	63.991212 
1442.000000	64.025735 
1441.000000	64.060878 
1440.000000	64.093852 
1439.000000	64.121556 
1438.000000	64.141154 
1437.000000	64.150977 
1436.000000	64.150547 
1435.000000	64.140987 
1434.000000	64.124441 
1433.000000	64.103722 
1432.000000	64.081883 
1431.000000	64.061474 
1430.000000	64.044404 
1429.000000	64.031887 
1428.000000	64.024233 
1427.000000	64.021253 
1426.000000	64.022135 
1425.000000	64.025783 
1424.000000	64.030838 
1423.000000	64.035654 
1422.000000	64.038658 
1421.000000	64.038443 
1420.000000	64.034056 
1419.000000	64.025068 
1418.000000	64.011907 
1417.000000	63.995575 
1416.000000	63.977646 
1415.000000	63.959932 
1414.000000	63.943791 
1413.000000	63.929963 
1412.000000	63.918685 
1411.000000	63.909697 
1410.000000	63.902187 
1409.000000	63.895344 
1408.000000	63.888692 
1407.000000	63.882136 
1406.000000	63.876056 
1405.000000	63.871216 
1404.000000	63.868165 
1403.000000	63.867521 
1402.000000	63.869309 
1401.000000	63.873219 
1400.000000	63.878345 
1399.000000	63.883709 
1398.000000	63.888573 
1397.000000	63.892364 
1396.000000	63.894867 
1395.000000	63.896012 
1394.000000	63.896036 
1393.000000	63.894963 
1392.000000	63.892674 
1391.000000	63.888740 
1390.000000	63.882517 
1389.000000	63.873481 
1388.000000	63.861131 
1387.000000	63.845610 
1386.000000	63.827657 
1385.000000	63.808369 
1384.000000	63.789319 
1383.000000	63.772201 
1382.000000	63.758611 
1381.000000	63.749742 
1380.000000	63.746404 
1379.000000	63.748812 
1378.000000	63.756585 
1377.000000	63.768863 
1376.000000	63.784503 
1375.000000	63.802146 
1374.000000	63.820624 
1373.000000	63.838887 
1372.000000	63.856339 
1371.000000	63.872671 
1370.000000	63.887810 
1369.000000	63.901710 
1368.000000	63.914251 
1367.000000	63.925170 
1366.000000	63.934278 
1365.000000	63.941431 
1364.000000	63.946771 
1363.000000	63.950800 
1362.000000	63.954496 
1361.000000	63.959050 
1360.000000	63.965749 
1359.000000	63.975310 
1358.000000	63.987755 
1357.000000	64.002060 
1356.000000	64.016437 
1355.000000	64.028668 
1354.000000	64.036512 
1353.000000	64.038515 
1352.000000	64.034366 
1351.000000	64.025044 
1350.000000	64.012646 
1349.000000	64.000129 
1348.000000	63.990306 
1347.000000	63.985586 
1346.000000	63.987326 
1345.000000	63.995695 
1344.000000	64.009666 
1343.000000	64.027214 
1342.000000	64.045906 
1341.000000	64.063143 
1340.000000	64.076805 
1339.000000	64.085078 
1338.000000	64.086866 
1337.000000	64.081811 
1336.000000	64.070105 
1335.000000	64.052724 
1334.000000	64.031362 
1333.000000	64.008307 
1332.000000	63.986134 
1331.000000	63.967299 
1330.000000	63.953614 
1329.000000	63.946056 
1328.000000	63.944315 
1327.000000	63.947129 
1326.000000	63.952255 
1325.000000	63.957142 
1324.000000	63.959193 
1323.000000	63.956451 
1322.000000	63.947772 
1321.000000	63.933086 
1320.000000	63.913297 
1319.000000	63.889956 
1318.000000	63.864946 
1317.000000	63.840270 
1316.000000	63.817572 
1315.000000	63.797974 
1314.000000	63.782024 
1313.000000	63.769960 
1312.000000	63.761687 
1311.000000	63.757014 
1310.000000	63.755798 
1309.000000	63.757944 
1308.000000	63.763403 
1307.000000	63.772106 
1306.000000	63.783621 
1305.000000	63.797116 
1304.000000	63.811349 
1303.000000	63.824629 
1302.000000	63.835167 
1301.000000	63.841533 
1300.000000	63.842821 
1299.000000	63.839101 
1298.000000	63.831686 
1297.000000	63.822579 
1296.000000	63.814353 
1295.000000	63.809514 
1294.000000	63.810086 
1293.000000	63.816642 
1292.000000	63.828635 
1291.000000	63.844013 
1290.000000	63.859891 
1289.000000	63.873052 
1288.000000	63.880753 
1287.000000	63.881301 
1286.000000	63.874483 
1285.000000	63.861465 
1284.000000	63.844561 
1283.000000	63.826584 
1282.000000	63.810253 
1281.000000	63.797593 
1280.000000	63.789510 
1279.000000	63.785743 
1278.000000	63.784933 
1277.000000	63.785338 
1276.000000	63.785123 
1275.000000	63.782858 
1274.000000	63.777947 
1273.000000	63.770580 
1272.000000	63.761806 
1271.000000	63.752985 
1270.000000	63.745737 
1269.000000	63.741397 
1268.000000	63.740777 
1267.000000	63.744091 
1266.000000	63.750576 
1265.000000	63.758802 
1264.000000	63.766837 
1263.000000	63.772559 
1262.000000	63.774108 
1261.000000	63.770246 
1260.000000	63.760662 
1259.000000	63.746070 
1258.000000	63.728046 
1257.000000	63.708662 
1256.000000	63.690090 
1255.000000	63.673973 
1254.000000	63.661026 
1253.000000	63.651037 
1252.000000	63.642859 
1251.000000	63.634991 
1250.000000	63.626027 
1249.000000	63.615322 
1248.000000	63.603138 
1247.000000	63.590884 
1246.000000	63.580608 
1245.000000	63.574695 
1244.000000	63.574695 
1243.000000	63.581490 
1242.000000	63.594508 
1241.000000	63.612079 
1240.000000	63.631772 
1239.000000	63.650965 
1238.000000	63.667392 
1237.000000	63.679695 
1236.000000	63.687491 
1235.000000	63.691473 
1234.000000	63.692808 
1233.000000	63.692998 
1232.000000	63.693308 
1231.000000	63.694429 
1230.000000	63.696503 
1229.000000	63.699173 
1228.000000	63.701820 
1227.000000	63.703775 
1226.000000	63.704586 
1225.000000	63.704109 
1224.000000	63.702535 
1223.000000	63.700199 
1222.000000	63.697528 
1221.000000	63.694906 
1220.000000	63.692665 
1219.000000	63.690853 
1218.000000	63.689351 
1217.000000	63.687968 
1216.000000	63.686490 
1215.000000	63.684916 
1214.000000	63.683271 
1213.000000	63.681864 
1212.000000	63.681077 
1211.000000	63.681459 
1210.000000	63.683605 
1209.000000	63.688039 
1208.000000	63.695120 
1207.000000	63.704967 
1206.000000	63.717293 
1205.000000	63.731384 
1204.000000	63.745927 
1203.000000	63.759350 
1202.000000	63.769888 
1201.000000	63.775968 
1200.000000	63.776564 
1199.000000	63.771510 
1198.000000	63.761591 
1197.000000	63.748478 
1196.000000	63.734555 
1195.000000	63.722324 
1194.000000	63.713884 
1193.000000	63.710570 
1192.000000	63.712835 
1191.000000	63.719940 
1190.000000	63.730406 
1189.000000	63.742065 
1188.000000	63.752770 
1187.000000	63.760471 
1186.000000	63.763666 
1185.000000	63.761854 
1184.000000	63.755154 
1183.000000	63.744759 
1182.000000	63.732385 
1181.000000	63.720202 
1180.000000	63.710212 
1179.000000	63.704252 
1178.000000	63.703560 
1177.000000	63.708567 
1176.000000	63.718891 
1175.000000	63.733339 
1174.000000	63.749980 
1173.000000	63.766407 
1172.000000	63.779926 
1171.000000	63.788032 
1170.000000	63.788843 
1169.000000	63.781213 
1168.000000	63.765144 
1167.000000	63.741517 
1166.000000	63.712549 
1165.000000	63.681030 
1164.000000	63.650250 
1163.000000	63.623428 
1162.000000	63.603067 
1161.000000	63.590860 
1160.000000	63.587212 
1159.000000	63.591456 
1158.000000	63.602137 
1157.000000	63.617444 
1156.000000	63.635587 
1155.000000	63.654828 
1154.000000	63.673782 
1153.000000	63.691115 
1152.000000	63.705778 
1151.000000	63.716912 
1150.000000	63.724350 
1149.000000	63.728451 
1148.000000	63.730716 
1147.000000	63.733410 
1146.000000	63.739204 
1145.000000	63.750362 
1144.000000	63.768267 
1143.000000	63.792657 
1142.000000	63.821697 
1141.000000	63.851952 
1140.000000	63.879275 
1139.000000	63.899493 
1138.000000	63.909673 
1137.000000	63.908576 
1136.000000	63.896822 
1135.000000	63.877010 
1134.000000	63.853073 
1133.000000	63.829302 
1132.000000	63.809704 
1131.000000	63.797116 
1130.000000	63.792800 
1129.000000	63.796567 
1128.000000	63.807129 
1127.000000	63.822913 
1126.000000	63.842439 
1125.000000	63.864874 
1124.000000	63.889884 
1123.000000	63.917279 
1122.000000	63.946461 
1121.000000	63.976311 
1120.000000	64.004707 
1119.000000	64.029622 
1118.000000	64.048957 
1117.000000	64.061594 
1116.000000	64.066910 
1115.000000	64.064860 
1114.000000	64.055228 
1113.000000	64.037871 
1112.000000	64.012432 
1111.000000	63.978886 
1110.000000	63.938093 
1109.000000	63.891935 
1108.000000	63.843727 
1107.000000	63.797879 
1106.000000	63.759183 
1105.000000	63.731622 
1104.000000	63.718175 
1103.000000	63.719844 
1102.000000	63.736033 
1101.000000	63.764166 
1100.000000	63.800883 
1099.000000	63.842391 
1098.000000	63.885068 
1097.000000	63.925790 
1096.000000	63.961982 
1095.000000	63.991713 
1094.000000	64.013433 
1093.000000	64.026212 
1092.000000	64.030003 
1091.000000	64.025878 
1090.000000	64.016246 
1089.000000	64.004397 
1088.000000	63.994002 
1087.000000	63.988018 
1086.000000	63.988208 
1085.000000	63.994169 
1084.000000	64.003562 
1083.000000	64.012265 
1082.000000	64.015650 
1081.000000	64.009737 
1080.000000	63.992285 
1079.000000	63.963246 
1078.000000	63.925099 
1077.000000	63.881921 
1076.000000	63.838338 
1075.000000	63.798570 
1074.000000	63.765192 
1073.000000	63.739490 
1072.000000	63.721299 
1071.000000	63.709878 
1070.000000	63.704299 
1069.000000	63.703989 
1068.000000	63.709020 
1067.000000	63.719558 
1066.000000	63.735556 
1065.000000	63.756585 
1064.000000	63.781881 
1063.000000	63.809990 
1062.000000	63.839173 
1061.000000	63.867712 
1060.000000	63.894104 
1059.000000	63.917326 
1058.000000	63.936734 
1057.000000	63.952088 
1056.000000	63.963007 
1055.000000	63.969373 
1054.000000	63.970637 
1053.000000	63.966631 
1052.000000	63.957047 
1051.000000	63.942432 
1050.000000	63.923501 
1049.000000	63.901615 
1048.000000	63.878273 
1047.000000	63.855147 
1046.000000	63.833642 
1045.000000	63.814687 
1044.000000	63.798952 
1043.000000	63.786768 
1042.000000	63.778114 
1041.000000	63.772773 
1040.000000	63.770627 
1039.000000	63.771533 
1038.000000	63.775753 
1037.000000	63.783597 
1036.000000	63.795280 
1035.000000	63.810515 
1034.000000	63.828301 
1033.000000	63.846731 
1032.000000	63.863110 
1031.000000	63.874459 
1030.000000	63.878178 
1029.000000	63.872909 
1028.000000	63.858890 
1027.000000	63.838195 
1026.000000	63.814449 
1025.000000	63.792014 
1024.000000	63.775277 
1023.000000	63.767242 
1022.000000	63.769221 
1021.000000	63.780188 
1020.000000	63.797354 
1019.000000	63.816714 
1018.000000	63.834118 
1017.000000	63.846278 
1016.000000	63.851499 
1015.000000	63.849592 
1014.000000	63.841724 
1013.000000	63.829898 
1012.000000	63.816189 
1011.000000	63.802433 
1010.000000	63.789749 
1009.000000	63.778781 
1008.000000	63.769555 
1007.000000	63.761782 
1006.000000	63.755083 
1005.000000	63.749051 
1004.000000	63.743472 
1003.000000	63.738489 
1002.000000	63.734459 
1001.000000	63.731861 
1000.000000	63.731217 
999.000000	 63.732933 
998.000000	 63.737249 
997.000000	 63.744020 
996.000000	 63.753008 
995.000000	 63.763689 
994.000000	 63.775539 
993.000000	 63.788104 
992.000000	 63.800930 
991.000000	 63.813591 
990.000000	 63.825726 
989.000000	 63.837051 
988.000000	 63.846993 
987.000000	 63.854765 
986.000000	 63.859510 
985.000000	 63.860321 
984.000000	 63.856649 
983.000000	 63.848495 
982.000000	 63.836550 
981.000000	 63.822221 
980.000000	 63.807058 
979.000000	 63.792681 
978.000000	 63.780498 
977.000000	 63.771510 
976.000000	 63.766121 
975.000000	 63.764309 
974.000000	 63.765907 
973.000000	 63.770508 
972.000000	 63.777613 
971.000000	 63.786649 
970.000000	 63.796830 
969.000000	 63.807368 
968.000000	 63.817429 
967.000000	 63.826394 
966.000000	 63.833832 
965.000000	 63.839817 
964.000000	 63.845014 
963.000000	 63.850426 
962.000000	 63.857293 
961.000000	 63.866662 
960.000000	 63.879323 
959.000000	 63.895368 
958.000000	 63.914132 
957.000000	 63.934516 
956.000000	 63.955283 
955.000000	 63.975286 
954.000000	 63.993644 
953.000000	 64.010143 
952.000000	 64.024806 
951.000000	 64.038014 
950.000000	 64.050245 
949.000000	 64.061808 
948.000000	 64.072799 
947.000000	 64.083361 
946.000000	 64.093375 
945.000000	 64.102816 
944.000000	 64.111471 
943.000000	 64.119482 
942.000000	 64.126658 
941.000000	 64.133024 
940.000000	 64.138150 
939.000000	 64.141488 
938.000000	 64.142179 
937.000000	 64.139485 
936.000000	 64.132690 
935.000000	 64.121484 
934.000000	 64.105820 
933.000000	 64.086294 
932.000000	 64.063644 
931.000000	 64.038991 
930.000000	 64.013624 
929.000000	 63.988852 
928.000000	 63.965868 
927.000000	 63.945817 
926.000000	 63.929677 
925.000000	 63.918638 
924.000000	 63.913393 
923.000000	 63.914799 
922.000000	 63.923692 
921.000000	 63.940668 
920.000000	 63.965773 
919.000000	 63.998031 
918.000000	 64.035487 
917.000000	 64.075112 
916.000000	 64.112854 
915.000000	 64.144372 
914.000000	 64.165687 
913.000000	 64.173913 
912.000000	 64.168024 
911.000000	 64.149022 
910.000000	 64.119887 
909.000000	 64.085078 
908.000000	 64.049839 
907.000000	 64.018917 
906.000000	 63.995742 
905.000000	 63.982129 
904.000000	 63.977861 
903.000000	 63.980865 
902.000000	 63.987708 
901.000000	 63.994288 
900.000000	 63.996887 
899.000000	 63.992118 
898.000000	 63.977932 
897.000000	 63.953661 
896.000000	 63.920283 
895.000000	 63.880157 
894.000000	 63.836884 
893.000000	 63.794851 
892.000000	 63.758420 
891.000000	 63.731646 
890.000000	 63.717269 
889.000000	 63.716030 
888.000000	 63.726878 
887.000000	 63.746881 
886.000000	 63.772249 
885.000000	 63.798499 
884.000000	 63.822245 
883.000000	 63.841772 
882.000000	 63.857364 
881.000000	 63.870954 
880.000000	 63.885354 
879.000000	 63.903093 
878.000000	 63.925528 
877.000000	 63.952302 
876.000000	 63.981342 
875.000000	 64.009284 
874.000000	 64.032959 
873.000000	 64.050245 
872.000000	 64.060664 
871.000000	 64.065384 
870.000000	 64.067053 
869.000000	 64.068460 
868.000000	 64.071702 
867.000000	 64.077019 
866.000000	 64.082908 
865.000000	 64.086008 
864.000000	 64.082598 
863.000000	 64.069461 
862.000000	 64.045190 
861.000000	 64.010739 
860.000000	 63.969826 
859.000000	 63.927960 
858.000000	 63.890981 
857.000000	 63.864278 
856.000000	 63.851475 
855.000000	 63.853883 
854.000000	 63.870263 
853.000000	 63.897585 
852.000000	 63.931846 
851.000000	 63.968896 
850.000000	 64.005136 
849.000000	 64.038157 
848.000000	 64.066696 
847.000000	 64.090228 
846.000000	 64.108729 
845.000000	 64.122295 
844.000000	 64.130949 
843.000000	 64.134860 
842.000000	 64.134025 
841.000000	 64.129090 
840.000000	 64.120292 
839.000000	 64.108681 
838.000000	 64.094352 
837.000000	 64.077234 
836.000000	 64.056301 
835.000000	 64.030241 
834.000000	 63.997697 
833.000000	 63.958048 
832.000000	 63.911986 
831.000000	 63.861846 
830.000000	 63.811707 
829.000000	 63.766694 
828.000000	 63.732004 
827.000000	 63.711786 
826.000000	 63.707780 
825.000000	 63.718914 
824.000000	 63.741254 
823.000000	 63.768982 
822.000000	 63.796043 
821.000000	 63.817596 
820.000000	 63.830995 
819.000000	 63.836288 
818.000000	 63.835477 
817.000000	 63.832139 
816.000000	 63.829636 
815.000000	 63.830423 
814.000000	 63.835525 
813.000000	 63.844275 
812.000000	 63.855338 
811.000000	 63.866567 
810.000000	 63.875722 
809.000000	 63.880896 
808.000000	 63.880848 
807.000000	 63.875508 
806.000000	 63.865685 
805.000000	 63.853073 
804.000000	 63.840293 
803.000000	 63.829898 
802.000000	 63.823890 
801.000000	 63.823199 
800.000000	 63.827514 
799.000000	 63.835096 
798.000000	 63.843250 
797.000000	 63.848829 
796.000000	 63.849353 
795.000000	 63.843512 
794.000000	 63.831686 
793.000000	 63.816094 
792.000000	 63.800382 
791.000000	 63.789176 
790.000000	 63.786816 
789.000000	 63.796186 
788.000000	 63.818216 
787.000000	 63.851499 
786.000000	 63.892722 
785.000000	 63.937187 
784.000000	 63.979864 
783.000000	 64.016151 
782.000000	 64.042901 
781.000000	 64.058732 
780.000000	 64.064192 
779.000000	 64.061284 
778.000000	 64.052748 
777.000000	 64.041471 
776.000000	 64.029550 
775.000000	 64.018321 
774.000000	 64.007854 
773.000000	 63.997650 
772.000000	 63.986873 
771.000000	 63.975000 
770.000000	 63.962030 
769.000000	 63.948464 
768.000000	 63.935041 
767.000000	 63.922500 
766.000000	 63.910913 
765.000000	 63.899755 
764.000000	 63.887739 
763.000000	 63.873481 
762.000000	 63.855814 
761.000000	 63.834571 
760.000000	 63.810515 
759.000000	 63.785743 
758.000000	 63.763236 
757.000000	 63.746333 
756.000000	 63.737630 
755.000000	 63.738656 
754.000000	 63.749241 
753.000000	 63.767719 
752.000000	 63.791370 
751.000000	 63.816857 
750.000000	 63.840985 
749.000000	 63.861012 
748.000000	 63.874959 
747.000000	 63.881707 
746.000000	 63.880920 
745.000000	 63.872766 
744.000000	 63.857746 
743.000000	 63.836789 
742.000000	 63.811135 
741.000000	 63.782262 
740.000000	 63.752055 
739.000000	 63.722705 
738.000000	 63.696908 
737.000000	 63.677358 
736.000000	 63.667082 
735.000000	 63.668465 
734.000000	 63.683152 
733.000000	 63.711476 
732.000000	 63.752245 
731.000000	 63.802480 
730.000000	 63.857889 
729.000000	 63.913249 
728.000000	 63.963460 
727.000000	 64.003968 
726.000000	 64.032030 
725.000000	 64.046955 
724.000000	 64.050459 
723.000000	 64.046025 
722.000000	 64.037895 
721.000000	 64.030241 
720.000000	 64.025807 
719.000000	 64.025568 
718.000000	 64.028477 
717.000000	 64.032196 
716.000000	 64.033579 
715.000000	 64.029765 
714.000000	 64.018869 
713.000000	 64.000773 
712.000000	 63.976907 
711.000000	 63.950085 
710.000000	 63.923931 
709.000000	 63.901948 
708.000000	 63.886952 
707.000000	 63.880419 
706.000000	 63.882207 
705.000000	 63.890385 
704.000000	 63.902211 
703.000000	 63.914179 
702.000000	 63.922834 
701.000000	 63.925361 
700.000000	 63.920044 
699.000000	 63.906478 
698.000000	 63.885498 
697.000000	 63.858890 
696.000000	 63.828921 
695.000000	 63.797760 
694.000000	 63.766980 
693.000000	 63.737368 
692.000000	 63.709068 
691.000000	 63.681674 
690.000000	 63.654756 
689.000000	 63.627910 
688.000000	 63.601160 
687.000000	 63.574767 
686.000000	 63.549184 
685.000000	 63.524580 
684.000000	 63.501119 
683.000000	 63.478708 
682.000000	 63.457775 
681.000000	 63.439035 
680.000000	 63.424086 
679.000000	 63.414978 
678.000000	 63.414263 
677.000000	 63.424205 
676.000000	 63.446521 
675.000000	 63.480901 
674.000000	 63.525748 
673.000000	 63.577461 
672.000000	 63.631844 
671.000000	 63.684487 
670.000000	 63.731980 
669.000000	 63.772392 
668.000000	 63.805127 
667.000000	 63.830637 
666.000000	 63.849592 
665.000000	 63.862490 
664.000000	 63.868832 
663.000000	 63.867259 
662.000000	 63.855886 
661.000000	 63.833355 
660.000000	 63.799118 
659.000000	 63.754129 
658.000000	 63.701438 
657.000000	 63.646030 
656.000000	 63.593864 
655.000000	 63.551306 
654.000000	 63.523840 
653.000000	 63.515353 
652.000000	 63.527131 
651.000000	 63.557863 
650.000000	 63.603687 
649.000000	 63.658833 
648.000000	 63.716292 
647.000000	 63.769173 
646.000000	 63.811182 
645.000000	 63.838386 
644.000000	 63.849520 
643.000000	 63.845992 
642.000000	 63.831210 
641.000000	 63.809752 
640.000000	 63.786458 
639.000000	 63.765025 
638.000000	 63.747620 
637.000000	 63.735198 
636.000000	 63.727879 
635.000000	 63.725614 
634.000000	 63.728857 
633.000000	 63.738274 
632.000000	 63.754701 
631.000000	 63.778591 
630.000000	 63.809514 
629.000000	 63.845872 
628.000000	 63.884925 
627.000000	 63.923358 
626.000000	 63.957643 
625.000000	 63.984847 
624.000000	 64.002847 
623.000000	 64.011192 
622.000000	 64.010214 
621.000000	 64.001131 
620.000000	 63.984751 
619.000000	 63.961839 
618.000000	 63.932371 
617.000000	 63.896274 
616.000000	 63.853645 
615.000000	 63.805246 
614.000000	 63.752985 
613.000000	 63.699841 
612.000000	 63.650107 
611.000000	 63.608741 
610.000000	 63.580465 
609.000000	 63.568806 
608.000000	 63.575506 
607.000000	 63.599872 
606.000000	 63.638734 
605.000000	 63.686823 
604.000000	 63.736987 
603.000000	 63.781976 
602.000000	 63.816046 
601.000000	 63.836383 
600.000000	 63.843345 
599.000000	 63.840174 
598.000000	 63.831686 
597.000000	 63.822770 
596.000000	 63.818049 
595.000000	 63.819646 
594.000000	 63.826632 
593.000000	 63.835787 
592.000000	 63.842964 
591.000000	 63.844776 
590.000000	 63.838863 
589.000000	 63.826704 
588.000000	 63.812685 
587.000000	 63.804531 
586.000000	 63.811063 
585.000000	 63.840293 
584.000000	 63.897061 
583.000000	 63.980340 
582.000000	 64.082694 
581.000000	 64.189648 
580.000000	 64.282202 
579.000000	 64.340043 
578.000000	 64.346575 
577.000000	 64.291691 
576.000000	 64.175891 
575.000000	 64.011025 
574.000000	 63.820338 
573.000000	 63.633608 
572.000000	 63.483142 
571.000000	 63.397717 
570.000000	 63.397002 
569.000000	 63.488316 
568.000000	 63.664889 
567.000000	 63.906621 
566.000000	 64.184641 
565.000000	 64.466881 
564.000000	 64.723753 
563.000000	 64.932155 
562.000000	 65.079593 
561.000000	 65.164160 
560.000000	 65.192866 
559.000000	 65.178704 
558.000000	 65.134811 
557.000000	 65.071368 
556.000000	 64.992666 
555.000000	 64.898490 
554.000000	 64.783692 
553.000000	 64.642405 
552.000000	 64.471960 
551.000000	 64.276456 
550.000000	 64.066290 
549.000000	 63.858103 
548.000000	 63.670897 
547.000000	 63.523983 
546.000000	 63.430714 
545.000000	 63.399219 
544.000000	 63.428854 
543.000000	 63.514375 
542.000000	 63.646340 
541.000000	 63.815474 
540.000000	 64.012527 
539.000000	 64.230084 
538.000000	 64.461803 
537.000000	 64.699387 
536.000000	 64.931631 
535.000000	 65.141129 
534.000000	 65.307164 
533.000000	 65.405774 
532.000000	 65.417051 
531.000000	 65.325736 
530.000000	 65.127539 
529.000000	 64.828562 
528.000000	 64.447021 
527.000000	 64.010381 
526.000000	 63.552999 
525.000000	 63.111090 
524.000000	 62.718844 
523.000000	 62.405443 
522.000000	 62.192225 
521.000000	 62.089133 
520.000000	 62.095713 
519.000000	 62.199044 
518.000000	 62.379407 
517.000000	 62.611007 
516.000000	 62.869644 
515.000000	 63.131427 
514.000000	 63.379907 
513.000000	 63.603901 
512.000000	 63.799047 
511.000000	 63.964867 
510.000000	 64.102125 
509.000000	 64.211177 
508.000000	 64.289021 
507.000000	 64.332079 
506.000000	 64.334344 
505.000000	 64.291405 
504.000000	 64.202141 
503.000000	 64.071679 
502.000000	 63.914489 
501.000000	 63.753819 
500.000000	 63.617467 
499.000000	 63.532233 
498.000000	 63.516879 
497.000000	 63.577103 
496.000000	 63.704061 
495.000000	 63.875341 
494.000000	 64.058279 
493.000000	 64.216661 
492.000000	 64.320826 
491.000000	 64.352512 
490.000000	 64.304232 
489.000000	 64.183592 
488.000000	 64.006876 
487.000000	 63.801574 
486.000000	 63.599491 
485.000000	 63.434791 
484.000000	 63.338065 
483.000000	 63.331818 
482.000000	 63.431215 
481.000000	 63.633370 
480.000000	 63.919782 
479.000000	 64.252114 
478.000000	 64.579939 
477.000000	 64.845538 
476.000000	 64.994549 
475.000000	 64.989018 
474.000000	 64.815974 
473.000000	 64.493894 
472.000000	 64.070320 
471.000000	 63.613080 
470.000000	 63.196754 
469.000000	 62.888908 
468.000000	 62.736606 
467.000000	 62.759470 
466.000000	 62.946367 
465.000000	 63.263297 
464.000000	 63.658952 
463.000000	 64.075732 
462.000000	 64.459133 
461.000000	 64.765119 
460.000000	 64.965605 
459.000000	 65.047264 
458.000000	 65.011644 
457.000000	 64.871716 
456.000000	 64.647006 
455.000000	 64.359617 
454.000000	 64.031887 
453.000000	 63.688182 
452.000000	 63.351082 
451.000000	 63.043045 
450.000000	 62.783837 
449.000000	 62.590146 
448.000000	 62.473988 
447.000000	 62.442016 
446.000000	 62.491583 
445.000000	 62.610530 
444.000000	 62.781238 
443.000000	 62.983798 
442.000000	 63.197779 
441.000000	 63.407087 
440.000000	 63.600611 
439.000000	 63.775110 
438.000000	 63.935399 
437.000000	 64.092111 
436.000000	 64.255499 
435.000000	 64.433670 
434.000000	 64.629817 
433.000000	 64.841175 
432.000000	 65.062475 
431.000000	 65.284633 
430.000000	 65.496850 
429.000000	 65.688586 
428.000000	 65.855741 
427.000000	 65.995502 
426.000000	 66.109776 
425.000000	 66.196751 
424.000000	 66.252660 
423.000000	 66.265678 
422.000000	 66.218662 
421.000000	 66.095256 
420.000000	 65.889096 
419.000000	 65.598773 
418.000000	 65.232300 
417.000000	 64.814782 
416.000000	 64.388418 
415.000000	 64.001512 
414.000000	 63.703012 
413.000000	 63.541913 
412.000000	 63.553929 
411.000000	 63.752079 
410.000000	 64.118099 
409.000000	 64.606189 
408.000000	 65.142679 
407.000000	 65.641736 
406.000000	 66.017818 
405.000000	 66.185069 
404.000000	 66.095447 
403.000000	 65.756344 
402.000000	 65.226626 
401.000000	 64.602041 
400.000000	 63.991880 
399.000000	 63.519191 
398.000000	 63.240528 
397.000000	 63.135027 
396.000000	 63.090801 
395.000000	 62.944149 
394.000000	 62.499523 
393.000000	 61.578106 
392.000000	 60.114383 
391.000000	 58.195638 
390.000000	 55.957794 
389.000000	 53.572559 
388.000000	 51.252675 
387.000000	 49.162983 
386.000000	 47.614264 
385.000000	 46.919941 
384.000000	 46.685361 
383.000000	 46.367120 
382.000000	 45.634841 
381.000000	 44.483351 
380.000000	 44.066548 
379.000000	 45.537638 
378.000000	 49.278140 
377.000000	 55.004477 
376.000000	 60.245323 
375.000000	 63.043975 
374.000000	 63.357377 
373.000000	 62.521886 
372.000000	 64.945268 
371.000000	 73.123240 
370.000000	 85.573005 

