PE IR       SPECTRUM    SPECTRUM    ASCII       PEDS        1.60        
  -1
BZ6AA3~1.ASC
17/04/07
17:31:23.00
17/04/07
17:31:23.00
tln
$BZ1503107-1_t0052$<tbV0>[-5.2,-2.6,8.0,0.0,27,1,0]
370.000000
64









2002,4.07    
MIRTGS : RIGHTBACK : INTERNAL 2
MIR : ON : INTERNAL 2
OPTKBR

0.200000
8
8.000000
FILLER
RATIO
SPECTRUM
UNLOCKED 256

DOUBLE
64
COMBINED
1
0
0


1.000000
RATIO


1
0
TRUE
51149
0
LEFT NOT FITTED RIGHT NOT FITTED 0
NONE
NONE
15600
12.000000
4.427000
51148
TRUE
1 0 8 72 0 0 0 0 

15798.010000






#HDR
-1
-1
#GR
CM-1
%T
0.00002384185791015625
0.0
5000.000000
-1.000000
4631
8
73.136854
54.122018
#DATA
5000.000000	66.481018 
4999.000000	66.950726 
4998.000000	67.247962 
4997.000000	67.351484 
4996.000000	67.265152 
4995.000000	67.016315 
4994.000000	66.650676 
4993.000000	66.227674 
4992.000000	65.806412 
4991.000000	65.440940 
4990.000000	65.167331 
4989.000000	65.005660 
4988.000000	64.950990 
4987.000000	64.980268 
4986.000000	65.055751 
4985.000000	65.135693 
4984.000000	65.184426 
4983.000000	65.180969 
4982.000000	65.124130 
4981.000000	65.032100 
4980.000000	64.935708 
4979.000000	64.870429 
4978.000000	64.867019 
4977.000000	64.943814 
4976.000000	65.103030 
4975.000000	65.329623 
4974.000000	65.597319 
4973.000000	65.872287 
4972.000000	66.122889 
4971.000000	66.323113 
4970.000000	66.455483 
4969.000000	66.513371 
4968.000000	66.501021 
4967.000000	66.430139 
4966.000000	66.316056 
4965.000000	66.174840 
4964.000000	66.022253 
4963.000000	65.869951 
4962.000000	65.728759 
4961.000000	65.602278 
4960.000000	65.488982 
4959.000000	65.382909 
4958.000000	65.277147 
4957.000000	65.165495 
4956.000000	65.045595 
4955.000000	64.920043 
4954.000000	64.796638 
4953.000000	64.687156 
4952.000000	64.604759 
4951.000000	64.558506 
4950.000000	64.552211 
4949.000000	64.583802 
4948.000000	64.646482 
4947.000000	64.729475 
4946.000000	64.821410 
4945.000000	64.911818 
4944.000000	64.993643 
4943.000000	65.062403 
4942.000000	65.117692 
4941.000000	65.161252 
4940.000000	65.196847 
4939.000000	65.227723 
4938.000000	65.257143 
4937.000000	65.288424 
4936.000000	65.323472 
4935.000000	65.364336 
4934.000000	65.409731 
4933.000000	65.455555 
4932.000000	65.494155 
4931.000000	65.516257 
4930.000000	65.511226 
4929.000000	65.469479 
4928.000000	65.385341 
4927.000000	65.258836 
4926.000000	65.094828 
4925.000000	64.903116 
4924.000000	64.696907 
4923.000000	64.491653 
4922.000000	64.302015 
4921.000000	64.141488 
4920.000000	64.020514 
4919.000000	63.946628 
4918.000000	63.923001 
4917.000000	63.949441 
4916.000000	64.020490 
4915.000000	64.128017 
4914.000000	64.260458 
4913.000000	64.405560 
4912.000000	64.549016 
4911.000000	64.678978 
4910.000000	64.786410 
4909.000000	64.866542 
4908.000000	64.918112 
4907.000000	64.943313 
4906.000000	64.946460 
4905.000000	64.932250 
4904.000000	64.904928 
4903.000000	64.868640 
4902.000000	64.827823 
4901.000000	64.787507 
4900.000000	64.753651 
4899.000000	64.732432 
4898.000000	64.729404 
4897.000000	64.748215 
4896.000000	64.789772 
4895.000000	64.851284 
4894.000000	64.926552 
4893.000000	65.007567 
4892.000000	65.085315 
4891.000000	65.150570 
4890.000000	65.196061 
4889.000000	65.218329 
4888.000000	65.217328 
4887.000000	65.196537 
4886.000000	65.161061 
4885.000000	65.117383 
4884.000000	65.070152 
4883.000000	65.022706 
4882.000000	64.974498 
4881.000000	64.922523 
4880.000000	64.861702 
4879.000000	64.787364 
4878.000000	64.696621 
4877.000000	64.589929 
4876.000000	64.472508 
4875.000000	64.353895 
4874.000000	64.246129 
4873.000000	64.160990 
4872.000000	64.106512 
4871.000000	64.085364 
4870.000000	64.093494 
4869.000000	64.122366 
4868.000000	64.161038 
4867.000000	64.199995 
4866.000000	64.233589 
4865.000000	64.261388 
4864.000000	64.286828 
4863.000000	64.315724 
4862.000000	64.352512 
4861.000000	64.398694 
4860.000000	64.451122 
4859.000000	64.502716 
4858.000000	64.544296 
4857.000000	64.567399 
4856.000000	64.567494 
4855.000000	64.545035 
4854.000000	64.506173 
4853.000000	64.460515 
4852.000000	64.418530 
4851.000000	64.389014 
4850.000000	64.376854 
4849.000000	64.382839 
4848.000000	64.403724 
4847.000000	64.434599 
4846.000000	64.470505 
4845.000000	64.507341 
4844.000000	64.542746 
4843.000000	64.575862 
4842.000000	64.607167 
4841.000000	64.637184 
4840.000000	64.666438 
4839.000000	64.695405 
4838.000000	64.723968 
4837.000000	64.752340 
4836.000000	64.779877 
4835.000000	64.806151 
4834.000000	64.829611 
4833.000000	64.848518 
4832.000000	64.860010 
4831.000000	64.861178 
4830.000000	64.849257 
4829.000000	64.822840 
4828.000000	64.782595 
4827.000000	64.731860 
4826.000000	64.676284 
4825.000000	64.623045 
4824.000000	64.579081 
4823.000000	64.549922 
4822.000000	64.537858 
4821.000000	64.541578 
4820.000000	64.556670 
4819.000000	64.576840 
4818.000000	64.595437 
4817.000000	64.607191 
4816.000000	64.609456 
4815.000000	64.602637 
4814.000000	64.589333 
4813.000000	64.573574 
4812.000000	64.559125 
4811.000000	64.548897 
4810.000000	64.543986 
4809.000000	64.544105 
4808.000000	64.547991 
4807.000000	64.554500 
4806.000000	64.563274 
4805.000000	64.574956 
4804.000000	64.590430 
4803.000000	64.611077 
4802.000000	64.637684 
4801.000000	64.670205 
4800.000000	64.706897 
4799.000000	64.745283 
4798.000000	64.782500 
4797.000000	64.815998 
4796.000000	64.844226 
4795.000000	64.866566 
4794.000000	64.883375 
4793.000000	64.895653 
4792.000000	64.904880 
4791.000000	64.912819 
4790.000000	64.921283 
4789.000000	64.932346 
4788.000000	64.948081 
4787.000000	64.970588 
4786.000000	65.001058 
4785.000000	65.039730 
4784.000000	65.084695 
4783.000000	65.132737 
4782.000000	65.178442 
4781.000000	65.215778 
4780.000000	65.238213 
4779.000000	65.240406 
4778.000000	65.218853 
4777.000000	65.173459 
4776.000000	65.107321 
4775.000000	65.026760 
4774.000000	64.940118 
4773.000000	64.856767 
4772.000000	64.785361 
4771.000000	64.732432 
4770.000000	64.701509 
4769.000000	64.692878 
4768.000000	64.703583 
4767.000000	64.728593 
4766.000000	64.761352 
4765.000000	64.795160 
4764.000000	64.824175 
4763.000000	64.844131 
4762.000000	64.852237 
4761.000000	64.847421 
4760.000000	64.829969 
4759.000000	64.801621 
4758.000000	64.764571 
4757.000000	64.721941 
4756.000000	64.677476 
4755.000000	64.635634 
4754.000000	64.600872 
4753.000000	64.577388 
4752.000000	64.568471 
4751.000000	64.576363 
4750.000000	64.601135 
4749.000000	64.641571 
4748.000000	64.695096 
4747.000000	64.758348 
4746.000000	64.827275 
4745.000000	64.897656 
4744.000000	64.965248 
4743.000000	65.026068 
4742.000000	65.076589 
4741.000000	65.113711 
4740.000000	65.134859 
4739.000000	65.138888 
4738.000000	65.126228 
4737.000000	65.098762 
4736.000000	65.059304 
4735.000000	65.011835 
4734.000000	64.960289 
4733.000000	64.908432 
4732.000000	64.859151 
4731.000000	64.814400 
4730.000000	64.775204 
4729.000000	64.742016 
4728.000000	64.715075 
4727.000000	64.694976 
4726.000000	64.682006 
4725.000000	64.675927 
4724.000000	64.675474 
4723.000000	64.678430 
4722.000000	64.681696 
4721.000000	64.681100 
4720.000000	64.673018 
4719.000000	64.654970 
4718.000000	64.627218 
4717.000000	64.592838 
4716.000000	64.557456 
4715.000000	64.527869 
4714.000000	64.510464 
4713.000000	64.509439 
4712.000000	64.525365 
4711.000000	64.554810 
4710.000000	64.590859 
4709.000000	64.624929 
4708.000000	64.648747 
4707.000000	64.656805 
4706.000000	64.647364 
4705.000000	64.623498 
4704.000000	64.591717 
4703.000000	64.561295 
4702.000000	64.541459 
4701.000000	64.540290 
4700.000000	64.562559 
4699.000000	64.609479 
4698.000000	64.679002 
4697.000000	64.765858 
4696.000000	64.863228 
4695.000000	64.962935 
4694.000000	65.056872 
4693.000000	65.137267 
4692.000000	65.197563 
4691.000000	65.233445 
4690.000000	65.243148 
4689.000000	65.228652 
4688.000000	65.195393 
4687.000000	65.151906 
4686.000000	65.108180 
4685.000000	65.074443 
4684.000000	65.059065 
4683.000000	65.066623 
4682.000000	65.096569 
4681.000000	65.143632 
4680.000000	65.198326 
4679.000000	65.249276 
4678.000000	65.285372 
4677.000000	65.297961 
4676.000000	65.282630 
4675.000000	65.240359 
4674.000000	65.176558 
4673.000000	65.099763 
4672.000000	65.019178 
4671.000000	64.942789 
4670.000000	64.875555 
4669.000000	64.819169 
4668.000000	64.772343 
4667.000000	64.732360 
4666.000000	64.696431 
4665.000000	64.662885 
4664.000000	64.632606 
4663.000000	64.608979 
4662.000000	64.596700 
4661.000000	64.599776 
4660.000000	64.620685 
4659.000000	64.658975 
4658.000000	64.710736 
4657.000000	64.768981 
4656.000000	64.825201 
4655.000000	64.870524 
4654.000000	64.897942 
4653.000000	64.903402 
4652.000000	64.885950 
4651.000000	64.848256 
4650.000000	64.795422 
4649.000000	64.734888 
4648.000000	64.675140 
4647.000000	64.624238 
4646.000000	64.589357 
4645.000000	64.574694 
4644.000000	64.581465 
4643.000000	64.606833 
4642.000000	64.645051 
4641.000000	64.687752 
4640.000000	64.725589 
4639.000000	64.750337 
4638.000000	64.756417 
4637.000000	64.742279 
4636.000000	64.710307 
4635.000000	64.666581 
4634.000000	64.619278 
4633.000000	64.576911 
4632.000000	64.546298 
4631.000000	64.531588 
4630.000000	64.533495 
4629.000000	64.549851 
4628.000000	64.576506 
4627.000000	64.608502 
4626.000000	64.641046 
4625.000000	64.670109 
4624.000000	64.693117 
4623.000000	64.708042 
4622.000000	64.714479 
4621.000000	64.713072 
4620.000000	64.705848 
4619.000000	64.695954 
4618.000000	64.686989 
4617.000000	64.682555 
4616.000000	64.685130 
4615.000000	64.695954 
4614.000000	64.714097 
4613.000000	64.736652 
4612.000000	64.759349 
4611.000000	64.777541 
4610.000000	64.787673 
4609.000000	64.788317 
4608.000000	64.780497 
4607.000000	64.767622 
4606.000000	64.754390 
4605.000000	64.745306 
4604.000000	64.743447 
4603.000000	64.749646 
4602.000000	64.762473 
4601.000000	64.778804 
4600.000000	64.795041 
4599.000000	64.808082 
4598.000000	64.815974 
4597.000000	64.818406 
4596.000000	64.816117 
4595.000000	64.810895 
4594.000000	64.805102 
4593.000000	64.800691 
4592.000000	64.798903 
4591.000000	64.799571 
4590.000000	64.801597 
4589.000000	64.802742 
4588.000000	64.800620 
4587.000000	64.793348 
4586.000000	64.779829 
4585.000000	64.760446 
4584.000000	64.737296 
4583.000000	64.713835 
4582.000000	64.693784 
4581.000000	64.680862 
4580.000000	64.677786 
4579.000000	64.685511 
4578.000000	64.703059 
4577.000000	64.727568 
4576.000000	64.754867 
4575.000000	64.780664 
4574.000000	64.801430 
4573.000000	64.814615 
4572.000000	64.819073 
4571.000000	64.814543 
4570.000000	64.801716 
4569.000000	64.781141 
4568.000000	64.753961 
4567.000000	64.721870 
4566.000000	64.687609 
4565.000000	64.654636 
4564.000000	64.627289 
4563.000000	64.609575 
4562.000000	64.605331 
4561.000000	64.616847 
4560.000000	64.645290 
4559.000000	64.689874 
4558.000000	64.748954 
4557.000000	64.819931 
4556.000000	64.899468 
4555.000000	64.983367 
4554.000000	65.066528 
4553.000000	65.143346 
4552.000000	65.207290 
4551.000000	65.251827 
4550.000000	65.271186 
4549.000000	65.261650 
4548.000000	65.222311 
4547.000000	65.155625 
4546.000000	65.068006 
4545.000000	64.968204 
4544.000000	64.866566 
4543.000000	64.772582 
4542.000000	64.693641 
4541.000000	64.633893 
4540.000000	64.594101 
4539.000000	64.572811 
4538.000000	64.566636 
4537.000000	64.572620 
4536.000000	64.588165 
4535.000000	64.612603 
4534.000000	64.645838 
4533.000000	64.689016 
4532.000000	64.742612 
4531.000000	64.806127 
4530.000000	64.876794 
4529.000000	64.949965 
4528.000000	65.019488 
4527.000000	65.078854 
4526.000000	65.122365 
4525.000000	65.146851 
4524.000000	65.152478 
4523.000000	65.142369 
4522.000000	65.121555 
4521.000000	65.096020 
4520.000000	65.070819 
4519.000000	65.048670 
4518.000000	65.029692 
4517.000000	65.012049 
4516.000000	64.993000 
4515.000000	64.970612 
4514.000000	64.944839 
4513.000000	64.918017 
4512.000000	64.894604 
4511.000000	64.880084 
4510.000000	64.879488 
4509.000000	64.895462 
4508.000000	64.927506 
4507.000000	64.971208 
4506.000000	65.019583 
4505.000000	65.064525 
4504.000000	65.098452 
4503.000000	65.116214 
4502.000000	65.116000 
4501.000000	65.099620 
4500.000000	65.071725 
4499.000000	65.038275 
4498.000000	65.004420 
4497.000000	64.973020 
4496.000000	64.944195 
4495.000000	64.915609 
4494.000000	64.883613 
4493.000000	64.844584 
4492.000000	64.796757 
4491.000000	64.740967 
4490.000000	64.679956 
4489.000000	64.618110 
4488.000000	64.560961 
4487.000000	64.513492 
4486.000000	64.478015 
4485.000000	64.453983 
4484.000000	64.438390 
4483.000000	64.426183 
4482.000000	64.411687 
4481.000000	64.389944 
4480.000000	64.358019 
4479.000000	64.315915 
4478.000000	64.264106 
4477.000000	64.207363 
4476.000000	64.153623 
4475.000000	64.112973 
4474.000000	64.093971 
4473.000000	64.106178 
4472.000000	64.158749 
4471.000000	64.252829 
4470.000000	64.380741 
4469.000000	64.525938 
4468.000000	64.666891 
4467.000000	64.787006 
4466.000000	64.879226 
4465.000000	64.942789 
4464.000000	64.985060 
4463.000000	65.023851 
4462.000000	65.079498 
4461.000000	65.167284 
4460.000000	65.292453 
4459.000000	65.447592 
4458.000000	65.614843 
4457.000000	65.770173 
4456.000000	65.892171 
4455.000000	65.967655 
4454.000000	65.999627 
4453.000000	66.001081 
4452.000000	66.004180 
4451.000000	66.046190 
4450.000000	66.175341 
4449.000000	66.433286 
4448.000000	66.860938 
4447.000000	67.488312 
4446.000000	68.322205 
4445.000000	69.339847 
4444.000000	70.466613 
4443.000000	71.579647 
4442.000000	72.513175 
4441.000000	73.087596 
4440.000000	73.136854 
4439.000000	72.552800 
4438.000000	71.318006 
4437.000000	69.524979 
4436.000000	67.375111 
4435.000000	65.140700 
4434.000000	63.123393 
4433.000000	61.580467 
4432.000000	60.674548 
4431.000000	60.437464 
4430.000000	60.768580 
4429.000000	61.470890 
4428.000000	62.308120 
4427.000000	63.060903 
4426.000000	63.575053 
4425.000000	63.786077 
4424.000000	63.703322 
4423.000000	63.403058 
4422.000000	62.970757 
4421.000000	62.504363 
4420.000000	62.080359 
4419.000000	61.758732 
4418.000000	61.579513 
4417.000000	61.560750 
4416.000000	61.704134 
4415.000000	61.988902 
4414.000000	62.378501 
4413.000000	62.824392 
4412.000000	63.275623 
4411.000000	63.682699 
4410.000000	64.008522 
4409.000000	64.233374 
4408.000000	64.357805 
4407.000000	64.401531 
4406.000000	64.395546 
4405.000000	64.370226 
4404.000000	64.349246 
4403.000000	64.350438 
4402.000000	64.378976 
4401.000000	64.427208 
4400.000000	64.482641 
4399.000000	64.541387 
4398.000000	64.602589 
4397.000000	64.671754 
4396.000000	64.754104 
4395.000000	64.849138 
4394.000000	64.951872 
4393.000000	65.052533 
4392.000000	65.138196 
4391.000000	65.196442 
4390.000000	65.216588 
4389.000000	65.192675 
4388.000000	65.126180 
4387.000000	65.026307 
4386.000000	64.907073 
4385.000000	64.784598 
4384.000000	64.674329 
4383.000000	64.587521 
4382.000000	64.530897 
4381.000000	64.504957 
4380.000000	64.503455 
4379.000000	64.516115 
4378.000000	64.532732 
4377.000000	64.544653 
4376.000000	64.544916 
4375.000000	64.531183 
4374.000000	64.504647 
4373.000000	64.470934 
4372.000000	64.436411 
4371.000000	64.408969 
4370.000000	64.395236 
4369.000000	64.400911 
4368.000000	64.428639 
4367.000000	64.480233 
4366.000000	64.556264 
4365.000000	64.656758 
4364.000000	64.780306 
4363.000000	64.924430 
4362.000000	65.084791 
4361.000000	65.254473 
4360.000000	65.423727 
4359.000000	65.581130 
4358.000000	65.714383 
4357.000000	65.812873 
4356.000000	65.868806 
4355.000000	65.878725 
4354.000000	65.843820 
4353.000000	65.771389 
4352.000000	65.671992 
4351.000000	65.558862 
4350.000000	65.444111 
4349.000000	65.338945 
4348.000000	65.249919 
4347.000000	65.179610 
4346.000000	65.125894 
4345.000000	65.083765 
4344.000000	65.047073 
4343.000000	65.010714 
4342.000000	64.971828 
4341.000000	64.930176 
4340.000000	64.887905 
4339.000000	64.847922 
4338.000000	64.812946 
4337.000000	64.783716 
4336.000000	64.759850 
4335.000000	64.739656 
4334.000000	64.721107 
4333.000000	64.702773 
4332.000000	64.684867 
4331.000000	64.669632 
4330.000000	64.659976 
4329.000000	64.658904 
4328.000000	64.668917 
4327.000000	64.690947 
4326.000000	64.723467 
4325.000000	64.762687 
4324.000000	64.803338 
4323.000000	64.839816 
4322.000000	64.867329 
4321.000000	64.883351 
4320.000000	64.887213 
4319.000000	64.880943 
4318.000000	64.868807 
4317.000000	64.856052 
4316.000000	64.847159 
4315.000000	64.845442 
4314.000000	64.852476 
4313.000000	64.867544 
4312.000000	64.888191 
4311.000000	64.910650 
4310.000000	64.931154 
4309.000000	64.946460 
4308.000000	64.954304 
4307.000000	64.953851 
4306.000000	64.945673 
4305.000000	64.930772 
4304.000000	64.910531 
4303.000000	64.886331 
4302.000000	64.859843 
4301.000000	64.833021 
4300.000000	64.808440 
4299.000000	64.789128 
4298.000000	64.778494 
4297.000000	64.779448 
4296.000000	64.793801 
4295.000000	64.821410 
4294.000000	64.860033 
4293.000000	64.905929 
4292.000000	64.953804 
4291.000000	64.998102 
4290.000000	65.033388 
4289.000000	65.055584 
4288.000000	65.062117 
4287.000000	65.052342 
4286.000000	65.027785 
4285.000000	64.991736 
4284.000000	64.948916 
4283.000000	64.904761 
4282.000000	64.864730 
4281.000000	64.833736 
4280.000000	64.815330 
4279.000000	64.811348 
4278.000000	64.821696 
4277.000000	64.844512 
4276.000000	64.876365 
4275.000000	64.913058 
4274.000000	64.950275 
4273.000000	64.984369 
4272.000000	65.012645 
4271.000000	65.033626 
4270.000000	65.046477 
4269.000000	65.051388 
4268.000000	65.049052 
4267.000000	65.040731 
4266.000000	65.028166 
4265.000000	65.013384 
4264.000000	64.999055 
4263.000000	64.987087 
4262.000000	64.978909 
4261.000000	64.974308 
4260.000000	64.971852 
4259.000000	64.968919 
4258.000000	64.962530 
4257.000000	64.950227 
4256.000000	64.930629 
4255.000000	64.904308 
4254.000000	64.873647 
4253.000000	64.842510 
4252.000000	64.815282 
4251.000000	64.795756 
4250.000000	64.786362 
4249.000000	64.787435 
4248.000000	64.797616 
4247.000000	64.814400 
4246.000000	64.834690 
4245.000000	64.855694 
4244.000000	64.875364 
4243.000000	64.892864 
4242.000000	64.908266 
4241.000000	64.921927 
4240.000000	64.934587 
4239.000000	64.946842 
4238.000000	64.959430 
4237.000000	64.972972 
4236.000000	64.987921 
4235.000000	65.004539 
4234.000000	65.022611 
4233.000000	65.041518 
4232.000000	65.060043 
4231.000000	65.076613 
4230.000000	65.089416 
4229.000000	65.096926 
4228.000000	65.098357 
4227.000000	65.093874 
4226.000000	65.084719 
4225.000000	65.072965 
4224.000000	65.060830 
4223.000000	65.050125 
4222.000000	65.041804 
4221.000000	65.035605 
4220.000000	65.030121 
4219.000000	65.023374 
4218.000000	65.013527 
4217.000000	64.999794 
4216.000000	64.982771 
4215.000000	64.964580 
4214.000000	64.948248 
4213.000000	64.936923 
4212.000000	64.933347 
4211.000000	64.938664 
4210.000000	64.951944 
4209.000000	64.970421 
4208.000000	64.990282 
4207.000000	65.007281 
4206.000000	65.017962 
4205.000000	65.020322 
4204.000000	65.014100 
4203.000000	65.000772 
4202.000000	64.983057 
4201.000000	64.964222 
4200.000000	64.947104 
4199.000000	64.933824 
4198.000000	64.925575 
4197.000000	64.922499 
4196.000000	64.924049 
4195.000000	64.929437 
4194.000000	64.937996 
4193.000000	64.949297 
4192.000000	64.962911 
4191.000000	64.978408 
4190.000000	64.994525 
4189.000000	65.009498 
4188.000000	65.020775 
4187.000000	65.025281 
4186.000000	65.020227 
4185.000000	65.003538 
4184.000000	64.974927 
4183.000000	64.936137 
4182.000000	64.891386 
4181.000000	64.846849 
4180.000000	64.809799 
4179.000000	64.787292 
4178.000000	64.784789 
4177.000000	64.804887 
4176.000000	64.846754 
4175.000000	64.906072 
4174.000000	64.976119 
4173.000000	65.048813 
4172.000000	65.116381 
4171.000000	65.172600 
4170.000000	65.213298 
4169.000000	65.236854 
4168.000000	65.243649 
4167.000000	65.235543 
4166.000000	65.215253 
4165.000000	65.185356 
4164.000000	65.148544 
4163.000000	65.107035 
4162.000000	65.063524 
4161.000000	65.020465 
4160.000000	64.980936 
4159.000000	64.947366 
4158.000000	64.921951 
4157.000000	64.905762 
4156.000000	64.898490 
4155.000000	64.898943 
4154.000000	64.904761 
4153.000000	64.913845 
4152.000000	64.924383 
4151.000000	64.935636 
4150.000000	64.947438 
4149.000000	64.960622 
4148.000000	64.976263 
4147.000000	64.995336 
4146.000000	65.018224 
4145.000000	65.044450 
4144.000000	65.072536 
4143.000000	65.100312 
4142.000000	65.124845 
4141.000000	65.142989 
4140.000000	65.151691 
4139.000000	65.148663 
4138.000000	65.132617 
4137.000000	65.103626 
4136.000000	65.062975 
4135.000000	65.013146 
4134.000000	64.957571 
4133.000000	64.900803 
4132.000000	64.847755 
4131.000000	64.803242 
4130.000000	64.771509 
4129.000000	64.755654 
4128.000000	64.757251 
4127.000000	64.776134 
4126.000000	64.810252 
4125.000000	64.855790 
4124.000000	64.908003 
4123.000000	64.961743 
4122.000000	65.012431 
4121.000000	65.056419 
4120.000000	65.091848 
4119.000000	65.118479 
4118.000000	65.137529 
4117.000000	65.150856 
4116.000000	65.160369 
4115.000000	65.167212 
4114.000000	65.171813 
4113.000000	65.173745 
4112.000000	65.172481 
4111.000000	65.167546 
4110.000000	65.159678 
4109.000000	65.150165 
4108.000000	65.141344 
4107.000000	65.135097 
4106.000000	65.132904 
4105.000000	65.134406 
4104.000000	65.137338 
4103.000000	65.137553 
4102.000000	65.130424 
4101.000000	65.111804 
4100.000000	65.079307 
4099.000000	65.033197 
4098.000000	64.976811 
4097.000000	64.915871 
4096.000000	64.857268 
4095.000000	64.807486 
4094.000000	64.771223 
4093.000000	64.750695 
4092.000000	64.745497 
4091.000000	64.752960 
4090.000000	64.769268 
4089.000000	64.790439 
4088.000000	64.813351 
4087.000000	64.835715 
4086.000000	64.856624 
4085.000000	64.875888 
4084.000000	64.894175 
4083.000000	64.911794 
4082.000000	64.928913 
4081.000000	64.945626 
4080.000000	64.961886 
4079.000000	64.978122 
4078.000000	64.994692 
4077.000000	65.012216 
4076.000000	65.030717 
4075.000000	65.049839 
4074.000000	65.068125 
4073.000000	65.083575 
4072.000000	65.093755 
4071.000000	65.096640 
4070.000000	65.091300 
4069.000000	65.078473 
4068.000000	65.060925 
4067.000000	65.043139 
4066.000000	65.030598 
4065.000000	65.028548 
4064.000000	65.040779 
4063.000000	65.068626 
4062.000000	65.109515 
4061.000000	65.157341 
4060.000000	65.203809 
4059.000000	65.239953 
4058.000000	65.258407 
4057.000000	65.255355 
4056.000000	65.231180 
4055.000000	65.190529 
4054.000000	65.141272 
4053.000000	65.092206 
4052.000000	65.050983 
4051.000000	65.022325 
4050.000000	65.007400 
4049.000000	65.003561 
4048.000000	65.005993 
4047.000000	65.008854 
4046.000000	65.007495 
4045.000000	64.999508 
4044.000000	64.985036 
4043.000000	64.966511 
4042.000000	64.947581 
4041.000000	64.931988 
4040.000000	64.922213 
4039.000000	64.919972 
4038.000000	64.925956 
4037.000000	64.940404 
4036.000000	64.963173 
4035.000000	64.993977 
4034.000000	65.032219 
4033.000000	65.076661 
4032.000000	65.125203 
4031.000000	65.174627 
4030.000000	65.220975 
4029.000000	65.260124 
4028.000000	65.288424 
4027.000000	65.303301 
4026.000000	65.303492 
4025.000000	65.289783 
4024.000000	65.264511 
4023.000000	65.231037 
4022.000000	65.193247 
4021.000000	65.155506 
4020.000000	65.121173 
4019.000000	65.092658 
4018.000000	65.070676 
4017.000000	65.055012 
4016.000000	65.043783 
4015.000000	65.034270 
4014.000000	65.023159 
4013.000000	65.007519 
4012.000000	64.985561 
4011.000000	64.957237 
4010.000000	64.924454 
4009.000000	64.890742 
4008.000000	64.860606 
4007.000000	64.838600 
4006.000000	64.827847 
4005.000000	64.829850 
4004.000000	64.843964 
4003.000000	64.868044 
4002.000000	64.898347 
4001.000000	64.931154 
4000.000000	64.963316 
3999.000000	64.993047 
3998.000000	65.019536 
3997.000000	65.043401 
3996.000000	65.065956 
3995.000000	65.088915 
3994.000000	65.113210 
3993.000000	65.139222 
3992.000000	65.166425 
3991.000000	65.193510 
3990.000000	65.219140 
3989.000000	65.241670 
3988.000000	65.259814 
3987.000000	65.272569 
3986.000000	65.279603 
3985.000000	65.280747 
3984.000000	65.276122 
3983.000000	65.266156 
3982.000000	65.251588 
3981.000000	65.233421 
3980.000000	65.212917 
3979.000000	65.191769 
3978.000000	65.171527 
3977.000000	65.153479 
3976.000000	65.138244 
3975.000000	65.125846 
3974.000000	65.115427 
3973.000000	65.105581 
3972.000000	65.094661 
3971.000000	65.081214 
3970.000000	65.064644 
3969.000000	65.045237 
3968.000000	65.024423 
3967.000000	65.004062 
3966.000000	64.986205 
3965.000000	64.972615 
3964.000000	64.964151 
3963.000000	64.960455 
3962.000000	64.960312 
3961.000000	64.962148 
3960.000000	64.964270 
3959.000000	64.965391 
3958.000000	64.964866 
3957.000000	64.962816 
3956.000000	64.959812 
3955.000000	64.956545 
3954.000000	64.953851 
3953.000000	64.952421 
3952.000000	64.952683 
3951.000000	64.955019 
3950.000000	64.959478 
3949.000000	64.965963 
3948.000000	64.974498 
3947.000000	64.985084 
3946.000000	64.997601 
3945.000000	65.011835 
3944.000000	65.027570 
3943.000000	65.044236 
3942.000000	65.060877 
3941.000000	65.076065 
3940.000000	65.088248 
3939.000000	65.095949 
3938.000000	65.097856 
3937.000000	65.093374 
3936.000000	65.082859 
3935.000000	65.067291 
3934.000000	65.048170 
3933.000000	65.027332 
3932.000000	65.006494 
3931.000000	64.987254 
3930.000000	64.970803 
3929.000000	64.957737 
3928.000000	64.948105 
3927.000000	64.941573 
3926.000000	64.937973 
3925.000000	64.936995 
3924.000000	64.938712 
3923.000000	64.943361 
3922.000000	64.951610 
3921.000000	64.963960 
3920.000000	64.980840 
3919.000000	65.002131 
3918.000000	65.026998 
3917.000000	65.053939 
3916.000000	65.081119 
3915.000000	65.106487 
3914.000000	65.128374 
3913.000000	65.145945 
3912.000000	65.159296 
3911.000000	65.169858 
3910.000000	65.179300 
3909.000000	65.189719 
3908.000000	65.201735 
3907.000000	65.214347 
3906.000000	65.224599 
3905.000000	65.228486 
3904.000000	65.221691 
3903.000000	65.201258 
3902.000000	65.166711 
3901.000000	65.120649 
3900.000000	65.068316 
3899.000000	65.016913 
3898.000000	64.973711 
3897.000000	64.944720 
3896.000000	64.933586 
3895.000000	64.940977 
3894.000000	64.964652 
3893.000000	65.000247 
3892.000000	65.042543 
3891.000000	65.086436 
3890.000000	65.127444 
3889.000000	65.162873 
3888.000000	65.191197 
3887.000000	65.212559 
3886.000000	65.227556 
3885.000000	65.237736 
3884.000000	65.244746 
3883.000000	65.250420 
3882.000000	65.256714 
3881.000000	65.265035 
3880.000000	65.276169 
3879.000000	65.289616 
3878.000000	65.303969 
3877.000000	65.316534 
3876.000000	65.324354 
3875.000000	65.324497 
3874.000000	65.314865 
3873.000000	65.295052 
3872.000000	65.266275 
3871.000000	65.231537 
3870.000000	65.194702 
3869.000000	65.159678 
3868.000000	65.129351 
3867.000000	65.105056 
3866.000000	65.086388 
3865.000000	65.070819 
3864.000000	65.055298 
3863.000000	65.036749 
3862.000000	65.014123 
3861.000000	64.988040 
3860.000000	64.961814 
3859.000000	64.940047 
3858.000000	64.928102 
3857.000000	64.930343 
3856.000000	64.948892 
3855.000000	64.982509 
3854.000000	65.026664 
3853.000000	65.074491 
3852.000000	65.117931 
3851.000000	65.149497 
3850.000000	65.164160 
3849.000000	65.160226 
3848.000000	65.139603 
3847.000000	65.107083 
3846.000000	65.069365 
3845.000000	65.033626 
3844.000000	65.005588 
3843.000000	64.988994 
3842.000000	64.985251 
3841.000000	64.993786 
3840.000000	65.012741 
3839.000000	65.039730 
3838.000000	65.072417 
3837.000000	65.109133 
3836.000000	65.148711 
3835.000000	65.190291 
3834.000000	65.232896 
3833.000000	65.275144 
3832.000000	65.315246 
3831.000000	65.350723 
3830.000000	65.379095 
3829.000000	65.397715 
3828.000000	65.404796 
3827.000000	65.399360 
3826.000000	65.381741 
3825.000000	65.353131 
3824.000000	65.315651 
3823.000000	65.271615 
3822.000000	65.223407 
3821.000000	65.172934 
3820.000000	65.121722 
3819.000000	65.070676 
3818.000000	65.020680 
3817.000000	64.972591 
3816.000000	64.927673 
3815.000000	64.887309 
3814.000000	64.853167 
3813.000000	64.826750 
3812.000000	64.809584 
3811.000000	64.802265 
3810.000000	64.804625 
3809.000000	64.815545 
3808.000000	64.833045 
3807.000000	64.854812 
3806.000000	64.878129 
3805.000000	64.900183 
3804.000000	64.918160 
3803.000000	64.929723 
3802.000000	64.932751 
3801.000000	64.925551 
3800.000000	64.907383 
3799.000000	64.878678 
3798.000000	64.841222 
3797.000000	64.797949 
3796.000000	64.752984 
3795.000000	64.711189 
3794.000000	64.677619 
3793.000000	64.656805 
3792.000000	64.652109 
3791.000000	64.665389 
3790.000000	64.696669 
3789.000000	64.744234 
3788.000000	64.804363 
3787.000000	64.872026 
3786.000000	64.941430 
3785.000000	65.006995 
3784.000000	65.063691 
3783.000000	65.108060 
3782.000000	65.138483 
3781.000000	65.155291 
3780.000000	65.160632 
3779.000000	65.157413 
3778.000000	65.149426 
3777.000000	65.139389 
3776.000000	65.129208 
3775.000000	65.118980 
3774.000000	65.107965 
3773.000000	65.094256 
3772.000000	65.076088 
3771.000000	65.052270 
3770.000000	65.022921 
3769.000000	64.989447 
3768.000000	64.954352 
3767.000000	64.920592 
3766.000000	64.891219 
3765.000000	64.868664 
3764.000000	64.854383 
3763.000000	64.848971 
3762.000000	64.851999 
3761.000000	64.862442 
3760.000000	64.878678 
3759.000000	64.898729 
3758.000000	64.920592 
3757.000000	64.942264 
3756.000000	64.961981 
3755.000000	64.977836 
3754.000000	64.988517 
3753.000000	64.993190 
3752.000000	64.991855 
3751.000000	64.985299 
3750.000000	64.975261 
3749.000000	64.964294 
3748.000000	64.955282 
3747.000000	64.950919 
3746.000000	64.953136 
3745.000000	64.962363 
3744.000000	64.977669 
3743.000000	64.996981 
3742.000000	65.017294 
3741.000000	65.035271 
3740.000000	65.048432 
3739.000000	65.055394 
3738.000000	65.056133 
3737.000000	65.051770 
3736.000000	65.044355 
3735.000000	65.036106 
3734.000000	65.028834 
3733.000000	65.023589 
3732.000000	65.020680 
3731.000000	65.019726 
3730.000000	65.020585 
3729.000000	65.023398 
3728.000000	65.028882 
3727.000000	65.037870 
3726.000000	65.051293 
3725.000000	65.069437 
3724.000000	65.091419 
3723.000000	65.115499 
3722.000000	65.138959 
3721.000000	65.159296 
3720.000000	65.174436 
3719.000000	65.183806 
3718.000000	65.188479 
3717.000000	65.191292 
3716.000000	65.195894 
3715.000000	65.205979 
3714.000000	65.224003 
3713.000000	65.250730 
3712.000000	65.284609 
3711.000000	65.321850 
3710.000000	65.357089 
3709.000000	65.384507 
3708.000000	65.398859 
3707.000000	65.396547 
3706.000000	65.376043 
3705.000000	65.338397 
3704.000000	65.286946 
3703.000000	65.226960 
3702.000000	65.164923 
3701.000000	65.107321 
3700.000000	65.059638 
3699.000000	65.025782 
3698.000000	65.007209 
3697.000000	65.002870 
3696.000000	65.009713 
3695.000000	65.023279 
3694.000000	65.038824 
3693.000000	65.052008 
3692.000000	65.060353 
3691.000000	65.063118 
3690.000000	65.061950 
3689.000000	65.059804 
3688.000000	65.060496 
3687.000000	65.067434 
3686.000000	65.082812 
3685.000000	65.106940 
3684.000000	65.138149 
3683.000000	65.172886 
3682.000000	65.206742 
3681.000000	65.234827 
3680.000000	65.252995 
3679.000000	65.258359 
3678.000000	65.249776 
3677.000000	65.227818 
3676.000000	65.194678 
3675.000000	65.153908 
3674.000000	65.109920 
3673.000000	65.066957 
3672.000000	65.028810 
3671.000000	64.998054 
3670.000000	64.976525 
3669.000000	64.964842 
3668.000000	64.962434 
3667.000000	64.968347 
3666.000000	64.981412 
3665.000000	65.000557 
3664.000000	65.024638 
3663.000000	65.052723 
3662.000000	65.083718 
3661.000000	65.116286 
3660.000000	65.148735 
3659.000000	65.178751 
3658.000000	65.203595 
3657.000000	65.220618 
3656.000000	65.227365 
3655.000000	65.222311 
3654.000000	65.204977 
3653.000000	65.176510 
3652.000000	65.139436 
3651.000000	65.097451 
3650.000000	65.054821 
3649.000000	65.016055 
3648.000000	64.985179 
3647.000000	64.965081 
3646.000000	64.957690 
3645.000000	64.963507 
3644.000000	64.982032 
3643.000000	65.011858 
3642.000000	65.051174 
3641.000000	65.097498 
3640.000000	65.148305 
3639.000000	65.200924 
3638.000000	65.252614 
3637.000000	65.300536 
3636.000000	65.341877 
3635.000000	65.374326 
3634.000000	65.395855 
3633.000000	65.405201 
3632.000000	65.401768 
3631.000000	65.385770 
3630.000000	65.358376 
3629.000000	65.321397 
3628.000000	65.277290 
3627.000000	65.228676 
3626.000000	65.178394 
3625.000000	65.129184 
3624.000000	65.083527 
3623.000000	65.043592 
3622.000000	65.010976 
3621.000000	64.986729 
3620.000000	64.971089 
3619.000000	64.963603 
3618.000000	64.962744 
3617.000000	64.966893 
3616.000000	64.973855 
3615.000000	64.982295 
3614.000000	64.991402 
3613.000000	65.001535 
3612.000000	65.013623 
3611.000000	65.029120 
3610.000000	65.049338 
3609.000000	65.074324 
3608.000000	65.102553 
3607.000000	65.130925 
3606.000000	65.155100 
3605.000000	65.170454 
3604.000000	65.173316 
3603.000000	65.162205 
3602.000000	65.138411 
3601.000000	65.106153 
3600.000000	65.071415 
3599.000000	65.040731 
3598.000000	65.019226 
3597.000000	65.009880 
3596.000000	65.012550 
3595.000000	65.024328 
3594.000000	65.040206 
3593.000000	65.055108 
3592.000000	65.064692 
3591.000000	65.066218 
3590.000000	65.059232 
3589.000000	65.044975 
3588.000000	65.026235 
3587.000000	65.005755 
3586.000000	64.986300 
3585.000000	64.969468 
3584.000000	64.956164 
3583.000000	64.946532 
3582.000000	64.940428 
3581.000000	64.937853 
3580.000000	64.938783 
3579.000000	64.943289 
3578.000000	64.951300 
3577.000000	64.962387 
3576.000000	64.975857 
3575.000000	64.990901 
3574.000000	65.006613 
3573.000000	65.022301 
3572.000000	65.037250 
3571.000000	65.051150 
3570.000000	65.063738 
3569.000000	65.074872 
3568.000000	65.084457 
3567.000000	65.092253 
3566.000000	65.098190 
3565.000000	65.102052 
3564.000000	65.103816 
3563.000000	65.103554 
3562.000000	65.101456 
3561.000000	65.098166 
3560.000000	65.094614 
3559.000000	65.092158 
3558.000000	65.092206 
3557.000000	65.096044 
3556.000000	65.104484 
3555.000000	65.117549 
3554.000000	65.134525 
3553.000000	65.153741 
3552.000000	65.172696 
3551.000000	65.188670 
3550.000000	65.199470 
3549.000000	65.203714 
3548.000000	65.201330 
3547.000000	65.193915 
3546.000000	65.184020 
3545.000000	65.174746 
3544.000000	65.168833 
3543.000000	65.168023 
3542.000000	65.172481 
3541.000000	65.181064 
3540.000000	65.191030 
3539.000000	65.199542 
3538.000000	65.203666 
3537.000000	65.201592 
3536.000000	65.193033 
3535.000000	65.178704 
3534.000000	65.160942 
3533.000000	65.142703 
3532.000000	65.127182 
3531.000000	65.116810 
3530.000000	65.113043 
3529.000000	65.116190 
3528.000000	65.125513 
3527.000000	65.139651 
3526.000000	65.156936 
3525.000000	65.175867 
3524.000000	65.195298 
3523.000000	65.214729 
3522.000000	65.234160 
3521.000000	65.253829 
3520.000000	65.274047 
3519.000000	65.294909 
3518.000000	65.316247 
3517.000000	65.337538 
3516.000000	65.358090 
3515.000000	65.376710 
3514.000000	65.392398 
3513.000000	65.403509 
3512.000000	65.408825 
3511.000000	65.406608 
3510.000000	65.395474 
3509.000000	65.374183 
3508.000000	65.342354 
3507.000000	65.300440 
3506.000000	65.250349 
3505.000000	65.195536 
3504.000000	65.140533 
3503.000000	65.090823 
3502.000000	65.051841 
3501.000000	65.028142 
3500.000000	65.022492 
3499.000000	65.035462 
3498.000000	65.065217 
3497.000000	65.107607 
3496.000000	65.156936 
3495.000000	65.207123 
3494.000000	65.252637 
3493.000000	65.289139 
3492.000000	65.314102 
3491.000000	65.326929 
3490.000000	65.328550 
3489.000000	65.321063 
3488.000000	65.306854 
3487.000000	65.288448 
3486.000000	65.267777 
3485.000000	65.246486 
3484.000000	65.225648 
3483.000000	65.206170 
3482.000000	65.188527 
3481.000000	65.173292 
3480.000000	65.160751 
3479.000000	65.150737 
3478.000000	65.142607 
3477.000000	65.135288 
3476.000000	65.127635 
3475.000000	65.118479 
3474.000000	65.107154 
3473.000000	65.093564 
3472.000000	65.078067 
3471.000000	65.061354 
3470.000000	65.044379 
3469.000000	65.028047 
3468.000000	65.013051 
3467.000000	65.000033 
3466.000000	64.989304 
3465.000000	64.981126 
3464.000000	64.975881 
3463.000000	64.973878 
3462.000000	64.975214 
3461.000000	64.979982 
3460.000000	64.988303 
3459.000000	65.000438 
3458.000000	65.016317 
3457.000000	65.035843 
3456.000000	65.058755 
3455.000000	65.084409 
3454.000000	65.111899 
3453.000000	65.139484 
3452.000000	65.164685 
3451.000000	65.184497 
3450.000000	65.196013 
3449.000000	65.197110 
3448.000000	65.187048 
3447.000000	65.166926 
3446.000000	65.139842 
3445.000000	65.110087 
3444.000000	65.082502 
3443.000000	65.061521 
3442.000000	65.050077 
3441.000000	65.049314 
3440.000000	65.058231 
3439.000000	65.074229 
3438.000000	65.093493 
3437.000000	65.111756 
3436.000000	65.125083 
3435.000000	65.130186 
3434.000000	65.125155 
3433.000000	65.109395 
3432.000000	65.083885 
3431.000000	65.050864 
3430.000000	65.013909 
3429.000000	64.977383 
3428.000000	64.946103 
3427.000000	64.924430 
3426.000000	64.915418 
3425.000000	64.920353 
3424.000000	64.938044 
3423.000000	64.964985 
3422.000000	64.996099 
3421.000000	65.025806 
3420.000000	65.049195 
3419.000000	65.063238 
3418.000000	65.067005 
3417.000000	65.061974 
3416.000000	65.051317 
3415.000000	65.038967 
3414.000000	65.028333 
3413.000000	65.021276 
3412.000000	65.017962 
3411.000000	65.016818 
3410.000000	65.015125 
3409.000000	65.009856 
3408.000000	64.998888 
3407.000000	64.981603 
3406.000000	64.959096 
3405.000000	64.933919 
3404.000000	64.909386 
3403.000000	64.888477 
3402.000000	64.872956 
3401.000000	64.863228 
3400.000000	64.858198 
3399.000000	64.855861 
3398.000000	64.853668 
3397.000000	64.849925 
3396.000000	64.844012 
3395.000000	64.837360 
3394.000000	64.832711 
3393.000000	64.833784 
3392.000000	64.843940 
3391.000000	64.865732 
3390.000000	64.899969 
3389.000000	64.945220 
3388.000000	64.997887 
3387.000000	65.053033 
3386.000000	65.105199 
3385.000000	65.149283 
3384.000000	65.181398 
3383.000000	65.199255 
3382.000000	65.202713 
3381.000000	65.193510 
3380.000000	65.175056 
3379.000000	65.151906 
3378.000000	65.129113 
3377.000000	65.111613 
3376.000000	65.103268 
3375.000000	65.106630 
3374.000000	65.122032 
3373.000000	65.148138 
3372.000000	65.181446 
3371.000000	65.217161 
3370.000000	65.249705 
3369.000000	65.274047 
3368.000000	65.286231 
3367.000000	65.284109 
3366.000000	65.267491 
3365.000000	65.238118 
3364.000000	65.198898 
3363.000000	65.153431 
3362.000000	65.105319 
3361.000000	65.057611 
3360.000000	65.012860 
3359.000000	64.973092 
3358.000000	64.939975 
3357.000000	64.914822 
3356.000000	64.898657 
3355.000000	64.892148 
3354.000000	64.894700 
3353.000000	64.904975 
3352.000000	64.920711 
3351.000000	64.939641 
3350.000000	64.959073 
3349.000000	64.977288 
3348.000000	64.993453 
3347.000000	65.008115 
3346.000000	65.022659 
3345.000000	65.038704 
3344.000000	65.057396 
3343.000000	65.078783 
3342.000000	65.101456 
3341.000000	65.122938 
3340.000000	65.140390 
3339.000000	65.151286 
3338.000000	65.154433 
3337.000000	65.150284 
3336.000000	65.140986 
3335.000000	65.130043 
3334.000000	65.121245 
3333.000000	65.117788 
3332.000000	65.121388 
3331.000000	65.132069 
3330.000000	65.147972 
3329.000000	65.165829 
3328.000000	65.181684 
3327.000000	65.191936 
3326.000000	65.194129 
3325.000000	65.187287 
3324.000000	65.172004 
3323.000000	65.150356 
3322.000000	65.125036 
3321.000000	65.098810 
3320.000000	65.073871 
3319.000000	65.051555 
3318.000000	65.032219 
3317.000000	65.015554 
3316.000000	65.000963 
3315.000000	64.987921 
3314.000000	64.976477 
3313.000000	64.967226 
3312.000000	64.961194 
3311.000000	64.959454 
3310.000000	64.962673 
3309.000000	64.970684 
3308.000000	64.982104 
3307.000000	64.994668 
3306.000000	65.005517 
3305.000000	65.012049 
3304.000000	65.012335 
3303.000000	65.005469 
3302.000000	64.992094 
3301.000000	64.974021 
3300.000000	64.953875 
3299.000000	64.934706 
3298.000000	64.919209 
3297.000000	64.909458 
3296.000000	64.906597 
3295.000000	64.910697 
3294.000000	64.921212 
3293.000000	64.936995 
3292.000000	64.956831 
3291.000000	64.979553 
3290.000000	65.003943 
3289.000000	65.029168 
3288.000000	65.054559 
3287.000000	65.079355 
3286.000000	65.102696 
3285.000000	65.123534 
3284.000000	65.140867 
3283.000000	65.153479 
3282.000000	65.160346 
3281.000000	65.160655 
3280.000000	65.154218 
3279.000000	65.141654 
3278.000000	65.124368 
3277.000000	65.104556 
3276.000000	65.084695 
3275.000000	65.067219 
3274.000000	65.054082 
3273.000000	65.046334 
3272.000000	65.044093 
3271.000000	65.046525 
3270.000000	65.052485 
3269.000000	65.060544 
3268.000000	65.069508 
3267.000000	65.078544 
3266.000000	65.087485 
3265.000000	65.096235 
3264.000000	65.105104 
3263.000000	65.114521 
3262.000000	65.124654 
3261.000000	65.135407 
3260.000000	65.146303 
3259.000000	65.156769 
3258.000000	65.165972 
3257.000000	65.173077 
3256.000000	65.177106 
3255.000000	65.177345 
3254.000000	65.173101 
3253.000000	65.164232 
3252.000000	65.151119 
3251.000000	65.134763 
3250.000000	65.116930 
3249.000000	65.099596 
3248.000000	65.084695 
3247.000000	65.073537 
3246.000000	65.066742 
3245.000000	65.063858 
3244.000000	65.063452 
3243.000000	65.063405 
3242.000000	65.061497 
3241.000000	65.055489 
3240.000000	65.043854 
3239.000000	65.025973 
3238.000000	65.001821 
3237.000000	64.972543 
3236.000000	64.940094 
3235.000000	64.907097 
3234.000000	64.876317 
3233.000000	64.850592 
3232.000000	64.832234 
3231.000000	64.822840 
3230.000000	64.822959 
3229.000000	64.831924 
3228.000000	64.847993 
3227.000000	64.868521 
3226.000000	64.890480 
3225.000000	64.911031 
3224.000000	64.928054 
3223.000000	64.940714 
3222.000000	64.949321 
3221.000000	64.955210 
3220.000000	64.960193 
3219.000000	64.966201 
3218.000000	64.974355 
3217.000000	64.984631 
3216.000000	64.995598 
3215.000000	65.005111 
3214.000000	65.010404 
3213.000000	65.009093 
3212.000000	64.999556 
3211.000000	64.981746 
3210.000000	64.957022 
3209.000000	64.928126 
3208.000000	64.898705 
3207.000000	64.872503 
3206.000000	64.852714 
3205.000000	64.841413 
3204.000000	64.839434 
3203.000000	64.846420 
3202.000000	64.860987 
3201.000000	64.881277 
3200.000000	64.905405 
3199.000000	64.931559 
3198.000000	64.958596 
3197.000000	64.985680 
3196.000000	65.012168 
3195.000000	65.037345 
3194.000000	65.060329 
3193.000000	65.080046 
3192.000000	65.095186 
3191.000000	65.104579 
3190.000000	65.107703 
3189.000000	65.104722 
3188.000000	65.096783 
3187.000000	65.085387 
3186.000000	65.072345 
3185.000000	65.059065 
3184.000000	65.046477 
3183.000000	65.034747 
3182.000000	65.023446 
3181.000000	65.011954 
3180.000000	64.999747 
3179.000000	64.986777 
3178.000000	64.973378 
3177.000000	64.960384 
3176.000000	64.948940 
3175.000000	64.940071 
3174.000000	64.934086 
3173.000000	64.930915 
3172.000000	64.929723 
3171.000000	64.929175 
3170.000000	64.927458 
3169.000000	64.922809 
3168.000000	64.913773 
3167.000000	64.899420 
3166.000000	64.879679 
3165.000000	64.855122 
3164.000000	64.827084 
3163.000000	64.797544 
3162.000000	64.768981 
3161.000000	64.743900 
3160.000000	64.724802 
3159.000000	64.713692 
3158.000000	64.711880 
3157.000000	64.719605 
3156.000000	64.736127 
3155.000000	64.759612 
3154.000000	64.787650 
3153.000000	64.817333 
3152.000000	64.846062 
3151.000000	64.871811 
3150.000000	64.893627 
3149.000000	64.911460 
3148.000000	64.926171 
3147.000000	64.939069 
3146.000000	64.951634 
3145.000000	64.964914 
3144.000000	64.979243 
3143.000000	64.994311 
3142.000000	65.009284 
3141.000000	65.023231 
3140.000000	65.035438 
3139.000000	65.045762 
3138.000000	65.054750 
3137.000000	65.063333 
3136.000000	65.072512 
3135.000000	65.082907 
3134.000000	65.094733 
3133.000000	65.107202 
3132.000000	65.119028 
3131.000000	65.128540 
3130.000000	65.134501 
3129.000000	65.135836 
3128.000000	65.132355 
3127.000000	65.124297 
3126.000000	65.112686 
3125.000000	65.098595 
3124.000000	65.083360 
3123.000000	65.068006 
3122.000000	65.053176 
3121.000000	65.039372 
3120.000000	65.026998 
3119.000000	65.016293 
3118.000000	65.007305 
3117.000000	65.000081 
3116.000000	64.994525 
3115.000000	64.990258 
3114.000000	64.986562 
3113.000000	64.982581 
3112.000000	64.977645 
3111.000000	64.971232 
3110.000000	64.963340 
3109.000000	64.954257 
3108.000000	64.945054 
3107.000000	64.936900 
3106.000000	64.931344 
3105.000000	64.929699 
3104.000000	64.933013 
3103.000000	64.941573 
3102.000000	64.954733 
3101.000000	64.971137 
3100.000000	64.988255 
3099.000000	65.003252 
3098.000000	65.013170 
3097.000000	65.015602 
3096.000000	65.009140 
3095.000000	64.993739 
3094.000000	64.970660 
3093.000000	64.942169 
3092.000000	64.911270 
3091.000000	64.881229 
3090.000000	64.854741 
3089.000000	64.833688 
3088.000000	64.818906 
3087.000000	64.810466 
3086.000000	64.807844 
3085.000000	64.810466 
3084.000000	64.817690 
3083.000000	64.829254 
3082.000000	64.845132 
3081.000000	64.865422 
3080.000000	64.889717 
3079.000000	64.916872 
3078.000000	64.945197 
3077.000000	64.972138 
3076.000000	64.994859 
3075.000000	65.010762 
3074.000000	65.017795 
3073.000000	65.015363 
3072.000000	65.004324 
3071.000000	64.987039 
3070.000000	64.966988 
3069.000000	64.948105 
3068.000000	64.934206 
3067.000000	64.928078 
3066.000000	64.931154 
3065.000000	64.943099 
3064.000000	64.962053 
3063.000000	64.984846 
3062.000000	65.007853 
3061.000000	65.027451 
3060.000000	65.040946 
3059.000000	65.046834 
3058.000000	65.044903 
3057.000000	65.036249 
3056.000000	65.022706 
3055.000000	65.006422 
3054.000000	64.989233 
3053.000000	64.972472 
3052.000000	64.956808 
3051.000000	64.942407 
3050.000000	64.929246 
3049.000000	64.917397 
3048.000000	64.907598 
3047.000000	64.901041 
3046.000000	64.899349 
3045.000000	64.903974 
3044.000000	64.915680 
3043.000000	64.934039 
3042.000000	64.957213 
3041.000000	64.982295 
3040.000000	65.005493 
3039.000000	65.023183 
3038.000000	65.032649 
3037.000000	65.032696 
3036.000000	65.023803 
3035.000000	65.007877 
3034.000000	64.987802 
3033.000000	64.966750 
3032.000000	64.947557 
3031.000000	64.932084 
3030.000000	64.921116 
3029.000000	64.914441 
3028.000000	64.911508 
3027.000000	64.911389 
3026.000000	64.913487 
3025.000000	64.917302 
3024.000000	64.922475 
3023.000000	64.928960 
3022.000000	64.936208 
3021.000000	64.943981 
3020.000000	64.951896 
3019.000000	64.960050 
3018.000000	64.968705 
3017.000000	64.978623 
3016.000000	64.990782 
3015.000000	65.005946 
3014.000000	65.024590 
3013.000000	65.046405 
3012.000000	65.070414 
3011.000000	65.094971 
3010.000000	65.118050 
3009.000000	65.137553 
3008.000000	65.151619 
3007.000000	65.159106 
3006.000000	65.159392 
3005.000000	65.152668 
3004.000000	65.139460 
3003.000000	65.120816 
3002.000000	65.097737 
3001.000000	65.071463 
3000.000000	65.043044 
2999.000000	65.013718 
2998.000000	64.984726 
2997.000000	64.957427 
2996.000000	64.933204 
2995.000000	64.913296 
2994.000000	64.898896 
2993.000000	64.890694 
2992.000000	64.889073 
2991.000000	64.893627 
2990.000000	64.903187 
2989.000000	64.915871 
2988.000000	64.929366 
2987.000000	64.941167 
2986.000000	64.949202 
2985.000000	64.952158 
2984.000000	64.949798 
2983.000000	64.942884 
2982.000000	64.933085 
2981.000000	64.922451 
2980.000000	64.912915 
2979.000000	64.905643 
2978.000000	64.901185 
2977.000000	64.898896 
2976.000000	64.897704 
2975.000000	64.895939 
2974.000000	64.892125 
2973.000000	64.885163 
2972.000000	64.874720 
2971.000000	64.861392 
2970.000000	64.846205 
2969.000000	64.830851 
2968.000000	64.817094 
2967.000000	64.806699 
2966.000000	64.800786 
2965.000000	64.800024 
2964.000000	64.804506 
2963.000000	64.813923 
2962.000000	64.827466 
2961.000000	64.843988 
2960.000000	64.862275 
2959.000000	64.880967 
2958.000000	64.898729 
2957.000000	64.914345 
2956.000000	64.926600 
2955.000000	64.934754 
2954.000000	64.938354 
2953.000000	64.937496 
2952.000000	64.932632 
2951.000000	64.924788 
2950.000000	64.915037 
2949.000000	64.904832 
2948.000000	64.895224 
2947.000000	64.886927 
2946.000000	64.880108 
2945.000000	64.874577 
2944.000000	64.869976 
2943.000000	64.865946 
2942.000000	64.862418 
2941.000000	64.859557 
2940.000000	64.857745 
2939.000000	64.857125 
2938.000000	64.857554 
2937.000000	64.858627 
2936.000000	64.859533 
2935.000000	64.859318 
2934.000000	64.857220 
2933.000000	64.853048 
2932.000000	64.846920 
2931.000000	64.839172 
2930.000000	64.830231 
2929.000000	64.820313 
2928.000000	64.809274 
2927.000000	64.796757 
2926.000000	64.782309 
2925.000000	64.765858 
2924.000000	64.747762 
2923.000000	64.729237 
2922.000000	64.711952 
2921.000000	64.697957 
2920.000000	64.688944 
2919.000000	64.686012 
2918.000000	64.688992 
2917.000000	64.696812 
2916.000000	64.707326 
2915.000000	64.718198 
2914.000000	64.727258 
2913.000000	64.733266 
2912.000000	64.736223 
2911.000000	64.737319 
2910.000000	64.738392 
2909.000000	64.741468 
2908.000000	64.748096 
2907.000000	64.759039 
2906.000000	64.773845 
2905.000000	64.791464 
2904.000000	64.810371 
2903.000000	64.829277 
2902.000000	64.847326 
2901.000000	64.864087 
2900.000000	64.879560 
2899.000000	64.893722 
2898.000000	64.906501 
2897.000000	64.917516 
2896.000000	64.925980 
2895.000000	64.931392 
2894.000000	64.933443 
2893.000000	64.932441 
2892.000000	64.929127 
2891.000000	64.924883 
2890.000000	64.920997 
2889.000000	64.918351 
2888.000000	64.916872 
2887.000000	64.915871 
2886.000000	64.913654 
2885.000000	64.908385 
2884.000000	64.898395 
2883.000000	64.882802 
2882.000000	64.861726 
2881.000000	64.836406 
2880.000000	64.809036 
2879.000000	64.782118 
2878.000000	64.758443 
2877.000000	64.740562 
2876.000000	64.730620 
2875.000000	64.730000 
2874.000000	64.739370 
2873.000000	64.758896 
2872.000000	64.787817 
2871.000000	64.824557 
2870.000000	64.866662 
2869.000000	64.911127 
2868.000000	64.954328 
2867.000000	64.992713 
2866.000000	65.022993 
2865.000000	65.042853 
2864.000000	65.051317 
2863.000000	65.048789 
2862.000000	65.037202 
2861.000000	65.019488 
2860.000000	64.999175 
2859.000000	64.979767 
2858.000000	64.964342 
2857.000000	64.954924 
2856.000000	64.952540 
2855.000000	64.957046 
2854.000000	64.967179 
2853.000000	64.981007 
2852.000000	64.996099 
2851.000000	65.010094 
2850.000000	65.020895 
2849.000000	65.026974 
2848.000000	65.027546 
2847.000000	65.022468 
2846.000000	65.012264 
2845.000000	64.997982 
2844.000000	64.981055 
2843.000000	64.963269 
2842.000000	64.946365 
2841.000000	64.931988 
2840.000000	64.921236 
2839.000000	64.914822 
2838.000000	64.912748 
2837.000000	64.914393 
2836.000000	64.918684 
2835.000000	64.924526 
2834.000000	64.930987 
2833.000000	64.937281 
2832.000000	64.942884 
2831.000000	64.947676 
2830.000000	64.951729 
2829.000000	64.955139 
2828.000000	64.957904 
2827.000000	64.959931 
2826.000000	64.960980 
2825.000000	64.961028 
2824.000000	64.959979 
2823.000000	64.957952 
2822.000000	64.955067 
2821.000000	64.951658 
2820.000000	64.947819 
2819.000000	64.943575 
2818.000000	64.938640 
2817.000000	64.932799 
2816.000000	64.925956 
2815.000000	64.918160 
2814.000000	64.909958 
2813.000000	64.902043 
2812.000000	64.895105 
2811.000000	64.889788 
2810.000000	64.886331 
2809.000000	64.884734 
2808.000000	64.884638 
2807.000000	64.885830 
2806.000000	64.888119 
2805.000000	64.891719 
2804.000000	64.896750 
2803.000000	64.903545 
2802.000000	64.912176 
2801.000000	64.922690 
2800.000000	64.934778 
2799.000000	64.948177 
2798.000000	64.962434 
2797.000000	64.977169 
2796.000000	64.992094 
2795.000000	65.006947 
2794.000000	65.021371 
2793.000000	65.034651 
2792.000000	65.045714 
2791.000000	65.053319 
2790.000000	65.056085 
2789.000000	65.052890 
2788.000000	65.043258 
2787.000000	65.027713 
2786.000000	65.007638 
2785.000000	64.985108 
2784.000000	64.962673 
2783.000000	64.942789 
2782.000000	64.927506 
2781.000000	64.918255 
2780.000000	64.915490 
2779.000000	64.918899 
2778.000000	64.927339 
2777.000000	64.938998 
2776.000000	64.951801 
2775.000000	64.963436 
2774.000000	64.971852 
2773.000000	64.975523 
2772.000000	64.973664 
2771.000000	64.966082 
2770.000000	64.953589 
2769.000000	64.937543 
2768.000000	64.919710 
2767.000000	64.901852 
2766.000000	64.885520 
2765.000000	64.871931 
2764.000000	64.861750 
2763.000000	64.855217 
2762.000000	64.852428 
2761.000000	64.853310 
2760.000000	64.857792 
2759.000000	64.865589 
2758.000000	64.876246 
2757.000000	64.888882 
2756.000000	64.902091 
2755.000000	64.914202 
2754.000000	64.923596 
2753.000000	64.929127 
2752.000000	64.930295 
2751.000000	64.927697 
2750.000000	64.922523 
2749.000000	64.916515 
2748.000000	64.911484 
2747.000000	64.908862 
2746.000000	64.909219 
2745.000000	64.912295 
2744.000000	64.917039 
2743.000000	64.922213 
2742.000000	64.926528 
2741.000000	64.929318 
2740.000000	64.930820 
2739.000000	64.932012 
2738.000000	64.934301 
2737.000000	64.939308 
2736.000000	64.948081 
2735.000000	64.960932 
2734.000000	64.977002 
2733.000000	64.994764 
2732.000000	65.011811 
2731.000000	65.025544 
2730.000000	65.033578 
2729.000000	65.034365 
2728.000000	65.027499 
2727.000000	65.013766 
2726.000000	64.995026 
2725.000000	64.973855 
2724.000000	64.953041 
2723.000000	64.935064 
2722.000000	64.921545 
2721.000000	64.913082 
2720.000000	64.909577 
2719.000000	64.910292 
2718.000000	64.914393 
2717.000000	64.921188 
2716.000000	64.930367 
2715.000000	64.942169 
2714.000000	64.956974 
2713.000000	64.975118 
2712.000000	64.996290 
2711.000000	65.019536 
2710.000000	65.043115 
2709.000000	65.064787 
2708.000000	65.082216 
2707.000000	65.093398 
2706.000000	65.097308 
2705.000000	65.093946 
2704.000000	65.084314 
2703.000000	65.070152 
2702.000000	65.053653 
2701.000000	65.036821 
2700.000000	65.021300 
2699.000000	65.007877 
2698.000000	64.996862 
2697.000000	64.987730 
2696.000000	64.979696 
2695.000000	64.971780 
2694.000000	64.963245 
2693.000000	64.953589 
2692.000000	64.942693 
2691.000000	64.930987 
2690.000000	64.919114 
2689.000000	64.907956 
2688.000000	64.898681 
2687.000000	64.892220 
2686.000000	64.889430 
2685.000000	64.890885 
2684.000000	64.896869 
2683.000000	64.907312 
2682.000000	64.921522 
2681.000000	64.938569 
2680.000000	64.957213 
2679.000000	64.975953 
2678.000000	64.993333 
2677.000000	65.008115 
2676.000000	65.019440 
2675.000000	65.026903 
2674.000000	65.030431 
2673.000000	65.030360 
2672.000000	65.027236 
2671.000000	65.021920 
2670.000000	65.015268 
2669.000000	65.007972 
2668.000000	65.000677 
2667.000000	64.994072 
2666.000000	64.988398 
2665.000000	64.983868 
2664.000000	64.980268 
2663.000000	64.977383 
2662.000000	64.974761 
2661.000000	64.971780 
2660.000000	64.967894 
2659.000000	64.962673 
2658.000000	64.955759 
2657.000000	64.947032 
2656.000000	64.936661 
2655.000000	64.925122 
2654.000000	64.913129 
2653.000000	64.901661 
2652.000000	64.891624 
2651.000000	64.883732 
2650.000000	64.878487 
2649.000000	64.875960 
2648.000000	64.875698 
2647.000000	64.877033 
2646.000000	64.878892 
2645.000000	64.880609 
2644.000000	64.881324 
2643.000000	64.880847 
2642.000000	64.879274 
2641.000000	64.877200 
2640.000000	64.875459 
2639.000000	64.874982 
2638.000000	64.876461 
2637.000000	64.880633 
2636.000000	64.887809 
2635.000000	64.898037 
2634.000000	64.911055 
2633.000000	64.926290 
2632.000000	64.943003 
2631.000000	64.960074 
2630.000000	64.976048 
2629.000000	64.989304 
2628.000000	64.998102 
2627.000000	65.001153 
2626.000000	64.997553 
2625.000000	64.987206 
2624.000000	64.970946 
2623.000000	64.950275 
2622.000000	64.927148 
2621.000000	64.903736 
2620.000000	64.881944 
2619.000000	64.863252 
2618.000000	64.848256 
2617.000000	64.837121 
2616.000000	64.829277 
2615.000000	64.824128 
2614.000000	64.821076 
2613.000000	64.819622 
2612.000000	64.819765 
2611.000000	64.821791 
2610.000000	64.826297 
2609.000000	64.833736 
2608.000000	64.844346 
2607.000000	64.857912 
2606.000000	64.873719 
2605.000000	64.890623 
2604.000000	64.907026 
2603.000000	64.921236 
2602.000000	64.931702 
2601.000000	64.937424 
2600.000000	64.938020 
2599.000000	64.933776 
2598.000000	64.925837 
2597.000000	64.915752 
2596.000000	64.905691 
2595.000000	64.897513 
2594.000000	64.892697 
2593.000000	64.891648 
2592.000000	64.893817 
2591.000000	64.897537 
2590.000000	64.900398 
2589.000000	64.899969 
2588.000000	64.894366 
2587.000000	64.883017 
2586.000000	64.866948 
2585.000000	64.848518 
2584.000000	64.830994 
2583.000000	64.817953 
2582.000000	64.812326 
2581.000000	64.815902 
2580.000000	64.828872 
2579.000000	64.849901 
2578.000000	64.876294 
2577.000000	64.904761 
2576.000000	64.932012 
2575.000000	64.955139 
2574.000000	64.972066 
2573.000000	64.981627 
2572.000000	64.983367 
2571.000000	64.977526 
2570.000000	64.964723 
2569.000000	64.945840 
2568.000000	64.921927 
2567.000000	64.894437 
2566.000000	64.864945 
2565.000000	64.835214 
2564.000000	64.807009 
2563.000000	64.782261 
2562.000000	64.762544 
2561.000000	64.749217 
2560.000000	64.742922 
2559.000000	64.743709 
2558.000000	64.750981 
2557.000000	64.763212 
2556.000000	64.778470 
2555.000000	64.794301 
2554.000000	64.808368 
2553.000000	64.818501 
2552.000000	64.823317 
2551.000000	64.822435 
2550.000000	64.816451 
2549.000000	64.807105 
2548.000000	64.796781 
2547.000000	64.788246 
2546.000000	64.783859 
2545.000000	64.785385 
2544.000000	64.793372 
2543.000000	64.807319 
2542.000000	64.825940 
2541.000000	64.847278 
2540.000000	64.869189 
2539.000000	64.889621 
2538.000000	64.906883 
2537.000000	64.919829 
2536.000000	64.927554 
2535.000000	64.930033 
2534.000000	64.927697 
2533.000000	64.921593 
2532.000000	64.913344 
2531.000000	64.904808 
2530.000000	64.897775 
2529.000000	64.893794 
2528.000000	64.894008 
2527.000000	64.898872 
2526.000000	64.908242 
2525.000000	64.921474 
2524.000000	64.937591 
2523.000000	64.955639 
2522.000000	64.974927 
2521.000000	64.995121 
2520.000000	65.015769 
2519.000000	65.036320 
2518.000000	65.055727 
2517.000000	65.072703 
2516.000000	65.085363 
2515.000000	65.091848 
2514.000000	65.090298 
2513.000000	65.079760 
2512.000000	65.059828 
2511.000000	65.031313 
2510.000000	64.995837 
2509.000000	64.955615 
2508.000000	64.913558 
2507.000000	64.872860 
2506.000000	64.836788 
2505.000000	64.808225 
2504.000000	64.789295 
2503.000000	64.781260 
2502.000000	64.783906 
2501.000000	64.795517 
2500.000000	64.813113 
2499.000000	64.832925 
2498.000000	64.850902 
2497.000000	64.863443 
2496.000000	64.868283 
2495.000000	64.865112 
2494.000000	64.855599 
2493.000000	64.842891 
2492.000000	64.831042 
2491.000000	64.823961 
2490.000000	64.824724 
2489.000000	64.834666 
2488.000000	64.853334 
2487.000000	64.878654 
2486.000000	64.907479 
2485.000000	64.936017 
2484.000000	64.960765 
2483.000000	64.978790 
2482.000000	64.988279 
2481.000000	64.988493 
2480.000000	64.979648 
2479.000000	64.962840 
2478.000000	64.939904 
2477.000000	64.912772 
2476.000000	64.883494 
2475.000000	64.853811 
2474.000000	64.825320 
2473.000000	64.799189 
2472.000000	64.776253 
2471.000000	64.757061 
2470.000000	64.741897 
2469.000000	64.731192 
2468.000000	64.725565 
2467.000000	64.725637 
2466.000000	64.731979 
2465.000000	64.744925 
2464.000000	64.764404 
2463.000000	64.789438 
2462.000000	64.818382 
2461.000000	64.848804 
2460.000000	64.877939 
2459.000000	64.903163 
2458.000000	64.922451 
2457.000000	64.934849 
2456.000000	64.940547 
2455.000000	64.940857 
2454.000000	64.937782 
2453.000000	64.933776 
2452.000000	64.930868 
2451.000000	64.930415 
2450.000000	64.932489 
2449.000000	64.936304 
2448.000000	64.940071 
2447.000000	64.941787 
2446.000000	64.939403 
2445.000000	64.931464 
2444.000000	64.917397 
2443.000000	64.897656 
2442.000000	64.873647 
2441.000000	64.847373 
2440.000000	64.821314 
2439.000000	64.797997 
2438.000000	64.779520 
2437.000000	64.767503 
2436.000000	64.762759 
2435.000000	64.765310 
2434.000000	64.774322 
2433.000000	64.788341 
2432.000000	64.805245 
2431.000000	64.822673 
2430.000000	64.838194 
2429.000000	64.849901 
2428.000000	64.856362 
2427.000000	64.857196 
2426.000000	64.852809 
2425.000000	64.844584 
2424.000000	64.834380 
2423.000000	64.824128 
2422.000000	64.815425 
2421.000000	64.809179 
2420.000000	64.805722 
2419.000000	64.804601 
2418.000000	64.805102 
2417.000000	64.806556 
2416.000000	64.808630 
2415.000000	64.811468 
2414.000000	64.815568 
2413.000000	64.821648 
2412.000000	64.829945 
2411.000000	64.840197 
2410.000000	64.851260 
2409.000000	64.861512 
2408.000000	64.868950 
2407.000000	64.871835 
2406.000000	64.869189 
2405.000000	64.861226 
2404.000000	64.849448 
2403.000000	64.836263 
2402.000000	64.824581 
2401.000000	64.817023 
2400.000000	64.815402 
2399.000000	64.820337 
2398.000000	64.831161 
2397.000000	64.845991 
2396.000000	64.862227 
2395.000000	64.877128 
2394.000000	64.888405 
2393.000000	64.894700 
2392.000000	64.895653 
2391.000000	64.891767 
2390.000000	64.884352 
2389.000000	64.874911 
2388.000000	64.864802 
2387.000000	64.854931 
2386.000000	64.845681 
2385.000000	64.836978 
2384.000000	64.828491 
2383.000000	64.819836 
2382.000000	64.810967 
2381.000000	64.802145 
2380.000000	64.793801 
2379.000000	64.786577 
2378.000000	64.780855 
2377.000000	64.776849 
2376.000000	64.774131 
2375.000000	64.772057 
2374.000000	64.769673 
2373.000000	64.766311 
2372.000000	64.761662 
2371.000000	64.755988 
2370.000000	64.750075 
2369.000000	64.744997 
2368.000000	64.741659 
2367.000000	64.740562 
2366.000000	64.741492 
2365.000000	64.743661 
2364.000000	64.746069 
2363.000000	64.747595 
2362.000000	64.747500 
2361.000000	64.745473 
2360.000000	64.741778 
2359.000000	64.737105 
2358.000000	64.732527 
2357.000000	64.728999 
2356.000000	64.727401 
2355.000000	64.728450 
2354.000000	64.732694 
2353.000000	64.740633 
2352.000000	64.752435 
2351.000000	64.768338 
2350.000000	64.788031 
2349.000000	64.810729 
2348.000000	64.834785 
2347.000000	64.858174 
2346.000000	64.878439 
2345.000000	64.893245 
2344.000000	64.900708 
2343.000000	64.899992 
2342.000000	64.891171 
2341.000000	64.875411 
2340.000000	64.854598 
2339.000000	64.830946 
2338.000000	64.806771 
2337.000000	64.784240 
2336.000000	64.765238 
2335.000000	64.751124 
2334.000000	64.742946 
2333.000000	64.741325 
2332.000000	64.746332 
2331.000000	64.757251 
2330.000000	64.772701 
2329.000000	64.790630 
2328.000000	64.808225 
2327.000000	64.822697 
2326.000000	64.831733 
2325.000000	64.833974 
2324.000000	64.829254 
2323.000000	64.818692 
2322.000000	64.804482 
2321.000000	64.789128 
2320.000000	64.775037 
2319.000000	64.763855 
2318.000000	64.756202 
2317.000000	64.751577 
2316.000000	64.748907 
2315.000000	64.746689 
2314.000000	64.743638 
2313.000000	64.738726 
2312.000000	64.731788 
2311.000000	64.723277 
2310.000000	64.714121 
2309.000000	64.705419 
2308.000000	64.698171 
2307.000000	64.693212 
2306.000000	64.690971 
2305.000000	64.691615 
2304.000000	64.695024 
2303.000000	64.700651 
2302.000000	64.707851 
2301.000000	64.715528 
2300.000000	64.722585 
2299.000000	64.727878 
2298.000000	64.730882 
2297.000000	64.731192 
2296.000000	64.729261 
2295.000000	64.726042 
2294.000000	64.723205 
2293.000000	64.722466 
2292.000000	64.725685 
2291.000000	64.734148 
2290.000000	64.748477 
2289.000000	64.768266 
2288.000000	64.792037 
2287.000000	64.817333 
2286.000000	64.841151 
2285.000000	64.860415 
2284.000000	64.872646 
2283.000000	64.876365 
2282.000000	64.871358 
2281.000000	64.858746 
2280.000000	64.840769 
2279.000000	64.820265 
2278.000000	64.800095 
2277.000000	64.782452 
2276.000000	64.768409 
2275.000000	64.758038 
2274.000000	64.750242 
2273.000000	64.743709 
2272.000000	64.737224 
2271.000000	64.730262 
2270.000000	64.723205 
2269.000000	64.717268 
2268.000000	64.713907 
2267.000000	64.714622 
2266.000000	64.719867 
2265.000000	64.729380 
2264.000000	64.741802 
2263.000000	64.755249 
2262.000000	64.767551 
2261.000000	64.777040 
2260.000000	64.782786 
2259.000000	64.784812 
2258.000000	64.783859 
2257.000000	64.781165 
2256.000000	64.778017 
2255.000000	64.775228 
2254.000000	64.773035 
2253.000000	64.771008 
2252.000000	64.768266 
2251.000000	64.763832 
2250.000000	64.756941 
2249.000000	64.747190 
2248.000000	64.734649 
2247.000000	64.720010 
2246.000000	64.704394 
2245.000000	64.688992 
2244.000000	64.674830 
2243.000000	64.662790 
2242.000000	64.653420 
2241.000000	64.646601 
2240.000000	64.641809 
2239.000000	64.638113 
2238.000000	64.634537 
2237.000000	64.630174 
2236.000000	64.624500 
2235.000000	64.617276 
2234.000000	64.608931 
2233.000000	64.600324 
2232.000000	64.592671 
2231.000000	64.587068 
2230.000000	64.584469 
2229.000000	64.585399 
2228.000000	64.589881 
2227.000000	64.597272 
2226.000000	64.606499 
2225.000000	64.616179 
2224.000000	64.625024 
2223.000000	64.632129 
2222.000000	64.637088 
2221.000000	64.640283 
2220.000000	64.642572 
2219.000000	64.645171 
2218.000000	64.649319 
2217.000000	64.656066 
2216.000000	64.665794 
2215.000000	64.678239 
2214.000000	64.692497 
2213.000000	64.707016 
2212.000000	64.720273 
2211.000000	64.730620 
2210.000000	64.736843 
2209.000000	64.738273 
2208.000000	64.734959 
2207.000000	64.727735 
2206.000000	64.717912 
2205.000000	64.707231 
2204.000000	64.697504 
2203.000000	64.690303 
2202.000000	64.686894 
2201.000000	64.687752 
2200.000000	64.692711 
2199.000000	64.701032 
2198.000000	64.711451 
2197.000000	64.722561 
2196.000000	64.732885 
2195.000000	64.741253 
2194.000000	64.746809 
2193.000000	64.749169 
2192.000000	64.748215 
2191.000000	64.744091 
2190.000000	64.737200 
2189.000000	64.727878 
2188.000000	64.716672 
2187.000000	64.704442 
2186.000000	64.692211 
2185.000000	64.681410 
2184.000000	64.673399 
2183.000000	64.669466 
2182.000000	64.670205 
2181.000000	64.675426 
2180.000000	64.683890 
2179.000000	64.693522 
2178.000000	64.701581 
2177.000000	64.705371 
2176.000000	64.702582 
2175.000000	64.692020 
2174.000000	64.673900 
2173.000000	64.649939 
2172.000000	64.623117 
2171.000000	64.597177 
2170.000000	64.575815 
2169.000000	64.562177 
2168.000000	64.558029 
2167.000000	64.563632 
2166.000000	64.577627 
2165.000000	64.597439 
2164.000000	64.620041 
2163.000000	64.642596 
2162.000000	64.662742 
2161.000000	64.679241 
2160.000000	64.692020 
2159.000000	64.701938 
2158.000000	64.710354 
2157.000000	64.718604 
2156.000000	64.727640 
2155.000000	64.737677 
2154.000000	64.748454 
2153.000000	64.759159 
2152.000000	64.768743 
2151.000000	64.776420 
2150.000000	64.781951 
2149.000000	64.785504 
2148.000000	64.787697 
2147.000000	64.789414 
2146.000000	64.791393 
2145.000000	64.794182 
2144.000000	64.797854 
2143.000000	64.802098 
2142.000000	64.806056 
2141.000000	64.808654 
2140.000000	64.808630 
2139.000000	64.805102 
2138.000000	64.797425 
2137.000000	64.785718 
2136.000000	64.770722 
2135.000000	64.753699 
2134.000000	64.736366 
2133.000000	64.720201 
2132.000000	64.706373 
2131.000000	64.695286 
2130.000000	64.686965 
2129.000000	64.680981 
2128.000000	64.676952 
2127.000000	64.674592 
2126.000000	64.674115 
2125.000000	64.676117 
2124.000000	64.681434 
2123.000000	64.690589 
2122.000000	64.703440 
2121.000000	64.718937 
2120.000000	64.735150 
2119.000000	64.749431 
2118.000000	64.758992 
2117.000000	64.761400 
2116.000000	64.755511 
2115.000000	64.741468 
2114.000000	64.720940 
2113.000000	64.696693 
2112.000000	64.672040 
2111.000000	64.650416 
2110.000000	64.634680 
2109.000000	64.626741 
2108.000000	64.627242 
2107.000000	64.635610 
2106.000000	64.650511 
2105.000000	64.669847 
2104.000000	64.691257 
2103.000000	64.712214 
2102.000000	64.730381 
2101.000000	64.743971 
2100.000000	64.751625 
2099.000000	64.752578 
2098.000000	64.746928 
2097.000000	64.735388 
2096.000000	64.719414 
2095.000000	64.700913 
2094.000000	64.682221 
2093.000000	64.665627 
2092.000000	64.653158 
2091.000000	64.646267 
2090.000000	64.645576 
2089.000000	64.650917 
2088.000000	64.661192 
2087.000000	64.674973 
2086.000000	64.690494 
2085.000000	64.706015 
2084.000000	64.719676 
2083.000000	64.729952 
2082.000000	64.735460 
2081.000000	64.735221 
2080.000000	64.728498 
2079.000000	64.715242 
2078.000000	64.695811 
2077.000000	64.671492 
2076.000000	64.644050 
2075.000000	64.615869 
2074.000000	64.589357 
2073.000000	64.566898 
2072.000000	64.550471 
2071.000000	64.541387 
2070.000000	64.540314 
2069.000000	64.547133 
2068.000000	64.561009 
2067.000000	64.580559 
2066.000000	64.603853 
2065.000000	64.628863 
2064.000000	64.653229 
2063.000000	64.674687 
2062.000000	64.691162 
2061.000000	64.701080 
2060.000000	64.703726 
2059.000000	64.699125 
2058.000000	64.688444 
2057.000000	64.673376 
2056.000000	64.656209 
2055.000000	64.639091 
2054.000000	64.623785 
2053.000000	64.611220 
2052.000000	64.601707 
2051.000000	64.594888 
2050.000000	64.590001 
2049.000000	64.586234 
2048.000000	64.582896 
2047.000000	64.579677 
2046.000000	64.576530 
2045.000000	64.573907 
2044.000000	64.572215 
2043.000000	64.572048 
2042.000000	64.573836 
2041.000000	64.577865 
2040.000000	64.584255 
2039.000000	64.593005 
2038.000000	64.603996 
2037.000000	64.616918 
2036.000000	64.631152 
2035.000000	64.645791 
2034.000000	64.659476 
2033.000000	64.670562 
2032.000000	64.677286 
2031.000000	64.678001 
2030.000000	64.671540 
2029.000000	64.657783 
2028.000000	64.637637 
2027.000000	64.613080 
2026.000000	64.587044 
2025.000000	64.562845 
2024.000000	64.543604 
2023.000000	64.531826 
2022.000000	64.528751 
2021.000000	64.534235 
2020.000000	64.546775 
2019.000000	64.563989 
2018.000000	64.583039 
2017.000000	64.601063 
2016.000000	64.616036 
2015.000000	64.626765 
2014.000000	64.633059 
2013.000000	64.635443 
2012.000000	64.635038 
2011.000000	64.633202 
2010.000000	64.631247 
2009.000000	64.630198 
2008.000000	64.630699 
2007.000000	64.632916 
2006.000000	64.636564 
2005.000000	64.640855 
2004.000000	64.644694 
2003.000000	64.646577 
2002.000000	64.645195 
2001.000000	64.639568 
2000.000000	64.629197 
1999.000000	64.614415 
1998.000000	64.596033 
1997.000000	64.575815 
1996.000000	64.555740 
1995.000000	64.538121 
1994.000000	64.525103 
1993.000000	64.518404 
1992.000000	64.519071 
1991.000000	64.527368 
1990.000000	64.542722 
1989.000000	64.563751 
1988.000000	64.588427 
1987.000000	64.614367 
1986.000000	64.639091 
1985.000000	64.660263 
1984.000000	64.675951 
1983.000000	64.684820 
1982.000000	64.686226 
1981.000000	64.680433 
1980.000000	64.668202 
1979.000000	64.650869 
1978.000000	64.629983 
1977.000000	64.607405 
1976.000000	64.585018 
1975.000000	64.564704 
1974.000000	64.548039 
1973.000000	64.536571 
1972.000000	64.531207 
1971.000000	64.532208 
1970.000000	64.538979 
1969.000000	64.550113 
1968.000000	64.563226 
1967.000000	64.575338 
1966.000000	64.583349 
1965.000000	64.584589 
1964.000000	64.577460 
1963.000000	64.561676 
1962.000000	64.538550 
1961.000000	64.510679 
1960.000000	64.481496 
1959.000000	64.454746 
1958.000000	64.433550 
1957.000000	64.420127 
1956.000000	64.415502 
1955.000000	64.419579 
1954.000000	64.431262 
1953.000000	64.448666 
1952.000000	64.469623 
1951.000000	64.492058 
1950.000000	64.513921 
1949.000000	64.533615 
1948.000000	64.549875 
1947.000000	64.562129 
1946.000000	64.570283 
1945.000000	64.574790 
1944.000000	64.576601 
1943.000000	64.576840 
1942.000000	64.577078 
1941.000000	64.578461 
1940.000000	64.582037 
1939.000000	64.587998 
1938.000000	64.596199 
1937.000000	64.605808 
1936.000000	64.615607 
1935.000000	64.624285 
1934.000000	64.630675 
1933.000000	64.633774 
1932.000000	64.633035 
1931.000000	64.628314 
1930.000000	64.619803 
1929.000000	64.608049 
1928.000000	64.593863 
1927.000000	64.578151 
1926.000000	64.561939 
1925.000000	64.546108 
1924.000000	64.531445 
1923.000000	64.518427 
1922.000000	64.507293 
1921.000000	64.498186 
1920.000000	64.491176 
1919.000000	64.486098 
1918.000000	64.482975 
1917.000000	64.481425 
1916.000000	64.481377 
1915.000000	64.482498 
1914.000000	64.484572 
1913.000000	64.487504 
1912.000000	64.491438 
1911.000000	64.496588 
1910.000000	64.503288 
1909.000000	64.511966 
1908.000000	64.522695 
1907.000000	64.535331 
1906.000000	64.549183 
1905.000000	64.563131 
1904.000000	64.575648 
1903.000000	64.585065 
1902.000000	64.589810 
1901.000000	64.588761 
1900.000000	64.581465 
1899.000000	64.568352 
1898.000000	64.550542 
1897.000000	64.529824 
1896.000000	64.508652 
1895.000000	64.489507 
1894.000000	64.474701 
1893.000000	64.465999 
1892.000000	64.464497 
1891.000000	64.470291 
1890.000000	64.482474 
1889.000000	64.498996 
1888.000000	64.517426 
1887.000000	64.534950 
1886.000000	64.548873 
1885.000000	64.557123 
1884.000000	64.558601 
1883.000000	64.553308 
1882.000000	64.542269 
1881.000000	64.527225 
1880.000000	64.510345 
1879.000000	64.493536 
1878.000000	64.478421 
1877.000000	64.465904 
1876.000000	64.456129 
1875.000000	64.449048 
1874.000000	64.444518 
1873.000000	64.442491 
1872.000000	64.443325 
1871.000000	64.447546 
1870.000000	64.456033 
1869.000000	64.469051 
1868.000000	64.486622 
1867.000000	64.508128 
1866.000000	64.532423 
1865.000000	64.557909 
1864.000000	64.583063 
1863.000000	64.606451 
1862.000000	64.627194 
1861.000000	64.644932 
1860.000000	64.659976 
1859.000000	64.672803 
1858.000000	64.683890 
1857.000000	64.693737 
1856.000000	64.702224 
1855.000000	64.708995 
1854.000000	64.713263 
1853.000000	64.714217 
1852.000000	64.711236 
1851.000000	64.704012 
1850.000000	64.692807 
1849.000000	64.678430 
1848.000000	64.662289 
1847.000000	64.645981 
1846.000000	64.631104 
1845.000000	64.618849 
1844.000000	64.609813 
1843.000000	64.603853 
1842.000000	64.599967 
1841.000000	64.596939 
1840.000000	64.593291 
1839.000000	64.587926 
1838.000000	64.580321 
1837.000000	64.570713 
1836.000000	64.560222 
1835.000000	64.550495 
1834.000000	64.543128 
1833.000000	64.539599 
1832.000000	64.540767 
1831.000000	64.546513 
1830.000000	64.555954 
1829.000000	64.567303 
1828.000000	64.578461 
1827.000000	64.587306 
1826.000000	64.592146 
1825.000000	64.591741 
1824.000000	64.585614 
1823.000000	64.573931 
1822.000000	64.557480 
1821.000000	64.537572 
1820.000000	64.515852 
1819.000000	64.494228 
1818.000000	64.474415 
1817.000000	64.457893 
1816.000000	64.445781 
1815.000000	64.438581 
1814.000000	64.436221 
1813.000000	64.437913 
1812.000000	64.442658 
1811.000000	64.449095 
1810.000000	64.455890 
1809.000000	64.461922 
1808.000000	64.466381 
1807.000000	64.468789 
1806.000000	64.469194 
1805.000000	64.467811 
1804.000000	64.465165 
1803.000000	64.461922 
1802.000000	64.459037 
1801.000000	64.457249 
1800.000000	64.457392 
1799.000000	64.460134 
1798.000000	64.465618 
1797.000000	64.473676 
1796.000000	64.483332 
1795.000000	64.493107 
1794.000000	64.501309 
1793.000000	64.506435 
1792.000000	64.507436 
1791.000000	64.504003 
1790.000000	64.496612 
1789.000000	64.486479 
1788.000000	64.475369 
1787.000000	64.465093 
1786.000000	64.457082 
1785.000000	64.452147 
1784.000000	64.450335 
1783.000000	64.451074 
1782.000000	64.453339 
1781.000000	64.456105 
1780.000000	64.458394 
1779.000000	64.459872 
1778.000000	64.460563 
1777.000000	64.460992 
1776.000000	64.461708 
1775.000000	64.463138 
1774.000000	64.465427 
1773.000000	64.468336 
1772.000000	64.471220 
1771.000000	64.473176 
1770.000000	64.473176 
1769.000000	64.470481 
1768.000000	64.464569 
1767.000000	64.455437 
1766.000000	64.443635 
1765.000000	64.429926 
1764.000000	64.415383 
1763.000000	64.401149 
1762.000000	64.388060 
1761.000000	64.376783 
1760.000000	64.367723 
1759.000000	64.361023 
1758.000000	64.356660 
1757.000000	64.354562 
1756.000000	64.354515 
1755.000000	64.356136 
1754.000000	64.358901 
1753.000000	64.362072 
1752.000000	64.364767 
1751.000000	64.366149 
1750.000000	64.365363 
1749.000000	64.361906 
1748.000000	64.355587 
1747.000000	64.346504 
1746.000000	64.334940 
1745.000000	64.321422 
1744.000000	64.306211 
1743.000000	64.289402 
1742.000000	64.270830 
1741.000000	64.250397 
1740.000000	64.227986 
1739.000000	64.204025 
1738.000000	64.179325 
1737.000000	64.155530 
1736.000000	64.134573 
1735.000000	64.118695 
1734.000000	64.109611 
1733.000000	64.108610 
1732.000000	64.115953 
1731.000000	64.130783 
1730.000000	64.151334 
1729.000000	64.175057 
1728.000000	64.198946 
1727.000000	64.220404 
1726.000000	64.237165 
1725.000000	64.248013 
1724.000000	64.252638 
1723.000000	64.251708 
1722.000000	64.246726 
1721.000000	64.239597 
1720.000000	64.232254 
1719.000000	64.226484 
1718.000000	64.223575 
1717.000000	64.224243 
1716.000000	64.228558 
1715.000000	64.236164 
1714.000000	64.246487 
1713.000000	64.258933 
1712.000000	64.272713 
1711.000000	64.287281 
1710.000000	64.301991 
1709.000000	64.316034 
1708.000000	64.328312 
1707.000000	64.337682 
1706.000000	64.342975 
1705.000000	64.343166 
1704.000000	64.337611 
1703.000000	64.326477 
1702.000000	64.310789 
1701.000000	64.292359 
1700.000000	64.273309 
1699.000000	64.256000 
1698.000000	64.242315 
1697.000000	64.233446 
1696.000000	64.229536 
1695.000000	64.229893 
1694.000000	64.232921 
1693.000000	64.236688 
1692.000000	64.239382 
1691.000000	64.239621 
1690.000000	64.236760 
1689.000000	64.230751 
1688.000000	64.222311 
1687.000000	64.212584 
1686.000000	64.202857 
1685.000000	64.194440 
1684.000000	64.188361 
1683.000000	64.185333 
1682.000000	64.185595 
1681.000000	64.188957 
1680.000000	64.194822 
1679.000000	64.202356 
1678.000000	64.210510 
1677.000000	64.218258 
1676.000000	64.224624 
1675.000000	64.229083 
1674.000000	64.231586 
1673.000000	64.232635 
1672.000000	64.233183 
1671.000000	64.234471 
1670.000000	64.237761 
1669.000000	64.244127 
1668.000000	64.254093 
1667.000000	64.267492 
1666.000000	64.283347 
1665.000000	64.300203 
1664.000000	64.316248 
1663.000000	64.329791 
1662.000000	64.339447 
1661.000000	64.344477 
1660.000000	64.344978 
1659.000000	64.341640 
1658.000000	64.335680 
1657.000000	64.328503 
1656.000000	64.321494 
1655.000000	64.315962 
1654.000000	64.312744 
1653.000000	64.312362 
1652.000000	64.314651 
1651.000000	64.319133 
1650.000000	64.324593 
1649.000000	64.329600 
1648.000000	64.332365 
1647.000000	64.331269 
1646.000000	64.325141 
1645.000000	64.313340 
1644.000000	64.296269 
1643.000000	64.275026 
1642.000000	64.251589 
1641.000000	64.228200 
1640.000000	64.207220 
1639.000000	64.190721 
1638.000000	64.180278 
1637.000000	64.176607 
1636.000000	64.179992 
1635.000000	64.190196 
1634.000000	64.206600 
1633.000000	64.228129 
1632.000000	64.253449 
1631.000000	64.280700 
1630.000000	64.307641 
1629.000000	64.331579 
1628.000000	64.349746 
1627.000000	64.359664 
1626.000000	64.359831 
1625.000000	64.350032 
1624.000000	64.331531 
1623.000000	64.306926 
1622.000000	64.279985 
1621.000000	64.254593 
1620.000000	64.234399 
1619.000000	64.221668 
1618.000000	64.217352 
1617.000000	64.220428 
1616.000000	64.228677 
1615.000000	64.238858 
1614.000000	64.247822 
1613.000000	64.252901 
1612.000000	64.252591 
1611.000000	64.246654 
1610.000000	64.236021 
1609.000000	64.222288 
1608.000000	64.207339 
1607.000000	64.192795 
1606.000000	64.179778 
1605.000000	64.168667 
1604.000000	64.159440 
1603.000000	64.151740 
1602.000000	64.145135 
1601.000000	64.139556 
1600.000000	64.135336 
1599.000000	64.132952 
1598.000000	64.132976 
1597.000000	64.135885 
1596.000000	64.141774 
1595.000000	64.150357 
1594.000000	64.161157 
1593.000000	64.173245 
1592.000000	64.185857 
1591.000000	64.198470 
1590.000000	64.210605 
1589.000000	64.221787 
1588.000000	64.231443 
1587.000000	64.239072 
1586.000000	64.243841 
1585.000000	64.244842 
1584.000000	64.241147 
1583.000000	64.232277 
1582.000000	64.218330 
1581.000000	64.200186 
1580.000000	64.179372 
1579.000000	64.157891 
1578.000000	64.137673 
1577.000000	64.120316 
1576.000000	64.106678 
1575.000000	64.096832 
1574.000000	64.090108 
1573.000000	64.085531 
1572.000000	64.082074 
1571.000000	64.079117 
1570.000000	64.076352 
1569.000000	64.074277 
1568.000000	64.073538 
1567.000000	64.075374 
1566.000000	64.081096 
1565.000000	64.091920 
1564.000000	64.108633 
1563.000000	64.131379 
1562.000000	64.159226 
1561.000000	64.190340 
1560.000000	64.222121 
1559.000000	64.251422 
1558.000000	64.275217 
1557.000000	64.291071 
1556.000000	64.297604 
1555.000000	64.294767 
1554.000000	64.283537 
1553.000000	64.265871 
1552.000000	64.244198 
1551.000000	64.220762 
1550.000000	64.197301 
1549.000000	64.175057 
1548.000000	64.154672 
1547.000000	64.136457 
1546.000000	64.120650 
1545.000000	64.107704 
1544.000000	64.098119 
1543.000000	64.092206 
1542.000000	64.090085 
1541.000000	64.091157 
1540.000000	64.094495 
1539.000000	64.098882 
1538.000000	64.103388 
1537.000000	64.107489 
1536.000000	64.111304 
1535.000000	64.115452 
1534.000000	64.120936 
1533.000000	64.128541 
1532.000000	64.138817 
1531.000000	64.151573 
1530.000000	64.166069 
1529.000000	64.180994 
1528.000000	64.194941 
1527.000000	64.206790 
1526.000000	64.215850 
1525.000000	64.221930 
1524.000000	64.225459 
1523.000000	64.227318 
1522.000000	64.228439 
1521.000000	64.229416 
1520.000000	64.230585 
1519.000000	64.231824 
1518.000000	64.232683 
1517.000000	64.232516 
1516.000000	64.230775 
1515.000000	64.227104 
1514.000000	64.221549 
1513.000000	64.214754 
1512.000000	64.207696 
1511.000000	64.201903 
1510.000000	64.198780 
1509.000000	64.199829 
1508.000000	64.206147 
1507.000000	64.218211 
1506.000000	64.235711 
1505.000000	64.257431 
1504.000000	64.281558 
1503.000000	64.305758 
1502.000000	64.327621 
1501.000000	64.344716 
1500.000000	64.355373 
1499.000000	64.358663 
1498.000000	64.354491 
1497.000000	64.343500 
1496.000000	64.326858 
1495.000000	64.306163 
1494.000000	64.283013 
1493.000000	64.259052 
1492.000000	64.235687 
1491.000000	64.214301 
1490.000000	64.195990 
1489.000000	64.181494 
1488.000000	64.170932 
1487.000000	64.163970 
1486.000000	64.159965 
1485.000000	64.157819 
1484.000000	64.156723 
1483.000000	64.155483 
1482.000000	64.153456 
1481.000000	64.150404 
1480.000000	64.146399 
1479.000000	64.141774 
1478.000000	64.136981 
1477.000000	64.132547 
1476.000000	64.128971 
1475.000000	64.126443 
1474.000000	64.125204 
1473.000000	64.125204 
1472.000000	64.126491 
1471.000000	64.129185 
1470.000000	64.133596 
1469.000000	64.140033 
1468.000000	64.149117 
1467.000000	64.161157 
1466.000000	64.176201 
1465.000000	64.193534 
1464.000000	64.212155 
1463.000000	64.230179 
1462.000000	64.245390 
1461.000000	64.255237 
1460.000000	64.257717 
1459.000000	64.251255 
1458.000000	64.235520 
1457.000000	64.211082 
1456.000000	64.179921 
1455.000000	64.144825 
1454.000000	64.108991 
1453.000000	64.075422 
1452.000000	64.046764 
1451.000000	64.024782 
1450.000000	64.010238 
1449.000000	64.003086 
1448.000000	64.002609 
1447.000000	64.007759 
1446.000000	64.017677 
1445.000000	64.031481 
1444.000000	64.048528 
1443.000000	64.068460 
1442.000000	64.090776 
1441.000000	64.114832 
1440.000000	64.139485 
1439.000000	64.163279 
1438.000000	64.184284 
1437.000000	64.200592 
1436.000000	64.210581 
1435.000000	64.212965 
1434.000000	64.207506 
1433.000000	64.194869 
1432.000000	64.176917 
1431.000000	64.156246 
1430.000000	64.135956 
1429.000000	64.119219 
1428.000000	64.108467 
1427.000000	64.105153 
1426.000000	64.109277 
1425.000000	64.119625 
1424.000000	64.133548 
1423.000000	64.148044 
1422.000000	64.159798 
1421.000000	64.166164 
1420.000000	64.165449 
1419.000000	64.157080 
1418.000000	64.141678 
1417.000000	64.120817 
1416.000000	64.096736 
1415.000000	64.072012 
1414.000000	64.049077 
1413.000000	64.030027 
1412.000000	64.016652 
1411.000000	64.010119 
1410.000000	64.011073 
1409.000000	64.019203 
1408.000000	64.033555 
1407.000000	64.052414 
1406.000000	64.073228 
1405.000000	64.093232 
1404.000000	64.109897 
1403.000000	64.121246 
1402.000000	64.126324 
1401.000000	64.125323 
1400.000000	64.119362 
1399.000000	64.110231 
1398.000000	64.100027 
1397.000000	64.090394 
1396.000000	64.082264 
1395.000000	64.075827 
1394.000000	64.070487 
1393.000000	64.065432 
1392.000000	64.059758 
1391.000000	64.053010 
1390.000000	64.045405 
1389.000000	64.037919 
1388.000000	64.031910 
1387.000000	64.028668 
1386.000000	64.029073 
1385.000000	64.033412 
1384.000000	64.041185 
1383.000000	64.051270 
1382.000000	64.062166 
1381.000000	64.072632 
1380.000000	64.081835 
1379.000000	64.089560 
1378.000000	64.096188 
1377.000000	64.102530 
1376.000000	64.109349 
1375.000000	64.117169 
1374.000000	64.125919 
1373.000000	64.135026 
1372.000000	64.143657 
1371.000000	64.150810 
1370.000000	64.155769 
1369.000000	64.158535 
1368.000000	64.159679 
1367.000000	64.160418 
1366.000000	64.162111 
1365.000000	64.165806 
1364.000000	64.171934 
1363.000000	64.180040 
1362.000000	64.188623 
1361.000000	64.195370 
1360.000000	64.197754 
1359.000000	64.193415 
1358.000000	64.180564 
1357.000000	64.158344 
1356.000000	64.127039 
1355.000000	64.088320 
1354.000000	64.044570 
1353.000000	63.998961 
1352.000000	63.954758 
1351.000000	63.915324 
1350.000000	63.883423 
1349.000000	63.861083 
1348.000000	63.849306 
1347.000000	63.848018 
1346.000000	63.856053 
1345.000000	63.871335 
1344.000000	63.890981 
1343.000000	63.912057 
1342.000000	63.931751 
1341.000000	63.948011 
1340.000000	63.959360 
1339.000000	63.965368 
1338.000000	63.966345 
1337.000000	63.963294 
1336.000000	63.957452 
1335.000000	63.950181 
1334.000000	63.942837 
1333.000000	63.936710 
1332.000000	63.933062 
1331.000000	63.933229 
1330.000000	63.938450 
1329.000000	63.949728 
1328.000000	63.967514 
1327.000000	63.991308 
1326.000000	64.019513 
1325.000000	64.049553 
1324.000000	64.078402 
1323.000000	64.102840 
1322.000000	64.120388 
1321.000000	64.129924 
1320.000000	64.131712 
1319.000000	64.127206 
1318.000000	64.118528 
1317.000000	64.108276 
1316.000000	64.098477 
1315.000000	64.090442 
1314.000000	64.084386 
1313.000000	64.079713 
1312.000000	64.075517 
1311.000000	64.071035 
1310.000000	64.065909 
1309.000000	64.060401 
1308.000000	64.055275 
1307.000000	64.051604 
1306.000000	64.050245 
1305.000000	64.051628 
1304.000000	64.055609 
1303.000000	64.061498 
1302.000000	64.068412 
1301.000000	64.075088 
1300.000000	64.080595 
1299.000000	64.084196 
1298.000000	64.085650 
1297.000000	64.085006 
1296.000000	64.082813 
1295.000000	64.079594 
1294.000000	64.076018 
1293.000000	64.072442 
1292.000000	64.069223 
1291.000000	64.066243 
1290.000000	64.063191 
1289.000000	64.059352 
1288.000000	64.054107 
1287.000000	64.046835 
1286.000000	64.037203 
1285.000000	64.025640 
1284.000000	64.013147 
1283.000000	64.001154 
1282.000000	63.991451 
1281.000000	63.985490 
1280.000000	63.984012 
1279.000000	63.986873 
1278.000000	63.993287 
1277.000000	64.001822 
1276.000000	64.011073 
1275.000000	64.020085 
1274.000000	64.028525 
1273.000000	64.036560 
1272.000000	64.044833 
1271.000000	64.053630 
1270.000000	64.062881 
1269.000000	64.071869 
1268.000000	64.079332 
1267.000000	64.083695 
1266.000000	64.083433 
1265.000000	64.077901 
1264.000000	64.067292 
1263.000000	64.052915 
1262.000000	64.036583 
1261.000000	64.020299 
1260.000000	64.005804 
1259.000000	63.994050 
1258.000000	63.985300 
1257.000000	63.979339 
1256.000000	63.975739 
1255.000000	63.974165 
1254.000000	63.974452 
1253.000000	63.976621 
1252.000000	63.980841 
1251.000000	63.987112 
1250.000000	63.995194 
1249.000000	64.004445 
1248.000000	64.014077 
1247.000000	64.022922 
1246.000000	64.029812 
1245.000000	64.033293 
1244.000000	64.032268 
1243.000000	64.025735 
1242.000000	64.013266 
1241.000000	63.994765 
1240.000000	63.970947 
1239.000000	63.943004 
1238.000000	63.913059 
1237.000000	63.883519 
1236.000000	63.857126 
1235.000000	63.836121 
1234.000000	63.822150 
1233.000000	63.815665 
1232.000000	63.815879 
1231.000000	63.821053 
1230.000000	63.828945 
1229.000000	63.837313 
1228.000000	63.844466 
1227.000000	63.849496 
1226.000000	63.852524 
1225.000000	63.854312 
1224.000000	63.856196 
1223.000000	63.859438 
1222.000000	63.865089 
1221.000000	63.873720 
1220.000000	63.885164 
1219.000000	63.898873 
1218.000000	63.913893 
1217.000000	63.929247 
1216.000000	63.944172 
1215.000000	63.958072 
1214.000000	63.970541 
1213.000000	63.981485 
1212.000000	63.990926 
1211.000000	63.998913 
1210.000000	64.005470 
1209.000000	64.010643 
1208.000000	64.014101 
1207.000000	64.015436 
1206.000000	64.013910 
1205.000000	64.008975 
1204.000000	64.000177 
1203.000000	63.987326 
1202.000000	63.970828 
1201.000000	63.951683 
1200.000000	63.931465 
1199.000000	63.912272 
1198.000000	63.896059 
1197.000000	63.884544 
1196.000000	63.878846 
1195.000000	63.879561 
1194.000000	63.886332 
1193.000000	63.898110 
1192.000000	63.913559 
1191.000000	63.931083 
1190.000000	63.949060 
1189.000000	63.965916 
1188.000000	63.980317 
1187.000000	63.991165 
1186.000000	63.997292 
1185.000000	63.997912 
1184.000000	63.992667 
1183.000000	63.982009 
1182.000000	63.966965 
1181.000000	63.949513 
1180.000000	63.932371 
1179.000000	63.918519 
1178.000000	63.910603 
1177.000000	63.910222 
1176.000000	63.917565 
1175.000000	63.930988 
1174.000000	63.947367 
1173.000000	63.962697 
1172.000000	63.972949 
1171.000000	63.975191 
1170.000000	63.967990 
1169.000000	63.951611 
1168.000000	63.927793 
1167.000000	63.899445 
1166.000000	63.869738 
1165.000000	63.841652 
1164.000000	63.817286 
1163.000000	63.797879 
1162.000000	63.783407 
1161.000000	63.772869 
1160.000000	63.764762 
1159.000000	63.757276 
1158.000000	63.749170 
1157.000000	63.740086 
1156.000000	63.730788 
1155.000000	63.722753 
1154.000000	63.717532 
1153.000000	63.715958 
1152.000000	63.717699 
1151.000000	63.721132 
1150.000000	63.723969 
1149.000000	63.724017 
1148.000000	63.719820 
1147.000000	63.711476 
1146.000000	63.700485 
1145.000000	63.689494 
1144.000000	63.681530 
1143.000000	63.679313 
1142.000000	63.684701 
1141.000000	63.698101 
1140.000000	63.718652 
1139.000000	63.743853 
1138.000000	63.770222 
1137.000000	63.793492 
1136.000000	63.809776 
1135.000000	63.816237 
1134.000000	63.811779 
1133.000000	63.797569 
1132.000000	63.776779 
1131.000000	63.754081 
1130.000000	63.734722 
1129.000000	63.723230 
1128.000000	63.722777 
1127.000000	63.734149 
1126.000000	63.755893 
1125.000000	63.784170 
1124.000000	63.814115 
1123.000000	63.840365 
1122.000000	63.858318 
1121.000000	63.864922 
1120.000000	63.859152 
1119.000000	63.842272 
1118.000000	63.817453 
1117.000000	63.789105 
1116.000000	63.762044 
1115.000000	63.740682 
1114.000000	63.728165 
1113.000000	63.726210 
1112.000000	63.734459 
1111.000000	63.750863 
1110.000000	63.771939 
1109.000000	63.793587 
1108.000000	63.811516 
1107.000000	63.822293 
1106.000000	63.823890 
1105.000000	63.815832 
1104.000000	63.799476 
1103.000000	63.777732 
1102.000000	63.754272 
1101.000000	63.732933 
1100.000000	63.716697 
1099.000000	63.707232 
1098.000000	63.704490 
1097.000000	63.706994 
1096.000000	63.712263 
1095.000000	63.717651 
1094.000000	63.720893 
1093.000000	63.720893 
1092.000000	63.717746 
1091.000000	63.712716 
1090.000000	63.707685 
1089.000000	63.704586 
1088.000000	63.705015 
1087.000000	63.709902 
1086.000000	63.719272 
1085.000000	63.732647 
1084.000000	63.748908 
1083.000000	63.766789 
1082.000000	63.785266 
1081.000000	63.803315 
1080.000000	63.820099 
1079.000000	63.834619 
1078.000000	63.845896 
1077.000000	63.852787 
1076.000000	63.854241 
1075.000000	63.849544 
1074.000000	63.838648 
1073.000000	63.822197 
1072.000000	63.801574 
1071.000000	63.778853 
1070.000000	63.756656 
1069.000000	63.737630 
1068.000000	63.724040 
1067.000000	63.717532 
1066.000000	63.718628 
1065.000000	63.726854 
1064.000000	63.740658 
1063.000000	63.757705 
1062.000000	63.775110 
1061.000000	63.790035 
1060.000000	63.800168 
1059.000000	63.803863 
1058.000000	63.800454 
1057.000000	63.790106 
1056.000000	63.773751 
1055.000000	63.752722 
1054.000000	63.728785 
1053.000000	63.703846 
1052.000000	63.679933 
1051.000000	63.658738 
1050.000000	63.642001 
1049.000000	63.631439 
1048.000000	63.628339 
1047.000000	63.633441 
1046.000000	63.646626 
1045.000000	63.666796 
1044.000000	63.691902 
1043.000000	63.718986 
1042.000000	63.744544 
1041.000000	63.765239 
1040.000000	63.778471 
1039.000000	63.783025 
1038.000000	63.779258 
1037.000000	63.769125 
1036.000000	63.755989 
1035.000000	63.743734 
1034.000000	63.736033 
1033.000000	63.735413 
1032.000000	63.743019 
1031.000000	63.758254 
1030.000000	63.779139 
1029.000000	63.802361 
1028.000000	63.824343 
1027.000000	63.841509 
1026.000000	63.850760 
1025.000000	63.849711 
1024.000000	63.837146 
1023.000000	63.813066 
1022.000000	63.778567 
1021.000000	63.736033 
1020.000000	63.688921 
1019.000000	63.641476 
1018.000000	63.598012 
1017.000000	63.562655 
1016.000000	63.538670 
1015.000000	63.528037 
1014.000000	63.531208 
1013.000000	63.546943 
1012.000000	63.572621 
1011.000000	63.604998 
1010.000000	63.640856 
1009.000000	63.677382 
1008.000000	63.712358 
1007.000000	63.744544 
1006.000000	63.773608 
1005.000000	63.799524 
1004.000000	63.822627 
1003.000000	63.843178 
1002.000000	63.861131 
1001.000000	63.876438 
1000.000000	63.888788 
999.000000	 63.897943 
998.000000	 63.903760 
997.000000	 63.906240 
996.000000	 63.905906 
995.000000	 63.903737 
994.000000	 63.901162 
993.000000	 63.899660 
992.000000	 63.900494 
991.000000	 63.904452 
990.000000	 63.911271 
989.000000	 63.919782 
988.000000	 63.927650 
987.000000	 63.931965 
986.000000	 63.929891 
985.000000	 63.919329 
984.000000	 63.899827 
983.000000	 63.872885 
982.000000	 63.841915 
981.000000	 63.811707 
980.000000	 63.787412 
979.000000	 63.773202 
978.000000	 63.771438 
977.000000	 63.781619 
976.000000	 63.801121 
975.000000	 63.825368 
974.000000	 63.848686 
973.000000	 63.865709 
972.000000	 63.872385 
971.000000	 63.866806 
970.000000	 63.848996 
969.000000	 63.821125 
968.000000	 63.786935 
967.000000	 63.750863 
966.000000	 63.716888 
965.000000	 63.688063 
964.000000	 63.665938 
963.000000	 63.650631 
962.000000	 63.640999 
961.000000	 63.635230 
960.000000	 63.631725 
959.000000	 63.629364 
958.000000	 63.628101 
957.000000	 63.628602 
956.000000	 63.632011 
955.000000	 63.639473 
954.000000	 63.651418 
953.000000	 63.667130 
952.000000	 63.684439 
951.000000	 63.700461 
950.000000	 63.712000 
949.000000	 63.716292 
948.000000	 63.711309 
947.000000	 63.697052 
946.000000	 63.674664 
945.000000	 63.646626 
944.000000	 63.615775 
943.000000	 63.584876 
942.000000	 63.556146 
941.000000	 63.530802 
940.000000	 63.509273 
939.000000	 63.491415 
938.000000	 63.477015 
937.000000	 63.465714 
936.000000	 63.457679 
935.000000	 63.453292 
934.000000	 63.453340 
933.000000	 63.458514 
932.000000	 63.469457 
931.000000	 63.486361 
930.000000	 63.509345 
929.000000	 63.538312 
928.000000	 63.572907 
927.000000	 63.612341 
926.000000	 63.655543 
925.000000	 63.700675 
924.000000	 63.745284 
923.000000	 63.786196 
922.000000	 63.819932 
921.000000	 63.843345 
920.000000	 63.853931 
919.000000	 63.850975 
918.000000	 63.835573 
917.000000	 63.811182 
916.000000	 63.782882 
915.000000	 63.756752 
914.000000	 63.738775 
913.000000	 63.733482 
912.000000	 63.743686 
911.000000	 63.768815 
910.000000	 63.805556 
909.000000	 63.847970 
908.000000	 63.888907 
907.000000	 63.921046 
906.000000	 63.938307 
905.000000	 63.937115 
904.000000	 63.916873 
903.000000	 63.880467 
902.000000	 63.833403 
901.000000	 63.782858 
900.000000	 63.735961 
899.000000	 63.698601 
898.000000	 63.673996 
897.000000	 63.662362 
896.000000	 63.660764 
895.000000	 63.664388 
894.000000	 63.668012 
893.000000	 63.666868 
892.000000	 63.658595 
891.000000	 63.643050 
890.000000	 63.623023 
889.000000	 63.602590 
888.000000	 63.586521 
887.000000	 63.578748 
886.000000	 63.581323 
885.000000	 63.594007 
884.000000	 63.614320 
883.000000	 63.638186 
882.000000	 63.661098 
881.000000	 63.679337 
880.000000	 63.690781 
879.000000	 63.695287 
878.000000	 63.694357 
877.000000	 63.690280 
876.000000	 63.685274 
875.000000	 63.680696 
874.000000	 63.676476 
873.000000	 63.671422 
872.000000	 63.663935 
871.000000	 63.652992 
870.000000	 63.638949 
869.000000	 63.623857 
868.000000	 63.611125 
867.000000	 63.604903 
866.000000	 63.608694 
865.000000	 63.624715 
864.000000	 63.652920 
863.000000	 63.691043 
862.000000	 63.734889 
861.000000	 63.779354 
860.000000	 63.819646 
859.000000	 63.851833 
858.000000	 63.873863 
857.000000	 63.885378 
856.000000	 63.887357 
855.000000	 63.881707 
854.000000	 63.870382 
853.000000	 63.855290 
852.000000	 63.837862 
851.000000	 63.819050 
850.000000	 63.799595 
849.000000	 63.780117 
848.000000	 63.761305 
847.000000	 63.743686 
846.000000	 63.727617 
845.000000	 63.712954 
844.000000	 63.699340 
843.000000	 63.686108 
842.000000	 63.672828 
841.000000	 63.659453 
840.000000	 63.646674 
839.000000	 63.635802 
838.000000	 63.628697 
837.000000	 63.627052 
836.000000	 63.631963 
835.000000	 63.643455 
834.000000	 63.660502 
833.000000	 63.681125 
832.000000	 63.702535 
831.000000	 63.721871 
830.000000	 63.736438 
829.000000	 63.744521 
828.000000	 63.744902 
827.000000	 63.737130 
826.000000	 63.721346 
825.000000	 63.698291 
824.000000	 63.669300 
823.000000	 63.636183 
822.000000	 63.601350 
821.000000	 63.567662 
820.000000	 63.538289 
819.000000	 63.516426 
818.000000	 63.504505 
817.000000	 63.504028 
816.000000	 63.514947 
815.000000	 63.536071 
814.000000	 63.564658 
813.000000	 63.597488 
812.000000	 63.631153 
811.000000	 63.662886 
810.000000	 63.690638 
809.000000	 63.713049 
808.000000	 63.729643 
807.000000	 63.739943 
806.000000	 63.743543 
805.000000	 63.739609 
804.000000	 63.727283 
803.000000	 63.706064 
802.000000	 63.676333 
801.000000	 63.639712 
800.000000	 63.599085 
799.000000	 63.558125 
798.000000	 63.520598 
797.000000	 63.489437 
796.000000	 63.466262 
795.000000	 63.450884 
794.000000	 63.441562 
793.000000	 63.435816 
792.000000	 63.431286 
791.000000	 63.426613 
790.000000	 63.421988 
789.000000	 63.419222 
788.000000	 63.421106 
787.000000	 63.430452 
786.000000	 63.449072 
785.000000	 63.477039 
784.000000	 63.512134 
783.000000	 63.550567 
782.000000	 63.586950 
781.000000	 63.616085 
780.000000	 63.633513 
779.000000	 63.636445 
778.000000	 63.624358 
777.000000	 63.598871 
776.000000	 63.563609 
775.000000	 63.523411 
774.000000	 63.483786 
773.000000	 63.449978 
772.000000	 63.426184 
771.000000	 63.414859 
770.000000	 63.416457 
769.000000	 63.429570 
768.000000	 63.450884 
767.000000	 63.475942 
766.000000	 63.499999 
765.000000	 63.519024 
764.000000	 63.530349 
763.000000	 63.533282 
762.000000	 63.529014 
761.000000	 63.520288 
760.000000	 63.510680 
759.000000	 63.503623 
758.000000	 63.501501 
757.000000	 63.505029 
756.000000	 63.513588 
755.000000	 63.525438 
754.000000	 63.538289 
753.000000	 63.550114 
752.000000	 63.560104 
751.000000	 63.568353 
750.000000	 63.575911 
749.000000	 63.584136 
748.000000	 63.594174 
747.000000	 63.606476 
746.000000	 63.620495 
745.000000	 63.634777 
744.000000	 63.647556 
743.000000	 63.657355 
742.000000	 63.663578 
741.000000	 63.666415 
740.000000	 63.666510 
739.000000	 63.664722 
738.000000	 63.661408 
737.000000	 63.656139 
736.000000	 63.647508 
735.000000	 63.633513 
734.000000	 63.612079 
733.000000	 63.582348 
732.000000	 63.544940 
731.000000	 63.502264 
730.000000	 63.457894 
729.000000	 63.416004 
728.000000	 63.380217 
727.000000	 63.352870 
726.000000	 63.334441 
725.000000	 63.323807 
724.000000	 63.318800 
723.000000	 63.316679 
722.000000	 63.315439 
721.000000	 63.314032 
720.000000	 63.312959 
719.000000	 63.313436 
718.000000	 63.317227 
717.000000	 63.325333 
716.000000	 63.338017 
715.000000	 63.354182 
714.000000	 63.371539 
713.000000	 63.386988 
712.000000	 63.397359 
711.000000	 63.399982 
710.000000	 63.392782 
709.000000	 63.374710 
708.000000	 63.345956 
707.000000	 63.308048 
706.000000	 63.263607 
705.000000	 63.216090 
704.000000	 63.169670 
703.000000	 63.128089 
702.000000	 63.094234 
701.000000	 63.069677 
700.000000	 63.054323 
699.000000	 63.046956 
698.000000	 63.045120 
697.000000	 63.046884 
696.000000	 63.050866 
695.000000	 63.057613 
694.000000	 63.068890 
693.000000	 63.087630 
692.000000	 63.116669 
691.000000	 63.157272 
690.000000	 63.208293 
689.000000	 63.265967 
688.000000	 63.324689 
687.000000	 63.378524 
686.000000	 63.422727 
685.000000	 63.455367 
684.000000	 63.477253 
683.000000	 63.491582 
682.000000	 63.502168 
681.000000	 63.512277 
680.000000	 63.523149 
679.000000	 63.533782 
678.000000	 63.541436 
677.000000	 63.542938 
676.000000	 63.535594 
675.000000	 63.519167 
674.000000	 63.495492 
673.000000	 63.468551 
672.000000	 63.443231 
671.000000	 63.424229 
670.000000	 63.415265 
669.000000	 63.417553 
668.000000	 63.431119 
667.000000	 63.454604 
666.000000	 63.486528 
665.000000	 63.525652 
664.000000	 63.571524 
663.000000	 63.624215 
662.000000	 63.683247 
661.000000	 63.746690 
660.000000	 63.811182 
659.000000	 63.871884 
658.000000	 63.923859 
657.000000	 63.962650 
656.000000	 63.985610 
655.000000	 63.991904 
654.000000	 63.984203 
653.000000	 63.965964 
652.000000	 63.940620 
651.000000	 63.909530 
650.000000	 63.872408 
649.000000	 63.826632 
648.000000	 63.769221 
647.000000	 63.697814 
646.000000	 63.612270 
645.000000	 63.515830 
644.000000	 63.415956 
643.000000	 63.321828 
642.000000	 63.242435 
641.000000	 63.183879 
640.000000	 63.147664 
639.000000	 63.129901 
638.000000	 63.122177 
637.000000	 63.113856 
636.000000	 63.094949 
635.000000	 63.059306 
634.000000	 63.006758 
633.000000	 62.944126 
632.000000	 62.884402 
631.000000	 62.843894 
630.000000	 62.838935 
629.000000	 62.882542 
628.000000	 62.980794 
627.000000	 63.132643 
626.000000	 63.327336 
625.000000	 63.547062 
624.000000	 63.766741 
623.000000	 63.960003 
622.000000	 64.100956 
621.000000	 64.168739 
620.000000	 64.151000 
619.000000	 64.045643 
618.000000	 63.862609 
617.000000	 63.622283 
616.000000	 63.353466 
615.000000	 63.089394 
614.000000	 62.861943 
613.000000	 62.697529 
612.000000	 62.611722 
611.000000	 62.608242 
610.000000	 62.677073 
609.000000	 62.797880 
608.000000	 62.944197 
607.000000	 63.089585 
606.000000	 63.213944 
605.000000	 63.307881 
604.000000	 63.373327 
603.000000	 63.421916 
602.000000	 63.470959 
601.000000	 63.537454 
600.000000	 63.632941 
599.000000	 63.758301 
598.000000	 63.904905 
597.000000	 64.053988 
596.000000	 64.183855 
595.000000	 64.272236 
594.000000	 64.304518 
593.000000	 64.274144 
592.000000	 64.184522 
591.000000	 64.047741 
590.000000	 63.882303 
589.000000	 63.709211 
588.000000	 63.547492 
587.000000	 63.412261 
586.000000	 63.313388 
585.000000	 63.255071 
584.000000	 63.237500 
583.000000	 63.255667 
582.000000	 63.301014 
581.000000	 63.362216 
580.000000	 63.426947 
579.000000	 63.482403 
578.000000	 63.517522 
577.000000	 63.524317 
576.000000	 63.499784 
575.000000	 63.447570 
574.000000	 63.376545 
573.000000	 63.299250 
572.000000	 63.227796 
571.000000	 63.172245 
570.000000	 63.136267 
569.000000	 63.116550 
568.000000	 63.102579 
567.000000	 63.081002 
566.000000	 63.037872 
565.000000	 62.962985 
564.000000	 62.852835 
563.000000	 62.711763 
562.000000	 62.551832 
561.000000	 62.389039 
560.000000	 62.241005 
559.000000	 62.121939 
558.000000	 62.041878 
557.000000	 62.004971 
556.000000	 62.009835 
555.000000	 62.050318 
554.000000	 62.118935 
553.000000	 62.208437 
552.000000	 62.312030 
551.000000	 62.423396 
550.000000	 62.536311 
549.000000	 62.643837 
548.000000	 62.738609 
547.000000	 62.812185 
546.000000	 62.856841 
545.000000	 62.865185 
544.000000	 62.832641 
543.000000	 62.757730 
542.000000	 62.643742 
541.000000	 62.498378 
540.000000	 62.333488 
539.000000	 62.164044 
538.000000	 62.006664 
537.000000	 61.877083 
536.000000	 61.786985 
535.000000	 61.743664 
534.000000	 61.748456 
533.000000	 61.798310 
532.000000	 61.885261 
531.000000	 62.000608 
530.000000	 62.135648 
529.000000	 62.283802 
528.000000	 62.439823 
527.000000	 62.600374 
526.000000	 62.761855 
525.000000	 62.919068 
524.000000	 63.064098 
523.000000	 63.186216 
522.000000	 63.273096 
521.000000	 63.314628 
520.000000	 63.304662 
519.000000	 63.243651 
518.000000	 63.138532 
517.000000	 63.003134 
516.000000	 62.854743 
515.000000	 62.711000 
514.000000	 62.587285 
513.000000	 62.494444 
512.000000	 62.438488 
511.000000	 62.420392 
510.000000	 62.438368 
509.000000	 62.488579 
508.000000	 62.567591 
507.000000	 62.672185 
506.000000	 62.799620 
505.000000	 62.945747 
504.000000	 63.104486 
503.000000	 63.266587 
502.000000	 63.419914 
501.000000	 63.550591 
500.000000	 63.644671 
499.000000	 63.690638 
498.000000	 63.681912 
497.000000	 63.618373 
496.000000	 63.506436 
495.000000	 63.357853 
494.000000	 63.187861 
493.000000	 63.012313 
492.000000	 62.845849 
491.000000	 62.699484 
490.000000	 62.580156 
489.000000	 62.490248 
488.000000	 62.429141 
487.000000	 62.393593 
486.000000	 62.378430 
485.000000	 62.378716 
484.000000	 62.388992 
483.000000	 62.405872 
482.000000	 62.426567 
481.000000	 62.450170 
480.000000	 62.475633 
479.000000	 62.501955 
478.000000	 62.527036 
477.000000	 62.547755 
476.000000	 62.559652 
475.000000	 62.558627 
474.000000	 62.542176 
473.000000	 62.510514 
472.000000	 62.467050 
471.000000	 62.419223 
470.000000	 62.377429 
469.000000	 62.351465 
468.000000	 62.349176 
467.000000	 62.376213 
466.000000	 62.434792 
465.000000	 62.522673 
464.000000	 62.634086 
463.000000	 62.760567 
462.000000	 62.892127 
461.000000	 63.020753 
460.000000	 63.138675 
459.000000	 63.238263 
458.000000	 63.312005 
457.000000	 63.355088 
456.000000	 63.363313 
455.000000	 63.332128 
454.000000	 63.260674 
453.000000	 63.154053 
452.000000	 63.023376 
451.000000	 62.885522 
450.000000	 62.760996 
449.000000	 62.670969 
448.000000	 62.631225 
447.000000	 62.649059 
446.000000	 62.716221 
445.000000	 62.809562 
444.000000	 62.894558 
443.000000	 62.933230 
442.000000	 62.890815 
441.000000	 62.746524 
440.000000	 62.498307 
439.000000	 62.167930 
438.000000	 61.794662 
437.000000	 61.431932 
436.000000	 61.134767 
435.000000	 60.952520 
434.000000	 60.916137 
433.000000	 61.037373 
432.000000	 61.304259 
431.000000	 61.690974 
430.000000	 62.160301 
429.000000	 62.676167 
428.000000	 63.210558 
427.000000	 63.741946 
426.000000	 64.254117 
425.000000	 64.727997 
424.000000	 65.139985 
423.000000	 65.455412 
422.000000	 65.633773 
421.000000	 65.635037 
420.000000	 65.431332 
419.000000	 65.022659 
418.000000	 64.444088 
417.000000	 63.758683 
416.000000	 63.048076 
415.000000	 62.398529 
414.000000	 61.882829 
413.000000	 61.545538 
412.000000	 61.396813 
411.000000	 61.407184 
410.000000	 61.524939 
409.000000	 61.696434 
408.000000	 61.880612 
407.000000	 62.054800 
406.000000	 62.217354 
405.000000	 62.382388 
404.000000	 62.562942 
403.000000	 62.759280 
402.000000	 62.947535 
401.000000	 63.075876 
400.000000	 63.081121 
399.000000	 62.910032 
398.000000	 62.536168 
397.000000	 61.965847 
396.000000	 61.264419 
395.000000	 60.549402 
394.000000	 59.967160 
393.000000	 59.657192 
392.000000	 59.729552 
391.000000	 60.233044 
390.000000	 61.137676 
389.000000	 62.329101 
388.000000	 63.632822 
387.000000	 64.840269 
386.000000	 65.726447 
385.000000	 66.098546 
384.000000	 65.858054 
383.000000	 65.006065 
382.000000	 63.631558 
381.000000	 61.899900 
380.000000	 59.978079 
379.000000	 58.053922 
378.000000	 56.336402 
377.000000	 55.018830 
376.000000	 54.248237 
375.000000	 54.122018 
374.000000	 54.652857 
373.000000	 55.815815 
372.000000	 57.483410 
371.000000	 59.585809 
370.000000	 62.135052 

