PE IR       SPECTRUM    SPECTRUM    ASCII       PEDS        1.60        
  -1
BZ68A6~1.ASC
17/04/07
19:01:54.00
17/04/07
19:01:54.00
tln
$BZ1503107-1_t0070$<tbV0>[5.2,2.6,8.0,0.0,27,1,0]
370.000000
64









2002,4.07    
MIRTGS : RIGHTBACK : INTERNAL 2
MIR : ON : INTERNAL 2
OPTKBR

0.200000
8
8.000000
FILLER
RATIO
SPECTRUM
UNLOCKED 256

DOUBLE
64
COMBINED
1
0
0


1.000000
RATIO


1
0
TRUE
51149
0
LEFT NOT FITTED RIGHT NOT FITTED 0
NONE
NONE
15600
12.000000
4.427000
51148
TRUE
1 0 8 72 0 0 0 0 

15798.010000






#HDR
-1
-1
#GR
CM-1
%T
0.00002384185791015625
0.0
5000.000000
-1.000000
4631
8
68.996548
27.752399
#DATA
5000.000000	65.370774 
4999.000000	65.341496 
4998.000000	65.275549 
4997.000000	65.180826 
4996.000000	65.070557 
4995.000000	64.960861 
4994.000000	64.867925 
4993.000000	64.805650 
4992.000000	64.782238 
4991.000000	64.799880 
4990.000000	64.852929 
4989.000000	64.929699 
4988.000000	65.013957 
4987.000000	65.088415 
4986.000000	65.138030 
4985.000000	65.152740 
4984.000000	65.129685 
4983.000000	65.073204 
4982.000000	64.993953 
4981.000000	64.906024 
4980.000000	64.823436 
4979.000000	64.757442 
4978.000000	64.714312 
4977.000000	64.695143 
4976.000000	64.697337 
4975.000000	64.716267 
4974.000000	64.747524 
4973.000000	64.788389 
4972.000000	64.838194 
4971.000000	64.897680 
4970.000000	64.966726 
4969.000000	65.043830 
4968.000000	65.124773 
4967.000000	65.203094 
4966.000000	65.270805 
4965.000000	65.319728 
4964.000000	65.343546 
4963.000000	65.339303 
4962.000000	65.308809 
4961.000000	65.257883 
4960.000000	65.195274 
4959.000000	65.130972 
4958.000000	65.074181 
4957.000000	65.031266 
4956.000000	65.004706 
4955.000000	64.992833 
4954.000000	64.990663 
4953.000000	64.991497 
4952.000000	64.988660 
4951.000000	64.977025 
4950.000000	64.954113 
4949.000000	64.920091 
4948.000000	64.877748 
4947.000000	64.831447 
4946.000000	64.786100 
4945.000000	64.745426 
4944.000000	64.711689 
4943.000000	64.685320 
4942.000000	64.665579 
4941.000000	64.651250 
4940.000000	64.641332 
4939.000000	64.635443 
4938.000000	64.633727 
4937.000000	64.636421 
4936.000000	64.643764 
4935.000000	64.654946 
4934.000000	64.669370 
4933.000000	64.686536 
4932.000000	64.706277 
4931.000000	64.728569 
4930.000000	64.752888 
4929.000000	64.778089 
4928.000000	64.802050 
4927.000000	64.822125 
4926.000000	64.835429 
4925.000000	64.839839 
4924.000000	64.835238 
4923.000000	64.823842 
4922.000000	64.809894 
4921.000000	64.799165 
4920.000000	64.797258 
4919.000000	64.808750 
4918.000000	64.835429 
4917.000000	64.876723 
4916.000000	64.929294 
4915.000000	64.988470 
4914.000000	65.049910 
4913.000000	65.109777 
4912.000000	65.166234 
4911.000000	65.217733 
4910.000000	65.262866 
4909.000000	65.299129 
4908.000000	65.322899 
4907.000000	65.330839 
4906.000000	65.321087 
4905.000000	65.294551 
4904.000000	65.255284 
4903.000000	65.209841 
4902.000000	65.166139 
4901.000000	65.131378 
4900.000000	65.110516 
4899.000000	65.105557 
4898.000000	65.115237 
4897.000000	65.136146 
4896.000000	65.163469 
4895.000000	65.192532 
4894.000000	65.219426 
4893.000000	65.241217 
4892.000000	65.255975 
4891.000000	65.262460 
4890.000000	65.259814 
4889.000000	65.247488 
4888.000000	65.225315 
4887.000000	65.194535 
4886.000000	65.156984 
4885.000000	65.116357 
4884.000000	65.075683 
4883.000000	65.037798 
4882.000000	65.003347 
4881.000000	64.970493 
4880.000000	64.936113 
4879.000000	64.897036 
4878.000000	64.851450 
4877.000000	64.799809 
4876.000000	64.745903 
4875.000000	64.695930 
4874.000000	64.657115 
4873.000000	64.635825 
4872.000000	64.635825 
4871.000000	64.657044 
4870.000000	64.695405 
4869.000000	64.743518 
4868.000000	64.791798 
4867.000000	64.831256 
4866.000000	64.854931 
4865.000000	64.859986 
4864.000000	64.847755 
4863.000000	64.823198 
4862.000000	64.793658 
4861.000000	64.766430 
4860.000000	64.747476 
4859.000000	64.739155 
4858.000000	64.740633 
4857.000000	64.747118 
4856.000000	64.752221 
4855.000000	64.748883 
4854.000000	64.731812 
4853.000000	64.698266 
4852.000000	64.648795 
4851.000000	64.586973 
4850.000000	64.518666 
4849.000000	64.450216 
4848.000000	64.387106 
4847.000000	64.333176 
4846.000000	64.290380 
4845.000000	64.258980 
4844.000000	64.238333 
4843.000000	64.227747 
4842.000000	64.227247 
4841.000000	64.237618 
4840.000000	64.260029 
4839.000000	64.294886 
4838.000000	64.340925 
4837.000000	64.394903 
4836.000000	64.451146 
4835.000000	64.502239 
4834.000000	64.540219 
4833.000000	64.558029 
4832.000000	64.551186 
4831.000000	64.519095 
4830.000000	64.465355 
4829.000000	64.397048 
4828.000000	64.323949 
4827.000000	64.256596 
4826.000000	64.204716 
4825.000000	64.175128 
4824.000000	64.171600 
4823.000000	64.194250 
4822.000000	64.240384 
4821.000000	64.304757 
4820.000000	64.381098 
4819.000000	64.462661 
4818.000000	64.542531 
4817.000000	64.614105 
4816.000000	64.671015 
4815.000000	64.707970 
4814.000000	64.721417 
4813.000000	64.710211 
4812.000000	64.675951 
4811.000000	64.623522 
4810.000000	64.561057 
4809.000000	64.498329 
4808.000000	64.445638 
4807.000000	64.411234 
4806.000000	64.400219 
4805.000000	64.413189 
4804.000000	64.446282 
4803.000000	64.492583 
4802.000000	64.543771 
4801.000000	64.592552 
4800.000000	64.634013 
4799.000000	64.667034 
4798.000000	64.693546 
4797.000000	64.717936 
4796.000000	64.744973 
4795.000000	64.777970 
4794.000000	64.817047 
4793.000000	64.859151 
4792.000000	64.898061 
4791.000000	64.925837 
4790.000000	64.934206 
4789.000000	64.916801 
4788.000000	64.870405 
4787.000000	64.795947 
4786.000000	64.698553 
4785.000000	64.586496 
4784.000000	64.470410 
4783.000000	64.361333 
4782.000000	64.269590 
4781.000000	64.203047 
4780.000000	64.166331 
4779.000000	64.160251 
4778.000000	64.182186 
4777.000000	64.226078 
4776.000000	64.284300 
4775.000000	64.348030 
4774.000000	64.409351 
4773.000000	64.461612 
4772.000000	64.501166 
4771.000000	64.527034 
4770.000000	64.540743 
4769.000000	64.545154 
4768.000000	64.544034 
4767.000000	64.540982 
4766.000000	64.538574 
4765.000000	64.537906 
4764.000000	64.538884 
4763.000000	64.540529 
4762.000000	64.541912 
4761.000000	64.542412 
4760.000000	64.542222 
4759.000000	64.542007 
4758.000000	64.543080 
4757.000000	64.546346 
4756.000000	64.551496 
4755.000000	64.556956 
4754.000000	64.560890 
4753.000000	64.561247 
4752.000000	64.556336 
4751.000000	64.545536 
4750.000000	64.530348 
4749.000000	64.513063 
4748.000000	64.496111 
4747.000000	64.480948 
4746.000000	64.467573 
4745.000000	64.454197 
4744.000000	64.438033 
4743.000000	64.415812 
4742.000000	64.384913 
4741.000000	64.344763 
4740.000000	64.297342 
4739.000000	64.246630 
4738.000000	64.197850 
4737.000000	64.156198 
4736.000000	64.126133 
4735.000000	64.109945 
4734.000000	64.108371 
4733.000000	64.120602 
4732.000000	64.145421 
4731.000000	64.181590 
4730.000000	64.228296 
4729.000000	64.284992 
4728.000000	64.351034 
4727.000000	64.424395 
4726.000000	64.501881 
4725.000000	64.579105 
4724.000000	64.650917 
4723.000000	64.712429 
4722.000000	64.759302 
4721.000000	64.789271 
4720.000000	64.801478 
4719.000000	64.797186 
4718.000000	64.778280 
4717.000000	64.747047 
4716.000000	64.705729 
4715.000000	64.656519 
4714.000000	64.601397 
4713.000000	64.542460 
4712.000000	64.482736 
4711.000000	64.426183 
4710.000000	64.377212 
4709.000000	64.340090 
4708.000000	64.317989 
4707.000000	64.312005 
4706.000000	64.320325 
4705.000000	64.338397 
4704.000000	64.359855 
4703.000000	64.377689 
4702.000000	64.385390 
4701.000000	64.378619 
4700.000000	64.355802 
4699.000000	64.318346 
4698.000000	64.269924 
4697.000000	64.215755 
4696.000000	64.160799 
4695.000000	64.109754 
4694.000000	64.066171 
4693.000000	64.032554 
4692.000000	64.010167 
4691.000000	63.999772 
4690.000000	64.001822 
4689.000000	64.016318 
4688.000000	64.042377 
4687.000000	64.078092 
4686.000000	64.120388 
4685.000000	64.165067 
4684.000000	64.207553 
4683.000000	64.244055 
4682.000000	64.272403 
4681.000000	64.292812 
4680.000000	64.307951 
4679.000000	64.322376 
4678.000000	64.341259 
4677.000000	64.369463 
4676.000000	64.410066 
4675.000000	64.463734 
4674.000000	64.527988 
4673.000000	64.598774 
4672.000000	64.670395 
4671.000000	64.737129 
4670.000000	64.793753 
4669.000000	64.836812 
4668.000000	64.864277 
4667.000000	64.875841 
4666.000000	64.872479 
4665.000000	64.856386 
4664.000000	64.830303 
4663.000000	64.797401 
4662.000000	64.760851 
4661.000000	64.724111 
4660.000000	64.689564 
4659.000000	64.658451 
4658.000000	64.630675 
4657.000000	64.605379 
4656.000000	64.581179 
4655.000000	64.557147 
4654.000000	64.533138 
4653.000000	64.510416 
4652.000000	64.491701 
4651.000000	64.480781 
4650.000000	64.480876 
4649.000000	64.494132 
4648.000000	64.520645 
4647.000000	64.558506 
4646.000000	64.603471 
4645.000000	64.650154 
4644.000000	64.693093 
4643.000000	64.727616 
4642.000000	64.751005 
4641.000000	64.762711 
4640.000000	64.764046 
4639.000000	64.757919 
4638.000000	64.747714 
4637.000000	64.737486 
4636.000000	64.731359 
4635.000000	64.733099 
4634.000000	64.745688 
4633.000000	64.771080 
4632.000000	64.809584 
4631.000000	64.859700 
4630.000000	64.917826 
4629.000000	64.978480 
4628.000000	65.034985 
4627.000000	65.080881 
4626.000000	65.111112 
4625.000000	65.122485 
4624.000000	65.114784 
4623.000000	65.091037 
4622.000000	65.057229 
4621.000000	65.020513 
4620.000000	64.988684 
4619.000000	64.968419 
4618.000000	64.964723 
4617.000000	64.980530 
4616.000000	65.015840 
4615.000000	65.068578 
4614.000000	65.133810 
4613.000000	65.205168 
4612.000000	65.274429 
4611.000000	65.333056 
4610.000000	65.372896 
4609.000000	65.387511 
4608.000000	65.373420 
4607.000000	65.330839 
4606.000000	65.263843 
4605.000000	65.179967 
4604.000000	65.089488 
4603.000000	65.003967 
4602.000000	64.935040 
4601.000000	64.892721 
4600.000000	64.883995 
4599.000000	64.911794 
4598.000000	64.974904 
4597.000000	65.067648 
4596.000000	65.180611 
4595.000000	65.301823 
4594.000000	65.418505 
4593.000000	65.518760 
4592.000000	65.592837 
4591.000000	65.634822 
4590.000000	65.642929 
4589.000000	65.620183 
4588.000000	65.573430 
4587.000000	65.512466 
4586.000000	65.448808 
4585.000000	65.393304 
4584.000000	65.354776 
4583.000000	65.338563 
4582.000000	65.346670 
4581.000000	65.376734 
4580.000000	65.423154 
4579.000000	65.478467 
4578.000000	65.535044 
4577.000000	65.586209 
4576.000000	65.627551 
4575.000000	65.656924 
4574.000000	65.674519 
4573.000000	65.682244 
4572.000000	65.683054 
4571.000000	65.679907 
4570.000000	65.674924 
4569.000000	65.669822 
4568.000000	65.665125 
4567.000000	65.661263 
4566.000000	65.657567 
4565.000000	65.653872 
4564.000000	65.649294 
4563.000000	65.643477 
4562.000000	65.635013 
4561.000000	65.621924 
4560.000000	65.600943 
4559.000000	65.568518 
4558.000000	65.521240 
4557.000000	65.456819 
4556.000000	65.375542 
4555.000000	65.280604 
4554.000000	65.179228 
4553.000000	65.081715 
4552.000000	64.999604 
4551.000000	64.943122 
4550.000000	64.919567 
4549.000000	64.931464 
4548.000000	64.975428 
4547.000000	65.042948 
4546.000000	65.121865 
4545.000000	65.199398 
4544.000000	65.264558 
4543.000000	65.310668 
4542.000000	65.336084 
4541.000000	65.344214 
4540.000000	65.341687 
4539.000000	65.336298 
4538.000000	65.334701 
4537.000000	65.340209 
4536.000000	65.352320 
4535.000000	65.366959 
4534.000000	65.378379 
4533.000000	65.381479 
4532.000000	65.373945 
4531.000000	65.357851 
4530.000000	65.339207 
4529.000000	65.327095 
4528.000000	65.330934 
4527.000000	65.358614 
4526.000000	65.414166 
4525.000000	65.497660 
4524.000000	65.604758 
4523.000000	65.728306 
4522.000000	65.859341 
4521.000000	65.988039 
4520.000000	66.105055 
4519.000000	66.202592 
4518.000000	66.275262 
4517.000000	66.320705 
4516.000000	66.339445 
4515.000000	66.335558 
4514.000000	66.314792 
4513.000000	66.284632 
4512.000000	66.251444 
4511.000000	66.220259 
4510.000000	66.193032 
4509.000000	66.170001 
4508.000000	66.148877 
4507.000000	66.126942 
4506.000000	66.101527 
4505.000000	66.071820 
4504.000000	66.038823 
4503.000000	66.005158 
4502.000000	65.974521 
4501.000000	65.950393 
4500.000000	65.934848 
4499.000000	65.927529 
4498.000000	65.926146 
4497.000000	65.927076 
4496.000000	65.926671 
4495.000000	65.922546 
4494.000000	65.915060 
4493.000000	65.907263 
4492.000000	65.903830 
4491.000000	65.909647 
4490.000000	65.928792 
4489.000000	65.962314 
4488.000000	66.007709 
4487.000000	66.058397 
4486.000000	66.105484 
4485.000000	66.139245 
4484.000000	66.151332 
4483.000000	66.136884 
4482.000000	66.096305 
4481.000000	66.034579 
4480.000000	65.960669 
4479.000000	65.884470 
4478.000000	65.814256 
4477.000000	65.755486 
4476.000000	65.710115 
4475.000000	65.677428 
4474.000000	65.655446 
4473.000000	65.642595 
4472.000000	65.639448 
4471.000000	65.646123 
4470.000000	65.661978 
4469.000000	65.683770 
4468.000000	65.706276 
4467.000000	65.723776 
4466.000000	65.731620 
4465.000000	65.729808 
4464.000000	65.722227 
4463.000000	65.713357 
4462.000000	65.707945 
4461.000000	65.710186 
4460.000000	65.721535 
4459.000000	65.742015 
4458.000000	65.767908 
4457.000000	65.789008 
4456.000000	65.794157 
4455.000000	65.779066 
4454.000000	65.743350 
4453.000000	65.683960 
4452.000000	65.605807 
4451.000000	65.524363 
4450.000000	65.458846 
4449.000000	65.423488 
4448.000000	65.433406 
4447.000000	65.504455 
4446.000000	65.639519 
4445.000000	65.826821 
4444.000000	66.039252 
4443.000000	66.241502 
4442.000000	66.393232 
4441.000000	66.463661 
4440.000000	66.451263 
4439.000000	66.386938 
4438.000000	66.339087 
4437.000000	66.387701 
4436.000000	66.599225 
4435.000000	66.992235 
4434.000000	67.544221 
4433.000000	68.163013 
4432.000000	68.706369 
4431.000000	68.996548 
4430.000000	68.882536 
4429.000000	68.250274 
4428.000000	67.062854 
4427.000000	65.354442 
4426.000000	63.243699 
4425.000000	60.885405 
4424.000000	58.442044 
4423.000000	56.054735 
4422.000000	53.825736 
4421.000000	51.818633 
4420.000000	50.069785 
4419.000000	48.592972 
4418.000000	47.396683 
4417.000000	46.464467 
4416.000000	45.766115 
4415.000000	45.248055 
4414.000000	44.859170 
4413.000000	44.584846 
4412.000000	44.469952 
4411.000000	44.618391 
4410.000000	45.176148 
4409.000000	46.277618 
4408.000000	48.008584 
4407.000000	50.342011 
4406.000000	53.146123 
4405.000000	56.194901 
4404.000000	59.215211 
4403.000000	61.949682 
4402.000000	64.195346 
4401.000000	65.841150 
4400.000000	66.872501 
4399.000000	67.364716 
4398.000000	67.447638 
4397.000000	67.273068 
4396.000000	66.977787 
4395.000000	66.678237 
4394.000000	66.435408 
4393.000000	66.268968 
4392.000000	66.167402 
4391.000000	66.121554 
4390.000000	66.113185 
4389.000000	66.130328 
4388.000000	66.168117 
4387.000000	66.229772 
4386.000000	66.316032 
4385.000000	66.422963 
4384.000000	66.542506 
4383.000000	66.661047 
4382.000000	66.763162 
4381.000000	66.832733 
4380.000000	66.853356 
4379.000000	66.813540 
4378.000000	66.714262 
4377.000000	66.566371 
4376.000000	66.384530 
4375.000000	66.188192 
4374.000000	66.004586 
4373.000000	65.856552 
4372.000000	65.751051 
4371.000000	65.687870 
4370.000000	65.667033 
4369.000000	65.682244 
4368.000000	65.720415 
4367.000000	65.770268 
4366.000000	65.824532 
4365.000000	65.879893 
4364.000000	65.936017 
4363.000000	65.992856 
4362.000000	66.048479 
4361.000000	66.098952 
4360.000000	66.138648 
4359.000000	66.162729 
4358.000000	66.168594 
4357.000000	66.158223 
4356.000000	66.137218 
4355.000000	66.113591 
4354.000000	66.094803 
4353.000000	66.085457 
4352.000000	66.086292 
4351.000000	66.095089 
4350.000000	66.107058 
4349.000000	66.117382 
4348.000000	66.121912 
4347.000000	66.118812 
4346.000000	66.108345 
4345.000000	66.091775 
4344.000000	66.071891 
4343.000000	66.051483 
4342.000000	66.033673 
4341.000000	66.021394 
4340.000000	66.016578 
4339.000000	66.019749 
4338.000000	66.029334 
4337.000000	66.042327 
4336.000000	66.053724 
4335.000000	66.057586 
4334.000000	66.048169 
4333.000000	66.021656 
4332.000000	65.977978 
4331.000000	65.921425 
4330.000000	65.860772 
4329.000000	65.806746 
4328.000000	65.769600 
4327.000000	65.755367 
4326.000000	65.764522 
4325.000000	65.790414 
4324.000000	65.820932 
4323.000000	65.840792 
4322.000000	65.836143 
4321.000000	65.797209 
4320.000000	65.720462 
4319.000000	65.609884 
4318.000000	65.475416 
4317.000000	65.331554 
4316.000000	65.193700 
4315.000000	65.075731 
4314.000000	64.987134 
4313.000000	64.932680 
4312.000000	64.912414 
4311.000000	64.922690 
4310.000000	64.957809 
4309.000000	65.011382 
4308.000000	65.077543 
4307.000000	65.151262 
4306.000000	65.228557 
4305.000000	65.306544 
4304.000000	65.383219 
4303.000000	65.457081 
4302.000000	65.526890 
4301.000000	65.591716 
4300.000000	65.650963 
4299.000000	65.704464 
4298.000000	65.752220 
4297.000000	65.795063 
4296.000000	65.833353 
4295.000000	65.868473 
4294.000000	65.900444 
4293.000000	65.928936 
4292.000000	65.951752 
4291.000000	65.966367 
4290.000000	65.969347 
4289.000000	65.957880 
4288.000000	65.930342 
4287.000000	65.887475 
4286.000000	65.832233 
4285.000000	65.769410 
4284.000000	65.705418 
4283.000000	65.647244 
4282.000000	65.601038 
4281.000000	65.570712 
4280.000000	65.557384 
4279.000000	65.559172 
4278.000000	65.571641 
4277.000000	65.588974 
4276.000000	65.604496 
4275.000000	65.612220 
4274.000000	65.608334 
4273.000000	65.591835 
4272.000000	65.563702 
4271.000000	65.527081 
4270.000000	65.486526 
4269.000000	65.446710 
4268.000000	65.411233 
4267.000000	65.381932 
4266.000000	65.359139 
4265.000000	65.341472 
4264.000000	65.326547 
4263.000000	65.312123 
4262.000000	65.296983 
4261.000000	65.281319 
4260.000000	65.266323 
4259.000000	65.254306 
4258.000000	65.247583 
4257.000000	65.247750 
4256.000000	65.254783 
4255.000000	65.266919 
4254.000000	65.280771 
4253.000000	65.292406 
4252.000000	65.298247 
4251.000000	65.295934 
4250.000000	65.284752 
4249.000000	65.266156 
4248.000000	65.242981 
4247.000000	65.218591 
4246.000000	65.195870 
4245.000000	65.176725 
4244.000000	65.161585 
4243.000000	65.149569 
4242.000000	65.138888 
4241.000000	65.128064 
4240.000000	65.115547 
4239.000000	65.100336 
4238.000000	65.081667 
4237.000000	65.059089 
4236.000000	65.032005 
4235.000000	64.999246 
4234.000000	64.959788 
4233.000000	64.912915 
4232.000000	64.859390 
4231.000000	64.801692 
4230.000000	64.744114 
4229.000000	64.692044 
4228.000000	64.651107 
4227.000000	64.625835 
4226.000000	64.618396 
4225.000000	64.627981 
4224.000000	64.650988 
4223.000000	64.682197 
4222.000000	64.715456 
4221.000000	64.745712 
4220.000000	64.769649 
4219.000000	64.786577 
4218.000000	64.797735 
4217.000000	64.805984 
4216.000000	64.814496 
4215.000000	64.825892 
4214.000000	64.841914 
4213.000000	64.862728 
4212.000000	64.887237 
4211.000000	64.913153 
4210.000000	64.938688 
4209.000000	64.961314 
4208.000000	64.978861 
4207.000000	64.988780 
4206.000000	64.988994 
4205.000000	64.977264 
4204.000000	64.952015 
4203.000000	64.912700 
4202.000000	64.860296 
4201.000000	64.797496 
4200.000000	64.728832 
4199.000000	64.659953 
4198.000000	64.597129 
4197.000000	64.545750 
4196.000000	64.509582 
4195.000000	64.489769 
4194.000000	64.484882 
4193.000000	64.491343 
4192.000000	64.504742 
4191.000000	64.520120 
4190.000000	64.534020 
4189.000000	64.544701 
4188.000000	64.553475 
4187.000000	64.562797 
4186.000000	64.576649 
4185.000000	64.598941 
4184.000000	64.632153 
4183.000000	64.676761 
4182.000000	64.729690 
4181.000000	64.785337 
4180.000000	64.835810 
4179.000000	64.873123 
4178.000000	64.890527 
4177.000000	64.884543 
4176.000000	64.855742 
4175.000000	64.809012 
4174.000000	64.752388 
4173.000000	64.695239 
4172.000000	64.646387 
4171.000000	64.612150 
4170.000000	64.594483 
4169.000000	64.590883 
4168.000000	64.595675 
4167.000000	64.601874 
4166.000000	64.602899 
4165.000000	64.594674 
4164.000000	64.576625 
4163.000000	64.551925 
4162.000000	64.525508 
4161.000000	64.503240 
4160.000000	64.489483 
4159.000000	64.486861 
4158.000000	64.495491 
4157.000000	64.513611 
4156.000000	64.538574 
4155.000000	64.567160 
4154.000000	64.596581 
4153.000000	64.624428 
4152.000000	64.648699 
4151.000000	64.667963 
4150.000000	64.681267 
4149.000000	64.688181 
4148.000000	64.688706 
4147.000000	64.683842 
4146.000000	64.675617 
4145.000000	64.667010 
4144.000000	64.661431 
4143.000000	64.662218 
4142.000000	64.671778 
4141.000000	64.691185 
4140.000000	64.719676 
4139.000000	64.754700 
4138.000000	64.792561 
4137.000000	64.829063 
4136.000000	64.860725 
4135.000000	64.885663 
4134.000000	64.903855 
4133.000000	64.916968 
4132.000000	64.927649 
4131.000000	64.938807 
4130.000000	64.952397 
4129.000000	64.969301 
4128.000000	64.988279 
4127.000000	65.006685 
4126.000000	65.020775 
4125.000000	65.026998 
4124.000000	65.022850 
4123.000000	65.007567 
4122.000000	64.982342 
4121.000000	64.950108 
4120.000000	64.914965 
4119.000000	64.881324 
4118.000000	64.853072 
4117.000000	64.832806 
4116.000000	64.821791 
4115.000000	64.819574 
4114.000000	64.824271 
4113.000000	64.832758 
4112.000000	64.841246 
4111.000000	64.845752 
4110.000000	64.842319 
4109.000000	64.828395 
4108.000000	64.803004 
4107.000000	64.767837 
4106.000000	64.726424 
4105.000000	64.684367 
4104.000000	64.647722 
4103.000000	64.621949 
4102.000000	64.610862 
4101.000000	64.615511 
4100.000000	64.634299 
4099.000000	64.663124 
4098.000000	64.696192 
4097.000000	64.727663 
4096.000000	64.752483 
4095.000000	64.767718 
4094.000000	64.772629 
4093.000000	64.768743 
4092.000000	64.758920 
4091.000000	64.746713 
4090.000000	64.735007 
4089.000000	64.725041 
4088.000000	64.716219 
4087.000000	64.706778 
4086.000000	64.694380 
4085.000000	64.676833 
4084.000000	64.653420 
4083.000000	64.625287 
4082.000000	64.595937 
4081.000000	64.570379 
4080.000000	64.554166 
4079.000000	64.552187 
4078.000000	64.567065 
4077.000000	64.598202 
4076.000000	64.641690 
4075.000000	64.690947 
4074.000000	64.737844 
4073.000000	64.774703 
4072.000000	64.795613 
4071.000000	64.797973 
4070.000000	64.782476 
4069.000000	64.752769 
4068.000000	64.714646 
4067.000000	64.674496 
4066.000000	64.638590 
4065.000000	64.611887 
4064.000000	64.597511 
4063.000000	64.596748 
4062.000000	64.608955 
4061.000000	64.631962 
4060.000000	64.662384 
4059.000000	64.696502 
4058.000000	64.730238 
4057.000000	64.760136 
4056.000000	64.783573 
4055.000000	64.799356 
4054.000000	64.808011 
4053.000000	64.810919 
4052.000000	64.810824 
4051.000000	64.809918 
4050.000000	64.809775 
4049.000000	64.810276 
4048.000000	64.810180 
4047.000000	64.807391 
4046.000000	64.799976 
4045.000000	64.787006 
4044.000000	64.769387 
4043.000000	64.749979 
4042.000000	64.733004 
4041.000000	64.722990 
4040.000000	64.723467 
4039.000000	64.736151 
4038.000000	64.760327 
4037.000000	64.793181 
4036.000000	64.830279 
4035.000000	64.867019 
4034.000000	64.899301 
4033.000000	64.924621 
4032.000000	64.942264 
4031.000000	64.952898 
4030.000000	64.958024 
4029.000000	64.959096 
4028.000000	64.957165 
4027.000000	64.953064 
4026.000000	64.947080 
4025.000000	64.939665 
4024.000000	64.931225 
4023.000000	64.922809 
4022.000000	64.915561 
4021.000000	64.910578 
4020.000000	64.908814 
4019.000000	64.910721 
4018.000000	64.916372 
4017.000000	64.925408 
4016.000000	64.937353 
4015.000000	64.951848 
4014.000000	64.968681 
4013.000000	64.987683 
4012.000000	65.008425 
4011.000000	65.029954 
4010.000000	65.050816 
4009.000000	65.069127 
4008.000000	65.083169 
4007.000000	65.091586 
4006.000000	65.094137 
4005.000000	65.091347 
4004.000000	65.084791 
4003.000000	65.076065 
4002.000000	65.066576 
4001.000000	65.056967 
4000.000000	65.047144 
3999.000000	65.036582 
3998.000000	65.024423 
3997.000000	65.010094 
3996.000000	64.993572 
3995.000000	64.975643 
3994.000000	64.957737 
3993.000000	64.941620 
3992.000000	64.928722 
3991.000000	64.919972 
3990.000000	64.915466 
3989.000000	64.914727 
3988.000000	64.916872 
3987.000000	64.921045 
3986.000000	64.926409 
3985.000000	64.932250 
3984.000000	64.938235 
3983.000000	64.943981 
3982.000000	64.948940 
3981.000000	64.952921 
3980.000000	64.955854 
3979.000000	64.958024 
3978.000000	64.959859 
3977.000000	64.961481 
3976.000000	64.962697 
3975.000000	64.962625 
3974.000000	64.960122 
3973.000000	64.953780 
3972.000000	64.942908 
3971.000000	64.927530 
3970.000000	64.909195 
3969.000000	64.890456 
3968.000000	64.874815 
3967.000000	64.865660 
3966.000000	64.865469 
3965.000000	64.874696 
3964.000000	64.891624 
3963.000000	64.912486 
3962.000000	64.932298 
3961.000000	64.946079 
3960.000000	64.950084 
3959.000000	64.942741 
3958.000000	64.925122 
3957.000000	64.900541 
3956.000000	64.873862 
3955.000000	64.850234 
3954.000000	64.834380 
3953.000000	64.829587 
3952.000000	64.837503 
3951.000000	64.857578 
3950.000000	64.887237 
3949.000000	64.922237 
3948.000000	64.957737 
3947.000000	64.988851 
3946.000000	65.011358 
3945.000000	65.022587 
3944.000000	65.021729 
3943.000000	65.010046 
3942.000000	64.990139 
3941.000000	64.965915 
3940.000000	64.941787 
3939.000000	64.921689 
3938.000000	64.908576 
3937.000000	64.903688 
3936.000000	64.906764 
3935.000000	64.915585 
3934.000000	64.926576 
3933.000000	64.935302 
3932.000000	64.937448 
3931.000000	64.929628 
3930.000000	64.910149 
3929.000000	64.879488 
3928.000000	64.840364 
3927.000000	64.797830 
3926.000000	64.758586 
3925.000000	64.729809 
3924.000000	64.717745 
3923.000000	64.726567 
3922.000000	64.757490 
3921.000000	64.808320 
3920.000000	64.873886 
3919.000000	64.946866 
3918.000000	65.019512 
3917.000000	65.084385 
3916.000000	65.136432 
3915.000000	65.173435 
3914.000000	65.196228 
3913.000000	65.207743 
3912.000000	65.212416 
3911.000000	65.215086 
3910.000000	65.219449 
3909.000000	65.228128 
3908.000000	65.241360 
3907.000000	65.257763 
3906.000000	65.274596 
3905.000000	65.289020 
3904.000000	65.298223 
3903.000000	65.300226 
3902.000000	65.294122 
3901.000000	65.280175 
3900.000000	65.259575 
3899.000000	65.234184 
3898.000000	65.206360 
3897.000000	65.178608 
3896.000000	65.153503 
3895.000000	65.132975 
3894.000000	65.118718 
3893.000000	65.111231 
3892.000000	65.109777 
3891.000000	65.112113 
3890.000000	65.114951 
3889.000000	65.114474 
3888.000000	65.107250 
3887.000000	65.091228 
3886.000000	65.065884 
3885.000000	65.032958 
3884.000000	64.996385 
3883.000000	64.961266 
3882.000000	64.932465 
3881.000000	64.913868 
3880.000000	64.907431 
3879.000000	64.912581 
3878.000000	64.926671 
3877.000000	64.945888 
3876.000000	64.966344 
3875.000000	64.985060 
3874.000000	65.000677 
3873.000000	65.013217 
3872.000000	65.024065 
3871.000000	65.034985 
3870.000000	65.047550 
3869.000000	65.062451 
3868.000000	65.079545 
3867.000000	65.098285 
3866.000000	65.117669 
3865.000000	65.137004 
3864.000000	65.155482 
3863.000000	65.172958 
3862.000000	65.188884 
3861.000000	65.202450 
3860.000000	65.211868 
3859.000000	65.214920 
3858.000000	65.208935 
3857.000000	65.191864 
3856.000000	65.162634 
3855.000000	65.122079 
3854.000000	65.072727 
3853.000000	65.018677 
3852.000000	64.965081 
3851.000000	64.917135 
3850.000000	64.879322 
3849.000000	64.854621 
3848.000000	64.844393 
3847.000000	64.848279 
3846.000000	64.864301 
3845.000000	64.889335 
3844.000000	64.919590 
3843.000000	64.951562 
3842.000000	64.982295 
3841.000000	65.009880 
3840.000000	65.033078 
3839.000000	65.051412 
3838.000000	65.064644 
3837.000000	65.072679 
3836.000000	65.075373 
3835.000000	65.072369 
3834.000000	65.063786 
3833.000000	65.049862 
3832.000000	65.031743 
3831.000000	65.010857 
3830.000000	64.989233 
3829.000000	64.968776 
3828.000000	64.951157 
3827.000000	64.937615 
3826.000000	64.928555 
3825.000000	64.924168 
3824.000000	64.924478 
3823.000000	64.930152 
3822.000000	64.942407 
3821.000000	64.963006 
3820.000000	64.993548 
3819.000000	65.034461 
3818.000000	65.084362 
3817.000000	65.139722 
3816.000000	65.195322 
3815.000000	65.244960 
3814.000000	65.282773 
3813.000000	65.304851 
3812.000000	65.309500 
3811.000000	65.297865 
3810.000000	65.273189 
3809.000000	65.239977 
3808.000000	65.202975 
3807.000000	65.166282 
3806.000000	65.132951 
3805.000000	65.104866 
3804.000000	65.082955 
3803.000000	65.068030 
3802.000000	65.060591 
3801.000000	65.061187 
3800.000000	65.069818 
3799.000000	65.085649 
3798.000000	65.106487 
3797.000000	65.128612 
3796.000000	65.147876 
3795.000000	65.160369 
3794.000000	65.163755 
3793.000000	65.157580 
3792.000000	65.144038 
3791.000000	65.127372 
3790.000000	65.112686 
3789.000000	65.104651 
3788.000000	65.106916 
3787.000000	65.120625 
3786.000000	65.144515 
3785.000000	65.174698 
3784.000000	65.206384 
3783.000000	65.234327 
3782.000000	65.254402 
3781.000000	65.263915 
3780.000000	65.262293 
3779.000000	65.250706 
3778.000000	65.231752 
3777.000000	65.208482 
3776.000000	65.183568 
3775.000000	65.158820 
3774.000000	65.135359 
3773.000000	65.113067 
3772.000000	65.091013 
3771.000000	65.067768 
3770.000000	65.042328 
3769.000000	65.014100 
3768.000000	64.983129 
3767.000000	64.949846 
3766.000000	64.915037 
3765.000000	64.879083 
3764.000000	64.841961 
3763.000000	64.803051 
3762.000000	64.761614 
3761.000000	64.717054 
3760.000000	64.669775 
3759.000000	64.621520 
3758.000000	64.575505 
3757.000000	64.535951 
3756.000000	64.507460 
3755.000000	64.493656 
3754.000000	64.496612 
3753.000000	64.516162 
3752.000000	64.550018 
3751.000000	64.593553 
3750.000000	64.641547 
3749.000000	64.688897 
3748.000000	64.731836 
3747.000000	64.768362 
3746.000000	64.798259 
3745.000000	64.822387 
3744.000000	64.842104 
3743.000000	64.858651 
3742.000000	64.872622 
3741.000000	64.883875 
3740.000000	64.892220 
3739.000000	64.897847 
3738.000000	64.901852 
3737.000000	64.906334 
3736.000000	64.914393 
3735.000000	64.929318 
3734.000000	64.953136 
3733.000000	64.985847 
3732.000000	65.025353 
3731.000000	65.067243 
3730.000000	65.105676 
3729.000000	65.134453 
3728.000000	65.148830 
3727.000000	65.146303 
3726.000000	65.127182 
3725.000000	65.094685 
3724.000000	65.054130 
3723.000000	65.011930 
3722.000000	64.974331 
3721.000000	64.946269 
3720.000000	64.930438 
3719.000000	64.927053 
3718.000000	64.934611 
3717.000000	64.949584 
3716.000000	64.967632 
3715.000000	64.984321 
3714.000000	64.996314 
3713.000000	65.001559 
3712.000000	64.999866 
3711.000000	64.992952 
3710.000000	64.984202 
3709.000000	64.977860 
3708.000000	64.977979 
3707.000000	64.987325 
3706.000000	65.006494 
3705.000000	65.033912 
3704.000000	65.065956 
3703.000000	65.097856 
3702.000000	65.124821 
3701.000000	65.143132 
3700.000000	65.151166 
3699.000000	65.149807 
3698.000000	65.141534 
3697.000000	65.129733 
3696.000000	65.117096 
3695.000000	65.105056 
3694.000000	65.092992 
3693.000000	65.078926 
3692.000000	65.060091 
3691.000000	65.034580 
3690.000000	65.002226 
3689.000000	64.965319 
3688.000000	64.928245 
3687.000000	64.896488 
3686.000000	64.875054 
3685.000000	64.867544 
3684.000000	64.875459 
3683.000000	64.897918 
3682.000000	64.932417 
3681.000000	64.975428 
3680.000000	65.023565 
3679.000000	65.073800 
3678.000000	65.123724 
3677.000000	65.170931 
3676.000000	65.212559 
3675.000000	65.245079 
3674.000000	65.264129 
3673.000000	65.265655 
3672.000000	65.247130 
3671.000000	65.208458 
3670.000000	65.153121 
3669.000000	65.087389 
3668.000000	65.019989 
3667.000000	64.959549 
3666.000000	64.913225 
3665.000000	64.884734 
3664.000000	64.873862 
3663.000000	64.876651 
3662.000000	64.886760 
3661.000000	64.897537 
3660.000000	64.903759 
3659.000000	64.903116 
3658.000000	64.896607 
3657.000000	64.887905 
3656.000000	64.881896 
3655.000000	64.883112 
3654.000000	64.893770 
3653.000000	64.913344 
3652.000000	64.938092 
3651.000000	64.962530 
3650.000000	64.980697 
3649.000000	64.987993 
3648.000000	64.982199 
3647.000000	64.964008 
3646.000000	64.936733 
3645.000000	64.905452 
3644.000000	64.875411 
3643.000000	64.850878 
3642.000000	64.834046 
3641.000000	64.825129 
3640.000000	64.822244 
3639.000000	64.822745 
3638.000000	64.823651 
3637.000000	64.822793 
3636.000000	64.819097 
3635.000000	64.812994 
3634.000000	64.806056 
3633.000000	64.800238 
3632.000000	64.797520 
3631.000000	64.799380 
3630.000000	64.806270 
3629.000000	64.817738 
3628.000000	64.832615 
3627.000000	64.849400 
3626.000000	64.866852 
3625.000000	64.884209 
3624.000000	64.901399 
3623.000000	64.918851 
3622.000000	64.936876 
3621.000000	64.955544 
3620.000000	64.974379 
3619.000000	64.992117 
3618.000000	65.007090 
3617.000000	65.017342 
3616.000000	65.021491 
3615.000000	65.018653 
3614.000000	65.009021 
3613.000000	64.993834 
3612.000000	64.975261 
3611.000000	64.955735 
3610.000000	64.937496 
3609.000000	64.922380 
3608.000000	64.911389 
3607.000000	64.904904 
3606.000000	64.902710 
3605.000000	64.904236 
3604.000000	64.908790 
3603.000000	64.915657 
3602.000000	64.924216 
3601.000000	64.933729 
3600.000000	64.943718 
3599.000000	64.953660 
3598.000000	64.963316 
3597.000000	64.972472 
3596.000000	64.980983 
3595.000000	64.988756 
3594.000000	64.995408 
3593.000000	65.000367 
3592.000000	65.003013 
3591.000000	65.002894 
3590.000000	64.999747 
3589.000000	64.993858 
3588.000000	64.986038 
3587.000000	64.977669 
3586.000000	64.970421 
3585.000000	64.965915 
3584.000000	64.965152 
3583.000000	64.968299 
3582.000000	64.974689 
3581.000000	64.983010 
3580.000000	64.991831 
3579.000000	64.999914 
3578.000000	65.006709 
3577.000000	65.012431 
3576.000000	65.017843 
3575.000000	65.023684 
3574.000000	65.030431 
3573.000000	65.037918 
3572.000000	65.045428 
3571.000000	65.051913 
3570.000000	65.056490 
3569.000000	65.058374 
3568.000000	65.057229 
3567.000000	65.053081 
3566.000000	65.046334 
3565.000000	65.037369 
3564.000000	65.026497 
3563.000000	65.014100 
3562.000000	65.000438 
3561.000000	64.986371 
3560.000000	64.973092 
3559.000000	64.962387 
3558.000000	64.956164 
3557.000000	64.956045 
3556.000000	64.962625 
3555.000000	64.975333 
3554.000000	64.991927 
3553.000000	65.009093 
3552.000000	65.023136 
3551.000000	65.030908 
3550.000000	65.030407 
3549.000000	65.021491 
3548.000000	65.006017 
3547.000000	64.987158 
3546.000000	64.968919 
3545.000000	64.955067 
3544.000000	64.948534 
3543.000000	64.950799 
3542.000000	64.961719 
3541.000000	64.979648 
3540.000000	65.002012 
3539.000000	65.026092 
3538.000000	65.049147 
3537.000000	65.069198 
3536.000000	65.084934 
3535.000000	65.095806 
3534.000000	65.101766 
3533.000000	65.103030 
3532.000000	65.099883 
3531.000000	65.092825 
3530.000000	65.082383 
3529.000000	65.069556 
3528.000000	65.055370 
3527.000000	65.041232 
3526.000000	65.028357 
3525.000000	65.017747 
3524.000000	65.009880 
3523.000000	65.004682 
3522.000000	65.001630 
3521.000000	64.999985 
3520.000000	64.999008 
3519.000000	64.998269 
3518.000000	64.997768 
3517.000000	64.998006 
3516.000000	64.999604 
3515.000000	65.003085 
3514.000000	65.008664 
3513.000000	65.016198 
3512.000000	65.025091 
3511.000000	65.034580 
3510.000000	65.043902 
3509.000000	65.052390 
3508.000000	65.059876 
3507.000000	65.066051 
3506.000000	65.070629 
3505.000000	65.073084 
3504.000000	65.072631 
3503.000000	65.068459 
3502.000000	65.059900 
3501.000000	65.047073 
3500.000000	65.031075 
3499.000000	65.013766 
3498.000000	64.997291 
3497.000000	64.983987 
3496.000000	64.975762 
3495.000000	64.973306 
3494.000000	64.976119 
3493.000000	64.982318 
3492.000000	64.989185 
3491.000000	64.993882 
3490.000000	64.994263 
3489.000000	64.989113 
3488.000000	64.978885 
3487.000000	64.965605 
3486.000000	64.952468 
3485.000000	64.943051 
3484.000000	64.940547 
3483.000000	64.946985 
3482.000000	64.962601 
3481.000000	64.985871 
3480.000000	65.013694 
3479.000000	65.041971 
3478.000000	65.066838 
3477.000000	65.085244 
3476.000000	65.096044 
3475.000000	65.100288 
3474.000000	65.101027 
3473.000000	65.102362 
3472.000000	65.108275 
3471.000000	65.121483 
3470.000000	65.142464 
3469.000000	65.168976 
3468.000000	65.196561 
3467.000000	65.219235 
3466.000000	65.231227 
3465.000000	65.228295 
3464.000000	65.208768 
3463.000000	65.174460 
3462.000000	65.129923 
3461.000000	65.081906 
3460.000000	65.037775 
3459.000000	65.004348 
3458.000000	64.986157 
3457.000000	64.985013 
3456.000000	64.999961 
3455.000000	65.027570 
3454.000000	65.062904 
3453.000000	65.100502 
3452.000000	65.135312 
3451.000000	65.163612 
3450.000000	65.182900 
3449.000000	65.192461 
3448.000000	65.192961 
3447.000000	65.186119 
3446.000000	65.174078 
3445.000000	65.159130 
3444.000000	65.143370 
3443.000000	65.128445 
3442.000000	65.115261 
3441.000000	65.103983 
3440.000000	65.094161 
3439.000000	65.084886 
3438.000000	65.075230 
3437.000000	65.064358 
3436.000000	65.052080 
3435.000000	65.038657 
3434.000000	65.024638 
3433.000000	65.011072 
3432.000000	64.998769 
3431.000000	64.988303 
3430.000000	64.979767 
3429.000000	64.972686 
3428.000000	64.966344 
3427.000000	64.960002 
3426.000000	64.953112 
3425.000000	64.945220 
3424.000000	64.936017 
3423.000000	64.925503 
3422.000000	64.913964 
3421.000000	64.901828 
3420.000000	64.889860 
3419.000000	64.878845 
3418.000000	64.869928 
3417.000000	64.864420 
3416.000000	64.863681 
3415.000000	64.868879 
3414.000000	64.880204 
3413.000000	64.896821 
3412.000000	64.916801 
3411.000000	64.937472 
3410.000000	64.955711 
3409.000000	64.968872 
3408.000000	64.975333 
3407.000000	64.974856 
3406.000000	64.968585 
3405.000000	64.958882 
3404.000000	64.948654 
3403.000000	64.940881 
3402.000000	64.938044 
3401.000000	64.941501 
3400.000000	64.951586 
3399.000000	64.967274 
3398.000000	64.986538 
3397.000000	65.006756 
3396.000000	65.025210 
3395.000000	65.039563 
3394.000000	65.048289 
3393.000000	65.050983 
3392.000000	65.048241 
3391.000000	65.041947 
3390.000000	65.034675 
3389.000000	65.029239 
3388.000000	65.028071 
3387.000000	65.032482 
3386.000000	65.042448 
3385.000000	65.056729 
3384.000000	65.072965 
3383.000000	65.088725 
3382.000000	65.101790 
3381.000000	65.111041 
3380.000000	65.116214 
3379.000000	65.117740 
3378.000000	65.116548 
3377.000000	65.113306 
3376.000000	65.108394 
3375.000000	65.101957 
3374.000000	65.093970 
3373.000000	65.084695 
3372.000000	65.074658 
3371.000000	65.064978 
3370.000000	65.056586 
3369.000000	65.050458 
3368.000000	65.046858 
3367.000000	65.045166 
3366.000000	65.043926 
3365.000000	65.041136 
3364.000000	65.035176 
3363.000000	65.025353 
3362.000000	65.012288 
3361.000000	64.997863 
3360.000000	64.984798 
3359.000000	64.975976 
3358.000000	64.973449 
3357.000000	64.977955 
3356.000000	64.988732 
3355.000000	65.003991 
3354.000000	65.021181 
3353.000000	65.037822 
3352.000000	65.052175 
3351.000000	65.063500 
3350.000000	65.071916 
3349.000000	65.078258 
3348.000000	65.083622 
3347.000000	65.088915 
3346.000000	65.094542 
3345.000000	65.100288 
3344.000000	65.105295 
3343.000000	65.108442 
3342.000000	65.108966 
3341.000000	65.106320 
3340.000000	65.100502 
3339.000000	65.091967 
3338.000000	65.081715 
3337.000000	65.070843 
3336.000000	65.060305 
3335.000000	65.050840 
3334.000000	65.042972 
3333.000000	65.036797 
3332.000000	65.031909 
3331.000000	65.027713 
3330.000000	65.023255 
3329.000000	65.017652 
3328.000000	65.010261 
3327.000000	65.000391 
3326.000000	64.987897 
3325.000000	64.973235 
3324.000000	64.957261 
3323.000000	64.941120 
3322.000000	64.926171 
3321.000000	64.914083 
3320.000000	64.906263 
3319.000000	64.903616 
3318.000000	64.906620 
3317.000000	64.915037 
3316.000000	64.928221 
3315.000000	64.944863 
3314.000000	64.963626 
3313.000000	64.983153 
3312.000000	65.002512 
3311.000000	65.020990 
3310.000000	65.038108 
3309.000000	65.053582 
3308.000000	65.067100 
3307.000000	65.078282 
3306.000000	65.086531 
3305.000000	65.090942 
3304.000000	65.090727 
3303.000000	65.085124 
3302.000000	65.073537 
3301.000000	65.055561 
3300.000000	65.031433 
3299.000000	65.001940 
3298.000000	64.968276 
3297.000000	64.932155 
3296.000000	64.895772 
3295.000000	64.861488 
3294.000000	64.831447 
3293.000000	64.807391 
3292.000000	64.790320 
3291.000000	64.780449 
3290.000000	64.776897 
3289.000000	64.778304 
3288.000000	64.782857 
3287.000000	64.789128 
3286.000000	64.796042 
3285.000000	64.803552 
3284.000000	64.812254 
3283.000000	64.823246 
3282.000000	64.837598 
3281.000000	64.855837 
3280.000000	64.877629 
3279.000000	64.901614 
3278.000000	64.926004 
3277.000000	64.948582 
3276.000000	64.967513 
3275.000000	64.981794 
3274.000000	64.991331 
3273.000000	64.997267 
3272.000000	65.001106 
3271.000000	65.004420 
3270.000000	65.008163 
3269.000000	65.012717 
3268.000000	65.017366 
3267.000000	65.021204 
3266.000000	65.023159 
3265.000000	65.022826 
3264.000000	65.020608 
3263.000000	65.017676 
3262.000000	65.015745 
3261.000000	65.016722 
3260.000000	65.021944 
3259.000000	65.031743 
3258.000000	65.045261 
3257.000000	65.060710 
3256.000000	65.075445 
3255.000000	65.086793 
3254.000000	65.092515 
3253.000000	65.091419 
3252.000000	65.083694 
3251.000000	65.070891 
3250.000000	65.055584 
3249.000000	65.040802 
3248.000000	65.029764 
3247.000000	65.024614 
3246.000000	65.026593 
3245.000000	65.035128 
3244.000000	65.048527 
3243.000000	65.063643 
3242.000000	65.076756 
3241.000000	65.084290 
3240.000000	65.083312 
3239.000000	65.072512 
3238.000000	65.051937 
3237.000000	65.023684 
3236.000000	64.991259 
3235.000000	64.959144 
3234.000000	64.931726 
3233.000000	64.912581 
3232.000000	64.903926 
3231.000000	64.906001 
3230.000000	64.917278 
3229.000000	64.934682 
3228.000000	64.954447 
3227.000000	64.972877 
3226.000000	64.987230 
3225.000000	64.996218 
3224.000000	65.000462 
3223.000000	65.001678 
3222.000000	65.002346 
3221.000000	65.004777 
3220.000000	65.010333 
3219.000000	65.019297 
3218.000000	65.030550 
3217.000000	65.042304 
3216.000000	65.052437 
3215.000000	65.059447 
3214.000000	65.062379 
3213.000000	65.061402 
3212.000000	65.057182 
3211.000000	65.050721 
3210.000000	65.042972 
3209.000000	65.034675 
3208.000000	65.026092 
3207.000000	65.017390 
3206.000000	65.008473 
3205.000000	64.999604 
3204.000000	64.991211 
3203.000000	64.983963 
3202.000000	64.978384 
3201.000000	64.974641 
3200.000000	64.972376 
3199.000000	64.970755 
3198.000000	64.968800 
3197.000000	64.965844 
3196.000000	64.961600 
3195.000000	64.956355 
3194.000000	64.950895 
3193.000000	64.946150 
3192.000000	64.942884 
3191.000000	64.941334 
3190.000000	64.941215 
3189.000000	64.942026 
3188.000000	64.942979 
3187.000000	64.943599 
3186.000000	64.943790 
3185.000000	64.943885 
3184.000000	64.944458 
3183.000000	64.946389 
3182.000000	64.950299 
3181.000000	64.956521 
3180.000000	64.964842 
3179.000000	64.974689 
3178.000000	64.985132 
3177.000000	64.995098 
3176.000000	65.003681 
3175.000000	65.009903 
3174.000000	65.013074 
3173.000000	65.012717 
3172.000000	65.008664 
3171.000000	65.001320 
3170.000000	64.991879 
3169.000000	64.982128 
3168.000000	64.974260 
3167.000000	64.970612 
3166.000000	64.972877 
3165.000000	64.981913 
3164.000000	64.997291 
3163.000000	65.017342 
3162.000000	65.039587 
3161.000000	65.061116 
3160.000000	65.079212 
3159.000000	65.092062 
3158.000000	65.098834 
3157.000000	65.100073 
3156.000000	65.097093 
3155.000000	65.091776 
3154.000000	65.085840 
3153.000000	65.080547 
3152.000000	65.076303 
3151.000000	65.072774 
3150.000000	65.069079 
3149.000000	65.064072 
3148.000000	65.056753 
3147.000000	65.046501 
3146.000000	65.033245 
3145.000000	65.017604 
3144.000000	65.000796 
3143.000000	64.984607 
3142.000000	64.971017 
3141.000000	64.961862 
3140.000000	64.958500 
3139.000000	64.961481 
3138.000000	64.970159 
3137.000000	64.983010 
3136.000000	64.997577 
3135.000000	65.011286 
3134.000000	65.021610 
3133.000000	65.026855 
3132.000000	65.026140 
3131.000000	65.019917 
3130.000000	65.009570 
3129.000000	64.997172 
3128.000000	64.984965 
3127.000000	64.974546 
3126.000000	64.966869 
3125.000000	64.961695 
3124.000000	64.958047 
3123.000000	64.954495 
3122.000000	64.949679 
3121.000000	64.943003 
3120.000000	64.934682 
3119.000000	64.926028 
3118.000000	64.918994 
3117.000000	64.915680 
3116.000000	64.917612 
3115.000000	64.925169 
3114.000000	64.937496 
3113.000000	64.952230 
3112.000000	64.966034 
3111.000000	64.975547 
3110.000000	64.978241 
3109.000000	64.972829 
3108.000000	64.959931 
3107.000000	64.941835 
3106.000000	64.921855 
3105.000000	64.903616 
3104.000000	64.890050 
3103.000000	64.882779 
3102.000000	64.881730 
3101.000000	64.885544 
3100.000000	64.891934 
3099.000000	64.898562 
3098.000000	64.903688 
3097.000000	64.906525 
3096.000000	64.907550 
3095.000000	64.908027 
3094.000000	64.909482 
3093.000000	64.913105 
3092.000000	64.919352 
3091.000000	64.927744 
3090.000000	64.936971 
3089.000000	64.945507 
3088.000000	64.952111 
3087.000000	64.956164 
3086.000000	64.958071 
3085.000000	64.959073 
3084.000000	64.960765 
3083.000000	64.964604 
3082.000000	64.971637 
3081.000000	64.981913 
3080.000000	64.994335 
3079.000000	65.007090 
3078.000000	65.018081 
3077.000000	65.025448 
3076.000000	65.027999 
3075.000000	65.025687 
3074.000000	65.019512 
3073.000000	65.011405 
3072.000000	65.003824 
3071.000000	64.999055 
3070.000000	64.998722 
3069.000000	65.003466 
3068.000000	65.012955 
3067.000000	65.025949 
3066.000000	65.040826 
3065.000000	65.055894 
3064.000000	65.069842 
3063.000000	65.081810 
3062.000000	65.091490 
3061.000000	65.098881 
3060.000000	65.104007 
3059.000000	65.106344 
3058.000000	65.104842 
3057.000000	65.098118 
3056.000000	65.084671 
3055.000000	65.063476 
3054.000000	65.034484 
3053.000000	64.998888 
3052.000000	64.959168 
3051.000000	64.918732 
3050.000000	64.881515 
3049.000000	64.850878 
3048.000000	64.829516 
3047.000000	64.818620 
3046.000000	64.817929 
3045.000000	64.825701 
3044.000000	64.839005 
3043.000000	64.854526 
3042.000000	64.869070 
3041.000000	64.879965 
3040.000000	64.885687 
3039.000000	64.885973 
3038.000000	64.881896 
3037.000000	64.875459 
3036.000000	64.869332 
3035.000000	64.866328 
3034.000000	64.868783 
3033.000000	64.878106 
3032.000000	64.894580 
3031.000000	64.917039 
3030.000000	64.943528 
3029.000000	64.971184 
3028.000000	64.997220 
3027.000000	65.019083 
3026.000000	65.035176 
3025.000000	65.044665 
3024.000000	65.047240 
3023.000000	65.042948 
3022.000000	65.032315 
3021.000000	65.015769 
3020.000000	64.993786 
3019.000000	64.966940 
3018.000000	64.936423 
3017.000000	64.903855 
3016.000000	64.871478 
3015.000000	64.841723 
3014.000000	64.817094 
3013.000000	64.799785 
3012.000000	64.791154 
3011.000000	64.791536 
3010.000000	64.799952 
3009.000000	64.814352 
3008.000000	64.831948 
3007.000000	64.849662 
3006.000000	64.864540 
3005.000000	64.874243 
3004.000000	64.877772 
3003.000000	64.875006 
3002.000000	64.867162 
3001.000000	64.856314 
3000.000000	64.845228 
2999.000000	64.836549 
2998.000000	64.832496 
2997.000000	64.834499 
2996.000000	64.842748 
2995.000000	64.856266 
2994.000000	64.872908 
2993.000000	64.889907 
2992.000000	64.904260 
2991.000000	64.913415 
2990.000000	64.915490 
2989.000000	64.909672 
2988.000000	64.896440 
2987.000000	64.877414 
2986.000000	64.855241 
2985.000000	64.832901 
2984.000000	64.813399 
2983.000000	64.799165 
2982.000000	64.791345 
2981.000000	64.789772 
2980.000000	64.793038 
2979.000000	64.798855 
2978.000000	64.804649 
2977.000000	64.808440 
2976.000000	64.808988 
2975.000000	64.806222 
2974.000000	64.801096 
2973.000000	64.795231 
2972.000000	64.790129 
2971.000000	64.786958 
2970.000000	64.785957 
2969.000000	64.786720 
2968.000000	64.788365 
2967.000000	64.789819 
2966.000000	64.790415 
2965.000000	64.790034 
2964.000000	64.789319 
2963.000000	64.789128 
2962.000000	64.790272 
2961.000000	64.793062 
2960.000000	64.797067 
2959.000000	64.801335 
2958.000000	64.804816 
2957.000000	64.806556 
2956.000000	64.805936 
2955.000000	64.802908 
2954.000000	64.797902 
2953.000000	64.791488 
2952.000000	64.784455 
2951.000000	64.777398 
2950.000000	64.770793 
2949.000000	64.765071 
2948.000000	64.760756 
2947.000000	64.758372 
2946.000000	64.758539 
2945.000000	64.761710 
2944.000000	64.767837 
2943.000000	64.776635 
2942.000000	64.787316 
2941.000000	64.798831 
2940.000000	64.810085 
2939.000000	64.820075 
2938.000000	64.828181 
2937.000000	64.834332 
2936.000000	64.838790 
2935.000000	64.841866 
2934.000000	64.843416 
2933.000000	64.842915 
2932.000000	64.839363 
2931.000000	64.831590 
2930.000000	64.818716 
2929.000000	64.800691 
2928.000000	64.778923 
2927.000000	64.756011 
2926.000000	64.735674 
2925.000000	64.721488 
2924.000000	64.716196 
2923.000000	64.720773 
2922.000000	64.733886 
2921.000000	64.752364 
2920.000000	64.771962 
2919.000000	64.788579 
2918.000000	64.799404 
2917.000000	64.803743 
2916.000000	64.802813 
2915.000000	64.799714 
2914.000000	64.798092 
2913.000000	64.801406 
2912.000000	64.811539 
2911.000000	64.828467 
2910.000000	64.850282 
2909.000000	64.873504 
2908.000000	64.894413 
2907.000000	64.909243 
2906.000000	64.915633 
2905.000000	64.912509 
2904.000000	64.900445 
2903.000000	64.881062 
2902.000000	64.856600 
2901.000000	64.829421 
2900.000000	64.801502 
2899.000000	64.774632 
2898.000000	64.749979 
2897.000000	64.728403 
2896.000000	64.710688 
2895.000000	64.697289 
2894.000000	64.688801 
2893.000000	64.685583 
2892.000000	64.687752 
2891.000000	64.694952 
2890.000000	64.706611 
2889.000000	64.721894 
2888.000000	64.739727 
2887.000000	64.758920 
2886.000000	64.777946 
2885.000000	64.795303 
2884.000000	64.809441 
2883.000000	64.818906 
2882.000000	64.822816 
2881.000000	64.821076 
2880.000000	64.814329 
2879.000000	64.804220 
2878.000000	64.792799 
2877.000000	64.782118 
2876.000000	64.773821 
2875.000000	64.768743 
2874.000000	64.766931 
2873.000000	64.767670 
2872.000000	64.769935 
2871.000000	64.772748 
2870.000000	64.775156 
2869.000000	64.776682 
2868.000000	64.777112 
2867.000000	64.776539 
2866.000000	64.774918 
2865.000000	64.772367 
2864.000000	64.768743 
2863.000000	64.763998 
2862.000000	64.758324 
2861.000000	64.752340 
2860.000000	64.746856 
2859.000000	64.743018 
2858.000000	64.741921 
2857.000000	64.744353 
2856.000000	64.750528 
2855.000000	64.759922 
2854.000000	64.771342 
2853.000000	64.783334 
2852.000000	64.794468 
2851.000000	64.803409 
2850.000000	64.809274 
2849.000000	64.811801 
2848.000000	64.811348 
2847.000000	64.808702 
2846.000000	64.804887 
2845.000000	64.801096 
2844.000000	64.798283 
2843.000000	64.797067 
2842.000000	64.797258 
2841.000000	64.798212 
2840.000000	64.798545 
2839.000000	64.796662 
2838.000000	64.791035 
2837.000000	64.780259 
2836.000000	64.763879 
2835.000000	64.742040 
2834.000000	64.716124 
2833.000000	64.688205 
2832.000000	64.661335 
2831.000000	64.638757 
2830.000000	64.623761 
2829.000000	64.618825 
2828.000000	64.625549 
2827.000000	64.644145 
2826.000000	64.673495 
2825.000000	64.711070 
2824.000000	64.753651 
2823.000000	64.797568 
2822.000000	64.839434 
2821.000000	64.876294 
2820.000000	64.906167 
2819.000000	64.928150 
2818.000000	64.942121 
2817.000000	64.948439 
2816.000000	64.947795 
2815.000000	64.940762 
2814.000000	64.927935 
2813.000000	64.910006 
2812.000000	64.888167 
2811.000000	64.863753 
2810.000000	64.838838 
2809.000000	64.815855 
2808.000000	64.797234 
2807.000000	64.784717 
2806.000000	64.779257 
2805.000000	64.780592 
2804.000000	64.787006 
2803.000000	64.796090 
2802.000000	64.805006 
2801.000000	64.811277 
2800.000000	64.813113 
2799.000000	64.809942 
2798.000000	64.802312 
2797.000000	64.791631 
2796.000000	64.779686 
2795.000000	64.768290 
2794.000000	64.758539 
2793.000000	64.751243 
2792.000000	64.746570 
2791.000000	64.744281 
2790.000000	64.743852 
2789.000000	64.744997 
2788.000000	64.747643 
2787.000000	64.751672 
2786.000000	64.757132 
2785.000000	64.763927 
2784.000000	64.772152 
2783.000000	64.781665 
2782.000000	64.792394 
2781.000000	64.804339 
2780.000000	64.817452 
2779.000000	64.831805 
2778.000000	64.847302 
2777.000000	64.863562 
2776.000000	64.879965 
2775.000000	64.895629 
2774.000000	64.909696 
2773.000000	64.921402 
2772.000000	64.930295 
2771.000000	64.936518 
2770.000000	64.940428 
2769.000000	64.942622 
2768.000000	64.943695 
2767.000000	64.943981 
2766.000000	64.943456 
2765.000000	64.941477 
2764.000000	64.937424 
2763.000000	64.930677 
2762.000000	64.920854 
2761.000000	64.908027 
2760.000000	64.892816 
2759.000000	64.876317 
2758.000000	64.859700 
2757.000000	64.844202 
2756.000000	64.830827 
2755.000000	64.820146 
2754.000000	64.812660 
2753.000000	64.808487 
2752.000000	64.807462 
2751.000000	64.809250 
2750.000000	64.813327 
2749.000000	64.819049 
2748.000000	64.825320 
2747.000000	64.831137 
2746.000000	64.835524 
2745.000000	64.837908 
2744.000000	64.838099 
2743.000000	64.836430 
2742.000000	64.833760 
2741.000000	64.831209 
2740.000000	64.830017 
2739.000000	64.831233 
2738.000000	64.835500 
2737.000000	64.843034 
2736.000000	64.853453 
2735.000000	64.866065 
2734.000000	64.879655 
2733.000000	64.893150 
2732.000000	64.905095 
2731.000000	64.914274 
2730.000000	64.919376 
2729.000000	64.919352 
2728.000000	64.913344 
2727.000000	64.900827 
2726.000000	64.881658 
2725.000000	64.856672 
2724.000000	64.827346 
2723.000000	64.795947 
2722.000000	64.765191 
2721.000000	64.738082 
2720.000000	64.717245 
2719.000000	64.704585 
2718.000000	64.700984 
2717.000000	64.706087 
2716.000000	64.718461 
2715.000000	64.735889 
2714.000000	64.755749 
2713.000000	64.775514 
2712.000000	64.792966 
2711.000000	64.806604 
2710.000000	64.815449 
2709.000000	64.819145 
2708.000000	64.817929 
2707.000000	64.812374 
2706.000000	64.803361 
2705.000000	64.792156 
2704.000000	64.780306 
2703.000000	64.769554 
2702.000000	64.761734 
2701.000000	64.758300 
2700.000000	64.760303 
2699.000000	64.768052 
2698.000000	64.780688 
2697.000000	64.796948 
2696.000000	64.814996 
2695.000000	64.833259 
2694.000000	64.850401 
2693.000000	64.865899 
2692.000000	64.879798 
2691.000000	64.892745 
2690.000000	64.905500 
2689.000000	64.918541 
2688.000000	64.931774 
2687.000000	64.944458 
2686.000000	64.955329 
2685.000000	64.962911 
2684.000000	64.965748 
2683.000000	64.963197 
2682.000000	64.955425 
2681.000000	64.943432 
2680.000000	64.928770 
2679.000000	64.913392 
2678.000000	64.898896 
2677.000000	64.886379 
2676.000000	64.876031 
2675.000000	64.867353 
2674.000000	64.859318 
2673.000000	64.850878 
2672.000000	64.841294 
2671.000000	64.830374 
2670.000000	64.818596 
2669.000000	64.807081 
2668.000000	64.797282 
2667.000000	64.790201 
2666.000000	64.786338 
2665.000000	64.785480 
2664.000000	64.786696 
2663.000000	64.788460 
2662.000000	64.789295 
2661.000000	64.788246 
2660.000000	64.785242 
2659.000000	64.781188 
2658.000000	64.777565 
2657.000000	64.776158 
2656.000000	64.778423 
2655.000000	64.785194 
2654.000000	64.796304 
2653.000000	64.810538 
2652.000000	64.826011 
2651.000000	64.840340 
2650.000000	64.851355 
2649.000000	64.857292 
2648.000000	64.857077 
2647.000000	64.850425 
2646.000000	64.837837 
2645.000000	64.820075 
2644.000000	64.798331 
2643.000000	64.773988 
2642.000000	64.748215 
2641.000000	64.722275 
2640.000000	64.697360 
2639.000000	64.674830 
2638.000000	64.656138 
2637.000000	64.642834 
2636.000000	64.636421 
2635.000000	64.638257 
2634.000000	64.649200 
2633.000000	64.669394 
2632.000000	64.698123 
2631.000000	64.733552 
2630.000000	64.773106 
2629.000000	64.813590 
2628.000000	64.851593 
2627.000000	64.883995 
2626.000000	64.908456 
2625.000000	64.923834 
2624.000000	64.930129 
2623.000000	64.928245 
2622.000000	64.919614 
2621.000000	64.906311 
2620.000000	64.890050 
2619.000000	64.872431 
2618.000000	64.854431 
2617.000000	64.836764 
2616.000000	64.819741 
2615.000000	64.803791 
2614.000000	64.789271 
2613.000000	64.776778 
2612.000000	64.766883 
2611.000000	64.760041 
2610.000000	64.756345 
2609.000000	64.755558 
2608.000000	64.756989 
2607.000000	64.759540 
2606.000000	64.761948 
2605.000000	64.763069 
2604.000000	64.761972 
2603.000000	64.758372 
2602.000000	64.752531 
2601.000000	64.745497 
2600.000000	64.739274 
2599.000000	64.736199 
2598.000000	64.738607 
2597.000000	64.748167 
2596.000000	64.765167 
2595.000000	64.788484 
2594.000000	64.815139 
2593.000000	64.841222 
2592.000000	64.862418 
2591.000000	64.875102 
2590.000000	64.877247 
2589.000000	64.868903 
2588.000000	64.852118 
2587.000000	64.830422 
2586.000000	64.808106 
2585.000000	64.789104 
2584.000000	64.776158 
2583.000000	64.770269 
2582.000000	64.770865 
2581.000000	64.776039 
2580.000000	64.783239 
2579.000000	64.790034 
2578.000000	64.794874 
2577.000000	64.797091 
2576.000000	64.796924 
2575.000000	64.795184 
2574.000000	64.792943 
2573.000000	64.791059 
2572.000000	64.790153 
2571.000000	64.790487 
2570.000000	64.792013 
2569.000000	64.794635 
2568.000000	64.798164 
2567.000000	64.802646 
2566.000000	64.807891 
2565.000000	64.813828 
2564.000000	64.819931 
2563.000000	64.825701 
2562.000000	64.830160 
2561.000000	64.832496 
2560.000000	64.832043 
2559.000000	64.828515 
2558.000000	64.822244 
2557.000000	64.814162 
2556.000000	64.805626 
2555.000000	64.798140 
2554.000000	64.793157 
2553.000000	64.791560 
2552.000000	64.793634 
2551.000000	64.799022 
2550.000000	64.806938 
2549.000000	64.816403 
2548.000000	64.826250 
2547.000000	64.835524 
2546.000000	64.843511 
2545.000000	64.849901 
2544.000000	64.854431 
2543.000000	64.857220 
2542.000000	64.858341 
2541.000000	64.858078 
2540.000000	64.856886 
2539.000000	64.854955 
2538.000000	64.852714 
2537.000000	64.850139 
2536.000000	64.847254 
2535.000000	64.843869 
2534.000000	64.839649 
2533.000000	64.834213 
2532.000000	64.827442 
2531.000000	64.819478 
2530.000000	64.810824 
2529.000000	64.802336 
2528.000000	64.795041 
2527.000000	64.789867 
2526.000000	64.787435 
2525.000000	64.787745 
2524.000000	64.790177 
2523.000000	64.793372 
2522.000000	64.795517 
2521.000000	64.794611 
2520.000000	64.789080 
2519.000000	64.777922 
2518.000000	64.761185 
2517.000000	64.739823 
2516.000000	64.715528 
2515.000000	64.690542 
2514.000000	64.667201 
2513.000000	64.647674 
2512.000000	64.633488 
2511.000000	64.625525 
2510.000000	64.623999 
2509.000000	64.628577 
2508.000000	64.638423 
2507.000000	64.652562 
2506.000000	64.669847 
2505.000000	64.688992 
2504.000000	64.708805 
2503.000000	64.727926 
2502.000000	64.745330 
2501.000000	64.760160 
2500.000000	64.771938 
2499.000000	64.780640 
2498.000000	64.786648 
2497.000000	64.790630 
2496.000000	64.793324 
2495.000000	64.795184 
2494.000000	64.796280 
2493.000000	64.796352 
2492.000000	64.795160 
2491.000000	64.792656 
2490.000000	64.789319 
2489.000000	64.786195 
2488.000000	64.784789 
2487.000000	64.786434 
2486.000000	64.792251 
2485.000000	64.802360 
2484.000000	64.815640 
2483.000000	64.829659 
2482.000000	64.841508 
2481.000000	64.848017 
2480.000000	64.846634 
2479.000000	64.836168 
2478.000000	64.817166 
2477.000000	64.791774 
2476.000000	64.763402 
2475.000000	64.735913 
2474.000000	64.712786 
2473.000000	64.696383 
2472.000000	64.687752 
2471.000000	64.686250 
2470.000000	64.689898 
2469.000000	64.695954 
2468.000000	64.701700 
2467.000000	64.704632 
2466.000000	64.703536 
2465.000000	64.698219 
2464.000000	64.689826 
2463.000000	64.680004 
2462.000000	64.671015 
2461.000000	64.664793 
2460.000000	64.662790 
2459.000000	64.665460 
2458.000000	64.672708 
2457.000000	64.683723 
2456.000000	64.697480 
2455.000000	64.712905 
2454.000000	64.728951 
2453.000000	64.744853 
2452.000000	64.760088 
2451.000000	64.774131 
2450.000000	64.786410 
2449.000000	64.796352 
2448.000000	64.803290 
2447.000000	64.806842 
2446.000000	64.806795 
2445.000000	64.803338 
2444.000000	64.797234 
2443.000000	64.789628 
2442.000000	64.781737 
2441.000000	64.774537 
2440.000000	64.768528 
2439.000000	64.763665 
2438.000000	64.759397 
2437.000000	64.754533 
2436.000000	64.747786 
2435.000000	64.737868 
2434.000000	64.723873 
2433.000000	64.705491 
2432.000000	64.682984 
2431.000000	64.657402 
2430.000000	64.630293 
2429.000000	64.603734 
2428.000000	64.579844 
2427.000000	64.560961 
2426.000000	64.548921 
2425.000000	64.545059 
2424.000000	64.549803 
2423.000000	64.562845 
2422.000000	64.582920 
2421.000000	64.608311 
2420.000000	64.636731 
2419.000000	64.665818 
2418.000000	64.693403 
2417.000000	64.717793 
2416.000000	64.737772 
2415.000000	64.752602 
2414.000000	64.761900 
2413.000000	64.765667 
2412.000000	64.763903 
2411.000000	64.756870 
2410.000000	64.744830 
2409.000000	64.728522 
2408.000000	64.708971 
2407.000000	64.687728 
2406.000000	64.666485 
2405.000000	64.647173 
2404.000000	64.631128 
2403.000000	64.619159 
2402.000000	64.611172 
2401.000000	64.606118 
2400.000000	64.602446 
2399.000000	64.598345 
2398.000000	64.592528 
2397.000000	64.584541 
2396.000000	64.575266 
2395.000000	64.566540 
2394.000000	64.560890 
2393.000000	64.560866 
2392.000000	64.568209 
2391.000000	64.583373 
2390.000000	64.605188 
2389.000000	64.630770 
2388.000000	64.656257 
2387.000000	64.677596 
2386.000000	64.691114 
2385.000000	64.694547 
2384.000000	64.687299 
2383.000000	64.670753 
2382.000000	64.647674 
2381.000000	64.621806 
2380.000000	64.597129 
2379.000000	64.577174 
2378.000000	64.564609 
2377.000000	64.560747 
2376.000000	64.565658 
2375.000000	64.578390 
2374.000000	64.597249 
2373.000000	64.620041 
2372.000000	64.644336 
2371.000000	64.667892 
2370.000000	64.688634 
2369.000000	64.704895 
2368.000000	64.715361 
2367.000000	64.719390 
2366.000000	64.717102 
2365.000000	64.709258 
2364.000000	64.697170 
2363.000000	64.682626 
2362.000000	64.667677 
2361.000000	64.654278 
2360.000000	64.643812 
2359.000000	64.637017 
2358.000000	64.633893 
2357.000000	64.633798 
2356.000000	64.635562 
2355.000000	64.637780 
2354.000000	64.639186 
2353.000000	64.639043 
2352.000000	64.637136 
2351.000000	64.633703 
2350.000000	64.629459 
2349.000000	64.625072 
2348.000000	64.621257 
2347.000000	64.618349 
2346.000000	64.616584 
2345.000000	64.616107 
2344.000000	64.617085 
2343.000000	64.619803 
2342.000000	64.624929 
2341.000000	64.633107 
2340.000000	64.644837 
2339.000000	64.660048 
2338.000000	64.678096 
2337.000000	64.697432 
2336.000000	64.715886 
2335.000000	64.731073 
2334.000000	64.740967 
2333.000000	64.744210 
2332.000000	64.740562 
2331.000000	64.730787 
2330.000000	64.716577 
2329.000000	64.699769 
2328.000000	64.682245 
2327.000000	64.665198 
2326.000000	64.649271 
2325.000000	64.634537 
2324.000000	64.620995 
2323.000000	64.608550 
2322.000000	64.597535 
2321.000000	64.588475 
2320.000000	64.582180 
2319.000000	64.579534 
2318.000000	64.580917 
2317.000000	64.586186 
2316.000000	64.594435 
2315.000000	64.604353 
2314.000000	64.614272 
2313.000000	64.622759 
2312.000000	64.628863 
2311.000000	64.632296 
2310.000000	64.633369 
2309.000000	64.632749 
2308.000000	64.631223 
2307.000000	64.629149 
2306.000000	64.626216 
2305.000000	64.621639 
2304.000000	64.614224 
2303.000000	64.602780 
2302.000000	64.586496 
2301.000000	64.565539 
2300.000000	64.541172 
2299.000000	64.515614 
2298.000000	64.491677 
2297.000000	64.472389 
2296.000000	64.460158 
2295.000000	64.456009 
2294.000000	64.459657 
2293.000000	64.469313 
2292.000000	64.482522 
2291.000000	64.496374 
2290.000000	64.508676 
2289.000000	64.518165 
2288.000000	64.524865 
2287.000000	64.529776 
2286.000000	64.534664 
2285.000000	64.541149 
2284.000000	64.550542 
2283.000000	64.563107 
2282.000000	64.578294 
2281.000000	64.594674 
2280.000000	64.610457 
2279.000000	64.623928 
2278.000000	64.633822 
2277.000000	64.639735 
2276.000000	64.641880 
2275.000000	64.641261 
2274.000000	64.639210 
2273.000000	64.637231 
2272.000000	64.636778 
2271.000000	64.638757 
2270.000000	64.643836 
2269.000000	64.651918 
2268.000000	64.662384 
2267.000000	64.674019 
2266.000000	64.685344 
2265.000000	64.694786 
2264.000000	64.700937 
2263.000000	64.702749 
2262.000000	64.699959 
2261.000000	64.692974 
2260.000000	64.682722 
2259.000000	64.670491 
2258.000000	64.657711 
2257.000000	64.645648 
2256.000000	64.635157 
2255.000000	64.626717 
2254.000000	64.620280 
2253.000000	64.615440 
2252.000000	64.611649 
2251.000000	64.608240 
2250.000000	64.604806 
2249.000000	64.601063 
2248.000000	64.596915 
2247.000000	64.592504 
2246.000000	64.587879 
2245.000000	64.583277 
2244.000000	64.578771 
2243.000000	64.574289 
2242.000000	64.569783 
2241.000000	64.565205 
2240.000000	64.560580 
2239.000000	64.555883 
2238.000000	64.551544 
2237.000000	64.548087 
2236.000000	64.546537 
2235.000000	64.547872 
2234.000000	64.552927 
2233.000000	64.562249 
2232.000000	64.575672 
2231.000000	64.592289 
2230.000000	64.610505 
2229.000000	64.628148 
2228.000000	64.643025 
2227.000000	64.653372 
2226.000000	64.658141 
2225.000000	64.657282 
2224.000000	64.651870 
2223.000000	64.643740 
2222.000000	64.635229 
2221.000000	64.628195 
2220.000000	64.624166 
2219.000000	64.623427 
2218.000000	64.625215 
2217.000000	64.627861 
2216.000000	64.629292 
2215.000000	64.627504 
2214.000000	64.620995 
2213.000000	64.609074 
2212.000000	64.592170 
2211.000000	64.571666 
2210.000000	64.549565 
2209.000000	64.528250 
2208.000000	64.509797 
2207.000000	64.495849 
2206.000000	64.487266 
2205.000000	64.484143 
2204.000000	64.485883 
2203.000000	64.491462 
2202.000000	64.499735 
2201.000000	64.509606 
2200.000000	64.520001 
2199.000000	64.530062 
2198.000000	64.539027 
2197.000000	64.546179 
2196.000000	64.551186 
2195.000000	64.553976 
2194.000000	64.554977 
2193.000000	64.555072 
2192.000000	64.555358 
2191.000000	64.557170 
2190.000000	64.561510 
2189.000000	64.568996 
2188.000000	64.579248 
2187.000000	64.591431 
2186.000000	64.603972 
2185.000000	64.615416 
2184.000000	64.624357 
2183.000000	64.630103 
2182.000000	64.632534 
2181.000000	64.632201 
2180.000000	64.629840 
2179.000000	64.626193 
2178.000000	64.621758 
2177.000000	64.616560 
2176.000000	64.610457 
2175.000000	64.603304 
2174.000000	64.595556 
2173.000000	64.588356 
2172.000000	64.583563 
2171.000000	64.583015 
2170.000000	64.588141 
2169.000000	64.599013 
2168.000000	64.613938 
2167.000000	64.629197 
2166.000000	64.639830 
2165.000000	64.640545 
2164.000000	64.626932 
2163.000000	64.597129 
2162.000000	64.552259 
2161.000000	64.496946 
2160.000000	64.438557 
2159.000000	64.385581 
2158.000000	64.345860 
2157.000000	64.324522 
2156.000000	64.322757 
2155.000000	64.337515 
2154.000000	64.362192 
2153.000000	64.388990 
2152.000000	64.410948 
2151.000000	64.423871 
2150.000000	64.427089 
2149.000000	64.423298 
2148.000000	64.417362 
2147.000000	64.414453 
2146.000000	64.418268 
2145.000000	64.430212 
2144.000000	64.448904 
2143.000000	64.471292 
2142.000000	64.493489 
2141.000000	64.512300 
2140.000000	64.525842 
2139.000000	64.534187 
2138.000000	64.539003 
2137.000000	64.542436 
2136.000000	64.546489 
2135.000000	64.552116 
2134.000000	64.559054 
2133.000000	64.565992 
2132.000000	64.570879 
2131.000000	64.572262 
2130.000000	64.569020 
2129.000000	64.560747 
2128.000000	64.547824 
2127.000000	64.531254 
2126.000000	64.512348 
2125.000000	64.492440 
2124.000000	64.472937 
2123.000000	64.455223 
2122.000000	64.440703 
2121.000000	64.430665 
2120.000000	64.426040 
2119.000000	64.427280 
2118.000000	64.434266 
2117.000000	64.446568 
2116.000000	64.463233 
2115.000000	64.482855 
2114.000000	64.504122 
2113.000000	64.525747 
2112.000000	64.546656 
2111.000000	64.566111 
2110.000000	64.583420 
2109.000000	64.598178 
2108.000000	64.609980 
2107.000000	64.618372 
2106.000000	64.623212 
2105.000000	64.624547 
2104.000000	64.622879 
2103.000000	64.618968 
2102.000000	64.613842 
2101.000000	64.608240 
2100.000000	64.602780 
2099.000000	64.597535 
2098.000000	64.592313 
2097.000000	64.586496 
2096.000000	64.579558 
2095.000000	64.571022 
2094.000000	64.560699 
2093.000000	64.548659 
2092.000000	64.535474 
2091.000000	64.521813 
2090.000000	64.508485 
2089.000000	64.496183 
2088.000000	64.485526 
2087.000000	64.477086 
2086.000000	64.471435 
2085.000000	64.469051 
2084.000000	64.470291 
2083.000000	64.475393 
2082.000000	64.484190 
2081.000000	64.495921 
2080.000000	64.509296 
2079.000000	64.522671 
2078.000000	64.534068 
2077.000000	64.541625 
2076.000000	64.543771 
2075.000000	64.539837 
2074.000000	64.529943 
2073.000000	64.515113 
2072.000000	64.497041 
2071.000000	64.477849 
2070.000000	64.459586 
2069.000000	64.444112 
2068.000000	64.432501 
2067.000000	64.425086 
2066.000000	64.421534 
2065.000000	64.420938 
2064.000000	64.422011 
2063.000000	64.423513 
2062.000000	64.424347 
2061.000000	64.424037 
2060.000000	64.422464 
2059.000000	64.420223 
2058.000000	64.418125 
2057.000000	64.417147 
2056.000000	64.417982 
2055.000000	64.420914 
2054.000000	64.425683 
2053.000000	64.431476 
2052.000000	64.437150 
2051.000000	64.441394 
2050.000000	64.443206 
2049.000000	64.442038 
2048.000000	64.437985 
2047.000000	64.431738 
2046.000000	64.424467 
2045.000000	64.417862 
2044.000000	64.413499 
2043.000000	64.412784 
2042.000000	64.416575 
2041.000000	64.424943 
2040.000000	64.437246 
2039.000000	64.452219 
2038.000000	64.468050 
2037.000000	64.482831 
2036.000000	64.494824 
2035.000000	64.502620 
2034.000000	64.505624 
2033.000000	64.504075 
2032.000000	64.498782 
2031.000000	64.491009 
2030.000000	64.482116 
2029.000000	64.473319 
2028.000000	64.465498 
2027.000000	64.459037 
2026.000000	64.453959 
2025.000000	64.450049 
2024.000000	64.447283 
2023.000000	64.445638 
2022.000000	64.445233 
2021.000000	64.446401 
2020.000000	64.449143 
2019.000000	64.453244 
2018.000000	64.458084 
2017.000000	64.462685 
2016.000000	64.465975 
2015.000000	64.467048 
2014.000000	64.465498 
2013.000000	64.461588 
2012.000000	64.456129 
2011.000000	64.450478 
2010.000000	64.445877 
2009.000000	64.443206 
2008.000000	64.442515 
2007.000000	64.443135 
2006.000000	64.443635 
2005.000000	64.442515 
2004.000000	64.438343 
2003.000000	64.430308 
2002.000000	64.418721 
2001.000000	64.404535 
2000.000000	64.389467 
1999.000000	64.375257 
1998.000000	64.363169 
1997.000000	64.353966 
1996.000000	64.347577 
1995.000000	64.343452 
1994.000000	64.340949 
1993.000000	64.339590 
1992.000000	64.339423 
1991.000000	64.341044 
1990.000000	64.345359 
1989.000000	64.353179 
1988.000000	64.364933 
1987.000000	64.380240 
1986.000000	64.397907 
1985.000000	64.416050 
1984.000000	64.432430 
1983.000000	64.444994 
1982.000000	64.452099 
1981.000000	64.453029 
1980.000000	64.447927 
1979.000000	64.437794 
1978.000000	64.424157 
1977.000000	64.408946 
1976.000000	64.394092 
1975.000000	64.381337 
1974.000000	64.372158 
1973.000000	64.367628 
1972.000000	64.368343 
1971.000000	64.374351 
1970.000000	64.385294 
1969.000000	64.400219 
1968.000000	64.417695 
1967.000000	64.436101 
1966.000000	64.453577 
1965.000000	64.468574 
1964.000000	64.479804 
1963.000000	64.486575 
1962.000000	64.488625 
1961.000000	64.486217 
1960.000000	64.479923 
1959.000000	64.470529 
1958.000000	64.458894 
1957.000000	64.445805 
1956.000000	64.432096 
1955.000000	64.418601 
1954.000000	64.406228 
1953.000000	64.395928 
1952.000000	64.388632 
1951.000000	64.385128 
1950.000000	64.385914 
1949.000000	64.390802 
1948.000000	64.399003 
1947.000000	64.409065 
1946.000000	64.419221 
1945.000000	64.427709 
1944.000000	64.433097 
1943.000000	64.434528 
1942.000000	64.432001 
1941.000000	64.426231 
1940.000000	64.418292 
1939.000000	64.409327 
1938.000000	64.400243 
1937.000000	64.391422 
1936.000000	64.382815 
1935.000000	64.373946 
1934.000000	64.364218 
1933.000000	64.353322 
1932.000000	64.341449 
1931.000000	64.329290 
1930.000000	64.318013 
1929.000000	64.308977 
1928.000000	64.303445 
1927.000000	64.302110 
1926.000000	64.305090 
1925.000000	64.311790 
1924.000000	64.321064 
1923.000000	64.331459 
1922.000000	64.341616 
1921.000000	64.350152 
1920.000000	64.356112 
1919.000000	64.358973 
1918.000000	64.358615 
1917.000000	64.355254 
1916.000000	64.349603 
1915.000000	64.342451 
1914.000000	64.334869 
1913.000000	64.327740 
1912.000000	64.321875 
1911.000000	64.317774 
1910.000000	64.315605 
1909.000000	64.315009 
1908.000000	64.315247 
1907.000000	64.315366 
1906.000000	64.314150 
1905.000000	64.310574 
1904.000000	64.303851 
1903.000000	64.293670 
1902.000000	64.280366 
1901.000000	64.264869 
1900.000000	64.248561 
1899.000000	64.233207 
1898.000000	64.220476 
1897.000000	64.211893 
1896.000000	64.208507 
1895.000000	64.210581 
1894.000000	64.217758 
1893.000000	64.228916 
1892.000000	64.242506 
1891.000000	64.256811 
1890.000000	64.270138 
1889.000000	64.281368 
1888.000000	64.289784 
1887.000000	64.295458 
1886.000000	64.298844 
1885.000000	64.300823 
1884.000000	64.302349 
1883.000000	64.303994 
1882.000000	64.305853 
1881.000000	64.307641 
1880.000000	64.308643 
1879.000000	64.307999 
1878.000000	64.305043 
1877.000000	64.299559 
1876.000000	64.292120 
1875.000000	64.284014 
1874.000000	64.276909 
1873.000000	64.272546 
1872.000000	64.272260 
1871.000000	64.276504 
1870.000000	64.284682 
1869.000000	64.295220 
1868.000000	64.305973 
1867.000000	64.314651 
1866.000000	64.319467 
1865.000000	64.319658 
1864.000000	64.315557 
1863.000000	64.308476 
1862.000000	64.300227 
1861.000000	64.292669 
1860.000000	64.287185 
1859.000000	64.284300 
1858.000000	64.283680 
1857.000000	64.284253 
1856.000000	64.284706 
1855.000000	64.283871 
1854.000000	64.281153 
1853.000000	64.276599 
1852.000000	64.270853 
1851.000000	64.264774 
1850.000000	64.259243 
1849.000000	64.254808 
1848.000000	64.251589 
1847.000000	64.249300 
1846.000000	64.247441 
1845.000000	64.245605 
1844.000000	64.243650 
1843.000000	64.241743 
1842.000000	64.240312 
1841.000000	64.240026 
1840.000000	64.241313 
1839.000000	64.244294 
1838.000000	64.248490 
1837.000000	64.253044 
1836.000000	64.256834 
1835.000000	64.258551 
1834.000000	64.257144 
1833.000000	64.251971 
1832.000000	64.242935 
1831.000000	64.230442 
1830.000000	64.215588 
1829.000000	64.199948 
1828.000000	64.185261 
1827.000000	64.173507 
1826.000000	64.166450 
1825.000000	64.165449 
1824.000000	64.171218 
1823.000000	64.183664 
1822.000000	64.201807 
1821.000000	64.223909 
1820.000000	64.247655 
1819.000000	64.270496 
1818.000000	64.290070 
1817.000000	64.304447 
1816.000000	64.312386 
1815.000000	64.313602 
1814.000000	64.308381 
1813.000000	64.297747 
1812.000000	64.282917 
1811.000000	64.265418 
1810.000000	64.246749 
1809.000000	64.228391 
1808.000000	64.211940 
1807.000000	64.198851 
1806.000000	64.190340 
1805.000000	64.187407 
1804.000000	64.190506 
1803.000000	64.199423 
1802.000000	64.213514 
1801.000000	64.231610 
1800.000000	64.252352 
1799.000000	64.274215 
1798.000000	64.295935 
1797.000000	64.316272 
1796.000000	64.334321 
1795.000000	64.349317 
1794.000000	64.360594 
1793.000000	64.367675 
1792.000000	64.370179 
1791.000000	64.367890 
1790.000000	64.361190 
1789.000000	64.350795 
1788.000000	64.337968 
1787.000000	64.324140 
1786.000000	64.311003 
1785.000000	64.300131 
1784.000000	64.292550 
1783.000000	64.288663 
1782.000000	64.288306 
1781.000000	64.290857 
1780.000000	64.295411 
1779.000000	64.301133 
1778.000000	64.307308 
1777.000000	64.313793 
1776.000000	64.320659 
1775.000000	64.328145 
1774.000000	64.336562 
1773.000000	64.345908 
1772.000000	64.355969 
1771.000000	64.366030 
1770.000000	64.375185 
1769.000000	64.382553 
1768.000000	64.387178 
1767.000000	64.388537 
1766.000000	64.386463 
1765.000000	64.381170 
1764.000000	64.372944 
1763.000000	64.362120 
1762.000000	64.348793 
1761.000000	64.332938 
1760.000000	64.314126 
1759.000000	64.291930 
1758.000000	64.266252 
1757.000000	64.237356 
1756.000000	64.206242 
1755.000000	64.174509 
1754.000000	64.144229 
1753.000000	64.117741 
1752.000000	64.097046 
1751.000000	64.083099 
1750.000000	64.076089 
1749.000000	64.074969 
1748.000000	64.077901 
1747.000000	64.082503 
1746.000000	64.086508 
1745.000000	64.088225 
1744.000000	64.086651 
1743.000000	64.081549 
1742.000000	64.073419 
1741.000000	64.063048 
1740.000000	64.051318 
1739.000000	64.038777 
1738.000000	64.025759 
1737.000000	64.012289 
1736.000000	63.998484 
1735.000000	63.984465 
1734.000000	63.970685 
1733.000000	63.957929 
1732.000000	63.946866 
1731.000000	63.938403 
1730.000000	63.933014 
1729.000000	63.931035 
1728.000000	63.932538 
1727.000000	63.937544 
1726.000000	63.945937 
1725.000000	63.957738 
1724.000000	63.972663 
1723.000000	63.990402 
1722.000000	64.010334 
1721.000000	64.031648 
1720.000000	64.053177 
1719.000000	64.073729 
1718.000000	64.092159 
1717.000000	64.107632 
1716.000000	64.119601 
1715.000000	64.128041 
1714.000000	64.133286 
1713.000000	64.135766 
1712.000000	64.136052 
1711.000000	64.134788 
1710.000000	64.132452 
1709.000000	64.129590 
1708.000000	64.126300 
1707.000000	64.122986 
1706.000000	64.119648 
1705.000000	64.116168 
1704.000000	64.112114 
1703.000000	64.106965 
1702.000000	64.100384 
1701.000000	64.092326 
1700.000000	64.083337 
1699.000000	64.074635 
1698.000000	64.067721 
1697.000000	64.064049 
1696.000000	64.064526 
1695.000000	64.069151 
1694.000000	64.076709 
1693.000000	64.085197 
1692.000000	64.092087 
1691.000000	64.094781 
1690.000000	64.091682 
1689.000000	64.082527 
1688.000000	64.068436 
1687.000000	64.051938 
1686.000000	64.036393 
1685.000000	64.025115 
1684.000000	64.020729 
1683.000000	64.024329 
1682.000000	64.035320 
1681.000000	64.051508 
1680.000000	64.069700 
1679.000000	64.086341 
1678.000000	64.098286 
1677.000000	64.103603 
1676.000000	64.101672 
1675.000000	64.093494 
1674.000000	64.081215 
1673.000000	64.067554 
1672.000000	64.055252 
1671.000000	64.046049 
1670.000000	64.040660 
1669.000000	64.038586 
1668.000000	64.038348 
1667.000000	64.038014 
1666.000000	64.035964 
1665.000000	64.031267 
1664.000000	64.024090 
1663.000000	64.015579 
1662.000000	64.007377 
1661.000000	64.001321 
1660.000000	63.998889 
1659.000000	64.000749 
1658.000000	64.006733 
1657.000000	64.016079 
1656.000000	64.027547 
1655.000000	64.039897 
1654.000000	64.052248 
1653.000000	64.064097 
1652.000000	64.075446 
1651.000000	64.086365 
1650.000000	64.096736 
1649.000000	64.106202 
1648.000000	64.114022 
1647.000000	64.119267 
1646.000000	64.120769 
1645.000000	64.117741 
1644.000000	64.109706 
1643.000000	64.096713 
1642.000000	64.079260 
1641.000000	64.058423 
1640.000000	64.035725 
1639.000000	64.013028 
1638.000000	63.992404 
1637.000000	63.975954 
1636.000000	63.965654 
1635.000000	63.962936 
1634.000000	63.968610 
1633.000000	63.982439 
1632.000000	64.003157 
1631.000000	64.028668 
1630.000000	64.056181 
1629.000000	64.082813 
1628.000000	64.106154 
1627.000000	64.124774 
1626.000000	64.138245 
1625.000000	64.147281 
1624.000000	64.153504 
1623.000000	64.158868 
1622.000000	64.165163 
1621.000000	64.173316 
1620.000000	64.183402 
1619.000000	64.194416 
1618.000000	64.204812 
1617.000000	64.212536 
1616.000000	64.215731 
1615.000000	64.212942 
1614.000000	64.203524 
1613.000000	64.187622 
1612.000000	64.165997 
1611.000000	64.140105 
1610.000000	64.111781 
1609.000000	64.082980 
1608.000000	64.055776 
1607.000000	64.032053 
1606.000000	64.013457 
1605.000000	64.001131 
1604.000000	63.995552 
1603.000000	63.996291 
1602.000000	64.002132 
1601.000000	64.010930 
1600.000000	64.020156 
1599.000000	64.027166 
1598.000000	64.029598 
1597.000000	64.026188 
1596.000000	64.016842 
1595.000000	64.002704 
1594.000000	63.985967 
1593.000000	63.969254 
1592.000000	63.955354 
1591.000000	63.946294 
1590.000000	63.943338 
1589.000000	63.946413 
1588.000000	63.954401 
1587.000000	63.965535 
1586.000000	63.977694 
1585.000000	63.988637 
1584.000000	63.996601 
1583.000000	64.000582 
1582.000000	64.000558 
1581.000000	63.997173 
1580.000000	63.991832 
1579.000000	63.986158 
1578.000000	63.981533 
1577.000000	63.978528 
1576.000000	63.977193 
1575.000000	63.976812 
1574.000000	63.976144 
1573.000000	63.973808 
1572.000000	63.968873 
1571.000000	63.960957 
1570.000000	63.950252 
1569.000000	63.937497 
1568.000000	63.923645 
1567.000000	63.909864 
1566.000000	63.897180 
1565.000000	63.886761 
1564.000000	63.879489 
1563.000000	63.876414 
1562.000000	63.878512 
1561.000000	63.886570 
1560.000000	63.901019 
1559.000000	63.921594 
1558.000000	63.947081 
1557.000000	63.975143 
1556.000000	64.002633 
1555.000000	64.025998 
1554.000000	64.041972 
1553.000000	64.048409 
1552.000000	64.044809 
1551.000000	64.032530 
1550.000000	64.014720 
1549.000000	63.995599 
1548.000000	63.979792 
1547.000000	63.971161 
1546.000000	63.971996 
1545.000000	63.982772 
1544.000000	64.001703 
1543.000000	64.025449 
1542.000000	64.049744 
1541.000000	64.070272 
1540.000000	64.083719 
1539.000000	64.088320 
1538.000000	64.084148 
1537.000000	64.072847 
1536.000000	64.057087 
1535.000000	64.039683 
1534.000000	64.023280 
1533.000000	64.009451 
1532.000000	63.998985 
1531.000000	63.992142 
1530.000000	63.988804 
1529.000000	63.988733 
1528.000000	63.991785 
1527.000000	63.998007 
1526.000000	64.007258 
1525.000000	64.019107 
1524.000000	64.032864 
1523.000000	64.047527 
1522.000000	64.061999 
1521.000000	64.075112 
1520.000000	64.085698 
1519.000000	64.092636 
1518.000000	64.095330 
1517.000000	64.093351 
1516.000000	64.086818 
1515.000000	64.076137 
1514.000000	64.062404 
1513.000000	64.046812 
1512.000000	64.030933 
1511.000000	64.015865 
1510.000000	64.002466 
1509.000000	63.990807 
1508.000000	63.980484 
1507.000000	63.970303 
1506.000000	63.958668 
1505.000000	63.943982 
1504.000000	63.924884 
1503.000000	63.900804 
1502.000000	63.872170 
1501.000000	63.840532 
1500.000000	63.808345 
1499.000000	63.778853 
1498.000000	63.755202 
1497.000000	63.740468 
1496.000000	63.736867 
1495.000000	63.745403 
1494.000000	63.765692 
1493.000000	63.796067 
1492.000000	63.833737 
1491.000000	63.875174 
1490.000000	63.916707 
1489.000000	63.954567 
1488.000000	63.985633 
1487.000000	64.007782 
1486.000000	64.020109 
1485.000000	64.022946 
1484.000000	64.017629 
1483.000000	64.006590 
1482.000000	63.992333 
1481.000000	63.977336 
1480.000000	63.963246 
1479.000000	63.951086 
1478.000000	63.941001 
1477.000000	63.932609 
1476.000000	63.925051 
1475.000000	63.917636 
1474.000000	63.909578 
1473.000000	63.900518 
1472.000000	63.890266 
1471.000000	63.878822 
1470.000000	63.866472 
1469.000000	63.853693 
1468.000000	63.841557 
1467.000000	63.831591 
1466.000000	63.825821 
1465.000000	63.826584 
1464.000000	63.836169 
1463.000000	63.855981 
1462.000000	63.886070 
1461.000000	63.924527 
1460.000000	63.967704 
1459.000000	64.010667 
1458.000000	64.048218 
1457.000000	64.075827 
1456.000000	64.090657 
1455.000000	64.091634 
1454.000000	64.079999 
1453.000000	64.058113 
1452.000000	64.029431 
1451.000000	63.997220 
1450.000000	63.964295 
1449.000000	63.932657 
1448.000000	63.903570 
1447.000000	63.877654 
1446.000000	63.855314 
1445.000000	63.836789 
1444.000000	63.822507 
1443.000000	63.812804 
1442.000000	63.807821 
1441.000000	63.807177 
1440.000000	63.810110 
1439.000000	63.815712 
1438.000000	63.823127 
1437.000000	63.831710 
1436.000000	63.841319 
1435.000000	63.852047 
1434.000000	63.864111 
1433.000000	63.877820 
1432.000000	63.893198 
1431.000000	63.910150 
1430.000000	63.928198 
1429.000000	63.946771 
1428.000000	63.964509 
1427.000000	63.980007 
1426.000000	63.991284 
1425.000000	63.996386 
1424.000000	63.993406 
1423.000000	63.981151 
1422.000000	63.959527 
1421.000000	63.929748 
1420.000000	63.894224 
1419.000000	63.856196 
1418.000000	63.819193 
1417.000000	63.786530 
1416.000000	63.760232 
1415.000000	63.741064 
1414.000000	63.728260 
1413.000000	63.720297 
1412.000000	63.715219 
1411.000000	63.711714 
1410.000000	63.709163 
1409.000000	63.708186 
1408.000000	63.710117 
1407.000000	63.716840 
1406.000000	63.729214 
1405.000000	63.747262 
1404.000000	63.769626 
1403.000000	63.793849 
1402.000000	63.816857 
1401.000000	63.835859 
1400.000000	63.848876 
1399.000000	63.855218 
1398.000000	63.855648 
1397.000000	63.851737 
1396.000000	63.845419 
1395.000000	63.838219 
1394.000000	63.830852 
1393.000000	63.823103 
1392.000000	63.814163 
1391.000000	63.803100 
1390.000000	63.789582 
1389.000000	63.774061 
1388.000000	63.757729 
1387.000000	63.742470 
1386.000000	63.730216 
1385.000000	63.721966 
1384.000000	63.717699 
1383.000000	63.716125 
1382.000000	63.715100 
1381.000000	63.712215 
1380.000000	63.705658 
1379.000000	63.694739 
1378.000000	63.680315 
1377.000000	63.664436 
1376.000000	63.649892 
1375.000000	63.639402 
1374.000000	63.634943 
1373.000000	63.637089 
1372.000000	63.645076 
1371.000000	63.657021 
1370.000000	63.670349 
1369.000000	63.682532 
1368.000000	63.691735 
1367.000000	63.697099 
1366.000000	63.698744 
1365.000000	63.697624 
1364.000000	63.695001 
1363.000000	63.692045 
1362.000000	63.689517 
1361.000000	63.687705 
1360.000000	63.686442 
1359.000000	63.685607 
1358.000000	63.685083 
1357.000000	63.685250 
1356.000000	63.686943 
1355.000000	63.691258 
1354.000000	63.699173 
1353.000000	63.711380 
1352.000000	63.727784 
1351.000000	63.747429 
1350.000000	63.768386 
1349.000000	63.788485 
1348.000000	63.805437 
1347.000000	63.817667 
1346.000000	63.824820 
1345.000000	63.827800 
1344.000000	63.828706 
1343.000000	63.830089 
1342.000000	63.834261 
1341.000000	63.842415 
1340.000000	63.854241 
1339.000000	63.867807 
1338.000000	63.880228 
1337.000000	63.888144 
1336.000000	63.888883 
1335.000000	63.881015 
1334.000000	63.865160 
1333.000000	63.843774 
1332.000000	63.820743 
1331.000000	63.800430 
1330.000000	63.786649 
1329.000000	63.781785 
1328.000000	63.786315 
1327.000000	63.798618 
1326.000000	63.815188 
1325.000000	63.831758 
1324.000000	63.844132 
1323.000000	63.848948 
1322.000000	63.844776 
1321.000000	63.831710 
1320.000000	63.811850 
1319.000000	63.788461 
1318.000000	63.765239 
1317.000000	63.745427 
1316.000000	63.731074 
1315.000000	63.722801 
1314.000000	63.719677 
1313.000000	63.719725 
1312.000000	63.720464 
1311.000000	63.719820 
1310.000000	63.716793 
1309.000000	63.711476 
1308.000000	63.705253 
1307.000000	63.700222 
1306.000000	63.698601 
1305.000000	63.701987 
1304.000000	63.710784 
1303.000000	63.724136 
1302.000000	63.739967 
1301.000000	63.755440 
1300.000000	63.767600 
1299.000000	63.773965 
1298.000000	63.773322 
1297.000000	63.765740 
1296.000000	63.752698 
1295.000000	63.736629 
1294.000000	63.720178 
1293.000000	63.705825 
1292.000000	63.695263 
1291.000000	63.688921 
1290.000000	63.686275 
1289.000000	63.685846 
1288.000000	63.685703 
1287.000000	63.683962 
1286.000000	63.679265 
1285.000000	63.670921 
1284.000000	63.659000 
1283.000000	63.644194 
1282.000000	63.627862 
1281.000000	63.611459 
1280.000000	63.596534 
1279.000000	63.584446 
1278.000000	63.576221 
1277.000000	63.572478 
1276.000000	63.573527 
1275.000000	63.579201 
1274.000000	63.588833 
1273.000000	63.601040 
1272.000000	63.614058 
1271.000000	63.625717 
1270.000000	63.634085 
1269.000000	63.637685 
1268.000000	63.635873 
1267.000000	63.628959 
1266.000000	63.618016 
1265.000000	63.604450 
1264.000000	63.589811 
1263.000000	63.575339 
1262.000000	63.562226 
1261.000000	63.551259 
1260.000000	63.543391 
1259.000000	63.539695 
1258.000000	63.541078 
1257.000000	63.548350 
1256.000000	63.561511 
1255.000000	63.579893 
1254.000000	63.601851 
1253.000000	63.624978 
1252.000000	63.646483 
1251.000000	63.663816 
1250.000000	63.675165 
1249.000000	63.679814 
1248.000000	63.678383 
1247.000000	63.672590 
1246.000000	63.664841 
1245.000000	63.657546 
1244.000000	63.652586 
1243.000000	63.650918 
1242.000000	63.652563 
1241.000000	63.656616 
1240.000000	63.661670 
1239.000000	63.666367 
1238.000000	63.669681 
1237.000000	63.671278 
1236.000000	63.671565 
1235.000000	63.671588 
1234.000000	63.672494 
1233.000000	63.675379 
1232.000000	63.680934 
1231.000000	63.689041 
1230.000000	63.698649 
1229.000000	63.708066 
1228.000000	63.715338 
1227.000000	63.718509 
1226.000000	63.716197 
1225.000000	63.707756 
1224.000000	63.693499 
1223.000000	63.674712 
1222.000000	63.653421 
1221.000000	63.631868 
1220.000000	63.612198 
1219.000000	63.596391 
1218.000000	63.585543 
1217.000000	63.580179 
1216.000000	63.579916 
1215.000000	63.583850 
1214.000000	63.590884 
1213.000000	63.599634 
1212.000000	63.608932 
1211.000000	63.618016 
1210.000000	63.626813 
1209.000000	63.635468 
1208.000000	63.644742 
1207.000000	63.655614 
1206.000000	63.669061 
1205.000000	63.685679 
1204.000000	63.705492 
1203.000000	63.727617 
1202.000000	63.750481 
1201.000000	63.771867 
1200.000000	63.789296 
1199.000000	63.800621 
1198.000000	63.804268 
1197.000000	63.799691 
1196.000000	63.787674 
1195.000000	63.770079 
1194.000000	63.749694 
1193.000000	63.729262 
1192.000000	63.711309 
1191.000000	63.697123 
1190.000000	63.687109 
1189.000000	63.680195 
1188.000000	63.674259 
1187.000000	63.666605 
1186.000000	63.654875 
1185.000000	63.637542 
1184.000000	63.614273 
1183.000000	63.586378 
1182.000000	63.556194 
1181.000000	63.527035 
1180.000000	63.502216 
1179.000000	63.484525 
1178.000000	63.475608 
1177.000000	63.475680 
1176.000000	63.483500 
1175.000000	63.496541 
1174.000000	63.511490 
1173.000000	63.524651 
1172.000000	63.532567 
1171.000000	63.532304 
1170.000000	63.522124 
1169.000000	63.501763 
1168.000000	63.472557 
1167.000000	63.437223 
1166.000000	63.399648 
1165.000000	63.364529 
1164.000000	63.336205 
1163.000000	63.318395 
1162.000000	63.313055 
1161.000000	63.320279 
1160.000000	63.338208 
1159.000000	63.363456 
1158.000000	63.391923 
1157.000000	63.419413 
1156.000000	63.442850 
1155.000000	63.460540 
1154.000000	63.472628 
1153.000000	63.480448 
1152.000000	63.486099 
1151.000000	63.491892 
1150.000000	63.499450 
1149.000000	63.509225 
1148.000000	63.520789 
1147.000000	63.532972 
1146.000000	63.544321 
1145.000000	63.553619 
1144.000000	63.560390 
1143.000000	63.564896 
1142.000000	63.567948 
1141.000000	63.570404 
1140.000000	63.572645 
1139.000000	63.574314 
1138.000000	63.574957 
1137.000000	63.573622 
1136.000000	63.569545 
1135.000000	63.562393 
1134.000000	63.552069 
1133.000000	63.539218 
1132.000000	63.524866 
1131.000000	63.510632 
1130.000000	63.498592 
1129.000000	63.490796 
1128.000000	63.489103 
1127.000000	63.494586 
1126.000000	63.507175 
1125.000000	63.525629 
1124.000000	63.547658 
1123.000000	63.570952 
1122.000000	63.593792 
1121.000000	63.615536 
1120.000000	63.636636 
1119.000000	63.657808 
1118.000000	63.679218 
1117.000000	63.699865 
1116.000000	63.717222 
1115.000000	63.727974 
1114.000000	63.728356 
1113.000000	63.715767 
1112.000000	63.689136 
1111.000000	63.649725 
1110.000000	63.600730 
1109.000000	63.547325 
1108.000000	63.495063 
1107.000000	63.449430 
1106.000000	63.414049 
1105.000000	63.390564 
1104.000000	63.377881 
1103.000000	63.372659 
1102.000000	63.370347 
1101.000000	63.366222 
1100.000000	63.356852 
1099.000000	63.340854 
1098.000000	63.319897 
1097.000000	63.297677 
1096.000000	63.280057 
1095.000000	63.273024 
1094.000000	63.280987 
1093.000000	63.305330 
1092.000000	63.343191 
1091.000000	63.387703 
1090.000000	63.429212 
1089.000000	63.458013 
1088.000000	63.467025 
1087.000000	63.454079 
1086.000000	63.422656 
1085.000000	63.381171 
1084.000000	63.340330 
1083.000000	63.310384 
1082.000000	63.297891 
1081.000000	63.304662 
1080.000000	63.327312 
1079.000000	63.358902 
1078.000000	63.391542 
1077.000000	63.418316 
1076.000000	63.435840 
1075.000000	63.444232 
1074.000000	63.446903 
1073.000000	63.448691 
1072.000000	63.453364 
1071.000000	63.462877 
1070.000000	63.476061 
1069.000000	63.490295 
1068.000000	63.502478 
1067.000000	63.510847 
1066.000000	63.515901 
1065.000000	63.520026 
1064.000000	63.526535 
1063.000000	63.538193 
1062.000000	63.556075 
1061.000000	63.579130 
1060.000000	63.604164 
1059.000000	63.627314 
1058.000000	63.644361 
1057.000000	63.652324 
1056.000000	63.649630 
1055.000000	63.636445 
1054.000000	63.614583 
1053.000000	63.586878 
1052.000000	63.556647 
1051.000000	63.527321 
1050.000000	63.501667 
1049.000000	63.481545 
1048.000000	63.467669 
1047.000000	63.459920 
1046.000000	63.457369 
1045.000000	63.458657 
1044.000000	63.461947 
1043.000000	63.465094 
1042.000000	63.466310 
1041.000000	63.464546 
1040.000000	63.459706 
1039.000000	63.452577 
1038.000000	63.444876 
1037.000000	63.438653 
1036.000000	63.436031 
1035.000000	63.438439 
1034.000000	63.446545 
1033.000000	63.459539 
1032.000000	63.475751 
1031.000000	63.492226 
1030.000000	63.505673 
1029.000000	63.512849 
1028.000000	63.511037 
1027.000000	63.499212 
1026.000000	63.478112 
1025.000000	63.450670 
1024.000000	63.421154 
1023.000000	63.394427 
1022.000000	63.374876 
1021.000000	63.365221 
1020.000000	63.366198 
1019.000000	63.376212 
1018.000000	63.391900 
1017.000000	63.408970 
1016.000000	63.423514 
1015.000000	63.433051 
1014.000000	63.436913 
1013.000000	63.436532 
1012.000000	63.434886 
1011.000000	63.435649 
1010.000000	63.441824 
1009.000000	63.455057 
1008.000000	63.474869 
1007.000000	63.498759 
1006.000000	63.522529 
1005.000000	63.541483 
1004.000000	63.551378 
1003.000000	63.549375 
1002.000000	63.534784 
1001.000000	63.509082 
1000.000000	63.475942 
999.000000	 63.440251 
998.000000	 63.407254 
997.000000	 63.381433 
996.000000	 63.365793 
995.000000	 63.361454 
994.000000	 63.367629 
993.000000	 63.382101 
992.000000	 63.401985 
991.000000	 63.424563 
990.000000	 63.447952 
989.000000	 63.471603 
988.000000	 63.495969 
987.000000	 63.522028 
986.000000	 63.550639 
985.000000	 63.581609 
984.000000	 63.613462 
983.000000	 63.643217 
982.000000	 63.666987 
981.000000	 63.680768 
980.000000	 63.681674 
979.000000	 63.668465 
978.000000	 63.642597 
977.000000	 63.607573 
976.000000	 63.568758 
975.000000	 63.531804 
974.000000	 63.501739 
973.000000	 63.481569 
972.000000	 63.472127 
971.000000	 63.471746 
970.000000	 63.477206 
969.000000	 63.484454 
968.000000	 63.490009 
967.000000	 63.491511 
966.000000	 63.488435 
965.000000	 63.481950 
964.000000	 63.474202 
963.000000	 63.467717 
962.000000	 63.464283 
961.000000	 63.464808 
960.000000	 63.469195 
959.000000	 63.476538 
958.000000	 63.485479 
957.000000	 63.495230 
956.000000	 63.505601 
955.000000	 63.517117 
954.000000	 63.530778 
953.000000	 63.547301 
952.000000	 63.566875 
951.000000	 63.588476 
950.000000	 63.610172 
949.000000	 63.629627 
948.000000	 63.644409 
947.000000	 63.653039 
946.000000	 63.654899 
945.000000	 63.650369 
944.000000	 63.640499 
943.000000	 63.626861 
942.000000	 63.610959 
941.000000	 63.593673 
940.000000	 63.575410 
939.000000	 63.556241 
938.000000	 63.536190 
937.000000	 63.515758 
936.000000	 63.495850 
935.000000	 63.477969 
934.000000	 63.463830 
933.000000	 63.455009 
932.000000	 63.452506 
931.000000	 63.456249 
930.000000	 63.465404 
929.000000	 63.478231 
928.000000	 63.492655 
927.000000	 63.506221 
926.000000	 63.516378 
925.000000	 63.521099 
924.000000	 63.518691 
923.000000	 63.508796 
922.000000	 63.492250 
921.000000	 63.471388 
920.000000	 63.449716 
919.000000	 63.431167 
918.000000	 63.419222 
917.000000	 63.416075 
916.000000	 63.422131 
915.000000	 63.435959 
914.000000	 63.454413 
913.000000	 63.473701 
912.000000	 63.490271 
911.000000	 63.501548 
910.000000	 63.506484 
909.000000	 63.505315 
908.000000	 63.499379 
907.000000	 63.490009 
906.000000	 63.478040 
905.000000	 63.463544 
904.000000	 63.446021 
903.000000	 63.425350 
902.000000	 63.402342 
901.000000	 63.379430 
900.000000	 63.360214 
899.000000	 63.348937 
898.000000	 63.349318 
897.000000	 63.362979 
896.000000	 63.389229 
895.000000	 63.424944 
894.000000	 63.465690 
893.000000	 63.506031 
892.000000	 63.541603 
891.000000	 63.569784 
890.000000	 63.590431 
889.000000	 63.605308 
888.000000	 63.617491 
887.000000	 63.630390 
886.000000	 63.646531 
885.000000	 63.666939 
884.000000	 63.690686 
883.000000	 63.715553 
882.000000	 63.738393 
881.000000	 63.756251 
880.000000	 63.766860 
879.000000	 63.769221 
878.000000	 63.763594 
877.000000	 63.751459 
876.000000	 63.734960 
875.000000	 63.716316 
874.000000	 63.697624 
873.000000	 63.680124 
872.000000	 63.664126 
871.000000	 63.648653 
870.000000	 63.631939 
869.000000	 63.611888 
868.000000	 63.586544 
867.000000	 63.554644 
866.000000	 63.515949 
865.000000	 63.471651 
864.000000	 63.424158 
863.000000	 63.376665 
862.000000	 63.332319 
861.000000	 63.293981 
860.000000	 63.263273 
859.000000	 63.240861 
858.000000	 63.225841 
857.000000	 63.216805 
856.000000	 63.211846 
855.000000	 63.209605 
854.000000	 63.209414 
853.000000	 63.211464 
852.000000	 63.216400 
851.000000	 63.225197 
850.000000	 63.238406 
849.000000	 63.256359 
848.000000	 63.278913 
847.000000	 63.305521 
846.000000	 63.335156 
845.000000	 63.366842 
844.000000	 63.399076 
843.000000	 63.430523 
842.000000	 63.459253 
841.000000	 63.483452 
840.000000	 63.500976 
839.000000	 63.509821 
838.000000	 63.508605 
837.000000	 63.497090 
836.000000	 63.476514 
835.000000	 63.449859 
834.000000	 63.421654 
833.000000	 63.397240 
832.000000	 63.382101 
831.000000	 63.381028 
830.000000	 63.396739 
829.000000	 63.429284 
828.000000	 63.475823 
827.000000	 63.531351 
826.000000	 63.589191 
825.000000	 63.642311 
824.000000	 63.684558 
823.000000	 63.711738 
822.000000	 63.722205 
821.000000	 63.717007 
820.000000	 63.698983 
819.000000	 63.671755 
818.000000	 63.639092 
817.000000	 63.603615 
816.000000	 63.566589 
815.000000	 63.527631 
814.000000	 63.485503 
813.000000	 63.438892 
812.000000	 63.387250 
811.000000	 63.331794 
810.000000	 63.275384 
809.000000	 63.222646 
808.000000	 63.178801 
807.000000	 63.148999 
806.000000	 63.136267 
805.000000	 63.141751 
804.000000	 63.164019 
803.000000	 63.199782 
802.000000	 63.244223 
801.000000	 63.292312 
800.000000	 63.339519 
799.000000	 63.381814 
798.000000	 63.415980 
797.000000	 63.439011 
796.000000	 63.448119 
795.000000	 63.440895 
794.000000	 63.415479 
793.000000	 63.371348 
792.000000	 63.309597 
791.000000	 63.233780 
790.000000	 63.149595 
789.000000	 63.064360 
788.000000	 62.986254 
787.000000	 62.922477 
786.000000	 62.878990 
785.000000	 62.858653 
784.000000	 62.862277 
783.000000	 62.888264 
782.000000	 62.934207 
781.000000	 62.996554 
780.000000	 63.072109 
779.000000	 63.157320 
778.000000	 63.248682 
777.000000	 63.341808 
776.000000	 63.432073 
775.000000	 63.514232 
774.000000	 63.583064 
773.000000	 63.634085 
772.000000	 63.664078 
771.000000	 63.672089 
770.000000	 63.659405 
769.000000	 63.629555 
768.000000	 63.588023 
767.000000	 63.541245 
766.000000	 63.496065 
765.000000	 63.457965 
764.000000	 63.430333 
763.000000	 63.413548 
762.000000	 63.405847 
761.000000	 63.403367 
760.000000	 63.401079 
759.000000	 63.393878 
758.000000	 63.377928 
757.000000	 63.351702 
756.000000	 63.315868 
755.000000	 63.273382 
754.000000	 63.228559 
753.000000	 63.185882 
752.000000	 63.148927 
751.000000	 63.119339 
750.000000	 63.096833 
749.000000	 63.079142 
748.000000	 63.063025 
747.000000	 63.044977 
746.000000	 63.022089 
745.000000	 62.993097 
744.000000	 62.958788 
743.000000	 62.921524 
742.000000	 62.884569 
741.000000	 62.853050 
740.000000	 62.832856 
739.000000	 62.829422 
738.000000	 62.846708 
737.000000	 62.886667 
736.000000	 62.948131 
735.000000	 63.026762 
734.000000	 63.114643 
733.000000	 63.200759 
732.000000	 63.272833 
731.000000	 63.319325 
730.000000	 63.332509 
729.000000	 63.309478 
728.000000	 63.254022 
727.000000	 63.176298 
726.000000	 63.091063 
725.000000	 63.014483 
724.000000	 62.961149 
723.000000	 62.942051 
722.000000	 62.960672 
721.000000	 63.012957 
720.000000	 63.087749 
719.000000	 63.170337 
718.000000	 63.243007 
717.000000	 63.289022 
716.000000	 63.294839 
715.000000	 63.252878 
714.000000	 63.162112 
713.000000	 63.028788 
712.000000	 62.865161 
711.000000	 62.687873 
710.000000	 62.515592 
709.000000	 62.366127 
708.000000	 62.254405 
707.000000	 62.189936 
706.000000	 62.175869 
705.000000	 62.208795 
704.000000	 62.278699 
703.000000	 62.372994 
702.000000	 62.477421 
701.000000	 62.581515 
700.000000	 62.676239 
699.000000	 62.760114 
698.000000	 62.836766 
697.000000	 62.915039 
696.000000	 63.004422 
695.000000	 63.113093 
694.000000	 63.244605 
693.000000	 63.396072 
692.000000	 63.558578 
691.000000	 63.717532 
690.000000	 63.856244 
689.000000	 63.959074 
688.000000	 64.015245 
687.000000	 64.021611 
686.000000	 63.983631 
685.000000	 63.914155 
684.000000	 63.830828 
683.000000	 63.752675 
682.000000	 63.695502 
681.000000	 63.670659 
680.000000	 63.680911 
679.000000	 63.721966 
678.000000	 63.781428 
677.000000	 63.844156 
676.000000	 63.892388 
675.000000	 63.909745 
674.000000	 63.883852 
673.000000	 63.807225 
672.000000	 63.681006 
671.000000	 63.514828 
670.000000	 63.325786 
669.000000	 63.135027 
668.000000	 62.964463 
667.000000	 62.833213 
666.000000	 62.752604 
665.000000	 62.724518 
664.000000	 62.740612 
663.000000	 62.785077 
662.000000	 62.837791 
661.000000	 62.879395 
660.000000	 62.895464 
659.000000	 62.879967 
658.000000	 62.835264 
657.000000	 62.771248 
656.000000	 62.702226 
655.000000	 62.643027 
654.000000	 62.605237 
653.000000	 62.594270 
652.000000	 62.608909 
651.000000	 62.640881 
650.000000	 62.679624 
649.000000	 62.712311 
648.000000	 62.727165 
647.000000	 62.715172 
646.000000	 62.671375 
645.000000	 62.595963 
644.000000	 62.492823 
643.000000	 62.370634 
642.000000	 62.240529 
641.000000	 62.115740 
640.000000	 62.008905 
639.000000	 61.931705 
638.000000	 61.893033 
637.000000	 61.897635 
636.000000	 61.945247 
635.000000	 62.030816 
634.000000	 62.144947 
633.000000	 62.274813 
632.000000	 62.406110 
631.000000	 62.525010 
630.000000	 62.620854 
629.000000	 62.687706 
628.000000	 62.725567 
627.000000	 62.739419 
626.000000	 62.737894 
625.000000	 62.731504 
624.000000	 62.729787 
623.000000	 62.739896 
622.000000	 62.765049 
621.000000	 62.804985 
620.000000	 62.856245 
619.000000	 62.914156 
618.000000	 62.973546 
617.000000	 63.030886 
616.000000	 63.083696 
615.000000	 63.131117 
614.000000	 63.172221 
613.000000	 63.205289 
612.000000	 63.227868 
611.000000	 63.237357 
610.000000	 63.231635 
609.000000	 63.209939 
608.000000	 63.174247 
607.000000	 63.129615 
606.000000	 63.082790 
605.000000	 63.040852 
604.000000	 63.009071 
603.000000	 62.989616 
602.000000	 62.981390 
601.000000	 62.979984 
600.000000	 62.978816 
599.000000	 62.970376 
598.000000	 62.948703 
597.000000	 62.910175 
596.000000	 62.853717 
595.000000	 62.781405 
594.000000	 62.697148 
593.000000	 62.607169 
592.000000	 62.517738 
591.000000	 62.436580 
590.000000	 62.370920 
589.000000	 62.328219 
588.000000	 62.314724 
587.000000	 62.334871 
586.000000	 62.389993 
585.000000	 62.477111 
584.000000	 62.588500 
583.000000	 62.712359 
582.000000	 62.834239 
581.000000	 62.939405 
580.000000	 63.015222 
579.000000	 63.053154 
578.000000	 63.050484 
577.000000	 63.010692 
576.000000	 62.942528 
575.000000	 62.857985 
574.000000	 62.769842 
573.000000	 62.690114 
572.000000	 62.627291 
571.000000	 62.585520 
570.000000	 62.564587 
569.000000	 62.561082 
568.000000	 62.570214 
567.000000	 62.587618 
566.000000	 62.610650 
565.000000	 62.638235 
564.000000	 62.671136 
563.000000	 62.709856 
562.000000	 62.754511 
561.000000	 62.803053 
560.000000	 62.852406 
559.000000	 62.898612 
558.000000	 62.937903 
557.000000	 62.967967 
556.000000	 62.988138 
555.000000	 62.999463 
554.000000	 63.004589 
553.000000	 63.007020 
552.000000	 63.010621 
551.000000	 63.018846 
550.000000	 63.034510 
549.000000	 63.058876 
548.000000	 63.092017 
547.000000	 63.131690 
546.000000	 63.174128 
545.000000	 63.213777 
544.000000	 63.243842 
543.000000	 63.257622 
542.000000	 63.249826 
541.000000	 63.218259 
540.000000	 63.164806 
539.000000	 63.094830 
538.000000	 63.017129 
537.000000	 62.940573 
536.000000	 62.872529 
535.000000	 62.816691 
534.000000	 62.771677 
533.000000	 62.733507 
532.000000	 62.697482 
531.000000	 62.660884 
530.000000	 62.624239 
529.000000	 62.592196 
528.000000	 62.572097 
527.000000	 62.572097 
526.000000	 62.597966 
525.000000	 62.651729 
524.000000	 62.730288 
523.000000	 62.826013 
522.000000	 62.928128 
521.000000	 63.024735 
520.000000	 63.104844 
519.000000	 63.160991 
518.000000	 63.189530 
517.000000	 63.191223 
516.000000	 63.169622 
515.000000	 63.130283 
514.000000	 63.078260 
513.000000	 63.018298 
512.000000	 62.952351 
511.000000	 62.881898 
510.000000	 62.805938 
509.000000	 62.722969 
508.000000	 62.631583 
507.000000	 62.531638 
506.000000	 62.425804 
505.000000	 62.319684 
504.000000	 62.221860 
503.000000	 62.141919 
502.000000	 62.089776 
501.000000	 62.073087 
500.000000	 62.095570 
499.000000	 62.155699 
498.000000	 62.248468 
497.000000	 62.366008 
496.000000	 62.498664 
495.000000	 62.636208 
494.000000	 62.768888 
493.000000	 62.888121 
492.000000	 62.986159 
491.000000	 63.056993 
490.000000	 63.096904 
489.000000	 63.105392 
488.000000	 63.085174 
487.000000	 63.042163 
486.000000	 62.985873 
485.000000	 62.926197 
484.000000	 62.874364 
483.000000	 62.837505 
482.000000	 62.818741 
481.000000	 62.814474 
480.000000	 62.816977 
479.000000	 62.814593 
478.000000	 62.795495 
477.000000	 62.749505 
476.000000	 62.671422 
475.000000	 62.560296 
474.000000	 62.420058 
473.000000	 62.257981 
472.000000	 62.083387 
471.000000	 61.906409 
470.000000	 61.736822 
469.000000	 61.583280 
468.000000	 61.452746 
467.000000	 61.349892 
466.000000	 61.277127 
465.000000	 61.232805 
464.000000	 61.213016 
463.000000	 61.212015 
462.000000	 61.224436 
461.000000	 61.243915 
460.000000	 61.266517 
459.000000	 61.290144 
458.000000	 61.314702 
457.000000	 61.341452 
456.000000	 61.370968 
455.000000	 61.401438 
454.000000	 61.428618 
453.000000	 61.446714 
452.000000	 61.449265 
451.000000	 61.430573 
450.000000	 61.388397 
449.000000	 61.325383 
448.000000	 61.248445 
447.000000	 61.167526 
446.000000	 61.093211 
445.000000	 61.034321 
444.000000	 60.995578 
443.000000	 60.976576 
442.000000	 60.972619 
441.000000	 60.975766 
440.000000	 60.976481 
439.000000	 60.966110 
438.000000	 60.938239 
437.000000	 60.891270 
436.000000	 60.828042 
435.000000	 60.756564 
434.000000	 60.686397 
433.000000	 60.629510 
432.000000	 60.595846 
431.000000	 60.594296 
430.000000	 60.632586 
429.000000	 60.714006 
428.000000	 60.834145 
427.000000	 60.983562 
426.000000	 61.151361 
425.000000	 61.322259 
424.000000	 61.477208 
423.000000	 61.598491 
422.000000	 61.672878 
421.000000	 61.693358 
420.000000	 61.661171 
419.000000	 61.582517 
418.000000	 61.465811 
417.000000	 61.330866 
416.000000	 61.203575 
415.000000	 61.102819 
414.000000	 61.034226 
413.000000	 60.997366 
412.000000	 60.981893 
411.000000	 60.952281 
410.000000	 60.868716 
409.000000	 60.711240 
408.000000	 60.486364 
407.000000	 60.215425 
406.000000	 59.947991 
405.000000	 59.741950 
404.000000	 59.666609 
403.000000	 59.780621 
402.000000	 60.130405 
401.000000	 60.723972 
400.000000	 61.546850 
399.000000	 62.582182 
398.000000	 63.774108 
397.000000	 65.025615 
396.000000	 66.213226 
395.000000	 67.214107 
394.000000	 67.891764 
393.000000	 68.118476 
392.000000	 67.797613 
391.000000	 66.879844 
390.000000	 65.374898 
389.000000	 63.341927 
388.000000	 60.872316 
387.000000	 58.061075 
386.000000	 54.994726 
385.000000	 51.734733 
384.000000	 48.324990 
383.000000	 44.811654 
382.000000	 41.232800 
381.000000	 37.691998 
380.000000	 34.312009 
379.000000	 31.329441 
378.000000	 29.024195 
377.000000	 27.752399 
376.000000	 27.797651 
375.000000	 29.402351 
374.000000	 32.613682 
373.000000	 37.358522 
372.000000	 43.392968 
371.000000	 50.367259 
370.000000	 57.841253 

