PE IR       SPECTRUM    SPECTRUM    ASCII       PEDS        1.60        
  -1
BZ69A3~1.ASC
17/04/07
17:26:46.00
17/04/07
17:26:46.00
tln
$BZ1503107-1_t0051$<tbV0>[-2.6,-2.6,8.0,0.0,27,1,0]
370.000000
64









2002,4.07    
MIRTGS : RIGHTBACK : INTERNAL 2
MIR : ON : INTERNAL 2
OPTKBR

0.200000
8
8.000000
FILLER
RATIO
SPECTRUM
UNLOCKED 256

DOUBLE
64
COMBINED
1
0
0


1.000000
RATIO


1
0
TRUE
51149
0
LEFT NOT FITTED RIGHT NOT FITTED 0
NONE
NONE
15600
12.000000
4.427000
51148
TRUE
1 0 8 72 0 0 0 0 

15798.010000






#HDR
-1
-1
#GR
CM-1
%T
0.00002384185791015625
0.0
5000.000000
-1.000000
4631
8
70.282959
39.933204
#DATA
5000.000000	64.871621 
4999.000000	65.038466 
4998.000000	65.178751 
4997.000000	65.271258 
4996.000000	65.307569 
4995.000000	65.293097 
4994.000000	65.246033 
4993.000000	65.189313 
4992.000000	65.147352 
4991.000000	65.137386 
4990.000000	65.170145 
4989.000000	65.248727 
4988.000000	65.369987 
4987.000000	65.526509 
4986.000000	65.710115 
4985.000000	65.913844 
4984.000000	66.129779 
4983.000000	66.348433 
4982.000000	66.557526 
4981.000000	66.741609 
4980.000000	66.884970 
4979.000000	66.972661 
4978.000000	66.993141 
4977.000000	66.939926 
4976.000000	66.815018 
4975.000000	66.627860 
4974.000000	66.394019 
4973.000000	66.133832 
4972.000000	65.870881 
4971.000000	65.629029 
4970.000000	65.430736 
4969.000000	65.293025 
4968.000000	65.226793 
4967.000000	65.233111 
4966.000000	65.302681 
4965.000000	65.417194 
4964.000000	65.551972 
4963.000000	65.680599 
4962.000000	65.778183 
4961.000000	65.827631 
4960.000000	65.821218 
4959.000000	65.762948 
4958.000000	65.666103 
4957.000000	65.549635 
4956.000000	65.432620 
4955.000000	65.329194 
4954.000000	65.245103 
4953.000000	65.177583 
4952.000000	65.117192 
4951.000000	65.051174 
4950.000000	64.968681 
4949.000000	64.865064 
4948.000000	64.744400 
4947.000000	64.617848 
4946.000000	64.501810 
4945.000000	64.412045 
4944.000000	64.360547 
4943.000000	64.351177 
4942.000000	64.379882 
4941.000000	64.434480 
4940.000000	64.500045 
4939.000000	64.562487 
4938.000000	64.613103 
4937.000000	64.649486 
4936.000000	64.676713 
4935.000000	64.704012 
4934.000000	64.741945 
4933.000000	64.797902 
4932.000000	64.873671 
4931.000000	64.963817 
4930.000000	65.057277 
4929.000000	65.140199 
4928.000000	65.199398 
4927.000000	65.225887 
4926.000000	65.216016 
4925.000000	65.172743 
4924.000000	65.104794 
4923.000000	65.024709 
4922.000000	64.946246 
4921.000000	64.881205 
4920.000000	64.838910 
4919.000000	64.823126 
4918.000000	64.832878 
4917.000000	64.861774 
4916.000000	64.900541 
4915.000000	64.938449 
4914.000000	64.965224 
4913.000000	64.973664 
4912.000000	64.960455 
4911.000000	64.927053 
4910.000000	64.878129 
4909.000000	64.820981 
4908.000000	64.763116 
4907.000000	64.711189 
4906.000000	64.669752 
4905.000000	64.640641 
4904.000000	64.623260 
4903.000000	64.615917 
4902.000000	64.616918 
4901.000000	64.625096 
4900.000000	64.640021 
4899.000000	64.661574 
4898.000000	64.688968 
4897.000000	64.719676 
4896.000000	64.749217 
4895.000000	64.772343 
4894.000000	64.783859 
4893.000000	64.780163 
4892.000000	64.760422 
4891.000000	64.726471 
4890.000000	64.683556 
4889.000000	64.638972 
4888.000000	64.601182 
4887.000000	64.577841 
4886.000000	64.574408 
4885.000000	64.593267 
4884.000000	64.632987 
4883.000000	64.688754 
4882.000000	64.753079 
4881.000000	64.817214 
4880.000000	64.872908 
4879.000000	64.914035 
4878.000000	64.937520 
4877.000000	64.943528 
4876.000000	64.934921 
4875.000000	64.915943 
4874.000000	64.891242 
4873.000000	64.864468 
4872.000000	64.837312 
4871.000000	64.809203 
4870.000000	64.778304 
4869.000000	64.742565 
4868.000000	64.701104 
4867.000000	64.655137 
4866.000000	64.608359 
4865.000000	64.566278 
4864.000000	64.534735 
4863.000000	64.518523 
4862.000000	64.519524 
4861.000000	64.536452 
4860.000000	64.565014 
4859.000000	64.598774 
4858.000000	64.630556 
4857.000000	64.654231 
4856.000000	64.665651 
4855.000000	64.663529 
4854.000000	64.649271 
4853.000000	64.626598 
4852.000000	64.600372 
4851.000000	64.575529 
4850.000000	64.555811 
4849.000000	64.543581 
4848.000000	64.539575 
4847.000000	64.542889 
4846.000000	64.551496 
4845.000000	64.563059 
4844.000000	64.575624 
4843.000000	64.587759 
4842.000000	64.598941 
4841.000000	64.609575 
4840.000000	64.620494 
4839.000000	64.632892 
4838.000000	64.647459 
4837.000000	64.664292 
4836.000000	64.682340 
4835.000000	64.699792 
4834.000000	64.714145 
4833.000000	64.722800 
4832.000000	64.723539 
4831.000000	64.715576 
4830.000000	64.699292 
4829.000000	64.676308 
4828.000000	64.649200 
4827.000000	64.621067 
4826.000000	64.594697 
4825.000000	64.572072 
4824.000000	64.553904 
4823.000000	64.539885 
4822.000000	64.528751 
4821.000000	64.518976 
4820.000000	64.509129 
4819.000000	64.498353 
4818.000000	64.486265 
4817.000000	64.473128 
4816.000000	64.459419 
4815.000000	64.445352 
4814.000000	64.430356 
4813.000000	64.413261 
4812.000000	64.392471 
4811.000000	64.366817 
4810.000000	64.335584 
4809.000000	64.299774 
4808.000000	64.261937 
4807.000000	64.226436 
4806.000000	64.197826 
4805.000000	64.181375 
4804.000000	64.180970 
4803.000000	64.199280 
4802.000000	64.236617 
4801.000000	64.291238 
4800.000000	64.359354 
4799.000000	64.435195 
4798.000000	64.511466 
4797.000000	64.580297 
4796.000000	64.634251 
4795.000000	64.667463 
4794.000000	64.676523 
4793.000000	64.661407 
4792.000000	64.625597 
4791.000000	64.575934 
4790.000000	64.521384 
4789.000000	64.471912 
4788.000000	64.436507 
4787.000000	64.421963 
4786.000000	64.431762 
4785.000000	64.465403 
4784.000000	64.519071 
4783.000000	64.586758 
4782.000000	64.661788 
4781.000000	64.737272 
4780.000000	64.808392 
4779.000000	64.871835 
4778.000000	64.927005 
4777.000000	64.974689 
4776.000000	65.017127 
4775.000000	65.057158 
4774.000000	65.097284 
4773.000000	65.139555 
4772.000000	65.183687 
4771.000000	65.227484 
4770.000000	65.266442 
4769.000000	65.295410 
4768.000000	65.309333 
4767.000000	65.304803 
4766.000000	65.280914 
4765.000000	65.239858 
4764.000000	65.186691 
4763.000000	65.127921 
4762.000000	65.070152 
4761.000000	65.018153 
4760.000000	64.974188 
4759.000000	64.937305 
4758.000000	64.903950 
4757.000000	64.869236 
4756.000000	64.828681 
4755.000000	64.779829 
4754.000000	64.722442 
4753.000000	64.659810 
4752.000000	64.597415 
4751.000000	64.542770 
4750.000000	64.501905 
4749.000000	64.480447 
4748.000000	64.481902 
4747.000000	64.507746 
4746.000000	64.556479 
4745.000000	64.624643 
4744.000000	64.707255 
4743.000000	64.797925 
4742.000000	64.889383 
4741.000000	64.974474 
4740.000000	65.046834 
4739.000000	65.101504 
4738.000000	65.135240 
4737.000000	65.146780 
4736.000000	65.136694 
4735.000000	65.107369 
4734.000000	65.061974 
4733.000000	65.004611 
4732.000000	64.938712 
4731.000000	64.868235 
4730.000000	64.796066 
4729.000000	64.724183 
4728.000000	64.653420 
4727.000000	64.584732 
4726.000000	64.518880 
4725.000000	64.456486 
4724.000000	64.398598 
4723.000000	64.346456 
4722.000000	64.301729 
4721.000000	64.265179 
4720.000000	64.237427 
4719.000000	64.218211 
4718.000000	64.206695 
4717.000000	64.201354 
4716.000000	64.200425 
4715.000000	64.202189 
4714.000000	64.205121 
4713.000000	64.207935 
4712.000000	64.209771 
4711.000000	64.209985 
4710.000000	64.208006 
4709.000000	64.203572 
4708.000000	64.196491 
4707.000000	64.187264 
4706.000000	64.177274 
4705.000000	64.168763 
4704.000000	64.164590 
4703.000000	64.167761 
4702.000000	64.180636 
4701.000000	64.204764 
4700.000000	64.240002 
4699.000000	64.284968 
4698.000000	64.337205 
4697.000000	64.393806 
4696.000000	64.451956 
4695.000000	64.508962 
4694.000000	64.562463 
4693.000000	64.610481 
4692.000000	64.651393 
4691.000000	64.684176 
4690.000000	64.708352 
4689.000000	64.724874 
4688.000000	64.736151 
4687.000000	64.746356 
4686.000000	64.760398 
4685.000000	64.783501 
4684.000000	64.819741 
4683.000000	64.870548 
4682.000000	64.933609 
4681.000000	65.003490 
4680.000000	65.071725 
4679.000000	65.128588 
4678.000000	65.164470 
4677.000000	65.173101 
4676.000000	65.151691 
4675.000000	65.101575 
4674.000000	65.027379 
4673.000000	64.936447 
4672.000000	64.836573 
4671.000000	64.735174 
4670.000000	64.637947 
4669.000000	64.548897 
4668.000000	64.470648 
4667.000000	64.405035 
4666.000000	64.353585 
4665.000000	64.317440 
4664.000000	64.297962 
4663.000000	64.296007 
4662.000000	64.311337 
4661.000000	64.341497 
4660.000000	64.382624 
4659.000000	64.429807 
4658.000000	64.477896 
4657.000000	64.522838 
4656.000000	64.563226 
4655.000000	64.600682 
4654.000000	64.639258 
4653.000000	64.684462 
4652.000000	64.741349 
4651.000000	64.813017 
4650.000000	64.898943 
4649.000000	64.995026 
4648.000000	65.094637 
4647.000000	65.189647 
4646.000000	65.272641 
4645.000000	65.337753 
4644.000000	65.382504 
4643.000000	65.406847 
4642.000000	65.413713 
4641.000000	65.406560 
4640.000000	65.388274 
4639.000000	65.360951 
4638.000000	65.326285 
4637.000000	65.285491 
4636.000000	65.240335 
4635.000000	65.193629 
4634.000000	65.150070 
4633.000000	65.114092 
4632.000000	65.089416 
4631.000000	65.077519 
4630.000000	65.077424 
4629.000000	65.085744 
4628.000000	65.097761 
4627.000000	65.108466 
4626.000000	65.113544 
4625.000000	65.110278 
4624.000000	65.097546 
4623.000000	65.075135 
4622.000000	65.043473 
4621.000000	65.003228 
4620.000000	64.955401 
4619.000000	64.900922 
4618.000000	64.841842 
4617.000000	64.781522 
4616.000000	64.724731 
4615.000000	64.676785 
4614.000000	64.643144 
4613.000000	64.627933 
4612.000000	64.633131 
4611.000000	64.657425 
4610.000000	64.697504 
4609.000000	64.748430 
4608.000000	64.805173 
4607.000000	64.863538 
4606.000000	64.920592 
4605.000000	64.974474 
4604.000000	65.024113 
4603.000000	65.068554 
4602.000000	65.106749 
4601.000000	65.137314 
4600.000000	65.159058 
4599.000000	65.171170 
4598.000000	65.173745 
4597.000000	65.167737 
4596.000000	65.155625 
4595.000000	65.140485 
4594.000000	65.125918 
4593.000000	65.114974 
4592.000000	65.109920 
4591.000000	65.111541 
4590.000000	65.118861 
4589.000000	65.129613 
4588.000000	65.141201 
4587.000000	65.151262 
4586.000000	65.158057 
4585.000000	65.161395 
4584.000000	65.162467 
4583.000000	65.163683 
4582.000000	65.167832 
4581.000000	65.177273 
4580.000000	65.193176 
4579.000000	65.214896 
4578.000000	65.239810 
4577.000000	65.263843 
4576.000000	65.282392 
4575.000000	65.291786 
4574.000000	65.290188 
4573.000000	65.278172 
4572.000000	65.258455 
4571.000000	65.235209 
4570.000000	65.213012 
4569.000000	65.195274 
4568.000000	65.184283 
4567.000000	65.180897 
4566.000000	65.185022 
4565.000000	65.196323 
4564.000000	65.214228 
4563.000000	65.238189 
4562.000000	65.267562 
4561.000000	65.301394 
4560.000000	65.338158 
4559.000000	65.375375 
4558.000000	65.409994 
4557.000000	65.438485 
4556.000000	65.457701 
4555.000000	65.465712 
4554.000000	65.462207 
4553.000000	65.448760 
4552.000000	65.429019 
4551.000000	65.408158 
4550.000000	65.391683 
4549.000000	65.384364 
4548.000000	65.389323 
4547.000000	65.407013 
4546.000000	65.435123 
4545.000000	65.469002 
4544.000000	65.502285 
4543.000000	65.528869 
4542.000000	65.543699 
4541.000000	65.545034 
4540.000000	65.534925 
4539.000000	65.519142 
4538.000000	65.505909 
4537.000000	65.503454 
4536.000000	65.518045 
4535.000000	65.551590 
4534.000000	65.601587 
4533.000000	65.660762 
4532.000000	65.719127 
4531.000000	65.766024 
4530.000000	65.793347 
4529.000000	65.796279 
4528.000000	65.774393 
4527.000000	65.731143 
4526.000000	65.672731 
4525.000000	65.606713 
4524.000000	65.540337 
4523.000000	65.479850 
4522.000000	65.429663 
4521.000000	65.392398 
4520.000000	65.368938 
4519.000000	65.359091 
4518.000000	65.361690 
4517.000000	65.374374 
4516.000000	65.393757 
4515.000000	65.414881 
4514.000000	65.432596 
4513.000000	65.441489 
4512.000000	65.438365 
4511.000000	65.421676 
4510.000000	65.394139 
4509.000000	65.362024 
4508.000000	65.334796 
4507.000000	65.322875 
4506.000000	65.335297 
4505.000000	65.377759 
4504.000000	65.450263 
4503.000000	65.546631 
4502.000000	65.655589 
4501.000000	65.763354 
4500.000000	65.856099 
4499.000000	65.923023 
4498.000000	65.958738 
4497.000000	65.964174 
4496.000000	65.945744 
4495.000000	65.913462 
4494.000000	65.878391 
4493.000000	65.849709 
4492.000000	65.833544 
4491.000000	65.831089 
4490.000000	65.838909 
4489.000000	65.850043 
4488.000000	65.857362 
4487.000000	65.854954 
4486.000000	65.839767 
4485.000000	65.812230 
4484.000000	65.776109 
4483.000000	65.736556 
4482.000000	65.698242 
4481.000000	65.663480 
4480.000000	65.631699 
4479.000000	65.599632 
4478.000000	65.562701 
4477.000000	65.516710 
4476.000000	65.460610 
4475.000000	65.395522 
4474.000000	65.323758 
4473.000000	65.251231 
4472.000000	65.186548 
4471.000000	65.135192 
4470.000000	65.098619 
4469.000000	65.070796 
4468.000000	65.040445 
4467.000000	65.004062 
4466.000000	64.967155 
4465.000000	64.935374 
4464.000000	64.915728 
4463.000000	64.919877 
4462.000000	64.959812 
4461.000000	65.034031 
4460.000000	65.135169 
4459.000000	65.260815 
4458.000000	65.406537 
4457.000000	65.569376 
4456.000000	65.740704 
4455.000000	65.902256 
4454.000000	66.032385 
4453.000000	66.103053 
4452.000000	66.101789 
4451.000000	66.026854 
4450.000000	65.913724 
4449.000000	65.831470 
4448.000000	65.869331 
4447.000000	66.114783 
4446.000000	66.621541 
4445.000000	67.391037 
4444.000000	68.335556 
4443.000000	69.285130 
4442.000000	70.013427 
4441.000000	70.282959 
4440.000000	69.894051 
4439.000000	68.730521 
4438.000000	66.799306 
4437.000000	64.227271 
4436.000000	61.233735 
4435.000000	58.088302 
4434.000000	55.053949 
4433.000000	52.353286 
4432.000000	50.130271 
4431.000000	48.463225 
4430.000000	47.360467 
4429.000000	46.807289 
4428.000000	46.775102 
4427.000000	47.249794 
4426.000000	48.204278 
4425.000000	49.611210 
4424.000000	51.393961 
4423.000000	53.447246 
4422.000000	55.602502 
4421.000000	57.691192 
4420.000000	59.555387 
4419.000000	61.095356 
4418.000000	62.281680 
4417.000000	63.149905 
4416.000000	63.780260 
4415.000000	64.266300 
4414.000000	64.684510 
4413.000000	65.078926 
4412.000000	65.450000 
4411.000000	65.778803 
4410.000000	66.030383 
4409.000000	66.178321 
4408.000000	66.207695 
4407.000000	66.132283 
4406.000000	65.983653 
4405.000000	65.797352 
4404.000000	65.608811 
4403.000000	65.451669 
4402.000000	65.348219 
4401.000000	65.302133 
4400.000000	65.307140 
4399.000000	65.360760 
4398.000000	65.455937 
4397.000000	65.584325 
4396.000000	65.733718 
4395.000000	65.883922 
4394.000000	66.016983 
4393.000000	66.120123 
4392.000000	66.185927 
4391.000000	66.211342 
4390.000000	66.203022 
4389.000000	66.175818 
4388.000000	66.139006 
4387.000000	66.093850 
4386.000000	66.041374 
4385.000000	65.981912 
4384.000000	65.915012 
4383.000000	65.841031 
4382.000000	65.763854 
4381.000000	65.689778 
4380.000000	65.623998 
4379.000000	65.571355 
4378.000000	65.535712 
4377.000000	65.519380 
4376.000000	65.521740 
4375.000000	65.540552 
4374.000000	65.572094 
4373.000000	65.612435 
4372.000000	65.657758 
4371.000000	65.704703 
4370.000000	65.749835 
4369.000000	65.790748 
4368.000000	65.825510 
4367.000000	65.853643 
4366.000000	65.875792 
4365.000000	65.894103 
4364.000000	65.911459 
4363.000000	65.930700 
4362.000000	65.953803 
4361.000000	65.980339 
4360.000000	66.007137 
4359.000000	66.028833 
4358.000000	66.038608 
4357.000000	66.030335 
4356.000000	65.999650 
4355.000000	65.945482 
4354.000000	65.869879 
4353.000000	65.778422 
4352.000000	65.678596 
4351.000000	65.578269 
4350.000000	65.484333 
4349.000000	65.401434 
4348.000000	65.332174 
4347.000000	65.277194 
4346.000000	65.236473 
4345.000000	65.209341 
4344.000000	65.196371 
4343.000000	65.198969 
4342.000000	65.219378 
4341.000000	65.258574 
4340.000000	65.316295 
4339.000000	65.389943 
4338.000000	65.474605 
4337.000000	65.562891 
4336.000000	65.646791 
4335.000000	65.718889 
4334.000000	65.773677 
4333.000000	65.808153 
4332.000000	65.822005 
4331.000000	65.817093 
4330.000000	65.797162 
4329.000000	65.766668 
4328.000000	65.730452 
4327.000000	65.692210 
4326.000000	65.655875 
4325.000000	65.623521 
4324.000000	65.596175 
4323.000000	65.572309 
4322.000000	65.549850 
4321.000000	65.524935 
4320.000000	65.492868 
4319.000000	65.449404 
4318.000000	65.392041 
4317.000000	65.320873 
4316.000000	65.238833 
4315.000000	65.151619 
4314.000000	65.066671 
4313.000000	64.991474 
4312.000000	64.932036 
4311.000000	64.891624 
4310.000000	64.870262 
4309.000000	64.865899 
4308.000000	64.875364 
4307.000000	64.895582 
4306.000000	64.924383 
4305.000000	64.961051 
4304.000000	65.006113 
4303.000000	65.059399 
4302.000000	65.120053 
4301.000000	65.185761 
4300.000000	65.253186 
4299.000000	65.318346 
4298.000000	65.377593 
4297.000000	65.428972 
4296.000000	65.471935 
4295.000000	65.508365 
4294.000000	65.540480 
4293.000000	65.570187 
4292.000000	65.597486 
4291.000000	65.620732 
4290.000000	65.636229 
4289.000000	65.640282 
4288.000000	65.629792 
4287.000000	65.604496 
4286.000000	65.566754 
4285.000000	65.521478 
4284.000000	65.475082 
4283.000000	65.434288 
4282.000000	65.404248 
4281.000000	65.387415 
4280.000000	65.383481 
4279.000000	65.389418 
4278.000000	65.400099 
4277.000000	65.409612 
4276.000000	65.412378 
4275.000000	65.404701 
4274.000000	65.385055 
4273.000000	65.354728 
4272.000000	65.317010 
4271.000000	65.276741 
4270.000000	65.239286 
4269.000000	65.209102 
4268.000000	65.189075 
4267.000000	65.179204 
4266.000000	65.177345 
4265.000000	65.178894 
4264.000000	65.177893 
4263.000000	65.168571 
4262.000000	65.147089 
4261.000000	65.112495 
4260.000000	65.066671 
4259.000000	65.014767 
4258.000000	64.963865 
4257.000000	64.921259 
4256.000000	64.892697 
4255.000000	64.881420 
4254.000000	64.887523 
4253.000000	64.908385 
4252.000000	64.939618 
4251.000000	64.976263 
4250.000000	65.014362 
4249.000000	65.051603 
4248.000000	65.087723 
4247.000000	65.123796 
4246.000000	65.161466 
4245.000000	65.201783 
4244.000000	65.244269 
4243.000000	65.286850 
4242.000000	65.325760 
4241.000000	65.357112 
4240.000000	65.376830 
4239.000000	65.382432 
4238.000000	65.372467 
4237.000000	65.347933 
4236.000000	65.310406 
4235.000000	65.261983 
4234.000000	65.204572 
4233.000000	65.140032 
4232.000000	65.070176 
4231.000000	64.997506 
4230.000000	64.925432 
4229.000000	64.858675 
4228.000000	64.802289 
4227.000000	64.760947 
4226.000000	64.737772 
4225.000000	64.733695 
4224.000000	64.746737 
4223.000000	64.772748 
4222.000000	64.805722 
4221.000000	64.839649 
4220.000000	64.869546 
4219.000000	64.892530 
4218.000000	64.907622 
4217.000000	64.915823 
4216.000000	64.918947 
4215.000000	64.918994 
4214.000000	64.916849 
4213.000000	64.912748 
4212.000000	64.906358 
4211.000000	64.897465 
4210.000000	64.886379 
4209.000000	64.874196 
4208.000000	64.863133 
4207.000000	64.855837 
4206.000000	64.854788 
4205.000000	64.861726 
4204.000000	64.877009 
4203.000000	64.899778 
4202.000000	64.928221 
4201.000000	64.959502 
4200.000000	64.990329 
4199.000000	65.017580 
4198.000000	65.038895 
4197.000000	65.052747 
4196.000000	65.058875 
4195.000000	65.058469 
4194.000000	65.053915 
4193.000000	65.048885 
4192.000000	65.046977 
4191.000000	65.051722 
4190.000000	65.064454 
4189.000000	65.084767 
4188.000000	65.108895 
4187.000000	65.130782 
4186.000000	65.142989 
4185.000000	65.138649 
4184.000000	65.113306 
4183.000000	65.066289 
4182.000000	65.001678 
4181.000000	64.927744 
4180.000000	64.855408 
4179.000000	64.795875 
4178.000000	64.757966 
4177.000000	64.746069 
4176.000000	64.759135 
4175.000000	64.791154 
4174.000000	64.832949 
4173.000000	64.874529 
4172.000000	64.907598 
4171.000000	64.927315 
4170.000000	64.932990 
4169.000000	64.927816 
4168.000000	64.916872 
4167.000000	64.905500 
4166.000000	64.897894 
4165.000000	64.895796 
4164.000000	64.898610 
4163.000000	64.903092 
4162.000000	64.905309 
4161.000000	64.900994 
4160.000000	64.887452 
4159.000000	64.863419 
4158.000000	64.829373 
4157.000000	64.787578 
4156.000000	64.741444 
4155.000000	64.695358 
4154.000000	64.653563 
4153.000000	64.620351 
4152.000000	64.599657 
4151.000000	64.594078 
4150.000000	64.604520 
4149.000000	64.629769 
4148.000000	64.666843 
4147.000000	64.710879 
4146.000000	64.755988 
4145.000000	64.796042 
4144.000000	64.825797 
4143.000000	64.841437 
4142.000000	64.840960 
4141.000000	64.824390 
4140.000000	64.793443 
4139.000000	64.751410 
4138.000000	64.702534 
4137.000000	64.651155 
4136.000000	64.601588 
4135.000000	64.557456 
4134.000000	64.522099 
4133.000000	64.497971 
4132.000000	64.487314 
4131.000000	64.491605 
4130.000000	64.511895 
4129.000000	64.548230 
4128.000000	64.599895 
4127.000000	64.664936 
4126.000000	64.740014 
4125.000000	64.820361 
4124.000000	64.899802 
4123.000000	64.971089 
4122.000000	65.027284 
4121.000000	65.062761 
4120.000000	65.074753 
4119.000000	65.064096 
4118.000000	65.035605 
4117.000000	64.996838 
4116.000000	64.956474 
4115.000000	64.922070 
4114.000000	64.898300 
4113.000000	64.886069 
4112.000000	64.882707 
4111.000000	64.883065 
4110.000000	64.881467 
4109.000000	64.873528 
4108.000000	64.857411 
4107.000000	64.834284 
4106.000000	64.807987 
4105.000000	64.783883 
4104.000000	64.766836 
4103.000000	64.760231 
4102.000000	64.764904 
4101.000000	64.778900 
4100.000000	64.797878 
4099.000000	64.816594 
4098.000000	64.830136 
4097.000000	64.835143 
4096.000000	64.830470 
4095.000000	64.817142 
4094.000000	64.797663 
4093.000000	64.775300 
4092.000000	64.753246 
4091.000000	64.733934 
4090.000000	64.718484 
4089.000000	64.707231 
4088.000000	64.699935 
4087.000000	64.696049 
4086.000000	64.695191 
4085.000000	64.697098 
4084.000000	64.701795 
4083.000000	64.708852 
4082.000000	64.717984 
4081.000000	64.728116 
4080.000000	64.738416 
4079.000000	64.747905 
4078.000000	64.756560 
4077.000000	64.765119 
4076.000000	64.775109 
4075.000000	64.788579 
4074.000000	64.807248 
4073.000000	64.831781 
4072.000000	64.861440 
4071.000000	64.894223 
4070.000000	64.927411 
4069.000000	64.958024 
4068.000000	64.983844 
4067.000000	65.004062 
4066.000000	65.019130 
4065.000000	65.030550 
4064.000000	65.040111 
4063.000000	65.048766 
4062.000000	65.055918 
4061.000000	65.059447 
4060.000000	65.056252 
4059.000000	65.043115 
4058.000000	65.018224 
4057.000000	64.981460 
4056.000000	64.935493 
4055.000000	64.884781 
4054.000000	64.834785 
4053.000000	64.790630 
4052.000000	64.755845 
4051.000000	64.732193 
4050.000000	64.719510 
4049.000000	64.716553 
4048.000000	64.721727 
4047.000000	64.733862 
4046.000000	64.752554 
4045.000000	64.777731 
4044.000000	64.809060 
4043.000000	64.845395 
4042.000000	64.884281 
4041.000000	64.922022 
4040.000000	64.953947 
4039.000000	64.976143 
4038.000000	64.986491 
4037.000000	64.985275 
4036.000000	64.975357 
4035.000000	64.961314 
4034.000000	64.948368 
4033.000000	64.940881 
4032.000000	64.941167 
4031.000000	64.949059 
4030.000000	64.962220 
4029.000000	64.977145 
4028.000000	64.990115 
4027.000000	64.998388 
4026.000000	65.001058 
4025.000000	64.999008 
4024.000000	64.994978 
4023.000000	64.992070 
4022.000000	64.993190 
4021.000000	65.000438 
4020.000000	65.014028 
4019.000000	65.032196 
4018.000000	65.051436 
4017.000000	65.067601 
4016.000000	65.076136 
4015.000000	65.073418 
4014.000000	65.057301 
4013.000000	65.027809 
4012.000000	64.987444 
4011.000000	64.941096 
4010.000000	64.895129 
4009.000000	64.856171 
4008.000000	64.829897 
4007.000000	64.819598 
4006.000000	64.825654 
4005.000000	64.845180 
4004.000000	64.873123 
4003.000000	64.903283 
4002.000000	64.929795 
4001.000000	64.948582 
4000.000000	64.958167 
3999.000000	64.960217 
3998.000000	64.958214 
3997.000000	64.956927 
3996.000000	64.960908 
3995.000000	64.973449 
3994.000000	64.995765 
3993.000000	65.026950 
3992.000000	65.064549 
3991.000000	65.105080 
3990.000000	65.145349 
3989.000000	65.182590 
3988.000000	65.215134 
3987.000000	65.242052 
3986.000000	65.263080 
3985.000000	65.278387 
3984.000000	65.288352 
3983.000000	65.293669 
3982.000000	65.295076 
3981.000000	65.293502 
3980.000000	65.289878 
3979.000000	65.285348 
3978.000000	65.280508 
3977.000000	65.275382 
3976.000000	65.269112 
3975.000000	65.260362 
3974.000000	65.247893 
3973.000000	65.230655 
3972.000000	65.208935 
3971.000000	65.184330 
3970.000000	65.159749 
3969.000000	65.139007 
3968.000000	65.125679 
3967.000000	65.122437 
3966.000000	65.129947 
3965.000000	65.146517 
3964.000000	65.168356 
3963.000000	65.190172 
3962.000000	65.206623 
3961.000000	65.213465 
3960.000000	65.208292 
3959.000000	65.190911 
3958.000000	65.163111 
3957.000000	65.128374 
3956.000000	65.090703 
3955.000000	65.053772 
3954.000000	65.020585 
3953.000000	64.993453 
3952.000000	64.973878 
3951.000000	64.962863 
3950.000000	64.960718 
3949.000000	64.967250 
3948.000000	64.981532 
3947.000000	65.002489 
3946.000000	65.028405 
3945.000000	65.057706 
3944.000000	65.088772 
3943.000000	65.120291 
3942.000000	65.151548 
3941.000000	65.182018 
3940.000000	65.211534 
3939.000000	65.239119 
3938.000000	65.263295 
3937.000000	65.281414 
3936.000000	65.290522 
3935.000000	65.287446 
3934.000000	65.270185 
3933.000000	65.238356 
3932.000000	65.193963 
3931.000000	65.141224 
3930.000000	65.086245 
3929.000000	65.035939 
3928.000000	64.996910 
3927.000000	64.974641 
3926.000000	64.972376 
3925.000000	64.990878 
3924.000000	65.027999 
3923.000000	65.078949 
3922.000000	65.136957 
3921.000000	65.194487 
3920.000000	65.244221 
3919.000000	65.279769 
3918.000000	65.297412 
3917.000000	65.296030 
3916.000000	65.277814 
3915.000000	65.247344 
3914.000000	65.210819 
3913.000000	65.174984 
3912.000000	65.145230 
3911.000000	65.125226 
3910.000000	65.115690 
3909.000000	65.114736 
3908.000000	65.118837 
3907.000000	65.124320 
3906.000000	65.127873 
3905.000000	65.127396 
3904.000000	65.122318 
3903.000000	65.113520 
3902.000000	65.102314 
3901.000000	65.089774 
3900.000000	65.076255 
3899.000000	65.061783 
3898.000000	65.046334 
3897.000000	65.030741 
3896.000000	65.016841 
3895.000000	65.007877 
3894.000000	65.008258 
3893.000000	65.022230 
3892.000000	65.052485 
3891.000000	65.098905 
3890.000000	65.158128 
3889.000000	65.223884 
3888.000000	65.288543 
3887.000000	65.343713 
3886.000000	65.382981 
3885.000000	65.401482 
3884.000000	65.397357 
3883.000000	65.370774 
3882.000000	65.324020 
3881.000000	65.259981 
3880.000000	65.182089 
3879.000000	65.093779 
3878.000000	64.998865 
3877.000000	64.901423 
3876.000000	64.806222 
3875.000000	64.718461 
3874.000000	64.643716 
3873.000000	64.587163 
3872.000000	64.553499 
3871.000000	64.545440 
3870.000000	64.564037 
3869.000000	64.608311 
3868.000000	64.675426 
3867.000000	64.760828 
3866.000000	64.858365 
3865.000000	64.960503 
3864.000000	65.058994 
3863.000000	65.145349 
3862.000000	65.212297 
3861.000000	65.254473 
3860.000000	65.269589 
3859.000000	65.259146 
3858.000000	65.227842 
3857.000000	65.183424 
3856.000000	65.134191 
3855.000000	65.088224 
3854.000000	65.050792 
3853.000000	65.024304 
3852.000000	65.007615 
3851.000000	64.997434 
3850.000000	64.989066 
3849.000000	64.978146 
3848.000000	64.962434 
3847.000000	64.942264 
3846.000000	64.920115 
3845.000000	64.899826 
3844.000000	64.885282 
3843.000000	64.879441 
3842.000000	64.883446 
3841.000000	64.896607 
3840.000000	64.916825 
3839.000000	64.941310 
3838.000000	64.967632 
3837.000000	64.993953 
3836.000000	65.019035 
3835.000000	65.041971 
3834.000000	65.062022 
3833.000000	65.077686 
3832.000000	65.086627 
3831.000000	65.086221 
3830.000000	65.074515 
3829.000000	65.051102 
3828.000000	65.017604 
3827.000000	64.978122 
3826.000000	64.939117 
3825.000000	64.907884 
3824.000000	64.891123 
3823.000000	64.893031 
3822.000000	64.914083 
3821.000000	64.950847 
3820.000000	64.996480 
3819.000000	65.041947 
3818.000000	65.078067 
3817.000000	65.097689 
3816.000000	65.097165 
3815.000000	65.076684 
3814.000000	65.040183 
3813.000000	64.994239 
3812.000000	64.946556 
3811.000000	64.904236 
3810.000000	64.872288 
3809.000000	64.853429 
3808.000000	64.847278 
3807.000000	64.851999 
3806.000000	64.863753 
3805.000000	64.878439 
3804.000000	64.891791 
3803.000000	64.900207 
3802.000000	64.901065 
3801.000000	64.892196 
3800.000000	64.873194 
3799.000000	64.845013 
3798.000000	64.810371 
3797.000000	64.773321 
3796.000000	64.738965 
3795.000000	64.712643 
3794.000000	64.699172 
3793.000000	64.702057 
3792.000000	64.722895 
3791.000000	64.761090 
3790.000000	64.814162 
3789.000000	64.878010 
3788.000000	64.947366 
3787.000000	65.016579 
3786.000000	65.080213 
3785.000000	65.133905 
3784.000000	65.174365 
3783.000000	65.199589 
3782.000000	65.209388 
3781.000000	65.204429 
3780.000000	65.186190 
3779.000000	65.156340 
3778.000000	65.117454 
3777.000000	65.071892 
3776.000000	65.022301 
3775.000000	64.971065 
3774.000000	64.920926 
3773.000000	64.874315 
3772.000000	64.833545 
3771.000000	64.800214 
3770.000000	64.775252 
3769.000000	64.758777 
3768.000000	64.750218 
3767.000000	64.748430 
3766.000000	64.752197 
3765.000000	64.760613 
3764.000000	64.773416 
3763.000000	64.790964 
3762.000000	64.813971 
3761.000000	64.843273 
3760.000000	64.879155 
3759.000000	64.920735 
3758.000000	64.965867 
3757.000000	65.011405 
3756.000000	65.053534 
3755.000000	65.088462 
3754.000000	65.113401 
3753.000000	65.127253 
3752.000000	65.130949 
3751.000000	65.127229 
3750.000000	65.119957 
3749.000000	65.113186 
3748.000000	65.110063 
3747.000000	65.112566 
3746.000000	65.120339 
3745.000000	65.131211 
3744.000000	65.141654 
3743.000000	65.148258 
3742.000000	65.148091 
3741.000000	65.139532 
3740.000000	65.122675 
3739.000000	65.099453 
3738.000000	65.073084 
3737.000000	65.047049 
3736.000000	65.024495 
3735.000000	65.007543 
3734.000000	64.996910 
3733.000000	64.991831 
3732.000000	64.990353 
3731.000000	64.990162 
3730.000000	64.989471 
3729.000000	64.987421 
3728.000000	64.983963 
3727.000000	64.980006 
3726.000000	64.977025 
3725.000000	64.976620 
3724.000000	64.979457 
3723.000000	64.985823 
3722.000000	64.995384 
3721.000000	65.007543 
3720.000000	65.021824 
3719.000000	65.037965 
3718.000000	65.056204 
3717.000000	65.076971 
3716.000000	65.100622 
3715.000000	65.126967 
3714.000000	65.154981 
3713.000000	65.182709 
3712.000000	65.207481 
3711.000000	65.226554 
3710.000000	65.237569 
3709.000000	65.239310 
3708.000000	65.231704 
3707.000000	65.216064 
3706.000000	65.194678 
3705.000000	65.170359 
3704.000000	65.145802 
3703.000000	65.123319 
3702.000000	65.104317 
3701.000000	65.089368 
3700.000000	65.078186 
3699.000000	65.070033 
3698.000000	65.064096 
3697.000000	65.059542 
3696.000000	65.056180 
3695.000000	65.054297 
3694.000000	65.054845 
3693.000000	65.059065 
3692.000000	65.068149 
3691.000000	65.082573 
3690.000000	65.102052 
3689.000000	65.125036 
3688.000000	65.149068 
3687.000000	65.170884 
3686.000000	65.187072 
3685.000000	65.194582 
3684.000000	65.191650 
3683.000000	65.177917 
3682.000000	65.154719 
3681.000000	65.124416 
3680.000000	65.089988 
3679.000000	65.054249 
3678.000000	65.019249 
3677.000000	64.986062 
3676.000000	64.955019 
3675.000000	64.926004 
3674.000000	64.898943 
3673.000000	64.874601 
3672.000000	64.854216 
3671.000000	64.840054 
3670.000000	64.834642 
3669.000000	64.840602 
3668.000000	64.859461 
3667.000000	64.891552 
3666.000000	64.935398 
3665.000000	64.987778 
3664.000000	65.044116 
3663.000000	65.099024 
3662.000000	65.147042 
3661.000000	65.183377 
3660.000000	65.204691 
3659.000000	65.209650 
3658.000000	65.199041 
3657.000000	65.176081 
3656.000000	65.145611 
3655.000000	65.113496 
3654.000000	65.085196 
3653.000000	65.064954 
3652.000000	65.054798 
3651.000000	65.054392 
3650.000000	65.061354 
3649.000000	65.072059 
3648.000000	65.083193 
3647.000000	65.092444 
3646.000000	65.099573 
3645.000000	65.105962 
3644.000000	65.114426 
3643.000000	65.127897 
3642.000000	65.148401 
3641.000000	65.175867 
3640.000000	65.207982 
3639.000000	65.240621 
3638.000000	65.268611 
3637.000000	65.287137 
3636.000000	65.293002 
3635.000000	65.285420 
3634.000000	65.265941 
3633.000000	65.238165 
3632.000000	65.206384 
3631.000000	65.174555 
3630.000000	65.145611 
3629.000000	65.120863 
3628.000000	65.100121 
3627.000000	65.081882 
3626.000000	65.064382 
3625.000000	65.046167 
3624.000000	65.026473 
3623.000000	65.005874 
3622.000000	64.985775 
3621.000000	64.968514 
3620.000000	64.956116 
3619.000000	64.950442 
3618.000000	64.952301 
3617.000000	64.961767 
3616.000000	64.977598 
3615.000000	64.998078 
3614.000000	65.021085 
3613.000000	65.044760 
3612.000000	65.067410 
3611.000000	65.088248 
3610.000000	65.107107 
3609.000000	65.124416 
3608.000000	65.140700 
3607.000000	65.156221 
3606.000000	65.170836 
3605.000000	65.183854 
3604.000000	65.194010 
3603.000000	65.200138 
3602.000000	65.201067 
3601.000000	65.196609 
3600.000000	65.187358 
3599.000000	65.174269 
3598.000000	65.158629 
3597.000000	65.141749 
3596.000000	65.124630 
3595.000000	65.107631 
3594.000000	65.090680 
3593.000000	65.073776 
3592.000000	65.057134 
3591.000000	65.041589 
3590.000000	65.028333 
3589.000000	65.018963 
3588.000000	65.014815 
3587.000000	65.016436 
3586.000000	65.023112 
3585.000000	65.032887 
3584.000000	65.042829 
3583.000000	65.049791 
3582.000000	65.051126 
3581.000000	65.045404 
3580.000000	65.032887 
3579.000000	65.015578 
3578.000000	64.996504 
3577.000000	64.979243 
3576.000000	64.966964 
3575.000000	64.961838 
3574.000000	64.964652 
3573.000000	64.974713 
3572.000000	64.990282 
3571.000000	65.009379 
3570.000000	65.030002 
3569.000000	65.050792 
3568.000000	65.070986 
3567.000000	65.090394 
3566.000000	65.109181 
3565.000000	65.127468 
3564.000000	65.145134 
3563.000000	65.161728 
3562.000000	65.176558 
3561.000000	65.188694 
3560.000000	65.197658 
3559.000000	65.203046 
3558.000000	65.205097 
3557.000000	65.204310 
3556.000000	65.201473 
3555.000000	65.197539 
3554.000000	65.193367 
3553.000000	65.189623 
3552.000000	65.186786 
3551.000000	65.185141 
3550.000000	65.184807 
3549.000000	65.185809 
3548.000000	65.188050 
3547.000000	65.191459 
3546.000000	65.196037 
3545.000000	65.201878 
3544.000000	65.209126 
3543.000000	65.217947 
3542.000000	65.228152 
3541.000000	65.239453 
3540.000000	65.250754 
3539.000000	65.260624 
3538.000000	65.266895 
3537.000000	65.267491 
3536.000000	65.260457 
3535.000000	65.244626 
3534.000000	65.220022 
3533.000000	65.188097 
3532.000000	65.151596 
3531.000000	65.114283 
3530.000000	65.080118 
3529.000000	65.052628 
3528.000000	65.034151 
3527.000000	65.025496 
3526.000000	65.025973 
3525.000000	65.033745 
3524.000000	65.046310 
3523.000000	65.061140 
3522.000000	65.076208 
3521.000000	65.090084 
3520.000000	65.102100 
3519.000000	65.112018 
3518.000000	65.119838 
3517.000000	65.125608 
3516.000000	65.129256 
3515.000000	65.130543 
3514.000000	65.129232 
3513.000000	65.125250 
3512.000000	65.119194 
3511.000000	65.111923 
3510.000000	65.104746 
3509.000000	65.099263 
3508.000000	65.096759 
3507.000000	65.098595 
3506.000000	65.105414 
3505.000000	65.117263 
3504.000000	65.133404 
3503.000000	65.152454 
3502.000000	65.172553 
3501.000000	65.191674 
3500.000000	65.207815 
3499.000000	65.219378 
3498.000000	65.225553 
3497.000000	65.226364 
3496.000000	65.222573 
3495.000000	65.215468 
3494.000000	65.206575 
3493.000000	65.197110 
3492.000000	65.187835 
3491.000000	65.179014 
3490.000000	65.170621 
3489.000000	65.162467 
3488.000000	65.154838 
3487.000000	65.148472 
3486.000000	65.144801 
3485.000000	65.145850 
3484.000000	65.153121 
3483.000000	65.167307 
3482.000000	65.187430 
3481.000000	65.211009 
3480.000000	65.233898 
3479.000000	65.251183 
3478.000000	65.258336 
3477.000000	65.252208 
3476.000000	65.231823 
3475.000000	65.198874 
3474.000000	65.157318 
3473.000000	65.112543 
3472.000000	65.070390 
3471.000000	65.035867 
3470.000000	65.012049 
3469.000000	64.999771 
3468.000000	64.997577 
3467.000000	65.002846 
3466.000000	65.012145 
3465.000000	65.022635 
3464.000000	65.032362 
3463.000000	65.040969 
3462.000000	65.049290 
3461.000000	65.059208 
3460.000000	65.072393 
3459.000000	65.090084 
3458.000000	65.112638 
3457.000000	65.138792 
3456.000000	65.166258 
3455.000000	65.191602 
3454.000000	65.211558 
3453.000000	65.222978 
3452.000000	65.223884 
3451.000000	65.213227 
3450.000000	65.191531 
3449.000000	65.160226 
3448.000000	65.121531 
3447.000000	65.077805 
3446.000000	65.031385 
3445.000000	64.984202 
3444.000000	64.938020 
3443.000000	64.894580 
3442.000000	64.855718 
3441.000000	64.823532 
3440.000000	64.800262 
3439.000000	64.788031 
3438.000000	64.788746 
3437.000000	64.803004 
3436.000000	64.830207 
3435.000000	64.867854 
3434.000000	64.912462 
3433.000000	64.959883 
3432.000000	65.006303 
3431.000000	65.048575 
3430.000000	65.084862 
3429.000000	65.114879 
3428.000000	65.139222 
3427.000000	65.159344 
3426.000000	65.176248 
3425.000000	65.190482 
3424.000000	65.201473 
3423.000000	65.207862 
3422.000000	65.208029 
3421.000000	65.200781 
3420.000000	65.186095 
3419.000000	65.165400 
3418.000000	65.141654 
3417.000000	65.118956 
3416.000000	65.102028 
3415.000000	65.094947 
3414.000000	65.100312 
3413.000000	65.118265 
3412.000000	65.146946 
3411.000000	65.182328 
3410.000000	65.218782 
3409.000000	65.250039 
3408.000000	65.270638 
3407.000000	65.276813 
3406.000000	65.267205 
3405.000000	65.242981 
3404.000000	65.207743 
3403.000000	65.166616 
3402.000000	65.125322 
3401.000000	65.088677 
3400.000000	65.060114 
3399.000000	65.040421 
3398.000000	65.028595 
3397.000000	65.021491 
3396.000000	65.015053 
3395.000000	65.005302 
3394.000000	64.989447 
3393.000000	64.966559 
3392.000000	64.937710 
3391.000000	64.905977 
3390.000000	64.875960 
3389.000000	64.852619 
3388.000000	64.840126 
3387.000000	64.841485 
3386.000000	64.857697 
3385.000000	64.887666 
3384.000000	64.928531 
3383.000000	64.976096 
3382.000000	65.025806 
3381.000000	65.073347 
3380.000000	65.115237 
3379.000000	65.149450 
3378.000000	65.175342 
3377.000000	65.193343 
3376.000000	65.204572 
3375.000000	65.210413 
3374.000000	65.211939 
3373.000000	65.210199 
3372.000000	65.205478 
3371.000000	65.197920 
3370.000000	65.187525 
3369.000000	65.174913 
3368.000000	65.160679 
3367.000000	65.145683 
3366.000000	65.130639 
3365.000000	65.115952 
3364.000000	65.101337 
3363.000000	65.085840 
3362.000000	65.068054 
3361.000000	65.046739 
3360.000000	65.021252 
3359.000000	64.991950 
3358.000000	64.960670 
3357.000000	64.930176 
3356.000000	64.903879 
3355.000000	64.884781 
3354.000000	64.874601 
3353.000000	64.873552 
3352.000000	64.880084 
3351.000000	64.891600 
3350.000000	64.904451 
3349.000000	64.915561 
3348.000000	64.923238 
3347.000000	64.927554 
3346.000000	64.929938 
3345.000000	64.932680 
3344.000000	64.938068 
3343.000000	64.947390 
3342.000000	64.960479 
3341.000000	64.975738 
3340.000000	64.990377 
3339.000000	65.001654 
3338.000000	65.007805 
3337.000000	65.008711 
3336.000000	65.005946 
3335.000000	65.002679 
3334.000000	65.002775 
3333.000000	65.009379 
3332.000000	65.024161 
3331.000000	65.046882 
3330.000000	65.075063 
3329.000000	65.104842 
3328.000000	65.131402 
3327.000000	65.150499 
3326.000000	65.158915 
3325.000000	65.155053 
3324.000000	65.139007 
3323.000000	65.112352 
3322.000000	65.077948 
3321.000000	65.039420 
3320.000000	65.000891 
3319.000000	64.966511 
3318.000000	64.940047 
3317.000000	64.924645 
3316.000000	64.922070 
3315.000000	64.932656 
3314.000000	64.955019 
3313.000000	64.986038 
3312.000000	65.021514 
3311.000000	65.056705 
3310.000000	65.087151 
3309.000000	65.109634 
3308.000000	65.122652 
3307.000000	65.126466 
3306.000000	65.123057 
3305.000000	65.115070 
3304.000000	65.105223 
3303.000000	65.095353 
3302.000000	65.086221 
3301.000000	65.077304 
3300.000000	65.067243 
3299.000000	65.054368 
3298.000000	65.037441 
3297.000000	65.016222 
3296.000000	64.991474 
3295.000000	64.965391 
3294.000000	64.940667 
3293.000000	64.920496 
3292.000000	64.907431 
3291.000000	64.903211 
3290.000000	64.908099 
3289.000000	64.921021 
3288.000000	64.939880 
3287.000000	64.962053 
3286.000000	64.984750 
3285.000000	65.005612 
3284.000000	65.023016 
3283.000000	65.036106 
3282.000000	65.044760 
3281.000000	65.049123 
3280.000000	65.049481 
3279.000000	65.046358 
3278.000000	65.040373 
3277.000000	65.032029 
3276.000000	65.021896 
3275.000000	65.010857 
3274.000000	64.999842 
3273.000000	64.990115 
3272.000000	64.982843 
3271.000000	64.979243 
3270.000000	64.980196 
3269.000000	64.986276 
3268.000000	64.997601 
3267.000000	65.013670 
3266.000000	65.033578 
3265.000000	65.055871 
3264.000000	65.078735 
3263.000000	65.100264 
3262.000000	65.118598 
3261.000000	65.132355 
3260.000000	65.140581 
3259.000000	65.142893 
3258.000000	65.139460 
3257.000000	65.131044 
3256.000000	65.118432 
3255.000000	65.102386 
3254.000000	65.083336 
3253.000000	65.061497 
3252.000000	65.036988 
3251.000000	65.010046 
3250.000000	64.981174 
3249.000000	64.951324 
3248.000000	64.921951 
3247.000000	64.894652 
3246.000000	64.870977 
3245.000000	64.852166 
3244.000000	64.838767 
3243.000000	64.830756 
3242.000000	64.827203 
3241.000000	64.826750 
3240.000000	64.827609 
3239.000000	64.828157 
3238.000000	64.826989 
3237.000000	64.823722 
3236.000000	64.818668 
3235.000000	64.813208 
3234.000000	64.809250 
3233.000000	64.809083 
3232.000000	64.814734 
3231.000000	64.827585 
3230.000000	64.847850 
3229.000000	64.874553 
3228.000000	64.905428 
3227.000000	64.937496 
3226.000000	64.967513 
3225.000000	64.992547 
3224.000000	65.010428 
3223.000000	65.020275 
3222.000000	65.022230 
3221.000000	65.017223 
3220.000000	65.006470 
3219.000000	64.991474 
3218.000000	64.973616 
3217.000000	64.953923 
3216.000000	64.933395 
3215.000000	64.913177 
3214.000000	64.894723 
3213.000000	64.879441 
3212.000000	64.868760 
3211.000000	64.863610 
3210.000000	64.864397 
3209.000000	64.870524 
3208.000000	64.880824 
3207.000000	64.893317 
3206.000000	64.906382 
3205.000000	64.918637 
3204.000000	64.929676 
3203.000000	64.939904 
3202.000000	64.950323 
3201.000000	64.961981 
3200.000000	64.975547 
3199.000000	64.990830 
3198.000000	65.007066 
3197.000000	65.023064 
3196.000000	65.037560 
3195.000000	65.049839 
3194.000000	65.060138 
3193.000000	65.069508 
3192.000000	65.079474 
3191.000000	65.091466 
3190.000000	65.106201 
3189.000000	65.122985 
3188.000000	65.139913 
3187.000000	65.154027 
3186.000000	65.162062 
3185.000000	65.161275 
3184.000000	65.150475 
3183.000000	65.130209 
3182.000000	65.103077 
3181.000000	65.072965 
3180.000000	65.044498 
3179.000000	65.021777 
3178.000000	65.007781 
3177.000000	65.003657 
3176.000000	65.008735 
3175.000000	65.020799 
3174.000000	65.036678 
3173.000000	65.053200 
3172.000000	65.067815 
3171.000000	65.079069 
3170.000000	65.086793 
3169.000000	65.091824 
3168.000000	65.095543 
3167.000000	65.099620 
3166.000000	65.105199 
3165.000000	65.112733 
3164.000000	65.121507 
3163.000000	65.130043 
3162.000000	65.136218 
3161.000000	65.137958 
3160.000000	65.133595 
3159.000000	65.122365 
3158.000000	65.104722 
3157.000000	65.082383 
3156.000000	65.057730 
3155.000000	65.033292 
3154.000000	65.011477 
3153.000000	64.993810 
3152.000000	64.981198 
3151.000000	64.973735 
3150.000000	64.971280 
3149.000000	64.973640 
3148.000000	64.980721 
3147.000000	64.992547 
3146.000000	65.008974 
3145.000000	65.029454 
3144.000000	65.052556 
3143.000000	65.075898 
3142.000000	65.096211 
3141.000000	65.109968 
3140.000000	65.114212 
3139.000000	65.107583 
3138.000000	65.090584 
3137.000000	65.065813 
3136.000000	65.037608 
3135.000000	65.011215 
3134.000000	64.991641 
3133.000000	64.982557 
3132.000000	64.985847 
3131.000000	65.000891 
3130.000000	65.025186 
3129.000000	65.054607 
3128.000000	65.084481 
3127.000000	65.110492 
3126.000000	65.129518 
3125.000000	65.140199 
3124.000000	65.142798 
3123.000000	65.139317 
3122.000000	65.132570 
3121.000000	65.125513 
3120.000000	65.120458 
3119.000000	65.118670 
3118.000000	65.119934 
3117.000000	65.122795 
3116.000000	65.124893 
3115.000000	65.123534 
3114.000000	65.116405 
3113.000000	65.102052 
3112.000000	65.080261 
3111.000000	65.052103 
3110.000000	65.019702 
3109.000000	64.985728 
3108.000000	64.953041 
3107.000000	64.924025 
3106.000000	64.900565 
3105.000000	64.883923 
3104.000000	64.874553 
3103.000000	64.872479 
3102.000000	64.877223 
3101.000000	64.887785 
3100.000000	64.902806 
3099.000000	64.920353 
3098.000000	64.938354 
3097.000000	64.954543 
3096.000000	64.966869 
3095.000000	64.973688 
3094.000000	64.974188 
3093.000000	64.968562 
3092.000000	64.958238 
3091.000000	64.945411 
3090.000000	64.932918 
3089.000000	64.923715 
3088.000000	64.920282 
3087.000000	64.924049 
3086.000000	64.935398 
3085.000000	64.953207 
3084.000000	64.975333 
3083.000000	64.998912 
3082.000000	65.020656 
3081.000000	65.037631 
3080.000000	65.047574 
3079.000000	65.049600 
3078.000000	65.043854 
3077.000000	65.031933 
3076.000000	65.016293 
3075.000000	64.999842 
3074.000000	64.985060 
3073.000000	64.973688 
3072.000000	64.966821 
3071.000000	64.964389 
3070.000000	64.965796 
3069.000000	64.970135 
3068.000000	64.976549 
3067.000000	64.984226 
3066.000000	64.992594 
3065.000000	65.001010 
3064.000000	65.008807 
3063.000000	65.014815 
3062.000000	65.017914 
3061.000000	65.016865 
3060.000000	65.010833 
3059.000000	64.999961 
3058.000000	64.985227 
3057.000000	64.968705 
3056.000000	64.952683 
3055.000000	64.939522 
3054.000000	64.930987 
3053.000000	64.927554 
3052.000000	64.928698 
3051.000000	64.932990 
3050.000000	64.938855 
3049.000000	64.944839 
3048.000000	64.950180 
3047.000000	64.954733 
3046.000000	64.959239 
3045.000000	64.964437 
3044.000000	64.971375 
3043.000000	64.980506 
3042.000000	64.992046 
3041.000000	65.005803 
3040.000000	65.021395 
3039.000000	65.038323 
3038.000000	65.056061 
3037.000000	65.074014 
3036.000000	65.091252 
3035.000000	65.106320 
3034.000000	65.117287 
3033.000000	65.121865 
3032.000000	65.118241 
3031.000000	65.105390 
3030.000000	65.083575 
3029.000000	65.054535 
3028.000000	65.021491 
3027.000000	64.988446 
3026.000000	64.959478 
3025.000000	64.938068 
3024.000000	64.926552 
3023.000000	64.925670 
3022.000000	64.934587 
3021.000000	64.951205 
3020.000000	64.972472 
3019.000000	64.995312 
3018.000000	65.016841 
3017.000000	65.034985 
3016.000000	65.048646 
3015.000000	65.057873 
3014.000000	65.063405 
3013.000000	65.066766 
3012.000000	65.069556 
3011.000000	65.073227 
3010.000000	65.078568 
3009.000000	65.085291 
3008.000000	65.092062 
3007.000000	65.096688 
3006.000000	65.096569 
3005.000000	65.089583 
3004.000000	65.074682 
3003.000000	65.052199 
3002.000000	65.023756 
3001.000000	64.992165 
3000.000000	64.960408 
2999.000000	64.931297 
2998.000000	64.906811 
2997.000000	64.887833 
2996.000000	64.874458 
2995.000000	64.866113 
2994.000000	64.862227 
2993.000000	64.862322 
2992.000000	64.866280 
2991.000000	64.874053 
2990.000000	64.885520 
2989.000000	64.899897 
2988.000000	64.915776 
2987.000000	64.931058 
2986.000000	64.943575 
2985.000000	64.951491 
2984.000000	64.953804 
2983.000000	64.950776 
2982.000000	64.943289 
2981.000000	64.932656 
2980.000000	64.920043 
2979.000000	64.906215 
2978.000000	64.891386 
2977.000000	64.875364 
2976.000000	64.857912 
2975.000000	64.839339 
2974.000000	64.820671 
2973.000000	64.803481 
2972.000000	64.789724 
2971.000000	64.781093 
2970.000000	64.778351 
2969.000000	64.781403 
2968.000000	64.788579 
2967.000000	64.797711 
2966.000000	64.806222 
2965.000000	64.812445 
2964.000000	64.815759 
2963.000000	64.817118 
2962.000000	64.818429 
2961.000000	64.822340 
2960.000000	64.831185 
2959.000000	64.846611 
2958.000000	64.869141 
2957.000000	64.897966 
2956.000000	64.931130 
2955.000000	64.965963 
2954.000000	64.999508 
2953.000000	65.029048 
2952.000000	65.052247 
2951.000000	65.067529 
2950.000000	65.073823 
2949.000000	65.070986 
2948.000000	65.059137 
2947.000000	65.038776 
2946.000000	65.010452 
2945.000000	64.975309 
2944.000000	64.935064 
2943.000000	64.891600 
2942.000000	64.847636 
2941.000000	64.806127 
2940.000000	64.770722 
2939.000000	64.744925 
2938.000000	64.731884 
2937.000000	64.733433 
2936.000000	64.749908 
2935.000000	64.779543 
2934.000000	64.818501 
2933.000000	64.861321 
2932.000000	64.901757 
2931.000000	64.934134 
2930.000000	64.954042 
2929.000000	64.959406 
2928.000000	64.950871 
2927.000000	64.931869 
2926.000000	64.907431 
2925.000000	64.883470 
2924.000000	64.865708 
2923.000000	64.858651 
2922.000000	64.864778 
2921.000000	64.884209 
2920.000000	64.915275 
2919.000000	64.954590 
2918.000000	64.998173 
2917.000000	65.041637 
2916.000000	65.080761 
2915.000000	65.111899 
2914.000000	65.132379 
2913.000000	65.140652 
2912.000000	65.136337 
2911.000000	65.120267 
2910.000000	65.094661 
2909.000000	65.062570 
2908.000000	65.027451 
2907.000000	64.992713 
2906.000000	64.961361 
2905.000000	64.935564 
2904.000000	64.916396 
2903.000000	64.903712 
2902.000000	64.896249 
2901.000000	64.892005 
2900.000000	64.888739 
2899.000000	64.883947 
2898.000000	64.875817 
2897.000000	64.863324 
2896.000000	64.846992 
2895.000000	64.828300 
2894.000000	64.810156 
2893.000000	64.795970 
2892.000000	64.789199 
2891.000000	64.792585 
2890.000000	64.807629 
2889.000000	64.833927 
2888.000000	64.869070 
2887.000000	64.908957 
2886.000000	64.948439 
2885.000000	64.982271 
2884.000000	65.006184 
2883.000000	65.017628 
2882.000000	65.016126 
2881.000000	65.003132 
2880.000000	64.981675 
2879.000000	64.955663 
2878.000000	64.928674 
2877.000000	64.903306 
2876.000000	64.880943 
2875.000000	64.861941 
2874.000000	64.845657 
2873.000000	64.831209 
2872.000000	64.818048 
2871.000000	64.806509 
2870.000000	64.797878 
2869.000000	64.794015 
2868.000000	64.796543 
2867.000000	64.806485 
2866.000000	64.823198 
2865.000000	64.844703 
2864.000000	64.867401 
2863.000000	64.887428 
2862.000000	64.901185 
2861.000000	64.906764 
2860.000000	64.904165 
2859.000000	64.895629 
2858.000000	64.884972 
2857.000000	64.876675 
2856.000000	64.874672 
2855.000000	64.881443 
2854.000000	64.897394 
2853.000000	64.920878 
2852.000000	64.948654 
2851.000000	64.976668 
2850.000000	65.000915 
2849.000000	65.018320 
2848.000000	65.027213 
2847.000000	65.027070 
2846.000000	65.018296 
2845.000000	65.001988 
2844.000000	64.979600 
2843.000000	64.952445 
2842.000000	64.921903 
2841.000000	64.889597 
2840.000000	64.857363 
2839.000000	64.827156 
2838.000000	64.800858 
2837.000000	64.780211 
2836.000000	64.766383 
2835.000000	64.759898 
2834.000000	64.760375 
2833.000000	64.766502 
2832.000000	64.776778 
2831.000000	64.789319 
2830.000000	64.802646 
2829.000000	64.815354 
2828.000000	64.826989 
2827.000000	64.837527 
2826.000000	64.847517 
2825.000000	64.857530 
2824.000000	64.868211 
2823.000000	64.879727 
2822.000000	64.891958 
2821.000000	64.904332 
2820.000000	64.916038 
2819.000000	64.926218 
2818.000000	64.934229 
2817.000000	64.939761 
2816.000000	64.943075 
2815.000000	64.945006 
2814.000000	64.946722 
2813.000000	64.949560 
2812.000000	64.954400 
2811.000000	64.961600 
2810.000000	64.970946 
2809.000000	64.981555 
2808.000000	64.992141 
2807.000000	65.001320 
2806.000000	65.008091 
2805.000000	65.011715 
2804.000000	65.012049 
2803.000000	65.009140 
2802.000000	65.003347 
2801.000000	64.995050 
2800.000000	64.984726 
2799.000000	64.972853 
2798.000000	64.960002 
2797.000000	64.947104 
2796.000000	64.935517 
2795.000000	64.926838 
2794.000000	64.922738 
2793.000000	64.924573 
2792.000000	64.932966 
2791.000000	64.947533 
2790.000000	64.966917 
2789.000000	64.988875 
2788.000000	65.010762 
2787.000000	65.029931 
2786.000000	65.044236 
2785.000000	65.052437 
2784.000000	65.054225 
2783.000000	65.050244 
2782.000000	65.041732 
2781.000000	65.030336 
2780.000000	65.017604 
2779.000000	65.004920 
2778.000000	64.993071 
2777.000000	64.982581 
2776.000000	64.973211 
2775.000000	64.964604 
2774.000000	64.956068 
2773.000000	64.946913 
2772.000000	64.936447 
2771.000000	64.924263 
2770.000000	64.910459 
2769.000000	64.895558 
2768.000000	64.880681 
2767.000000	64.867162 
2766.000000	64.856529 
2765.000000	64.849853 
2764.000000	64.847707 
2763.000000	64.849901 
2762.000000	64.855384 
2761.000000	64.862585 
2760.000000	64.869570 
2759.000000	64.874672 
2758.000000	64.876484 
2757.000000	64.874529 
2756.000000	64.869022 
2755.000000	64.861106 
2754.000000	64.852166 
2753.000000	64.844012 
2752.000000	64.838147 
2751.000000	64.835786 
2750.000000	64.837527 
2749.000000	64.843273 
2748.000000	64.852476 
2747.000000	64.864015 
2746.000000	64.876413 
2745.000000	64.888119 
2744.000000	64.897680 
2743.000000	64.903974 
2742.000000	64.906406 
2741.000000	64.905190 
2740.000000	64.901089 
2739.000000	64.895200 
2738.000000	64.888691 
2737.000000	64.882683 
2736.000000	64.877843 
2735.000000	64.874410 
2734.000000	64.872241 
2733.000000	64.870953 
2732.000000	64.870166 
2731.000000	64.869809 
2730.000000	64.870381 
2729.000000	64.872574 
2728.000000	64.877104 
2727.000000	64.884877 
2726.000000	64.896082 
2725.000000	64.910364 
2724.000000	64.926719 
2723.000000	64.943408 
2722.000000	64.958620 
2721.000000	64.970588 
2720.000000	64.978194 
2719.000000	64.981055 
2718.000000	64.979791 
2717.000000	64.975786 
2716.000000	64.971280 
2715.000000	64.968872 
2714.000000	64.970850 
2713.000000	64.978885 
2712.000000	64.993476 
2711.000000	65.013766 
2710.000000	65.037584 
2709.000000	65.061664 
2708.000000	65.082287 
2707.000000	65.096020 
2706.000000	65.100312 
2705.000000	65.094089 
2704.000000	65.077924 
2703.000000	65.053844 
2702.000000	65.025234 
2701.000000	64.995789 
2700.000000	64.969062 
2699.000000	64.947938 
2698.000000	64.934086 
2697.000000	64.927840 
2696.000000	64.928460 
2695.000000	64.934420 
2694.000000	64.943766 
2693.000000	64.954614 
2692.000000	64.965367 
2691.000000	64.975070 
2690.000000	64.983010 
2689.000000	64.989113 
2688.000000	64.993357 
2687.000000	64.995813 
2686.000000	64.996457 
2685.000000	64.995074 
2684.000000	64.991402 
2683.000000	64.985275 
2682.000000	64.976692 
2681.000000	64.965987 
2680.000000	64.953875 
2679.000000	64.941453 
2678.000000	64.929938 
2677.000000	64.920496 
2676.000000	64.913916 
2675.000000	64.910483 
2674.000000	64.909839 
2673.000000	64.911103 
2672.000000	64.913105 
2671.000000	64.914679 
2670.000000	64.915084 
2669.000000	64.914011 
2668.000000	64.911794 
2667.000000	64.909291 
2666.000000	64.907670 
2665.000000	64.908003 
2664.000000	64.911103 
2663.000000	64.916968 
2662.000000	64.925098 
2661.000000	64.934372 
2660.000000	64.943408 
2659.000000	64.950823 
2658.000000	64.955639 
2657.000000	64.957499 
2656.000000	64.956760 
2655.000000	64.954257 
2654.000000	64.951300 
2653.000000	64.949131 
2652.000000	64.948749 
2651.000000	64.950752 
2650.000000	64.955019 
2649.000000	64.961004 
2648.000000	64.967775 
2647.000000	64.974236 
2646.000000	64.979553 
2645.000000	64.983057 
2644.000000	64.984488 
2643.000000	64.983701 
2642.000000	64.980792 
2641.000000	64.975857 
2640.000000	64.968824 
2639.000000	64.959621 
2638.000000	64.948320 
2637.000000	64.935159 
2636.000000	64.920783 
2635.000000	64.906215 
2634.000000	64.892888 
2633.000000	64.882302 
2632.000000	64.875817 
2631.000000	64.874315 
2630.000000	64.878177 
2629.000000	64.887022 
2628.000000	64.899921 
2627.000000	64.915657 
2626.000000	64.932727 
2625.000000	64.949965 
2624.000000	64.966487 
2623.000000	64.981508 
2622.000000	64.994359 
2621.000000	65.004611 
2620.000000	65.011715 
2619.000000	65.015220 
2618.000000	65.014696 
2617.000000	65.010023 
2616.000000	65.001368 
2615.000000	64.989519 
2614.000000	64.975476 
2613.000000	64.960551 
2612.000000	64.945888 
2611.000000	64.932584 
2610.000000	64.921283 
2609.000000	64.912104 
2608.000000	64.904904 
2607.000000	64.899468 
2606.000000	64.895653 
2605.000000	64.893651 
2604.000000	64.893817 
2603.000000	64.896798 
2602.000000	64.903140 
2601.000000	64.913249 
2600.000000	64.927244 
2599.000000	64.944863 
2598.000000	64.965295 
2597.000000	64.987349 
2596.000000	65.009713 
2595.000000	65.031003 
2594.000000	65.049862 
2593.000000	65.064787 
2592.000000	65.074706 
2591.000000	65.078783 
2590.000000	65.076589 
2589.000000	65.067911 
2588.000000	65.053200 
2587.000000	65.033102 
2586.000000	65.008950 
2585.000000	64.982295 
2584.000000	64.954996 
2583.000000	64.928841 
2582.000000	64.905691 
2581.000000	64.887070 
2580.000000	64.873886 
2579.000000	64.866685 
2578.000000	64.865350 
2577.000000	64.868950 
2576.000000	64.875888 
2575.000000	64.883923 
2574.000000	64.890480 
2573.000000	64.893031 
2572.000000	64.889240 
2571.000000	64.877510 
2570.000000	64.857172 
2569.000000	64.828729 
2568.000000	64.793968 
2567.000000	64.755463 
2566.000000	64.716649 
2565.000000	64.681243 
2564.000000	64.652800 
2563.000000	64.634060 
2562.000000	64.626669 
2561.000000	64.630889 
2560.000000	64.645624 
2559.000000	64.668345 
2558.000000	64.696145 
2557.000000	64.725780 
2556.000000	64.754652 
2555.000000	64.780926 
2554.000000	64.804029 
2553.000000	64.824199 
2552.000000	64.842605 
2551.000000	64.860486 
2550.000000	64.878821 
2549.000000	64.897537 
2548.000000	64.915871 
2547.000000	64.932179 
2546.000000	64.944314 
2545.000000	64.949941 
2544.000000	64.947557 
2543.000000	64.936733 
2542.000000	64.918351 
2541.000000	64.894700 
2540.000000	64.868903 
2539.000000	64.844655 
2538.000000	64.825344 
2537.000000	64.813566 
2536.000000	64.810681 
2535.000000	64.816331 
2534.000000	64.828634 
2533.000000	64.844679 
2532.000000	64.861035 
2531.000000	64.874744 
2530.000000	64.883852 
2529.000000	64.887881 
2528.000000	64.887762 
2527.000000	64.885735 
2526.000000	64.884710 
2525.000000	64.887404 
2524.000000	64.895582 
2523.000000	64.909958 
2522.000000	64.930081 
2521.000000	64.954352 
2520.000000	64.980340 
2519.000000	65.005683 
2518.000000	65.028071 
2517.000000	65.045809 
2516.000000	65.057730 
2515.000000	65.063285 
2514.000000	65.062546 
2513.000000	65.055823 
2512.000000	65.043783 
2511.000000	65.027189 
2510.000000	65.007138 
2509.000000	64.985013 
2508.000000	64.962434 
2507.000000	64.941120 
2506.000000	64.922618 
2505.000000	64.908385 
2504.000000	64.899444 
2503.000000	64.896225 
2502.000000	64.898681 
2501.000000	64.905858 
2500.000000	64.916372 
2499.000000	64.928674 
2498.000000	64.940762 
2497.000000	64.950633 
2496.000000	64.956474 
2495.000000	64.956998 
2494.000000	64.951634 
2493.000000	64.940452 
2492.000000	64.924407 
2491.000000	64.904928 
2490.000000	64.884161 
2489.000000	64.864420 
2488.000000	64.847946 
2487.000000	64.836430 
2486.000000	64.831089 
2485.000000	64.832234 
2484.000000	64.839458 
2483.000000	64.851522 
2482.000000	64.866685 
2481.000000	64.883041 
2480.000000	64.898395 
2479.000000	64.910721 
2478.000000	64.918637 
2477.000000	64.920926 
2476.000000	64.916801 
2475.000000	64.906048 
2474.000000	64.889049 
2473.000000	64.866638 
2472.000000	64.840126 
2471.000000	64.811205 
2470.000000	64.781951 
2469.000000	64.754629 
2468.000000	64.731550 
2467.000000	64.714837 
2466.000000	64.706015 
2465.000000	64.705872 
2464.000000	64.714407 
2463.000000	64.730572 
2462.000000	64.752459 
2461.000000	64.777517 
2460.000000	64.803028 
2459.000000	64.826321 
2458.000000	64.845180 
2457.000000	64.858198 
2456.000000	64.864969 
2455.000000	64.866042 
2454.000000	64.863061 
2453.000000	64.858245 
2452.000000	64.853882 
2451.000000	64.852213 
2450.000000	64.854454 
2449.000000	64.860892 
2448.000000	64.870405 
2447.000000	64.881014 
2446.000000	64.890027 
2445.000000	64.894843 
2444.000000	64.893531 
2443.000000	64.885473 
2442.000000	64.871335 
2441.000000	64.853143 
2440.000000	64.833641 
2439.000000	64.815783 
2438.000000	64.801883 
2437.000000	64.793062 
2436.000000	64.789032 
2435.000000	64.788389 
2434.000000	64.789009 
2433.000000	64.788961 
2432.000000	64.786863 
2431.000000	64.782524 
2430.000000	64.776968 
2429.000000	64.772200 
2428.000000	64.770412 
2427.000000	64.773297 
2426.000000	64.781641 
2425.000000	64.794635 
2424.000000	64.810252 
2423.000000	64.825391 
2422.000000	64.836788 
2421.000000	64.841818 
2420.000000	64.839386 
2419.000000	64.830183 
2418.000000	64.816617 
2417.000000	64.802575 
2416.000000	64.792180 
2415.000000	64.788985 
2414.000000	64.794826 
2413.000000	64.809346 
2412.000000	64.829874 
2411.000000	64.851951 
2410.000000	64.870142 
2409.000000	64.879465 
2408.000000	64.876484 
2407.000000	64.860010 
2406.000000	64.831614 
2405.000000	64.795279 
2404.000000	64.756464 
2403.000000	64.720940 
2402.000000	64.693617 
2401.000000	64.677691 
2400.000000	64.674091 
2399.000000	64.681935 
2398.000000	64.698624 
2397.000000	64.720892 
2396.000000	64.745473 
2395.000000	64.769721 
2394.000000	64.791917 
2393.000000	64.811062 
2392.000000	64.827013 
2391.000000	64.839887 
2390.000000	64.849996 
2389.000000	64.857316 
2388.000000	64.861822 
2387.000000	64.863252 
2386.000000	64.861464 
2385.000000	64.856481 
2384.000000	64.848542 
2383.000000	64.838051 
2382.000000	64.825820 
2381.000000	64.812707 
2380.000000	64.799976 
2379.000000	64.788937 
2378.000000	64.780879 
2377.000000	64.776897 
2376.000000	64.777565 
2375.000000	64.782857 
2374.000000	64.792060 
2373.000000	64.803671 
2372.000000	64.815616 
2371.000000	64.825797 
2370.000000	64.832472 
2369.000000	64.834594 
2368.000000	64.831924 
2367.000000	64.825081 
2366.000000	64.815258 
2365.000000	64.804100 
2364.000000	64.793276 
2363.000000	64.783930 
2362.000000	64.776659 
2361.000000	64.771461 
2360.000000	64.768075 
2359.000000	64.766073 
2358.000000	64.765119 
2357.000000	64.765143 
2356.000000	64.766311 
2355.000000	64.768838 
2354.000000	64.772748 
2353.000000	64.777898 
2352.000000	64.783644 
2351.000000	64.789199 
2350.000000	64.793491 
2349.000000	64.795660 
2348.000000	64.795255 
2347.000000	64.792418 
2346.000000	64.787840 
2345.000000	64.782738 
2344.000000	64.778399 
2343.000000	64.775919 
2342.000000	64.775800 
2341.000000	64.777779 
2340.000000	64.780688 
2339.000000	64.782953 
2338.000000	64.782810 
2337.000000	64.778947 
2336.000000	64.770746 
2335.000000	64.758682 
2334.000000	64.744091 
2333.000000	64.728832 
2332.000000	64.715027 
2331.000000	64.704656 
2330.000000	64.698719 
2329.000000	64.697504 
2328.000000	64.700341 
2327.000000	64.706015 
2326.000000	64.713120 
2325.000000	64.720630 
2324.000000	64.727640 
2323.000000	64.734053 
2322.000000	64.740037 
2321.000000	64.746093 
2320.000000	64.752674 
2319.000000	64.759922 
2318.000000	64.767646 
2317.000000	64.775395 
2316.000000	64.782595 
2315.000000	64.788532 
2314.000000	64.792704 
2313.000000	64.794898 
2312.000000	64.795136 
2311.000000	64.793848 
2310.000000	64.791679 
2309.000000	64.789485 
2308.000000	64.788174 
2307.000000	64.788579 
2306.000000	64.791131 
2305.000000	64.795970 
2304.000000	64.802837 
2303.000000	64.810776 
2302.000000	64.818477 
2301.000000	64.824461 
2300.000000	64.827156 
2299.000000	64.825344 
2298.000000	64.818334 
2297.000000	64.806246 
2296.000000	64.789938 
2295.000000	64.770817 
2294.000000	64.750766 
2293.000000	64.731764 
2292.000000	64.715600 
2291.000000	64.703607 
2290.000000	64.696431 
2289.000000	64.694046 
2288.000000	64.695763 
2287.000000	64.700508 
2286.000000	64.706921 
2285.000000	64.713525 
2284.000000	64.719128 
2283.000000	64.722919 
2282.000000	64.724516 
2281.000000	64.724016 
2280.000000	64.721822 
2279.000000	64.718818 
2278.000000	64.715957 
2277.000000	64.714050 
2276.000000	64.713835 
2275.000000	64.715838 
2274.000000	64.720320 
2273.000000	64.727401 
2272.000000	64.737057 
2271.000000	64.749431 
2270.000000	64.764547 
2269.000000	64.782381 
2268.000000	64.802885 
2267.000000	64.825582 
2266.000000	64.849781 
2265.000000	64.874196 
2264.000000	64.897227 
2263.000000	64.916944 
2262.000000	64.931702 
2261.000000	64.940023 
2260.000000	64.941096 
2259.000000	64.934730 
2258.000000	64.921617 
2257.000000	64.903020 
2256.000000	64.880537 
2255.000000	64.855957 
2254.000000	64.830899 
2253.000000	64.806628 
2252.000000	64.784145 
2251.000000	64.763879 
2250.000000	64.746165 
2249.000000	64.731216 
2248.000000	64.719390 
2247.000000	64.710903 
2246.000000	64.706087 
2245.000000	64.705228 
2244.000000	64.708566 
2243.000000	64.715909 
2242.000000	64.726829 
2241.000000	64.740514 
2240.000000	64.756155 
2239.000000	64.772701 
2238.000000	64.789128 
2237.000000	64.804506 
2236.000000	64.818048 
2235.000000	64.829063 
2234.000000	64.837026 
2233.000000	64.841556 
2232.000000	64.842510 
2231.000000	64.839911 
2230.000000	64.834165 
2229.000000	64.825773 
2228.000000	64.815592 
2227.000000	64.804577 
2226.000000	64.793658 
2225.000000	64.783596 
2224.000000	64.774990 
2223.000000	64.767956 
2222.000000	64.762330 
2221.000000	64.757490 
2220.000000	64.752650 
2219.000000	64.746975 
2218.000000	64.739537 
2217.000000	64.729809 
2216.000000	64.717459 
2215.000000	64.702701 
2214.000000	64.686250 
2213.000000	64.669466 
2212.000000	64.653873 
2211.000000	64.641427 
2210.000000	64.633703 
2209.000000	64.632081 
2208.000000	64.637136 
2207.000000	64.648699 
2206.000000	64.665818 
2205.000000	64.686799 
2204.000000	64.709472 
2203.000000	64.731669 
2202.000000	64.751434 
2201.000000	64.767313 
2200.000000	64.778423 
2199.000000	64.784479 
2198.000000	64.785718 
2197.000000	64.782786 
2196.000000	64.776420 
2195.000000	64.767456 
2194.000000	64.756417 
2193.000000	64.743947 
2192.000000	64.730429 
2191.000000	64.716148 
2190.000000	64.701509 
2189.000000	64.686942 
2188.000000	64.673185 
2187.000000	64.661121 
2186.000000	64.651989 
2185.000000	64.646983 
2184.000000	64.647078 
2183.000000	64.652919 
2182.000000	64.664483 
2181.000000	64.680862 
2180.000000	64.700222 
2179.000000	64.719939 
2178.000000	64.737081 
2177.000000	64.748811 
2176.000000	64.752864 
2175.000000	64.748072 
2174.000000	64.734482 
2173.000000	64.713525 
2172.000000	64.687609 
2171.000000	64.659738 
2170.000000	64.633011 
2169.000000	64.609909 
2168.000000	64.592266 
2167.000000	64.580798 
2166.000000	64.575338 
2165.000000	64.574933 
2164.000000	64.578175 
2163.000000	64.583373 
2162.000000	64.588832 
2161.000000	64.593172 
2160.000000	64.595103 
2159.000000	64.593958 
2158.000000	64.589381 
2157.000000	64.581871 
2156.000000	64.572238 
2155.000000	64.561939 
2154.000000	64.552879 
2153.000000	64.546847 
2152.000000	64.545416 
2151.000000	64.549541 
2150.000000	64.559316 
2149.000000	64.573931 
2148.000000	64.591860 
2147.000000	64.611077 
2146.000000	64.629530 
2145.000000	64.645290 
2144.000000	64.657068 
2143.000000	64.664149 
2142.000000	64.666557 
2141.000000	64.664769 
2140.000000	64.659762 
2139.000000	64.652657 
2138.000000	64.644956 
2137.000000	64.638185 
2136.000000	64.633846 
2135.000000	64.633488 
2134.000000	64.638257 
2133.000000	64.648628 
2132.000000	64.664340 
2131.000000	64.684247 
2130.000000	64.706492 
2129.000000	64.728713 
2128.000000	64.748501 
2127.000000	64.763903 
2126.000000	64.773845 
2125.000000	64.778351 
2124.000000	64.778304 
2123.000000	64.775395 
2122.000000	64.771533 
2121.000000	64.768552 
2120.000000	64.767670 
2119.000000	64.769220 
2118.000000	64.772915 
2117.000000	64.777922 
2116.000000	64.783143 
2115.000000	64.787364 
2114.000000	64.789628 
2113.000000	64.789390 
2112.000000	64.786338 
2111.000000	64.780759 
2110.000000	64.773154 
2109.000000	64.764523 
2108.000000	64.756035 
2107.000000	64.748907 
2106.000000	64.744472 
2105.000000	64.743804 
2104.000000	64.747476 
2103.000000	64.755344 
2102.000000	64.766716 
2101.000000	64.780044 
2100.000000	64.793443 
2099.000000	64.804697 
2098.000000	64.812040 
2097.000000	64.814114 
2096.000000	64.810347 
2095.000000	64.800763 
2094.000000	64.785838 
2093.000000	64.766407 
2092.000000	64.743471 
2091.000000	64.718127 
2090.000000	64.691615 
2089.000000	64.665317 
2088.000000	64.640831 
2087.000000	64.619898 
2086.000000	64.604139 
2085.000000	64.594864 
2084.000000	64.592623 
2083.000000	64.596939 
2082.000000	64.606475 
2081.000000	64.618968 
2080.000000	64.631819 
2079.000000	64.642357 
2078.000000	64.648675 
2077.000000	64.649653 
2076.000000	64.645457 
2075.000000	64.637279 
2074.000000	64.627289 
2073.000000	64.617896 
2072.000000	64.611792 
2071.000000	64.611220 
2070.000000	64.617824 
2069.000000	64.632391 
2068.000000	64.654445 
2067.000000	64.682507 
2066.000000	64.714002 
2065.000000	64.745759 
2064.000000	64.774322 
2063.000000	64.796471 
2062.000000	64.809799 
2061.000000	64.813256 
2060.000000	64.807009 
2059.000000	64.792561 
2058.000000	64.772486 
2057.000000	64.749646 
2056.000000	64.726924 
2055.000000	64.706444 
2054.000000	64.689564 
2053.000000	64.676523 
2052.000000	64.666867 
2051.000000	64.659714 
2050.000000	64.654064 
2049.000000	64.649319 
2048.000000	64.645266 
2047.000000	64.642167 
2046.000000	64.640450 
2045.000000	64.640712 
2044.000000	64.643239 
2043.000000	64.648127 
2042.000000	64.654946 
2041.000000	64.663076 
2040.000000	64.671874 
2039.000000	64.680719 
2038.000000	64.689278 
2037.000000	64.697623 
2036.000000	64.706087 
2035.000000	64.715123 
2034.000000	64.724755 
2033.000000	64.734578 
2032.000000	64.743447 
2031.000000	64.749789 
2030.000000	64.751744 
2029.000000	64.747619 
2028.000000	64.736676 
2027.000000	64.719223 
2026.000000	64.696955 
2025.000000	64.672470 
2024.000000	64.648962 
2023.000000	64.629626 
2022.000000	64.616990 
2021.000000	64.612364 
2020.000000	64.615535 
2019.000000	64.625144 
2018.000000	64.638733 
2017.000000	64.653539 
2016.000000	64.666700 
2015.000000	64.676070 
2014.000000	64.680361 
2013.000000	64.679026 
2012.000000	64.672327 
2011.000000	64.661026 
2010.000000	64.646291 
2009.000000	64.629387 
2008.000000	64.611673 
2007.000000	64.594531 
2006.000000	64.579296 
2005.000000	64.567136 
2004.000000	64.559006 
2003.000000	64.555549 
2002.000000	64.557051 
2001.000000	64.563345 
2000.000000	64.573788 
1999.000000	64.587306 
1998.000000	64.602589 
1997.000000	64.618277 
1996.000000	64.632940 
1995.000000	64.645648 
1994.000000	64.655733 
1993.000000	64.663171 
1992.000000	64.668273 
1991.000000	64.671564 
1990.000000	64.673614 
1989.000000	64.674925 
1988.000000	64.675784 
1987.000000	64.676403 
1986.000000	64.677166 
1985.000000	64.678359 
1984.000000	64.680290 
1983.000000	64.683127 
1982.000000	64.686894 
1981.000000	64.691305 
1980.000000	64.695739 
1979.000000	64.699435 
1978.000000	64.701318 
1977.000000	64.700698 
1976.000000	64.697146 
1975.000000	64.690828 
1974.000000	64.682197 
1973.000000	64.672112 
1972.000000	64.661478 
1971.000000	64.650917 
1970.000000	64.640712 
1969.000000	64.630794 
1968.000000	64.620828 
1967.000000	64.610600 
1966.000000	64.599990 
1965.000000	64.589095 
1964.000000	64.578199 
1963.000000	64.567589 
1962.000000	64.557242 
1961.000000	64.546847 
1960.000000	64.535951 
1959.000000	64.524173 
1958.000000	64.511537 
1957.000000	64.498662 
1956.000000	64.486742 
1955.000000	64.477467 
1954.000000	64.472579 
1953.000000	64.473438 
1952.000000	64.480566 
1951.000000	64.493513 
1950.000000	64.510774 
1949.000000	64.530134 
1948.000000	64.549350 
1947.000000	64.566326 
1946.000000	64.579868 
1945.000000	64.589405 
1944.000000	64.595055 
1943.000000	64.597153 
1942.000000	64.596223 
1941.000000	64.592599 
1940.000000	64.586305 
1939.000000	64.577198 
1938.000000	64.565396 
1937.000000	64.551186 
1936.000000	64.535236 
1935.000000	64.518475 
1934.000000	64.502072 
1933.000000	64.487242 
1932.000000	64.475083 
1931.000000	64.466333 
1930.000000	64.461398 
1929.000000	64.460349 
1928.000000	64.463162 
1927.000000	64.469528 
1926.000000	64.478945 
1925.000000	64.490461 
1924.000000	64.503026 
1923.000000	64.515089 
1922.000000	64.525079 
1921.000000	64.531683 
1920.000000	64.534282 
1919.000000	64.532899 
1918.000000	64.528512 
1917.000000	64.522719 
1916.000000	64.517498 
1915.000000	64.514684 
1914.000000	64.515686 
1913.000000	64.521145 
1912.000000	64.530992 
1911.000000	64.544415 
1910.000000	64.560031 
1909.000000	64.576148 
1908.000000	64.590930 
1907.000000	64.602756 
1906.000000	64.610004 
1905.000000	64.611387 
1904.000000	64.606070 
1903.000000	64.593839 
1902.000000	64.575338 
1901.000000	64.552092 
1900.000000	64.526605 
1899.000000	64.501810 
1898.000000	64.480662 
1897.000000	64.465594 
1896.000000	64.457988 
1895.000000	64.457821 
1894.000000	64.463829 
1893.000000	64.474058 
1892.000000	64.486074 
1891.000000	64.497852 
1890.000000	64.507937 
1889.000000	64.516019 
1888.000000	64.522504 
1887.000000	64.528298 
1886.000000	64.534235 
1885.000000	64.540815 
1884.000000	64.547920 
1883.000000	64.554786 
1882.000000	64.560341 
1881.000000	64.563632 
1880.000000	64.564132 
1879.000000	64.561796 
1878.000000	64.557242 
1877.000000	64.551401 
1876.000000	64.545369 
1875.000000	64.539909 
1874.000000	64.535498 
1873.000000	64.532208 
1872.000000	64.529800 
1871.000000	64.528083 
1870.000000	64.526867 
1869.000000	64.526104 
1868.000000	64.526057 
1867.000000	64.526796 
1866.000000	64.528298 
1865.000000	64.530158 
1864.000000	64.531874 
1863.000000	64.532709 
1862.000000	64.532423 
1861.000000	64.530920 
1860.000000	64.528846 
1859.000000	64.527273 
1858.000000	64.527559 
1857.000000	64.530825 
1856.000000	64.537715 
1855.000000	64.548015 
1854.000000	64.560580 
1853.000000	64.573574 
1852.000000	64.584994 
1851.000000	64.593100 
1850.000000	64.596772 
1849.000000	64.595937 
1848.000000	64.591264 
1847.000000	64.584112 
1846.000000	64.576148 
1845.000000	64.568686 
1844.000000	64.562702 
1843.000000	64.558458 
1842.000000	64.555859 
1841.000000	64.554357 
1840.000000	64.553236 
1839.000000	64.551782 
1838.000000	64.549255 
1837.000000	64.545512 
1836.000000	64.540386 
1835.000000	64.534163 
1834.000000	64.527297 
1833.000000	64.520502 
1832.000000	64.514708 
1831.000000	64.510965 
1830.000000	64.510130 
1829.000000	64.512705 
1828.000000	64.518737 
1827.000000	64.527559 
1826.000000	64.537882 
1825.000000	64.547896 
1824.000000	64.555692 
1823.000000	64.559674 
1822.000000	64.558815 
1821.000000	64.553117 
1820.000000	64.543557 
1819.000000	64.531898 
1818.000000	64.520430 
1817.000000	64.511346 
1816.000000	64.506554 
1815.000000	64.507222 
1814.000000	64.513349 
1813.000000	64.524149 
1812.000000	64.538073 
1811.000000	64.553213 
1810.000000	64.567327 
1809.000000	64.578485 
1808.000000	64.585137 
1807.000000	64.586234 
1806.000000	64.581394 
1805.000000	64.570975 
1804.000000	64.556074 
1803.000000	64.538335 
1802.000000	64.519858 
1801.000000	64.503049 
1800.000000	64.490079 
1799.000000	64.482736 
1798.000000	64.481854 
1797.000000	64.487195 
1796.000000	64.497399 
1795.000000	64.510297 
1794.000000	64.523172 
1793.000000	64.533615 
1792.000000	64.539742 
1791.000000	64.540529 
1790.000000	64.535951 
1789.000000	64.526867 
1788.000000	64.514636 
1787.000000	64.500927 
1786.000000	64.487266 
1785.000000	64.474916 
1784.000000	64.464879 
1783.000000	64.457583 
1782.000000	64.453434 
1781.000000	64.452338 
1780.000000	64.453959 
1779.000000	64.457607 
1778.000000	64.462375 
1777.000000	64.467048 
1776.000000	64.470243 
1775.000000	64.470839 
1774.000000	64.468145 
1773.000000	64.462113 
1772.000000	64.453244 
1771.000000	64.442563 
1770.000000	64.431333 
1769.000000	64.420652 
1768.000000	64.411425 
1767.000000	64.404129 
1766.000000	64.398884 
1765.000000	64.395666 
1764.000000	64.394354 
1763.000000	64.394807 
1762.000000	64.396953 
1761.000000	64.400649 
1760.000000	64.405488 
1759.000000	64.410924 
1758.000000	64.415979 
1757.000000	64.419651 
1756.000000	64.420795 
1755.000000	64.418601 
1754.000000	64.412617 
1753.000000	64.403104 
1752.000000	64.390420 
1751.000000	64.375090 
1750.000000	64.357423 
1749.000000	64.337706 
1748.000000	64.315938 
1747.000000	64.292097 
1746.000000	64.266276 
1745.000000	64.239144 
1744.000000	64.211773 
1743.000000	64.185619 
1742.000000	64.162230 
1741.000000	64.143157 
1740.000000	64.129471 
1739.000000	64.121818 
1738.000000	64.120078 
1737.000000	64.123797 
1736.000000	64.132022 
1735.000000	64.143729 
1734.000000	64.157676 
1733.000000	64.172649 
1732.000000	64.187526 
1731.000000	64.201235 
1730.000000	64.212656 
1729.000000	64.221119 
1728.000000	64.226078 
1727.000000	64.227724 
1726.000000	64.227032 
1725.000000	64.225411 
1724.000000	64.224600 
1723.000000	64.226293 
1722.000000	64.231920 
1721.000000	64.242076 
1720.000000	64.256191 
1719.000000	64.272904 
1718.000000	64.290356 
1717.000000	64.306426 
1716.000000	64.319300 
1715.000000	64.327979 
1714.000000	64.332485 
1713.000000	64.333486 
1712.000000	64.331960 
1711.000000	64.329028 
1710.000000	64.325404 
1709.000000	64.320850 
1708.000000	64.314341 
1707.000000	64.304471 
1706.000000	64.289999 
1705.000000	64.270138 
1704.000000	64.245080 
1703.000000	64.216232 
1702.000000	64.186191 
1701.000000	64.158368 
1700.000000	64.136552 
1699.000000	64.123773 
1698.000000	64.122247 
1697.000000	64.132761 
1696.000000	64.154434 
1695.000000	64.185023 
1694.000000	64.221000 
1693.000000	64.258193 
1692.000000	64.292359 
1691.000000	64.319682 
1690.000000	64.337420 
1689.000000	64.344286 
1688.000000	64.340639 
1687.000000	64.328384 
1686.000000	64.310860 
1685.000000	64.292192 
1684.000000	64.276790 
1683.000000	64.268374 
1682.000000	64.269399 
1681.000000	64.280557 
1680.000000	64.300680 
1679.000000	64.326953 
1678.000000	64.355540 
1677.000000	64.382100 
1676.000000	64.402961 
1675.000000	64.415645 
1674.000000	64.419102 
1673.000000	64.414048 
1672.000000	64.402389 
1671.000000	64.386749 
1670.000000	64.369940 
1669.000000	64.354228 
1668.000000	64.341115 
1667.000000	64.331126 
1666.000000	64.323902 
1665.000000	64.318418 
1664.000000	64.313673 
1663.000000	64.308714 
1662.000000	64.303016 
1661.000000	64.296483 
1660.000000	64.289355 
1659.000000	64.282035 
1658.000000	64.274978 
1657.000000	64.268565 
1656.000000	64.263033 
1655.000000	64.258599 
1654.000000	64.255619 
1653.000000	64.254570 
1652.000000	64.255666 
1651.000000	64.259290 
1650.000000	64.265155 
1649.000000	64.272689 
1648.000000	64.280581 
1647.000000	64.287233 
1646.000000	64.290809 
1645.000000	64.289641 
1644.000000	64.282655 
1643.000000	64.269614 
1642.000000	64.251613 
1641.000000	64.230418 
1640.000000	64.208650 
1639.000000	64.188957 
1638.000000	64.173936 
1637.000000	64.165687 
1636.000000	64.165306 
1635.000000	64.172935 
1634.000000	64.187765 
1633.000000	64.208269 
1632.000000	64.232182 
1631.000000	64.256787 
1630.000000	64.279270 
1629.000000	64.296793 
1628.000000	64.307141 
1627.000000	64.308667 
1626.000000	64.300823 
1625.000000	64.284157 
1624.000000	64.260411 
1623.000000	64.232254 
1622.000000	64.202928 
1621.000000	64.175748 
1620.000000	64.153671 
1619.000000	64.138579 
1618.000000	64.131426 
1617.000000	64.131832 
1616.000000	64.138531 
1615.000000	64.149689 
1614.000000	64.163208 
1613.000000	64.177155 
1612.000000	64.190053 
1611.000000	64.201045 
1610.000000	64.209723 
1609.000000	64.216160 
1608.000000	64.220595 
1607.000000	64.223480 
1606.000000	64.225006 
1605.000000	64.225387 
1604.000000	64.224505 
1603.000000	64.222216 
1602.000000	64.218330 
1601.000000	64.212679 
1600.000000	64.205455 
1599.000000	64.197015 
1598.000000	64.187955 
1597.000000	64.179110 
1596.000000	64.171433 
1595.000000	64.165806 
1594.000000	64.162969 
1593.000000	64.163303 
1592.000000	64.166831 
1591.000000	64.173150 
1590.000000	64.181709 
1589.000000	64.191532 
1588.000000	64.201474 
1587.000000	64.210605 
1586.000000	64.217972 
1585.000000	64.222741 
1584.000000	64.224243 
1583.000000	64.222002 
1582.000000	64.215946 
1581.000000	64.206528 
1580.000000	64.194560 
1579.000000	64.181017 
1578.000000	64.167022 
1577.000000	64.153790 
1576.000000	64.142107 
1575.000000	64.132547 
1574.000000	64.125514 
1573.000000	64.121174 
1572.000000	64.119744 
1571.000000	64.121389 
1570.000000	64.126324 
1569.000000	64.134860 
1568.000000	64.146995 
1567.000000	64.162397 
1566.000000	64.180326 
1565.000000	64.199519 
1564.000000	64.218592 
1563.000000	64.236187 
1562.000000	64.251184 
1561.000000	64.262795 
1560.000000	64.270949 
1559.000000	64.275813 
1558.000000	64.277720 
1557.000000	64.276742 
1556.000000	64.272856 
1555.000000	64.265727 
1554.000000	64.254975 
1553.000000	64.240479 
1552.000000	64.222669 
1551.000000	64.202618 
1550.000000	64.181900 
1549.000000	64.162445 
1548.000000	64.146041 
1547.000000	64.133763 
1546.000000	64.125847 
1545.000000	64.121413 
1544.000000	64.118838 
1543.000000	64.116168 
1542.000000	64.111804 
1541.000000	64.104795 
1540.000000	64.095330 
1539.000000	64.084744 
1538.000000	64.075207 
1537.000000	64.069056 
1536.000000	64.068388 
1535.000000	64.074444 
1534.000000	64.087390 
1533.000000	64.106082 
1532.000000	64.128494 
1531.000000	64.152169 
1530.000000	64.174675 
1529.000000	64.193940 
1528.000000	64.208650 
1527.000000	64.218473 
1526.000000	64.223909 
1525.000000	64.225935 
1524.000000	64.225864 
1523.000000	64.224696 
1522.000000	64.223217 
1521.000000	64.221668 
1520.000000	64.219760 
1519.000000	64.216470 
1518.000000	64.210844 
1517.000000	64.201951 
1516.000000	64.189171 
1515.000000	64.172577 
1514.000000	64.153099 
1513.000000	64.132618 
1512.000000	64.113569 
1511.000000	64.098477 
1510.000000	64.089536 
1509.000000	64.088082 
1508.000000	64.094209 
1507.000000	64.106702 
1506.000000	64.122915 
1505.000000	64.139461 
1504.000000	64.152717 
1503.000000	64.159727 
1502.000000	64.158535 
1501.000000	64.148950 
1500.000000	64.132237 
1499.000000	64.111208 
1498.000000	64.089226 
1497.000000	64.069795 
1496.000000	64.055752 
1495.000000	64.048767 
1494.000000	64.049267 
1493.000000	64.056515 
1492.000000	64.069080 
1491.000000	64.085221 
1490.000000	64.103341 
1489.000000	64.122104 
1488.000000	64.140510 
1487.000000	64.157652 
1486.000000	64.172577 
1485.000000	64.184069 
1484.000000	64.190912 
1483.000000	64.191651 
1482.000000	64.185261 
1481.000000	64.171314 
1480.000000	64.150357 
1479.000000	64.124202 
1478.000000	64.095735 
1477.000000	64.068555 
1476.000000	64.046478 
1475.000000	64.032769 
1474.000000	64.029431 
1473.000000	64.036679 
1472.000000	64.052891 
1471.000000	64.075040 
1470.000000	64.099144 
1469.000000	64.121437 
1468.000000	64.138889 
1467.000000	64.149928 
1466.000000	64.154505 
1465.000000	64.153718 
1464.000000	64.149641 
1463.000000	64.144325 
1462.000000	64.139437 
1461.000000	64.135527 
1460.000000	64.132285 
1459.000000	64.128232 
1458.000000	64.121651 
1457.000000	64.110803 
1456.000000	64.094519 
1455.000000	64.072704 
1454.000000	64.046406 
1453.000000	64.017868 
1452.000000	63.990068 
1451.000000	63.966298 
1450.000000	63.949537 
1449.000000	63.941979 
1448.000000	63.944530 
1447.000000	63.956761 
1446.000000	63.976788 
1445.000000	64.001727 
1444.000000	64.028120 
1443.000000	64.052629 
1442.000000	64.072704 
1441.000000	64.086866 
1440.000000	64.094829 
1439.000000	64.097499 
1438.000000	64.096522 
1437.000000	64.093780 
1436.000000	64.090871 
1435.000000	64.088702 
1434.000000	64.087533 
1433.000000	64.087152 
1432.000000	64.087057 
1431.000000	64.086890 
1430.000000	64.086675 
1429.000000	64.087295 
1428.000000	64.089989 
1427.000000	64.095973 
1426.000000	64.105963 
1425.000000	64.119911 
1424.000000	64.136648 
1423.000000	64.154076 
1422.000000	64.169383 
1421.000000	64.179849 
1420.000000	64.183211 
1419.000000	64.178276 
1418.000000	64.165067 
1417.000000	64.144968 
1416.000000	64.120483 
1415.000000	64.094614 
1414.000000	64.070343 
1413.000000	64.050006 
1412.000000	64.035081 
1411.000000	64.026093 
1410.000000	64.022445 
1409.000000	64.022922 
1408.000000	64.026212 
1407.000000	64.031267 
1406.000000	64.037346 
1405.000000	64.044356 
1404.000000	64.052534 
1403.000000	64.062213 
1402.000000	64.073586 
1401.000000	64.086556 
1400.000000	64.100527 
1399.000000	64.114618 
1398.000000	64.127707 
1397.000000	64.138770 
1396.000000	64.146924 
1395.000000	64.151430 
1394.000000	64.152002 
1393.000000	64.148521 
1392.000000	64.141130 
1391.000000	64.130091 
1390.000000	64.115905 
1389.000000	64.099502 
1388.000000	64.082169 
1387.000000	64.065551 
1386.000000	64.051365 
1385.000000	64.041233 
1384.000000	64.036250 
1383.000000	64.036655 
1382.000000	64.041781 
1381.000000	64.050364 
1380.000000	64.060664 
1379.000000	64.070844 
1378.000000	64.079380 
1377.000000	64.085412 
1376.000000	64.088869 
1375.000000	64.090347 
1374.000000	64.090728 
1373.000000	64.091205 
1372.000000	64.092636 
1371.000000	64.095568 
1370.000000	64.100027 
1369.000000	64.105701 
1368.000000	64.112067 
1367.000000	64.118480 
1366.000000	64.124178 
1365.000000	64.128613 
1364.000000	64.131307 
1363.000000	64.132094 
1362.000000	64.130806 
1361.000000	64.127397 
1360.000000	64.122009 
1359.000000	64.114737 
1358.000000	64.105439 
1357.000000	64.093637 
1356.000000	64.078950 
1355.000000	64.060950 
1354.000000	64.039683 
1353.000000	64.015817 
1352.000000	63.990712 
1351.000000	63.966631 
1350.000000	63.946223 
1349.000000	63.931965 
1348.000000	63.925647 
1347.000000	63.927674 
1346.000000	63.936996 
1345.000000	63.951015 
1344.000000	63.966083 
1343.000000	63.978385 
1342.000000	63.984823 
1341.000000	63.983774 
1340.000000	63.975358 
1339.000000	63.961648 
1338.000000	63.945770 
1337.000000	63.931369 
1336.000000	63.921761 
1335.000000	63.919234 
1334.000000	63.924717 
1333.000000	63.937830 
1332.000000	63.957166 
1331.000000	63.980555 
1330.000000	64.005565 
1329.000000	64.030075 
1328.000000	64.052391 
1327.000000	64.071154 
1326.000000	64.085412 
1325.000000	64.094567 
1324.000000	64.098453 
1323.000000	64.096927 
1322.000000	64.090275 
1321.000000	64.079308 
1320.000000	64.065098 
1319.000000	64.049124 
1318.000000	64.032936 
1317.000000	64.018225 
1316.000000	64.006280 
1315.000000	63.998079 
1314.000000	63.993930 
1313.000000	63.993549 
1312.000000	63.996195 
1311.000000	64.000844 
1310.000000	64.006495 
1309.000000	64.012360 
1308.000000	64.018154 
1307.000000	64.024329 
1306.000000	64.032030 
1305.000000	64.042520 
1304.000000	64.056801 
1303.000000	64.075255 
1302.000000	64.097309 
1301.000000	64.121317 
1300.000000	64.144968 
1299.000000	64.165401 
1298.000000	64.180183 
1297.000000	64.187383 
1296.000000	64.186429 
1295.000000	64.177751 
1294.000000	64.163112 
1293.000000	64.144754 
1292.000000	64.125323 
1291.000000	64.106988 
1290.000000	64.091396 
1289.000000	64.079093 
1288.000000	64.069819 
1287.000000	64.062523 
1286.000000	64.056015 
1285.000000	64.049124 
1284.000000	64.041233 
1283.000000	64.032387 
1282.000000	64.023351 
1281.000000	64.015316 
1280.000000	64.009666 
1279.000000	64.007616 
1278.000000	64.009785 
1277.000000	64.016246 
1276.000000	64.026379 
1275.000000	64.038991 
1274.000000	64.052534 
1273.000000	64.065527 
1272.000000	64.076614 
1271.000000	64.084815 
1270.000000	64.089488 
1269.000000	64.090752 
1268.000000	64.088892 
1267.000000	64.084362 
1266.000000	64.077496 
1265.000000	64.068531 
1264.000000	64.057374 
1263.000000	64.043927 
1262.000000	64.028215 
1261.000000	64.010667 
1260.000000	63.992142 
1259.000000	63.974189 
1258.000000	63.958501 
1257.000000	63.946580 
1256.000000	63.939404 
1255.000000	63.937306 
1254.000000	63.939523 
1253.000000	63.944506 
1252.000000	63.950276 
1251.000000	63.954925 
1250.000000	63.957023 
1249.000000	63.955879 
1248.000000	63.951730 
1247.000000	63.945317 
1246.000000	63.937687 
1245.000000	63.929891 
1244.000000	63.922500 
1243.000000	63.915657 
1242.000000	63.909339 
1241.000000	63.903498 
1240.000000	63.898277 
1239.000000	63.894009 
1238.000000	63.891148 
1237.000000	63.890123 
1236.000000	63.891053 
1235.000000	63.893842 
1234.000000	63.897919 
1233.000000	63.902735 
1232.000000	63.907718 
1231.000000	63.912534 
1230.000000	63.917207 
1229.000000	63.921952 
1228.000000	63.927173 
1227.000000	63.932919 
1226.000000	63.938832 
1225.000000	63.944101 
1224.000000	63.947486 
1223.000000	63.947772 
1222.000000	63.944125 
1221.000000	63.936400 
1220.000000	63.925337 
1219.000000	63.912415 
1218.000000	63.899660 
1217.000000	63.888907 
1216.000000	63.881826 
1215.000000	63.879179 
1214.000000	63.881158 
1213.000000	63.887190 
1212.000000	63.896274 
1211.000000	63.907408 
1210.000000	63.919639 
1209.000000	63.932299 
1208.000000	63.944935 
1207.000000	63.957214 
1206.000000	63.968658 
1205.000000	63.978600 
1204.000000	63.985991 
1203.000000	63.989591 
1202.000000	63.988137 
1201.000000	63.980650 
1200.000000	63.966798 
1199.000000	63.947129 
1198.000000	63.922977 
1197.000000	63.896393 
1196.000000	63.869643 
1195.000000	63.845133 
1194.000000	63.824796 
1193.000000	63.809967 
1192.000000	63.801383 
1191.000000	63.799190 
1190.000000	63.802957 
1189.000000	63.811874 
1188.000000	63.824748 
1187.000000	63.840270 
1186.000000	63.856983 
1185.000000	63.873314 
1184.000000	63.887810 
1183.000000	63.899183 
1182.000000	63.906526 
1181.000000	63.909339 
1180.000000	63.907814 
1179.000000	63.902425 
1178.000000	63.893890 
1177.000000	63.882970 
1176.000000	63.870263 
1175.000000	63.856005 
1174.000000	63.840270 
1173.000000	63.823008 
1172.000000	63.804340 
1171.000000	63.784646 
1170.000000	63.764619 
1169.000000	63.744950 
1168.000000	63.726258 
1167.000000	63.708901 
1166.000000	63.692998 
1165.000000	63.678407 
1164.000000	63.665246 
1163.000000	63.653683 
1162.000000	63.644671 
1161.000000	63.639450 
1160.000000	63.639426 
1159.000000	63.645720 
1158.000000	63.658714 
1157.000000	63.677644 
1156.000000	63.700556 
1155.000000	63.724493 
1154.000000	63.746094 
1153.000000	63.762283 
1152.000000	63.770890 
1151.000000	63.771152 
1150.000000	63.763666 
1149.000000	63.750219 
1148.000000	63.733196 
1147.000000	63.715171 
1146.000000	63.698434 
1145.000000	63.684511 
1144.000000	63.674473 
1143.000000	63.668823 
1142.000000	63.667726 
1141.000000	63.670873 
1140.000000	63.677930 
1139.000000	63.688302 
1138.000000	63.700747 
1137.000000	63.713955 
1136.000000	63.726162 
1135.000000	63.736057 
1134.000000	63.742446 
1133.000000	63.745141 
1132.000000	63.744997 
1131.000000	63.743853 
1130.000000	63.744020 
1129.000000	63.747835 
1128.000000	63.757085 
1127.000000	63.772177 
1126.000000	63.792300 
1125.000000	63.815212 
1124.000000	63.837766 
1123.000000	63.856649 
1122.000000	63.869094 
1121.000000	63.873362 
1120.000000	63.868951 
1119.000000	63.856720 
1118.000000	63.838696 
1117.000000	63.817334 
1116.000000	63.795399 
1115.000000	63.775491 
1114.000000	63.759946 
1113.000000	63.750791 
1112.000000	63.749504 
1111.000000	63.757276 
1110.000000	63.774681 
1109.000000	63.801360 
1108.000000	63.836073 
1107.000000	63.876557 
1106.000000	63.919854 
1105.000000	63.962221 
1104.000000	64.000082 
1103.000000	64.030575 
1102.000000	64.051914 
1101.000000	64.063763 
1100.000000	64.066815 
1099.000000	64.062643 
1098.000000	64.052772 
1097.000000	64.038729 
1096.000000	64.021134 
1095.000000	63.999915 
1094.000000	63.974547 
1093.000000	63.944673 
1092.000000	63.910341 
1091.000000	63.872385 
1090.000000	63.832545 
1089.000000	63.793206 
1088.000000	63.757014 
1087.000000	63.726401 
1086.000000	63.702917 
1085.000000	63.687038 
1084.000000	63.677883 
1083.000000	63.673734 
1082.000000	63.672137 
1081.000000	63.670873 
1080.000000	63.668203 
1079.000000	63.663721 
1078.000000	63.657593 
1077.000000	63.651299 
1076.000000	63.646697 
1075.000000	63.645887 
1074.000000	63.650274 
1073.000000	63.660645 
1072.000000	63.676857 
1071.000000	63.698005 
1070.000000	63.722562 
1069.000000	63.748717 
1068.000000	63.774633 
1067.000000	63.798666 
1066.000000	63.819384 
1065.000000	63.835453 
1064.000000	63.845658 
1063.000000	63.848900 
1062.000000	63.844370 
1061.000000	63.831877 
1060.000000	63.811850 
1059.000000	63.785815 
1058.000000	63.755989 
1057.000000	63.724923 
1056.000000	63.695073 
1055.000000	63.668656 
1054.000000	63.647127 
1053.000000	63.630867 
1052.000000	63.619565 
1051.000000	63.612079 
1050.000000	63.607263 
1049.000000	63.604164 
1048.000000	63.602328 
1047.000000	63.601517 
1046.000000	63.602113 
1045.000000	63.604331 
1044.000000	63.608503 
1043.000000	63.614535 
1042.000000	63.621926 
1041.000000	63.629794 
1040.000000	63.637089 
1039.000000	63.642740 
1038.000000	63.645768 
1037.000000	63.645505 
1036.000000	63.641643 
1035.000000	63.634586 
1034.000000	63.625502 
1033.000000	63.616585 
1032.000000	63.610625 
1031.000000	63.610577 
1030.000000	63.618779 
1029.000000	63.636183 
1028.000000	63.662195 
1027.000000	63.693928 
1026.000000	63.726711 
1025.000000	63.754773 
1024.000000	63.772630 
1023.000000	63.776159 
1022.000000	63.763594 
1021.000000	63.736534 
1020.000000	63.699388 
1019.000000	63.659167 
1018.000000	63.623595 
1017.000000	63.600015 
1016.000000	63.593745 
1015.000000	63.607239 
1014.000000	63.639831 
1013.000000	63.687896 
1012.000000	63.746047 
1011.000000	63.808035 
1010.000000	63.868117 
1009.000000	63.921546 
1008.000000	63.965320 
1007.000000	63.998103 
1006.000000	64.020109 
1005.000000	64.032530 
1004.000000	64.037036 
1003.000000	64.035606 
1002.000000	64.029788 
1001.000000	64.021372 
1000.000000	64.011359 
999.000000	 64.001059 
998.000000	 63.990926 
997.000000	 63.981389 
996.000000	 63.972401 
995.000000	 63.963699 
994.000000	 63.955020 
993.000000	 63.945913 
992.000000	 63.936448 
991.000000	 63.927221 
990.000000	 63.919115 
989.000000	 63.913249 
988.000000	 63.910436 
987.000000	 63.910961 
986.000000	 63.914084 
985.000000	 63.918066 
984.000000	 63.920426 
983.000000	 63.918662 
982.000000	 63.910651 
981.000000	 63.895440 
980.000000	 63.873767 
979.000000	 63.848137 
978.000000	 63.822102 
977.000000	 63.799142 
976.000000	 63.782525 
975.000000	 63.773751 
974.000000	 63.772463 
973.000000	 63.776469 
972.000000	 63.782358 
971.000000	 63.786554 
970.000000	 63.786172 
969.000000	 63.779807 
968.000000	 63.767766 
967.000000	 63.751935 
966.000000	 63.735198 
965.000000	 63.720226 
964.000000	 63.708543 
963.000000	 63.700199 
962.000000	 63.693881 
961.000000	 63.687109 
960.000000	 63.677239 
959.000000	 63.662338 
958.000000	 63.641881 
957.000000	 63.616871 
956.000000	 63.589501 
955.000000	 63.562560 
954.000000	 63.538837 
953.000000	 63.520312 
952.000000	 63.508105 
951.000000	 63.502025 
950.000000	 63.500857 
949.000000	 63.502550 
948.000000	 63.505077 
947.000000	 63.506627 
946.000000	 63.506340 
945.000000	 63.504195 
944.000000	 63.501596 
943.000000	 63.500380 
942.000000	 63.503026 
941.000000	 63.511538 
940.000000	 63.527154 
939.000000	 63.550019 
938.000000	 63.579034 
937.000000	 63.612222 
936.000000	 63.647079 
935.000000	 63.681125 
934.000000	 63.712263 
933.000000	 63.738894 
932.000000	 63.760209 
931.000000	 63.776111 
930.000000	 63.786554 
929.000000	 63.791322 
928.000000	 63.790178 
927.000000	 63.782811 
926.000000	 63.769388 
925.000000	 63.750600 
924.000000	 63.728332 
923.000000	 63.705062 
922.000000	 63.683652 
921.000000	 63.666653 
920.000000	 63.655972 
919.000000	 63.652133 
918.000000	 63.654780 
917.000000	 63.662552 
916.000000	 63.673329 
915.000000	 63.685154 
914.000000	 63.696241 
913.000000	 63.705706 
912.000000	 63.713121 
911.000000	 63.719201 
910.000000	 63.725280 
909.000000	 63.733243 
908.000000	 63.744807 
907.000000	 63.761425 
906.000000	 63.783860 
905.000000	 63.811635 
904.000000	 63.843083 
903.000000	 63.875746 
902.000000	 63.906669 
901.000000	 63.932776 
900.000000	 63.951444 
899.000000	 63.961076 
898.000000	 63.961338 
897.000000	 63.953280 
896.000000	 63.938784 
895.000000	 63.920545 
894.000000	 63.901233 
893.000000	 63.883185 
892.000000	 63.867974 
891.000000	 63.856458 
890.000000	 63.848590 
889.000000	 63.844108 
888.000000	 63.842487 
887.000000	 63.843393 
886.000000	 63.846492 
885.000000	 63.851785 
884.000000	 63.858914 
883.000000	 63.867449 
882.000000	 63.876318 
881.000000	 63.884019 
880.000000	 63.888597 
879.000000	 63.888239 
878.000000	 63.881540 
877.000000	 63.867950 
876.000000	 63.847827 
875.000000	 63.822579 
874.000000	 63.794374 
873.000000	 63.765692 
872.000000	 63.738942 
871.000000	 63.716125 
870.000000	 63.698410 
869.000000	 63.686037 
868.000000	 63.678598 
867.000000	 63.675427 
866.000000	 63.675570 
865.000000	 63.678336 
864.000000	 63.683271 
863.000000	 63.690352 
862.000000	 63.699579 
861.000000	 63.711047 
860.000000	 63.724756 
859.000000	 63.740396 
858.000000	 63.757443 
857.000000	 63.774991 
856.000000	 63.791942 
855.000000	 63.807177 
854.000000	 63.819932 
853.000000	 63.829731 
852.000000	 63.836669 
851.000000	 63.841152 
850.000000	 63.843703 
849.000000	 63.844728 
848.000000	 63.844323 
847.000000	 63.842225 
846.000000	 63.837671 
845.000000	 63.830041 
844.000000	 63.818931 
843.000000	 63.804721 
842.000000	 63.788485 
841.000000	 63.771891 
840.000000	 63.756585 
839.000000	 63.744044 
838.000000	 63.734841 
837.000000	 63.728189 
836.000000	 63.722586 
835.000000	 63.715648 
834.000000	 63.705539 
833.000000	 63.691592 
832.000000	 63.674998 
831.000000	 63.658499 
830.000000	 63.645792 
829.000000	 63.640713 
828.000000	 63.645625 
827.000000	 63.660717 
826.000000	 63.683652 
825.000000	 63.709902 
824.000000	 63.733816 
823.000000	 63.749909 
822.000000	 63.754224 
821.000000	 63.745379 
820.000000	 63.724780 
819.000000	 63.696265 
818.000000	 63.664984 
817.000000	 63.636183 
816.000000	 63.614082 
815.000000	 63.600778 
814.000000	 63.596272 
813.000000	 63.598322 
812.000000	 63.603758 
811.000000	 63.608860 
810.000000	 63.609933 
809.000000	 63.604450 
808.000000	 63.591146 
807.000000	 63.570594 
806.000000	 63.544750 
805.000000	 63.516902 
804.000000	 63.490796 
803.000000	 63.470005 
802.000000	 63.456988 
801.000000	 63.452625 
800.000000	 63.456177 
799.000000	 63.465714 
798.000000	 63.478922 
797.000000	 63.493466 
796.000000	 63.507652 
795.000000	 63.520598 
794.000000	 63.532185 
793.000000	 63.542485 
792.000000	 63.551855 
791.000000	 63.560700 
790.000000	 63.569784 
789.000000	 63.579893 
788.000000	 63.592076 
787.000000	 63.607525 
786.000000	 63.627338 
785.000000	 63.652324 
784.000000	 63.682341 
783.000000	 63.716578 
782.000000	 63.753080 
781.000000	 63.789176 
780.000000	 63.821887 
779.000000	 63.848638 
778.000000	 63.867425 
777.000000	 63.877820 
776.000000	 63.880109 
775.000000	 63.875532 
774.000000	 63.865375 
773.000000	 63.851261 
772.000000	 63.833999 
771.000000	 63.813924 
770.000000	 63.790893 
769.000000	 63.764739 
768.000000	 63.735628 
767.000000	 63.704323 
766.000000	 63.672304 
765.000000	 63.641524 
764.000000	 63.614153 
763.000000	 63.592123 
762.000000	 63.576412 
761.000000	 63.566684 
760.000000	 63.561105 
759.000000	 63.556909 
758.000000	 63.550400 
757.000000	 63.538694 
756.000000	 63.519334 
755.000000	 63.492465 
754.000000	 63.459706 
753.000000	 63.425469 
752.000000	 63.395571 
751.000000	 63.376688 
750.000000	 63.374376 
749.000000	 63.391947 
748.000000	 63.429689 
747.000000	 63.483929 
746.000000	 63.547682 
745.000000	 63.611912 
744.000000	 63.667392 
743.000000	 63.706278 
742.000000	 63.723540 
741.000000	 63.718056 
740.000000	 63.692450 
739.000000	 63.652491 
738.000000	 63.605475 
737.000000	 63.558840 
736.000000	 63.518691 
735.000000	 63.489389 
734.000000	 63.472914 
733.000000	 63.469481 
732.000000	 63.477706 
731.000000	 63.495779 
730.000000	 63.521289 
729.000000	 63.551545 
728.000000	 63.583660 
727.000000	 63.614320 
726.000000	 63.640427 
725.000000	 63.659310 
724.000000	 63.669228 
723.000000	 63.669490 
722.000000	 63.660168 
721.000000	 63.642311 
720.000000	 63.616800 
719.000000	 63.584637 
718.000000	 63.545870 
717.000000	 63.500070 
716.000000	 63.446664 
715.000000	 63.385772 
714.000000	 63.318848 
713.000000	 63.249254 
712.000000	 63.182020 
711.000000	 63.123035 
710.000000	 63.077521 
709.000000	 63.048982 
708.000000	 63.038206 
707.000000	 63.043355 
706.000000	 63.060021 
705.000000	 63.082480 
704.000000	 63.105106 
703.000000	 63.123297 
702.000000	 63.133811 
701.000000	 63.135337 
700.000000	 63.127350 
699.000000	 63.110661 
698.000000	 63.086771 
697.000000	 63.058018 
696.000000	 63.026928 
695.000000	 62.996625 
694.000000	 62.970471 
693.000000	 62.951612 
692.000000	 62.942886 
691.000000	 62.945508 
690.000000	 62.958693 
689.000000	 62.980508 
688.000000	 63.008427 
687.000000	 63.040089 
686.000000	 63.074421 
685.000000	 63.112711 
684.000000	 63.158130 
683.000000	 63.214230 
682.000000	 63.283252 
681.000000	 63.365292 
680.000000	 63.456392 
679.000000	 63.548874 
678.000000	 63.631606 
677.000000	 63.693499 
676.000000	 63.724684 
675.000000	 63.719248 
674.000000	 63.676190 
673.000000	 63.600015 
672.000000	 63.499903 
671.000000	 63.388037 
670.000000	 63.277983 
669.000000	 63.181519 
668.000000	 63.108491 
667.000000	 63.065457 
666.000000	 63.056182 
665.000000	 63.081383 
664.000000	 63.139629 
663.000000	 63.227462 
662.000000	 63.339376 
661.000000	 63.468050 
660.000000	 63.605260 
659.000000	 63.742828 
658.000000	 63.872265 
657.000000	 63.986015 
656.000000	 64.079570 
655.000000	 64.151406 
654.000000	 64.203095 
653.000000	 64.237904 
652.000000	 64.260888 
651.000000	 64.275765 
650.000000	 64.286184 
649.000000	 64.292073 
648.000000	 64.291477 
647.000000	 64.279580 
646.000000	 64.251160 
645.000000	 64.202189 
644.000000	 64.132618 
643.000000	 64.046525 
642.000000	 63.951802 
641.000000	 63.859438 
640.000000	 63.781356 
639.000000	 63.727474 
638.000000	 63.703799 
637.000000	 63.709568 
636.000000	 63.737392 
635.000000	 63.773655 
634.000000	 63.801431 
633.000000	 63.801693 
632.000000	 63.757705 
631.000000	 63.658118 
630.000000	 63.501238 
629.000000	 63.296079 
628.000000	 63.063406 
627.000000	 62.831807 
626.000000	 62.633514 
625.000000	 62.499213 
624.000000	 62.449932 
623.000000	 62.493443 
622.000000	 62.619543 
621.000000	 62.803030 
620.000000	 63.006472 
619.000000	 63.187766 
618.000000	 63.308906 
617.000000	 63.342785 
616.000000	 63.280296 
615.000000	 63.129949 
614.000000	 62.917208 
613.000000	 62.676668 
612.000000	 62.446808 
611.000000	 62.261366 
610.000000	 62.145280 
609.000000	 62.111115 
608.000000	 62.159419 
607.000000	 62.280702 
606.000000	 62.458252 
605.000000	 62.672162 
604.000000	 62.901043 
603.000000	 63.125419 
602.000000	 63.328838 
601.000000	 63.499498 
600.000000	 63.629412 
599.000000	 63.714742 
598.000000	 63.755989 
597.000000	 63.756418 
596.000000	 63.723301 
595.000000	 63.664507 
594.000000	 63.588500 
593.000000	 63.502573 
592.000000	 63.415050 
591.000000	 63.333082 
590.000000	 63.263797 
589.000000	 63.213419 
588.000000	 63.188242 
587.000000	 63.191699 
586.000000	 63.224101 
585.000000	 63.280510 
584.000000	 63.351154 
583.000000	 63.421821 
582.000000	 63.476300 
581.000000	 63.499832 
580.000000	 63.482260 
579.000000	 63.419580 
578.000000	 63.314461 
577.000000	 63.176035 
576.000000	 63.016986 
575.000000	 62.850427 
574.000000	 62.687301 
573.000000	 62.533092 
572.000000	 62.389397 
571.000000	 62.256407 
570.000000	 62.135720 
569.000000	 62.029767 
568.000000	 61.945605 
567.000000	 61.892843 
566.000000	 61.883544 
565.000000	 61.925721 
564.000000	 62.024259 
563.000000	 62.176346 
562.000000	 62.372779 
561.000000	 62.598180 
560.000000	 62.832832 
559.000000	 63.054728 
558.000000	 63.244104 
557.000000	 63.386631 
556.000000	 63.474678 
555.000000	 63.507390 
554.000000	 63.492035 
553.000000	 63.441824 
552.000000	 63.373088 
551.000000	 63.301038 
550.000000	 63.238263 
549.000000	 63.191008 
548.000000	 63.158774 
547.000000	 63.133668 
546.000000	 63.103795 
545.000000	 63.055777 
544.000000	 62.978196 
543.000000	 62.865304 
542.000000	 62.718868 
541.000000	 62.549161 
540.000000	 62.371397 
539.000000	 62.205004 
538.000000	 62.067389 
537.000000	 61.973953 
536.000000	 61.933016 
535.000000	 61.948466 
534.000000	 62.016916 
533.000000	 62.133622 
532.000000	 62.292575 
531.000000	 62.488651 
530.000000	 62.715888 
529.000000	 62.968087 
528.000000	 63.236618 
527.000000	 63.508820 
526.000000	 63.767170 
525.000000	 63.992118 
524.000000	 64.164400 
523.000000	 64.269495 
522.000000	 64.299821 
521.000000	 64.257168 
520.000000	 64.151883 
519.000000	 64.002847 
518.000000	 63.832473 
517.000000	 63.663554 
516.000000	 63.514041 
515.000000	 63.396692 
514.000000	 63.316059 
513.000000	 63.271260 
512.000000	 63.255405 
511.000000	 63.259673 
510.000000	 63.273835 
509.000000	 63.287878 
508.000000	 63.294291 
507.000000	 63.287377 
506.000000	 63.265252 
505.000000	 63.227796 
504.000000	 63.178467 
503.000000	 63.122582 
502.000000	 63.066911 
501.000000	 63.017868 
500.000000	 62.980294 
499.000000	 62.956476 
498.000000	 62.946867 
497.000000	 62.950563 
496.000000	 62.965226 
495.000000	 62.987780 
494.000000	 63.016676 
493.000000	 63.050746 
492.000000	 63.088393 
491.000000	 63.126230 
490.000000	 63.158774 
489.000000	 63.178586 
488.000000	 63.176107 
487.000000	 63.143444 
486.000000	 63.076186 
485.000000	 62.976884 
484.000000	 62.855744 
483.000000	 62.730193 
482.000000	 62.620759 
481.000000	 62.548255 
480.000000	 62.528467 
479.000000	 62.569785 
478.000000	 62.670946 
477.000000	 62.821698 
476.000000	 63.004922 
475.000000	 63.198995 
474.000000	 63.381814 
473.000000	 63.534283 
472.000000	 63.642978 
471.000000	 63.701295 
470.000000	 63.709163 
469.000000	 63.673162 
468.000000	 63.603377 
467.000000	 63.510632 
466.000000	 63.403630 
465.000000	 63.289737 
464.000000	 63.172769 
463.000000	 63.054490 
462.000000	 62.934637 
461.000000	 62.814021 
460.000000	 62.694692 
459.000000	 62.579989 
458.000000	 62.475275 
457.000000	 62.386727 
456.000000	 62.320661 
455.000000	 62.280082 
454.000000	 62.266230 
453.000000	 62.276792 
452.000000	 62.308096 
451.000000	 62.355279 
450.000000	 62.413311 
449.000000	 62.476348 
448.000000	 62.540674 
447.000000	 62.604737 
446.000000	 62.667489 
445.000000	 62.727570 
444.000000	 62.786102 
443.000000	 62.845993 
442.000000	 62.911653 
441.000000	 62.987613 
440.000000	 63.077449 
439.000000	 63.182401 
438.000000	 63.298845 
437.000000	 63.419890 
436.000000	 63.538312 
435.000000	 63.648653 
434.000000	 63.744616 
433.000000	 63.825821 
432.000000	 63.899993 
431.000000	 63.980031 
430.000000	 64.082527 
429.000000	 64.219141 
428.000000	 64.394426 
427.000000	 64.597511 
426.000000	 64.809036 
425.000000	 64.992594 
424.000000	 65.104675 
423.000000	 65.099000 
422.000000	 64.938378 
421.000000	 64.607191 
420.000000	 64.120316 
419.000000	 63.520121 
418.000000	 62.869834 
417.000000	 62.251496 
416.000000	 61.747860 
415.000000	 61.424517 
414.000000	 61.310315 
413.000000	 61.397790 
412.000000	 61.633515 
411.000000	 61.923170 
410.000000	 62.148427 
409.000000	 62.193250 
408.000000	 61.972069 
407.000000	 61.434626 
406.000000	 60.599517 
405.000000	 59.544110 
404.000000	 58.407115 
403.000000	 57.356047 
402.000000	 56.560134 
401.000000	 56.153202 
400.000000	 56.200408 
399.000000	 56.703829 
398.000000	 57.561302 
397.000000	 58.579874 
396.000000	 59.525156 
395.000000	 60.183119 
394.000000	 60.376071 
393.000000	 59.994888 
392.000000	 59.038805 
391.000000	 57.609105 
390.000000	 55.883312 
389.000000	 54.068326 
388.000000	 52.344512 
387.000000	 50.825667 
386.000000	 49.545669 
385.000000	 48.459291 
384.000000	 47.495937 
383.000000	 46.573901 
382.000000	 45.614957 
381.000000	 44.588184 
380.000000	 43.462967 
379.000000	 42.292118 
378.000000	 41.186332 
377.000000	 40.332984 
376.000000	 39.933204 
375.000000	 40.193533 
374.000000	 41.178488 
373.000000	 42.941808 
372.000000	 45.413541 
371.000000	 48.619508 
370.000000	 52.692508 

