PE IR       SPECTRUM    SPECTRUM    ASCII       PEDS        1.60        
  -1
BZ68A1~1.ASC
17/04/07
14:02:02.00
17/04/07
14:02:02.00
tln
$BZ1503107-1_t0010$<tbV0>[-10.4,-13.0,8.0,0.0,27,1,0]
370.000000
64









2002,4.07    
MIRTGS : RIGHTBACK : INTERNAL 2
MIR : ON : INTERNAL 2
OPTKBR

0.200000
8
8.000000
FILLER
RATIO
SPECTRUM
UNLOCKED 256

DOUBLE
64
COMBINED
1
0
0


1.000000
RATIO


1
0
TRUE
51149
0
LEFT NOT FITTED RIGHT NOT FITTED 0
NONE
NONE
15600
12.000000
4.427000
51148
TRUE
1 0 8 72 0 0 0 0 

15798.010000






#HDR
-1
-1
#GR
CM-1
%T
0.00002384185791015625
0.0
5000.000000
-1.000000
4631
8
78.621315
50.928759
#DATA
5000.000000	65.618085 
4999.000000	65.569329 
4998.000000	65.508961 
4997.000000	65.442299 
4996.000000	65.372943 
4995.000000	65.302467 
4994.000000	65.229988 
4993.000000	65.154719 
4992.000000	65.073919 
4991.000000	64.984774 
4990.000000	64.884209 
4989.000000	64.771604 
4988.000000	64.645361 
4987.000000	64.504051 
4986.000000	64.344263 
4985.000000	64.161658 
4984.000000	63.953733 
4983.000000	63.722562 
4982.000000	63.476085 
4981.000000	63.229632 
4980.000000	63.005852 
4979.000000	62.832140 
4978.000000	62.733387 
4977.000000	62.728095 
4976.000000	62.822699 
4975.000000	63.011384 
4974.000000	63.271903 
4973.000000	63.575434 
4972.000000	63.890099 
4971.000000	64.192152 
4970.000000	64.467024 
4969.000000	64.714574 
4968.000000	64.944720 
4967.000000	65.173053 
4966.000000	65.414810 
4965.000000	65.675067 
4964.000000	65.946960 
4963.000000	66.207814 
4962.000000	66.427659 
4961.000000	66.570448 
4960.000000	66.605472 
4959.000000	66.513895 
4958.000000	66.296744 
4957.000000	65.973210 
4956.000000	65.578579 
4955.000000	65.158915 
4954.000000	64.761900 
4953.000000	64.427685 
4952.000000	64.180612 
4951.000000	64.027547 
4950.000000	63.956904 
4949.000000	63.942337 
4948.000000	63.951468 
4947.000000	63.951492 
4946.000000	63.921236 
4945.000000	63.852977 
4944.000000	63.757586 
4943.000000	63.656353 
4942.000000	63.578057 
4941.000000	63.548445 
4940.000000	63.583230 
4939.000000	63.681364 
4938.000000	63.826441 
4937.000000	63.991165 
4936.000000	64.144420 
4935.000000	64.259076 
4934.000000	64.320778 
4933.000000	64.331555 
4932.000000	64.308404 
4931.000000	64.277315 
4930.000000	64.265847 
4929.000000	64.294314 
4928.000000	64.370179 
4927.000000	64.485025 
4926.000000	64.617133 
4925.000000	64.736723 
4924.000000	64.816403 
4923.000000	64.837265 
4922.000000	64.791941 
4921.000000	64.687824 
4920.000000	64.544224 
4919.000000	64.389443 
4918.000000	64.252305 
4917.000000	64.158010 
4916.000000	64.123415 
4915.000000	64.154243 
4914.000000	64.246773 
4913.000000	64.386940 
4912.000000	64.555549 
4911.000000	64.729356 
4910.000000	64.885354 
4909.000000	65.003895 
4908.000000	65.070390 
4907.000000	65.078973 
4906.000000	65.032410 
4905.000000	64.942193 
4904.000000	64.825844 
4903.000000	64.703965 
4902.000000	64.596223 
4901.000000	64.517641 
4900.000000	64.475989 
4899.000000	64.471912 
4898.000000	64.499902 
4897.000000	64.551043 
4896.000000	64.615273 
4895.000000	64.683580 
4894.000000	64.749407 
4893.000000	64.808106 
4892.000000	64.857506 
4891.000000	64.896392 
4890.000000	64.924240 
4889.000000	64.940524 
4888.000000	64.944338 
4887.000000	64.934849 
4886.000000	64.911651 
4885.000000	64.876675 
4884.000000	64.833521 
4883.000000	64.787483 
4882.000000	64.744710 
4881.000000	64.710974 
4880.000000	64.691066 
4879.000000	64.687943 
4878.000000	64.702057 
4877.000000	64.731144 
4876.000000	64.770627 
4875.000000	64.814567 
4874.000000	64.856338 
4873.000000	64.890289 
4872.000000	64.912748 
4871.000000	64.923167 
4870.000000	64.923644 
4869.000000	64.918613 
4868.000000	64.913415 
4867.000000	64.913535 
4866.000000	64.922571 
4865.000000	64.942598 
4864.000000	64.974498 
4863.000000	65.017223 
4862.000000	65.068697 
4861.000000	65.125083 
4860.000000	65.181779 
4859.000000	65.233230 
4858.000000	65.273213 
4857.000000	65.296983 
4856.000000	65.301704 
4855.000000	65.288543 
4854.000000	65.262532 
4853.000000	65.232491 
4852.000000	65.209531 
4851.000000	65.203905 
4850.000000	65.222692 
4849.000000	65.266275 
4848.000000	65.327811 
4847.000000	65.394020 
4846.000000	65.448212 
4845.000000	65.474033 
4844.000000	65.459775 
4843.000000	65.401601 
4842.000000	65.304350 
4841.000000	65.180611 
4840.000000	65.047383 
4839.000000	64.921331 
4838.000000	64.815402 
4837.000000	64.736223 
4836.000000	64.684176 
4835.000000	64.655065 
4834.000000	64.642405 
4833.000000	64.639759 
4832.000000	64.642930 
4831.000000	64.650797 
4830.000000	64.664244 
4829.000000	64.683818 
4828.000000	64.708733 
4827.000000	64.734220 
4826.000000	64.754319 
4825.000000	64.762306 
4824.000000	64.754390 
4823.000000	64.730834 
4822.000000	64.698147 
4821.000000	64.667558 
4820.000000	64.652442 
4819.000000	64.664053 
4818.000000	64.706897 
4817.000000	64.776539 
4816.000000	64.859223 
4815.000000	64.935708 
4814.000000	64.985847 
4813.000000	64.995622 
4812.000000	64.960575 
4811.000000	64.889717 
4810.000000	64.803314 
4809.000000	64.729166 
4808.000000	64.695405 
4807.000000	64.723300 
4806.000000	64.821696 
4805.000000	64.983534 
4804.000000	65.189003 
4803.000000	65.407657 
4802.000000	65.606737 
4801.000000	65.756750 
4800.000000	65.838003 
4799.000000	65.843796 
4798.000000	65.780663 
4797.000000	65.665912 
4796.000000	65.522742 
4795.000000	65.376138 
4794.000000	65.247488 
4793.000000	65.152907 
4792.000000	65.100669 
4791.000000	65.091037 
4790.000000	65.116667 
4789.000000	65.165400 
4788.000000	65.222406 
4787.000000	65.272140 
4786.000000	65.301895 
4785.000000	65.301823 
4784.000000	65.268945 
4783.000000	65.206599 
4782.000000	65.124845 
4781.000000	65.037846 
4780.000000	64.960551 
4779.000000	64.906525 
4778.000000	64.882898 
4777.000000	64.890027 
4776.000000	64.919471 
4775.000000	64.956831 
4774.000000	64.984798 
4773.000000	64.987301 
4772.000000	64.954876 
4771.000000	64.887094 
4770.000000	64.793705 
4769.000000	64.691591 
4768.000000	64.603686 
4767.000000	64.553070 
4766.000000	64.557981 
4765.000000	64.626502 
4764.000000	64.754247 
4763.000000	64.924287 
4762.000000	65.111160 
4761.000000	65.285897 
4760.000000	65.421843 
4759.000000	65.500402 
4758.000000	65.514230 
4757.000000	65.468096 
4756.000000	65.376496 
4755.000000	65.259671 
4754.000000	65.138554 
4753.000000	65.030217 
4752.000000	64.946198 
4751.000000	64.890336 
4750.000000	64.861702 
4749.000000	64.854168 
4748.000000	64.860463 
4747.000000	64.872503 
4746.000000	64.884448 
4745.000000	64.890956 
4744.000000	64.886927 
4743.000000	64.868092 
4742.000000	64.830780 
4741.000000	64.774179 
4740.000000	64.700722 
4739.000000	64.617085 
4738.000000	64.533042 
4737.000000	64.459848 
4736.000000	64.407587 
4735.000000	64.382672 
4734.000000	64.385914 
4733.000000	64.412498 
4732.000000	64.452528 
4731.000000	64.493775 
4730.000000	64.523935 
4729.000000	64.533591 
4728.000000	64.518046 
4727.000000	64.476490 
4726.000000	64.413547 
4725.000000	64.336252 
4724.000000	64.255309 
4723.000000	64.181756 
4722.000000	64.127516 
4721.000000	64.102935 
4720.000000	64.116096 
4719.000000	64.172649 
4718.000000	64.271807 
4717.000000	64.405822 
4716.000000	64.559745 
4715.000000	64.713358 
4714.000000	64.844536 
4713.000000	64.933633 
4712.000000	64.967989 
4711.000000	64.944887 
4710.000000	64.872121 
4709.000000	64.766144 
4708.000000	64.648771 
4707.000000	64.541816 
4706.000000	64.462780 
4705.000000	64.420866 
4704.000000	64.416837 
4703.000000	64.443206 
4702.000000	64.487385 
4701.000000	64.535856 
4700.000000	64.577102 
4699.000000	64.605784 
4698.000000	64.622497 
4697.000000	64.634704 
4696.000000	64.651870 
4695.000000	64.684605 
4694.000000	64.740276 
4693.000000	64.821743 
4692.000000	64.926528 
4691.000000	65.046596 
4690.000000	65.170478 
4689.000000	65.285062 
4688.000000	65.378999 
4687.000000	65.444040 
4686.000000	65.476775 
4685.000000	65.478396 
4684.000000	65.453767 
4683.000000	65.410542 
4682.000000	65.356826 
4681.000000	65.300154 
4680.000000	65.245556 
4679.000000	65.196394 
4678.000000	65.153121 
4677.000000	65.115118 
4676.000000	65.080285 
4675.000000	65.045619 
4674.000000	65.008425 
4673.000000	64.966392 
4672.000000	64.919328 
4671.000000	64.868640 
4670.000000	64.818501 
4669.000000	64.773917 
4668.000000	64.741444 
4667.000000	64.727425 
4666.000000	64.736461 
4665.000000	64.769577 
4664.000000	64.823889 
4663.000000	64.892721 
4662.000000	64.966416 
4661.000000	65.034198 
4660.000000	65.086627 
4659.000000	65.117573 
4658.000000	65.125203 
4657.000000	65.111970 
4656.000000	65.084218 
4655.000000	65.050172 
4654.000000	65.017676 
4653.000000	64.992356 
4652.000000	64.977002 
4651.000000	64.971137 
4650.000000	64.972496 
4649.000000	64.977407 
4648.000000	64.982604 
4647.000000	64.985346 
4646.000000	64.984774 
4645.000000	64.980864 
4644.000000	64.973902 
4643.000000	64.964032 
4642.000000	64.950680 
4641.000000	64.933061 
4640.000000	64.910054 
4639.000000	64.881610 
4638.000000	64.849138 
4637.000000	64.815521 
4636.000000	64.785027 
4635.000000	64.762210 
4634.000000	64.750885 
4633.000000	64.752912 
4632.000000	64.767551 
4631.000000	64.791226 
4630.000000	64.818310 
4629.000000	64.842748 
4628.000000	64.859366 
4627.000000	64.865064 
4626.000000	64.859342 
4625.000000	64.844346 
4624.000000	64.824032 
4623.000000	64.803457 
4622.000000	64.787006 
4621.000000	64.777302 
4620.000000	64.774656 
4619.000000	64.777779 
4618.000000	64.783811 
4617.000000	64.789557 
4616.000000	64.792108 
4615.000000	64.789700 
4614.000000	64.782261 
4613.000000	64.770603 
4612.000000	64.756870 
4611.000000	64.743304 
4610.000000	64.732336 
4609.000000	64.725780 
4608.000000	64.724564 
4607.000000	64.728689 
4606.000000	64.736676 
4605.000000	64.746046 
4604.000000	64.753365 
4603.000000	64.755415 
4602.000000	64.749908 
4601.000000	64.736723 
4600.000000	64.718151 
4599.000000	64.698910 
4598.000000	64.685273 
4597.000000	64.683771 
4596.000000	64.699435 
4595.000000	64.734721 
4594.000000	64.788651 
4593.000000	64.856648 
4592.000000	64.931726 
4591.000000	65.005326 
4590.000000	65.069508 
4589.000000	65.118002 
4588.000000	65.147590 
4587.000000	65.158057 
4586.000000	65.152072 
4585.000000	65.133857 
4584.000000	65.108203 
4583.000000	65.078949 
4582.000000	65.048670 
4581.000000	65.018010 
4580.000000	64.986515 
4579.000000	64.953041 
4578.000000	64.916729 
4577.000000	64.877605 
4576.000000	64.837193 
4575.000000	64.798021 
4574.000000	64.763593 
4573.000000	64.737153 
4572.000000	64.721322 
4571.000000	64.717197 
4570.000000	64.723992 
4569.000000	64.739298 
4568.000000	64.759302 
4567.000000	64.779806 
4566.000000	64.796924 
4565.000000	64.807486 
4564.000000	64.809632 
4563.000000	64.802956 
4562.000000	64.788389 
4561.000000	64.767289 
4560.000000	64.741587 
4559.000000	64.713788 
4558.000000	64.685940 
4557.000000	64.659786 
4556.000000	64.635872 
4555.000000	64.614033 
4554.000000	64.593267 
4553.000000	64.572381 
4552.000000	64.551281 
4551.000000	64.531135 
4550.000000	64.515042 
4549.000000	64.507150 
4548.000000	64.511299 
4547.000000	64.529895 
4546.000000	64.562726 
4545.000000	64.606451 
4544.000000	64.655399 
4543.000000	64.702200 
4542.000000	64.740180 
4541.000000	64.763808 
4540.000000	64.769124 
4539.000000	64.754652 
4538.000000	64.721059 
4537.000000	64.671421 
4536.000000	64.610624 
4535.000000	64.544892 
4534.000000	64.481091 
4533.000000	64.425230 
4532.000000	64.381504 
4531.000000	64.351892 
4530.000000	64.336228 
4529.000000	64.332103 
4528.000000	64.335441 
4527.000000	64.342141 
4526.000000	64.349365 
4525.000000	64.354753 
4524.000000	64.356255 
4523.000000	64.353919 
4522.000000	64.349484 
4521.000000	64.343953 
4520.000000	64.337801 
4519.000000	64.331603 
4518.000000	64.326930 
4517.000000	64.326047 
4516.000000	64.331984 
4515.000000	64.350008 
4514.000000	64.384436 
4513.000000	64.434576 
4512.000000	64.496374 
4511.000000	64.561581 
4510.000000	64.621663 
4509.000000	64.670300 
4508.000000	64.705038 
4507.000000	64.727258 
4506.000000	64.742374 
4505.000000	64.757895 
4504.000000	64.781594 
4503.000000	64.816260 
4502.000000	64.865970 
4501.000000	64.935636 
4500.000000	65.033388 
4499.000000	65.168547 
4498.000000	65.354108 
4497.000000	65.602874 
4496.000000	65.919113 
4495.000000	66.295266 
4494.000000	66.709899 
4493.000000	67.132282 
4492.000000	67.524838 
4491.000000	67.855620 
4490.000000	68.111181 
4489.000000	68.298721 
4488.000000	68.448138 
4487.000000	68.596673 
4486.000000	68.783569 
4485.000000	69.026279 
4484.000000	69.314765 
4483.000000	69.605588 
4482.000000	69.840455 
4481.000000	69.951057 
4480.000000	69.881153 
4479.000000	69.600319 
4478.000000	69.122624 
4477.000000	68.493962 
4476.000000	67.787671 
4475.000000	67.076468 
4474.000000	66.413974 
4473.000000	65.829777 
4472.000000	65.330648 
4471.000000	64.895319 
4470.000000	64.486503 
4469.000000	64.073896 
4468.000000	63.645362 
4467.000000	63.207507 
4466.000000	62.783670 
4465.000000	62.398457 
4464.000000	62.070369 
4463.000000	61.804628 
4462.000000	61.589050 
4461.000000	61.398315 
4460.000000	61.193633 
4459.000000	60.945034 
4458.000000	60.617184 
4457.000000	60.186171 
4456.000000	59.623312 
4455.000000	58.891677 
4454.000000	57.965517 
4453.000000	56.816840 
4452.000000	55.476856 
4451.000000	54.023265 
4450.000000	52.625536 
4449.000000	51.504850 
4448.000000	50.928759 
4447.000000	51.144242 
4446.000000	52.323865 
4445.000000	54.506349 
4444.000000	57.564496 
4443.000000	61.207866 
4442.000000	65.025734 
4441.000000	68.560194 
4440.000000	71.388769 
4439.000000	73.205614 
4438.000000	73.880529 
4437.000000	73.472905 
4436.000000	72.204136 
4435.000000	70.397424 
4434.000000	68.416619 
4433.000000	66.578269 
4432.000000	65.117025 
4431.000000	64.135909 
4430.000000	63.649559 
4429.000000	63.572430 
4428.000000	63.783073 
4427.000000	64.142870 
4426.000000	64.534974 
4425.000000	64.882683 
4424.000000	65.140509 
4423.000000	65.304994 
4422.000000	65.381622 
4421.000000	65.394592 
4420.000000	65.364003 
4419.000000	65.312480 
4418.000000	65.259146 
4417.000000	65.218234 
4416.000000	65.199160 
4415.000000	65.202569 
4414.000000	65.222096 
4413.000000	65.249896 
4412.000000	65.279364 
4411.000000	65.299654 
4410.000000	65.301132 
4409.000000	65.287160 
4408.000000	65.268921 
4407.000000	65.253591 
4406.000000	65.246605 
4405.000000	65.251183 
4404.000000	65.266299 
4403.000000	65.290999 
4402.000000	65.320897 
4401.000000	65.345144 
4400.000000	65.353727 
4399.000000	65.344429 
4398.000000	65.318226 
4397.000000	65.278363 
4396.000000	65.229606 
4395.000000	65.175795 
4394.000000	65.120220 
4393.000000	65.065503 
4392.000000	65.013170 
4391.000000	64.964056 
4390.000000	64.919710 
4389.000000	64.882802 
4388.000000	64.856624 
4387.000000	64.844584 
4386.000000	64.849209 
4385.000000	64.871525 
4384.000000	64.910030 
4383.000000	64.960813 
4382.000000	65.018296 
4381.000000	65.076017 
4380.000000	65.127563 
4379.000000	65.167760 
4378.000000	65.193676 
4377.000000	65.204811 
4376.000000	65.202522 
4375.000000	65.189576 
4374.000000	65.169072 
4373.000000	65.144276 
4372.000000	65.118193 
4371.000000	65.093946 
4370.000000	65.074682 
4369.000000	65.063786 
4368.000000	65.064668 
4367.000000	65.079641 
4366.000000	65.109419 
4365.000000	65.152573 
4364.000000	65.205383 
4363.000000	65.261793 
4362.000000	65.314221 
4361.000000	65.355372 
4360.000000	65.379309 
4359.000000	65.382289 
4358.000000	65.363287 
4357.000000	65.323877 
4356.000000	65.267872 
4355.000000	65.200185 
4354.000000	65.126252 
4353.000000	65.051174 
4352.000000	64.979505 
4351.000000	64.916110 
4350.000000	64.865159 
4349.000000	64.830231 
4348.000000	64.813423 
4347.000000	64.814996 
4346.000000	64.833211 
4345.000000	64.863300 
4344.000000	64.899873 
4343.000000	64.936661 
4342.000000	64.969491 
4341.000000	64.996314 
4340.000000	65.018177 
4339.000000	65.038204 
4338.000000	65.060734 
4337.000000	65.089559 
4336.000000	65.126585 
4335.000000	65.170979 
4334.000000	65.219092 
4333.000000	65.265274 
4332.000000	65.303421 
4331.000000	65.327858 
4330.000000	65.335059 
4329.000000	65.323424 
4328.000000	65.293478 
4327.000000	65.247058 
4326.000000	65.186524 
4325.000000	65.114617 
4324.000000	65.034055 
4323.000000	64.948248 
4322.000000	64.861869 
4321.000000	64.780759 
4320.000000	64.711523 
4319.000000	64.661073 
4318.000000	64.635300 
4317.000000	64.637851 
4316.000000	64.668941 
4315.000000	64.725160 
4314.000000	64.799332 
4313.000000	64.881920 
4312.000000	64.962506 
4311.000000	65.031504 
4310.000000	65.081596 
4309.000000	65.108776 
4308.000000	65.112781 
4307.000000	65.096545 
4306.000000	65.065193 
4305.000000	65.025186 
4304.000000	64.982461 
4303.000000	64.942359 
4302.000000	64.908409 
4301.000000	64.882469 
4300.000000	64.864683 
4299.000000	64.853954 
4298.000000	64.848542 
4297.000000	64.846706 
4296.000000	64.847159 
4295.000000	64.848947 
4294.000000	64.851808 
4293.000000	64.855480 
4292.000000	64.860105 
4291.000000	64.865517 
4290.000000	64.871644 
4289.000000	64.878225 
4288.000000	64.885330 
4287.000000	64.893221 
4286.000000	64.902544 
4285.000000	64.914250 
4284.000000	64.929246 
4283.000000	64.948272 
4282.000000	64.971613 
4281.000000	64.998626 
4280.000000	65.028023 
4279.000000	65.057921 
4278.000000	65.086102 
4277.000000	65.110111 
4276.000000	65.128159 
4275.000000	65.138554 
4274.000000	65.140080 
4273.000000	65.131616 
4272.000000	65.112805 
4271.000000	65.083599 
4270.000000	65.044760 
4269.000000	64.997434 
4268.000000	64.943981 
4267.000000	64.886879 
4266.000000	64.829134 
4265.000000	64.773035 
4264.000000	64.720487 
4263.000000	64.672183 
4262.000000	64.627671 
4261.000000	64.586424 
4260.000000	64.547729 
4259.000000	64.512491 
4258.000000	64.482879 
4257.000000	64.463019 
4256.000000	64.457726 
4255.000000	64.471983 
4254.000000	64.509129 
4253.000000	64.569592 
4252.000000	64.649963 
4251.000000	64.743471 
4250.000000	64.840793 
4249.000000	64.931797 
4248.000000	65.007114 
4247.000000	65.060234 
4246.000000	65.088176 
4245.000000	65.091729 
4244.000000	65.074682 
4243.000000	65.042996 
4242.000000	65.003204 
4241.000000	64.961528 
4240.000000	64.922904 
4239.000000	64.890909 
4238.000000	64.867901 
4237.000000	64.856123 
4236.000000	64.857029 
4235.000000	64.871740 
4234.000000	64.900207 
4233.000000	64.941310 
4232.000000	64.991664 
4231.000000	65.045738 
4230.000000	65.096521 
4229.000000	65.136551 
4228.000000	65.159821 
4227.000000	65.162944 
4226.000000	65.146279 
4225.000000	65.113759 
4224.000000	65.072107 
4223.000000	65.028977 
4222.000000	64.991021 
4221.000000	64.961910 
4220.000000	64.941883 
4219.000000	64.927935 
4218.000000	64.914751 
4217.000000	64.897203 
4216.000000	64.872717 
4215.000000	64.842510 
4214.000000	64.811062 
4213.000000	64.785647 
4212.000000	64.773845 
4211.000000	64.781832 
4210.000000	64.811754 
4209.000000	64.861607 
4208.000000	64.925074 
4207.000000	64.993333 
4206.000000	65.057468 
4205.000000	65.109848 
4204.000000	65.145683 
4203.000000	65.163111 
4202.000000	65.163254 
4201.000000	65.148758 
4200.000000	65.122985 
4199.000000	65.088844 
4198.000000	65.048480 
4197.000000	65.004086 
4196.000000	64.957952 
4195.000000	64.913129 
4194.000000	64.872789 
4193.000000	64.839816 
4192.000000	64.815831 
4191.000000	64.800405 
4190.000000	64.791250 
4189.000000	64.783859 
4188.000000	64.773511 
4187.000000	64.756131 
4186.000000	64.730429 
4185.000000	64.697790 
4184.000000	64.663386 
4183.000000	64.634227 
4182.000000	64.618587 
4181.000000	64.623308 
4180.000000	64.652895 
4179.000000	64.707660 
4178.000000	64.783668 
4177.000000	64.873242 
4176.000000	64.966058 
4175.000000	65.051198 
4174.000000	65.118241 
4173.000000	65.159082 
4172.000000	65.169024 
4171.000000	65.147542 
4170.000000	65.098190 
4169.000000	65.027952 
4168.000000	64.946746 
4167.000000	64.865374 
4166.000000	64.794039 
4165.000000	64.740419 
4164.000000	64.709019 
4163.000000	64.700341 
4162.000000	64.711475 
4161.000000	64.737129 
4160.000000	64.770674 
4159.000000	64.805960 
4158.000000	64.838075 
4157.000000	64.864373 
4156.000000	64.883780 
4155.000000	64.897131 
4154.000000	64.905619 
4153.000000	64.910936 
4152.000000	64.914155 
4151.000000	64.916729 
4150.000000	64.920186 
4149.000000	64.926862 
4148.000000	64.939570 
4147.000000	64.961338 
4146.000000	64.994478 
4145.000000	65.039563 
4144.000000	65.094923 
4143.000000	65.156364 
4142.000000	65.217614 
4141.000000	65.271449 
4140.000000	65.310740 
4139.000000	65.329718 
4138.000000	65.324997 
4137.000000	65.296649 
4136.000000	65.247750 
4135.000000	65.183591 
4134.000000	65.111207 
4133.000000	65.038323 
4132.000000	64.972329 
4131.000000	64.919710 
4130.000000	64.884853 
4129.000000	64.870071 
4128.000000	64.874792 
4127.000000	64.896011 
4126.000000	64.928674 
4125.000000	64.965653 
4124.000000	65.000247 
4123.000000	65.026807 
4122.000000	65.042519 
4121.000000	65.047383 
4120.000000	65.044784 
4119.000000	65.040183 
4118.000000	65.040063 
4117.000000	65.050029 
4116.000000	65.073800 
4115.000000	65.112400 
4114.000000	65.163874 
4113.000000	65.223789 
4112.000000	65.286803 
4111.000000	65.347266 
4110.000000	65.400791 
4109.000000	65.444040 
4108.000000	65.475559 
4107.000000	65.494728 
4106.000000	65.501809 
4105.000000	65.497064 
4104.000000	65.480804 
4103.000000	65.453219 
4102.000000	65.415668 
4101.000000	65.370059 
4100.000000	65.319347 
4099.000000	65.267276 
4098.000000	65.218448 
4097.000000	65.177249 
4096.000000	65.147352 
4095.000000	65.130734 
4094.000000	65.127348 
4093.000000	65.134978 
4092.000000	65.149760 
4091.000000	65.166854 
4090.000000	65.181183 
4089.000000	65.188813 
4088.000000	65.187430 
4087.000000	65.176749 
4086.000000	65.158438 
4085.000000	65.135288 
4084.000000	65.110874 
4083.000000	65.088224 
4082.000000	65.069866 
4081.000000	65.057611 
4080.000000	65.052533 
4079.000000	65.054869 
4078.000000	65.064406 
4077.000000	65.080881 
4076.000000	65.103721 
4075.000000	65.131783 
4074.000000	65.163516 
4073.000000	65.196776 
4072.000000	65.228986 
4071.000000	65.257525 
4070.000000	65.280032 
4069.000000	65.294647 
4068.000000	65.300726 
4067.000000	65.299034 
4066.000000	65.291690 
4065.000000	65.281724 
4064.000000	65.272617 
4063.000000	65.267562 
4062.000000	65.268754 
4061.000000	65.276622 
4060.000000	65.290117 
4059.000000	65.306377 
4058.000000	65.321683 
4057.000000	65.331912 
4056.000000	65.333747 
4055.000000	65.325045 
4054.000000	65.305542 
4053.000000	65.276861 
4052.000000	65.241956 
4051.000000	65.204668 
4050.000000	65.168619 
4049.000000	65.136909 
4048.000000	65.111255 
4047.000000	65.092277 
4046.000000	65.079617 
4045.000000	65.072345 
4044.000000	65.069341 
4043.000000	65.069532 
4042.000000	65.072059 
4041.000000	65.076255 
4040.000000	65.081048 
4039.000000	65.085315 
4038.000000	65.087771 
4037.000000	65.087199 
4036.000000	65.082454 
4035.000000	65.073275 
4034.000000	65.060162 
4033.000000	65.044689 
4032.000000	65.028977 
4031.000000	65.015363 
4030.000000	65.005850 
4029.000000	65.001487 
4028.000000	65.002274 
4027.000000	65.007328 
4026.000000	65.014910 
4025.000000	65.023088 
4024.000000	65.029883 
4023.000000	65.033721 
4022.000000	65.033721 
4021.000000	65.029716 
4020.000000	65.022110 
4019.000000	65.011692 
4018.000000	64.999437 
4017.000000	64.986586 
4016.000000	64.973974 
4015.000000	64.962077 
4014.000000	64.950942 
4013.000000	64.940524 
4012.000000	64.930582 
4011.000000	64.920949 
4010.000000	64.911794 
4009.000000	64.903640 
4008.000000	64.897465 
4007.000000	64.894366 
4006.000000	64.895272 
4005.000000	64.900517 
4004.000000	64.909100 
4003.000000	64.918899 
4002.000000	64.927077 
4001.000000	64.930701 
4000.000000	64.927220 
3999.000000	64.915800 
3998.000000	64.897441 
3997.000000	64.875125 
3996.000000	64.852976 
3995.000000	64.835381 
3994.000000	64.826011 
3993.000000	64.826989 
3992.000000	64.838457 
3991.000000	64.858818 
3990.000000	64.885091 
3989.000000	64.913916 
3988.000000	64.942383 
3987.000000	64.968252 
3986.000000	64.990377 
3985.000000	65.008091 
3984.000000	65.021204 
3983.000000	65.029335 
3982.000000	65.032029 
3981.000000	65.029311 
3980.000000	65.021967 
3979.000000	65.012168 
3978.000000	65.003180 
3977.000000	64.999175 
3976.000000	65.004086 
3975.000000	65.020966 
3974.000000	65.050578 
3973.000000	65.091061 
3972.000000	65.137887 
3971.000000	65.185070 
3970.000000	65.226364 
3969.000000	65.256714 
3968.000000	65.273118 
3967.000000	65.275621 
3966.000000	65.266680 
3965.000000	65.250492 
3964.000000	65.231585 
3963.000000	65.213799 
3962.000000	65.198969 
3961.000000	65.187191 
3960.000000	65.176773 
3959.000000	65.165162 
3958.000000	65.149879 
3957.000000	65.129876 
3956.000000	65.105175 
3955.000000	65.077328 
3954.000000	65.049242 
3953.000000	65.024733 
3952.000000	65.007400 
3951.000000	65.000462 
3950.000000	65.006208 
3949.000000	65.025782 
3948.000000	65.059065 
3947.000000	65.104627 
3946.000000	65.159463 
3945.000000	65.219521 
3944.000000	65.279650 
3943.000000	65.334320 
3942.000000	65.378379 
3941.000000	65.407609 
3940.000000	65.419578 
3939.000000	65.413808 
3938.000000	65.392565 
3937.000000	65.359258 
3936.000000	65.318632 
3935.000000	65.274763 
3934.000000	65.230989 
3933.000000	65.188932 
3932.000000	65.148735 
3931.000000	65.109443 
3930.000000	65.070009 
3929.000000	65.030169 
3928.000000	64.991092 
3927.000000	64.955353 
3926.000000	64.926791 
3925.000000	64.909148 
3924.000000	64.905643 
3923.000000	64.917612 
3922.000000	64.944505 
3921.000000	64.983630 
3920.000000	65.030765 
3919.000000	65.080785 
3918.000000	65.128612 
3917.000000	65.170168 
3916.000000	65.202617 
3915.000000	65.224599 
3914.000000	65.235948 
3913.000000	65.237355 
3912.000000	65.229821 
3911.000000	65.214610 
3910.000000	65.192770 
3909.000000	65.165448 
3908.000000	65.133690 
3907.000000	65.098881 
3906.000000	65.062737 
3905.000000	65.027499 
3904.000000	64.995741 
3903.000000	64.969754 
3902.000000	64.951682 
3901.000000	64.942884 
3900.000000	64.943575 
3899.000000	64.952850 
3898.000000	64.968681 
3897.000000	64.988636 
3896.000000	65.010190 
3895.000000	65.031576 
3894.000000	65.051794 
3893.000000	65.071058 
3892.000000	65.090298 
3891.000000	65.110826 
3890.000000	65.133571 
3889.000000	65.158271 
3888.000000	65.183711 
3887.000000	65.207004 
3886.000000	65.224981 
3885.000000	65.234375 
3884.000000	65.233135 
3883.000000	65.220952 
3882.000000	65.199685 
3881.000000	65.172696 
3880.000000	65.144109 
3879.000000	65.118002 
3878.000000	65.097451 
3877.000000	65.083909 
3876.000000	65.077114 
3875.000000	65.075445 
3874.000000	65.076541 
3873.000000	65.077877 
3872.000000	65.077328 
3871.000000	65.073418 
3870.000000	65.065646 
3869.000000	65.054059 
3868.000000	65.039491 
3867.000000	65.022826 
3866.000000	65.005564 
3865.000000	64.989471 
3864.000000	64.976549 
3863.000000	64.969038 
3862.000000	64.968943 
3861.000000	64.977741 
3860.000000	64.996218 
3859.000000	65.023803 
3858.000000	65.059089 
3857.000000	65.099740 
3856.000000	65.143108 
3855.000000	65.186452 
3854.000000	65.227317 
3853.000000	65.263843 
3852.000000	65.294742 
3851.000000	65.319108 
3850.000000	65.336275 
3849.000000	65.345692 
3848.000000	65.347146 
3847.000000	65.340948 
3846.000000	65.328192 
3845.000000	65.310811 
3844.000000	65.291595 
3843.000000	65.273737 
3842.000000	65.260362 
3841.000000	65.253853 
3840.000000	65.255117 
3839.000000	65.264177 
3838.000000	65.280032 
3837.000000	65.301227 
3836.000000	65.326404 
3835.000000	65.353965 
3834.000000	65.382552 
3833.000000	65.410351 
3832.000000	65.435171 
3831.000000	65.454602 
3830.000000	65.466141 
3829.000000	65.467834 
3828.000000	65.458703 
3827.000000	65.439462 
3826.000000	65.412783 
3825.000000	65.382695 
3824.000000	65.353822 
3823.000000	65.330553 
3822.000000	65.316224 
3821.000000	65.311861 
3820.000000	65.316295 
3819.000000	65.326619 
3818.000000	65.338969 
3817.000000	65.349411 
3816.000000	65.354943 
3815.000000	65.353703 
3814.000000	65.345406 
3813.000000	65.331006 
3812.000000	65.312695 
3811.000000	65.293312 
3810.000000	65.275716 
3809.000000	65.262794 
3808.000000	65.256285 
3807.000000	65.256667 
3806.000000	65.262627 
3805.000000	65.271592 
3804.000000	65.279769 
3803.000000	65.283346 
3802.000000	65.279030 
3801.000000	65.264892 
3800.000000	65.240621 
3799.000000	65.207743 
3798.000000	65.169024 
3797.000000	65.127873 
3796.000000	65.087366 
3795.000000	65.049791 
3794.000000	65.016269 
3793.000000	64.987039 
3792.000000	64.961743 
3791.000000	64.940047 
3790.000000	64.922165 
3789.000000	64.909243 
3788.000000	64.902520 
3787.000000	64.903354 
3786.000000	64.912343 
3785.000000	64.929270 
3784.000000	64.952778 
3783.000000	64.980792 
3782.000000	65.010881 
3781.000000	65.040898 
3780.000000	65.068864 
3779.000000	65.093374 
3778.000000	65.113830 
3777.000000	65.129876 
3776.000000	65.141320 
3775.000000	65.147805 
3774.000000	65.149140 
3773.000000	65.145111 
3772.000000	65.135884 
3771.000000	65.122175 
3770.000000	65.105366 
3769.000000	65.087366 
3768.000000	65.070438 
3767.000000	65.056753 
3766.000000	65.048074 
3765.000000	65.045762 
3764.000000	65.050506 
3763.000000	65.062308 
3762.000000	65.080666 
3761.000000	65.104746 
3760.000000	65.133452 
3759.000000	65.165495 
3758.000000	65.199708 
3757.000000	65.235233 
3756.000000	65.271496 
3755.000000	65.308451 
3754.000000	65.345907 
3753.000000	65.383791 
3752.000000	65.421557 
3751.000000	65.458226 
3750.000000	65.492081 
3749.000000	65.521144 
3748.000000	65.543150 
3747.000000	65.556263 
3746.000000	65.559411 
3745.000000	65.552711 
3744.000000	65.537238 
3743.000000	65.515017 
3742.000000	65.488028 
3741.000000	65.457749 
3740.000000	65.424728 
3739.000000	65.388655 
3738.000000	65.348720 
3737.000000	65.304231 
3736.000000	65.255331 
3735.000000	65.203499 
3734.000000	65.151715 
3733.000000	65.103960 
3732.000000	65.064358 
3731.000000	65.036606 
3730.000000	65.023064 
3729.000000	65.024447 
3728.000000	65.039324 
3727.000000	65.064477 
3726.000000	65.095639 
3725.000000	65.128135 
3724.000000	65.157485 
3723.000000	65.180087 
3722.000000	65.193557 
3721.000000	65.197157 
3720.000000	65.191340 
3719.000000	65.177965 
3718.000000	65.159678 
3717.000000	65.139603 
3716.000000	65.121102 
3715.000000	65.106749 
3714.000000	65.098214 
3713.000000	65.095925 
3712.000000	65.099239 
3711.000000	65.106487 
3710.000000	65.115427 
3709.000000	65.123891 
3708.000000	65.130305 
3707.000000	65.133452 
3706.000000	65.132808 
3705.000000	65.128540 
3704.000000	65.121388 
3703.000000	65.112233 
3702.000000	65.102267 
3701.000000	65.092563 
3700.000000	65.084481 
3699.000000	65.079283 
3698.000000	65.078473 
3697.000000	65.083193 
3696.000000	65.094542 
3695.000000	65.113306 
3694.000000	65.139555 
3693.000000	65.172600 
3692.000000	65.211009 
3691.000000	65.252709 
3690.000000	65.295267 
3689.000000	65.336108 
3688.000000	65.372824 
3687.000000	65.403580 
3686.000000	65.427255 
3685.000000	65.443611 
3684.000000	65.453290 
3683.000000	65.457439 
3682.000000	65.457820 
3681.000000	65.456271 
3680.000000	65.454578 
3679.000000	65.453648 
3678.000000	65.454006 
3677.000000	65.454769 
3676.000000	65.454649 
3675.000000	65.451550 
3674.000000	65.443444 
3673.000000	65.428757 
3672.000000	65.406751 
3671.000000	65.378332 
3670.000000	65.345788 
3669.000000	65.312719 
3668.000000	65.283465 
3667.000000	65.262269 
3666.000000	65.252375 
3665.000000	65.255355 
3664.000000	65.270543 
3663.000000	65.295124 
3662.000000	65.324640 
3661.000000	65.353870 
3660.000000	65.377831 
3659.000000	65.392661 
3658.000000	65.396356 
3657.000000	65.389156 
3656.000000	65.373206 
3655.000000	65.351867 
3654.000000	65.328764 
3653.000000	65.306997 
3652.000000	65.288352 
3651.000000	65.273308 
3650.000000	65.261173 
3649.000000	65.250754 
3648.000000	65.240931 
3647.000000	65.231180 
3646.000000	65.221786 
3645.000000	65.213370 
3644.000000	65.207052 
3643.000000	65.203332 
3642.000000	65.202641 
3641.000000	65.204763 
3640.000000	65.209507 
3639.000000	65.216803 
3638.000000	65.226888 
3637.000000	65.240335 
3636.000000	65.257716 
3635.000000	65.279364 
3634.000000	65.304613 
3633.000000	65.331888 
3632.000000	65.358304 
3631.000000	65.380382 
3630.000000	65.395021 
3629.000000	65.400052 
3628.000000	65.394949 
3627.000000	65.380835 
3626.000000	65.360283 
3625.000000	65.336608 
3624.000000	65.313029 
3623.000000	65.291857 
3622.000000	65.274071 
3621.000000	65.259361 
3620.000000	65.246844 
3619.000000	65.235495 
3618.000000	65.224695 
3617.000000	65.214848 
3616.000000	65.207171 
3615.000000	65.203642 
3614.000000	65.206098 
3613.000000	65.215706 
3612.000000	65.232491 
3611.000000	65.255069 
3610.000000	65.280747 
3609.000000	65.306115 
3608.000000	65.327548 
3607.000000	65.341854 
3606.000000	65.346765 
3605.000000	65.341186 
3604.000000	65.325307 
3603.000000	65.300440 
3602.000000	65.268850 
3601.000000	65.233373 
3600.000000	65.196967 
3599.000000	65.162515 
3598.000000	65.132546 
3597.000000	65.108823 
3596.000000	65.092182 
3595.000000	65.082669 
3594.000000	65.079665 
3593.000000	65.081906 
3592.000000	65.088200 
3591.000000	65.097427 
3590.000000	65.108942 
3589.000000	65.122485 
3588.000000	65.138077 
3587.000000	65.155601 
3586.000000	65.174508 
3585.000000	65.193748 
3584.000000	65.211701 
3583.000000	65.226316 
3582.000000	65.235853 
3581.000000	65.239214 
3580.000000	65.236234 
3579.000000	65.227818 
3578.000000	65.215754 
3577.000000	65.202307 
3576.000000	65.189385 
3575.000000	65.178251 
3574.000000	65.169119 
3573.000000	65.161323 
3572.000000	65.153861 
3571.000000	65.145707 
3570.000000	65.136432 
3569.000000	65.126514 
3568.000000	65.117049 
3567.000000	65.109491 
3566.000000	65.104985 
3565.000000	65.104436 
3564.000000	65.108227 
3563.000000	65.116119 
3562.000000	65.127277 
3561.000000	65.140676 
3560.000000	65.155220 
3559.000000	65.169930 
3558.000000	65.183901 
3557.000000	65.196490 
3556.000000	65.207409 
3555.000000	65.216636 
3554.000000	65.224385 
3553.000000	65.231442 
3552.000000	65.238857 
3551.000000	65.247821 
3550.000000	65.259313 
3549.000000	65.273690 
3548.000000	65.290594 
3547.000000	65.308833 
3546.000000	65.326380 
3545.000000	65.341234 
3544.000000	65.351247 
3543.000000	65.355277 
3542.000000	65.352678 
3541.000000	65.343117 
3540.000000	65.326356 
3539.000000	65.302324 
3538.000000	65.270900 
3537.000000	65.232324 
3536.000000	65.187263 
3535.000000	65.137505 
3534.000000	65.085768 
3533.000000	65.035605 
3532.000000	64.990735 
3531.000000	64.954423 
3530.000000	64.929008 
3529.000000	64.915227 
3528.000000	64.912176 
3527.000000	64.917349 
3526.000000	64.927434 
3525.000000	64.939069 
3524.000000	64.949321 
3523.000000	64.956426 
3522.000000	64.959788 
3521.000000	64.960145 
3520.000000	64.958977 
3519.000000	64.958286 
3518.000000	64.960050 
3517.000000	64.966011 
3516.000000	64.977455 
3515.000000	64.995002 
3514.000000	65.018510 
3513.000000	65.047025 
3512.000000	65.078949 
3511.000000	65.112257 
3510.000000	65.144658 
3509.000000	65.174031 
3508.000000	65.198779 
3507.000000	65.218114 
3506.000000	65.232062 
3505.000000	65.241384 
3504.000000	65.247368 
3503.000000	65.251064 
3502.000000	65.253043 
3501.000000	65.252923 
3500.000000	65.249800 
3499.000000	65.242290 
3498.000000	65.229129 
3497.000000	65.209817 
3496.000000	65.185093 
3495.000000	65.157103 
3494.000000	65.129017 
3493.000000	65.104365 
3492.000000	65.086388 
3491.000000	65.077209 
3490.000000	65.077424 
3489.000000	65.085816 
3488.000000	65.099835 
3487.000000	65.116190 
3486.000000	65.131402 
3485.000000	65.142726 
3484.000000	65.148448 
3483.000000	65.147972 
3482.000000	65.141630 
3481.000000	65.130329 
3480.000000	65.115332 
3479.000000	65.098166 
3478.000000	65.080308 
3477.000000	65.063071 
3476.000000	65.047621 
3475.000000	65.035057 
3474.000000	65.026116 
3473.000000	65.021252 
3472.000000	65.020418 
3471.000000	65.022993 
3470.000000	65.027952 
3469.000000	65.034031 
3468.000000	65.039873 
3467.000000	65.044450 
3466.000000	65.047168 
3465.000000	65.048146 
3464.000000	65.047907 
3463.000000	65.047526 
3462.000000	65.048360 
3461.000000	65.051770 
3460.000000	65.058994 
3459.000000	65.070748 
3458.000000	65.087246 
3457.000000	65.107679 
3456.000000	65.130448 
3455.000000	65.152859 
3454.000000	65.171766 
3453.000000	65.184068 
3452.000000	65.187382 
3451.000000	65.180897 
3450.000000	65.165376 
3449.000000	65.143442 
3448.000000	65.118956 
3447.000000	65.096282 
3446.000000	65.079474 
3445.000000	65.071225 
3444.000000	65.072560 
3443.000000	65.082502 
3442.000000	65.098571 
3441.000000	65.117549 
3440.000000	65.136265 
3439.000000	65.152311 
3438.000000	65.164470 
3437.000000	65.172815 
3436.000000	65.178346 
3435.000000	65.182399 
3434.000000	65.186142 
3433.000000	65.190267 
3432.000000	65.194749 
3431.000000	65.199232 
3430.000000	65.202808 
3429.000000	65.204763 
3428.000000	65.204548 
3427.000000	65.202093 
3426.000000	65.197825 
3425.000000	65.192413 
3424.000000	65.186691 
3423.000000	65.181374 
3422.000000	65.176892 
3421.000000	65.173387 
3420.000000	65.170669 
3419.000000	65.168333 
3418.000000	65.165853 
3417.000000	65.162730 
3416.000000	65.158605 
3415.000000	65.153336 
3414.000000	65.146875 
3413.000000	65.139245 
3412.000000	65.130615 
3411.000000	65.121245 
3410.000000	65.111494 
3409.000000	65.101552 
3408.000000	65.091609 
3407.000000	65.081763 
3406.000000	65.072011 
3405.000000	65.062475 
3404.000000	65.053296 
3403.000000	65.044808 
3402.000000	65.037488 
3401.000000	65.032029 
3400.000000	65.029239 
3399.000000	65.029954 
3398.000000	65.034532 
3397.000000	65.042829 
3396.000000	65.054106 
3395.000000	65.066909 
3394.000000	65.079331 
3393.000000	65.089464 
3392.000000	65.095901 
3391.000000	65.098166 
3390.000000	65.096831 
3389.000000	65.093445 
3388.000000	65.090179 
3387.000000	65.089082 
3386.000000	65.091443 
3385.000000	65.097188 
3384.000000	65.104842 
3383.000000	65.111732 
3382.000000	65.115070 
3381.000000	65.112209 
3380.000000	65.102076 
3379.000000	65.085315 
3378.000000	65.064644 
3377.000000	65.044069 
3376.000000	65.028238 
3375.000000	65.021061 
3374.000000	65.025091 
3373.000000	65.040779 
3372.000000	65.066552 
3371.000000	65.099191 
3370.000000	65.134596 
3369.000000	65.168881 
3368.000000	65.198802 
3367.000000	65.222477 
3366.000000	65.239191 
3365.000000	65.249180 
3364.000000	65.253186 
3363.000000	65.251874 
3362.000000	65.245652 
3361.000000	65.234375 
3360.000000	65.217733 
3359.000000	65.195274 
3358.000000	65.167164 
3357.000000	65.134167 
3356.000000	65.097880 
3355.000000	65.060567 
3354.000000	65.024924 
3353.000000	64.993762 
3352.000000	64.969468 
3351.000000	64.954113 
3350.000000	64.948439 
3349.000000	64.952588 
3348.000000	64.965581 
3347.000000	64.985990 
3346.000000	65.011668 
3345.000000	65.040683 
3344.000000	65.071010 
3343.000000	65.101313 
3342.000000	65.130472 
3341.000000	65.157938 
3340.000000	65.183353 
3339.000000	65.206265 
3338.000000	65.226101 
3337.000000	65.242242 
3336.000000	65.254020 
3335.000000	65.261054 
3334.000000	65.263223 
3333.000000	65.260910 
3332.000000	65.254950 
3331.000000	65.246653 
3330.000000	65.237164 
3329.000000	65.227699 
3328.000000	65.218877 
3327.000000	65.210986 
3326.000000	65.203833 
3325.000000	65.197014 
3324.000000	65.190124 
3323.000000	65.183162 
3322.000000	65.176582 
3321.000000	65.171313 
3320.000000	65.168285 
3319.000000	65.168452 
3318.000000	65.172147 
3317.000000	65.178894 
3316.000000	65.187382 
3315.000000	65.195441 
3314.000000	65.200924 
3313.000000	65.202021 
3312.000000	65.197849 
3311.000000	65.188503 
3310.000000	65.175342 
3309.000000	65.160369 
3308.000000	65.145659 
3307.000000	65.132880 
3306.000000	65.122914 
3305.000000	65.115737 
3304.000000	65.110635 
3303.000000	65.106463 
3302.000000	65.102314 
3301.000000	65.097880 
3300.000000	65.093564 
3299.000000	65.090680 
3298.000000	65.090942 
3297.000000	65.096068 
3296.000000	65.107035 
3295.000000	65.123844 
3294.000000	65.145134 
3293.000000	65.168571 
3292.000000	65.191078 
3291.000000	65.209746 
3290.000000	65.222263 
3289.000000	65.227556 
3288.000000	65.226054 
3287.000000	65.219306 
3286.000000	65.209412 
3285.000000	65.198445 
3284.000000	65.188097 
3283.000000	65.178918 
3282.000000	65.170383 
3281.000000	65.161418 
3280.000000	65.150809 
3279.000000	65.137910 
3278.000000	65.122914 
3277.000000	65.107107 
3276.000000	65.092444 
3275.000000	65.080976 
3274.000000	65.074133 
3273.000000	65.071964 
3272.000000	65.073227 
3271.000000	65.075612 
3270.000000	65.076136 
3269.000000	65.071988 
3268.000000	65.061426 
3267.000000	65.043830 
3266.000000	65.020728 
3265.000000	64.994668 
3264.000000	64.969754 
3263.000000	64.950251 
3262.000000	64.940333 
3261.000000	64.942932 
3260.000000	64.959430 
3259.000000	64.989280 
3258.000000	65.030097 
3257.000000	65.077877 
3256.000000	65.127658 
3255.000000	65.174341 
3254.000000	65.213322 
3253.000000	65.241289 
3252.000000	65.256547 
3251.000000	65.258979 
3250.000000	65.249967 
3249.000000	65.231776 
3248.000000	65.206909 
3247.000000	65.177297 
3246.000000	65.144777 
3245.000000	65.110421 
3244.000000	65.075588 
3243.000000	65.041518 
3242.000000	65.010213 
3241.000000	64.983868 
3240.000000	64.964413 
3239.000000	64.953255 
3238.000000	64.950323 
3237.000000	64.954781 
3236.000000	64.964556 
3235.000000	64.977383 
3234.000000	64.990735 
3233.000000	65.003013 
3232.000000	65.013337 
3231.000000	65.021944 
3230.000000	65.029644 
3229.000000	65.037512 
3228.000000	65.046429 
3227.000000	65.056920 
3226.000000	65.068721 
3225.000000	65.081214 
3224.000000	65.093588 
3223.000000	65.105104 
3222.000000	65.115046 
3221.000000	65.123128 
3220.000000	65.129518 
3219.000000	65.134334 
3218.000000	65.138173 
3217.000000	65.141820 
3216.000000	65.146350 
3215.000000	65.153217 
3214.000000	65.163421 
3213.000000	65.177416 
3212.000000	65.194606 
3211.000000	65.213394 
3210.000000	65.231180 
3209.000000	65.244674 
3208.000000	65.250825 
3207.000000	65.247607 
3206.000000	65.234589 
3205.000000	65.213084 
3204.000000	65.186214 
3203.000000	65.158224 
3202.000000	65.133833 
3201.000000	65.117001 
3200.000000	65.110206 
3199.000000	65.113687 
3198.000000	65.125513 
3197.000000	65.141749 
3196.000000	65.157413 
3195.000000	65.167593 
3194.000000	65.168237 
3193.000000	65.157413 
3192.000000	65.135216 
3191.000000	65.103983 
3190.000000	65.067839 
3189.000000	65.031838 
3188.000000	65.000677 
3187.000000	64.978241 
3186.000000	64.966797 
3185.000000	64.966773 
3184.000000	64.976811 
3183.000000	64.994311 
3182.000000	65.016031 
3181.000000	65.038704 
3180.000000	65.059614 
3179.000000	65.076828 
3178.000000	65.089416 
3177.000000	65.097570 
3176.000000	65.102005 
3175.000000	65.104126 
3174.000000	65.105557 
3173.000000	65.107989 
3172.000000	65.112709 
3171.000000	65.120530 
3170.000000	65.131235 
3169.000000	65.144062 
3168.000000	65.157508 
3167.000000	65.169668 
3166.000000	65.178608 
3165.000000	65.182733 
3164.000000	65.181064 
3163.000000	65.173554 
3162.000000	65.161037 
3161.000000	65.144896 
3160.000000	65.126943 
3159.000000	65.108752 
3158.000000	65.091633 
3157.000000	65.076589 
3156.000000	65.064215 
3155.000000	65.054941 
3154.000000	65.048956 
3153.000000	65.046715 
3152.000000	65.048599 
3151.000000	65.054631 
3150.000000	65.064334 
3149.000000	65.076708 
3148.000000	65.090298 
3147.000000	65.103602 
3146.000000	65.115237 
3145.000000	65.124130 
3144.000000	65.130209 
3143.000000	65.133929 
3142.000000	65.136146 
3141.000000	65.137743 
3140.000000	65.139102 
3139.000000	65.140008 
3138.000000	65.139508 
3137.000000	65.136194 
3136.000000	65.128803 
3135.000000	65.116548 
3134.000000	65.099835 
3133.000000	65.080237 
3132.000000	65.060234 
3131.000000	65.042972 
3130.000000	65.031409 
3129.000000	65.027880 
3128.000000	65.033531 
3127.000000	65.048027 
3126.000000	65.069842 
3125.000000	65.096020 
3124.000000	65.122842 
3123.000000	65.146183 
3122.000000	65.162348 
3121.000000	65.168499 
3120.000000	65.163040 
3119.000000	65.145874 
3118.000000	65.118408 
3117.000000	65.083408 
3116.000000	65.044736 
3115.000000	65.006637 
3114.000000	64.973402 
3113.000000	64.948678 
3112.000000	64.935231 
3111.000000	64.934325 
3110.000000	64.945936 
3109.000000	64.968609 
3108.000000	64.999794 
3107.000000	65.036153 
3106.000000	65.073895 
3105.000000	65.109133 
3104.000000	65.138721 
3103.000000	65.160441 
3102.000000	65.173578 
3101.000000	65.178942 
3100.000000	65.178632 
3099.000000	65.175890 
3098.000000	65.173864 
3097.000000	65.175008 
3096.000000	65.180087 
3095.000000	65.188360 
3094.000000	65.197181 
3093.000000	65.203189 
3092.000000	65.202832 
3091.000000	65.193653 
3090.000000	65.174889 
3089.000000	65.147805 
3088.000000	65.115404 
3087.000000	65.081882 
3086.000000	65.051198 
3085.000000	65.026450 
3084.000000	65.009140 
3083.000000	64.999222 
3082.000000	64.995360 
3081.000000	64.995527 
3080.000000	64.997911 
3079.000000	65.001511 
3078.000000	65.006232 
3077.000000	65.012979 
3076.000000	65.022468 
3075.000000	65.035367 
3074.000000	65.051460 
3073.000000	65.069723 
3072.000000	65.088129 
3071.000000	65.104413 
3070.000000	65.116572 
3069.000000	65.123391 
3068.000000	65.124750 
3067.000000	65.121674 
3066.000000	65.116047 
3065.000000	65.110015 
3064.000000	65.105533 
3063.000000	65.103960 
3062.000000	65.105724 
3061.000000	65.110540 
3060.000000	65.117740 
3059.000000	65.126419 
3058.000000	65.135693 
3057.000000	65.145039 
3056.000000	65.154123 
3055.000000	65.162515 
3054.000000	65.169477 
3053.000000	65.174221 
3052.000000	65.175843 
3051.000000	65.173363 
3050.000000	65.166425 
3049.000000	65.155410 
3048.000000	65.141654 
3047.000000	65.127372 
3046.000000	65.115308 
3045.000000	65.107822 
3044.000000	65.106511 
3043.000000	65.111827 
3042.000000	65.122628 
3041.000000	65.136599 
3040.000000	65.151000 
3039.000000	65.163230 
3038.000000	65.171575 
3037.000000	65.175533 
3036.000000	65.175867 
3035.000000	65.174221 
3034.000000	65.172576 
3033.000000	65.172576 
3032.000000	65.175104 
3031.000000	65.180206 
3030.000000	65.187191 
3029.000000	65.195083 
3028.000000	65.203261 
3027.000000	65.211510 
3026.000000	65.220308 
3025.000000	65.230274 
3024.000000	65.242075 
3023.000000	65.255808 
3022.000000	65.270638 
3021.000000	65.284919 
3020.000000	65.296578 
3019.000000	65.303468 
3018.000000	65.304088 
3017.000000	65.297937 
3016.000000	65.285897 
3015.000000	65.270018 
3014.000000	65.252876 
3013.000000	65.237212 
3012.000000	65.225195 
3011.000000	65.218043 
3010.000000	65.215706 
3009.000000	65.217161 
3008.000000	65.220499 
3007.000000	65.223479 
3006.000000	65.223956 
3005.000000	65.220069 
3004.000000	65.210747 
3003.000000	65.195679 
3002.000000	65.175461 
3001.000000	65.151643 
3000.000000	65.126562 
2999.000000	65.102934 
2998.000000	65.083432 
2997.000000	65.070414 
2996.000000	65.065002 
2995.000000	65.067195 
2994.000000	65.075397 
2993.000000	65.086889 
2992.000000	65.098214 
2991.000000	65.105915 
2990.000000	65.107345 
2989.000000	65.101337 
2988.000000	65.088319 
2987.000000	65.070176 
2986.000000	65.049934 
2985.000000	65.030956 
2984.000000	65.016245 
2983.000000	65.007853 
2982.000000	65.006709 
2981.000000	65.012431 
2980.000000	65.023899 
2979.000000	65.039491 
2978.000000	65.057253 
2977.000000	65.075397 
2976.000000	65.092039 
2975.000000	65.105700 
2974.000000	65.114903 
2973.000000	65.118765 
2972.000000	65.116858 
2971.000000	65.109419 
2970.000000	65.097546 
2969.000000	65.082979 
2968.000000	65.068221 
2967.000000	65.055584 
2966.000000	65.047025 
2965.000000	65.043234 
2964.000000	65.043902 
2963.000000	65.047526 
2962.000000	65.051889 
2961.000000	65.054798 
2960.000000	65.054678 
2959.000000	65.050959 
2958.000000	65.044450 
2957.000000	65.036892 
2956.000000	65.030479 
2955.000000	65.027070 
2954.000000	65.027546 
2953.000000	65.031599 
2952.000000	65.037703 
2951.000000	65.043568 
2950.000000	65.046739 
2949.000000	65.045309 
2948.000000	65.038657 
2947.000000	65.027308 
2946.000000	65.013194 
2945.000000	64.998555 
2944.000000	64.985871 
2943.000000	64.977097 
2942.000000	64.973282 
2941.000000	64.974403 
2940.000000	64.979434 
2939.000000	64.986753 
2938.000000	64.994525 
2937.000000	65.001201 
2936.000000	65.005874 
2935.000000	65.008306 
2934.000000	65.009140 
2933.000000	65.009260 
2932.000000	65.009975 
2931.000000	65.012526 
2930.000000	65.017867 
2929.000000	65.026402 
2928.000000	65.038275 
2927.000000	65.053105 
2926.000000	65.070223 
2925.000000	65.088796 
2924.000000	65.107703 
2923.000000	65.125703 
2922.000000	65.141630 
2921.000000	65.154218 
2920.000000	65.162134 
2919.000000	65.164375 
2918.000000	65.160298 
2917.000000	65.150237 
2916.000000	65.135455 
2915.000000	65.118241 
2914.000000	65.101671 
2913.000000	65.088629 
2912.000000	65.081429 
2911.000000	65.081071 
2910.000000	65.087032 
2909.000000	65.097188 
2908.000000	65.108466 
2907.000000	65.117549 
2906.000000	65.121626 
2905.000000	65.119099 
2904.000000	65.109872 
2903.000000	65.095376 
2902.000000	65.078139 
2901.000000	65.061283 
2900.000000	65.047764 
2899.000000	65.039920 
2898.000000	65.039014 
2897.000000	65.045380 
2896.000000	65.058183 
2895.000000	65.075707 
2894.000000	65.095543 
2893.000000	65.114879 
2892.000000	65.130710 
2891.000000	65.140175 
2890.000000	65.141010 
2889.000000	65.131831 
2888.000000	65.112757 
2887.000000	65.085387 
2886.000000	65.052676 
2885.000000	65.018439 
2884.000000	64.986824 
2883.000000	64.961647 
2882.000000	64.945721 
2881.000000	64.940547 
2880.000000	64.946103 
2879.000000	64.961218 
2878.000000	64.983630 
2877.000000	65.010809 
2876.000000	65.040087 
2875.000000	65.069127 
2874.000000	65.096044 
2873.000000	65.119504 
2872.000000	65.138721 
2871.000000	65.153288 
2870.000000	65.163326 
2869.000000	65.169334 
2868.000000	65.172386 
2867.000000	65.173721 
2866.000000	65.174865 
2865.000000	65.176987 
2864.000000	65.180897 
2863.000000	65.186810 
2862.000000	65.194344 
2861.000000	65.202498 
2860.000000	65.210032 
2859.000000	65.215682 
2858.000000	65.218520 
2857.000000	65.218067 
2856.000000	65.214562 
2855.000000	65.208554 
2854.000000	65.200877 
2853.000000	65.192341 
2852.000000	65.183687 
2851.000000	65.175366 
2850.000000	65.167498 
2849.000000	65.160107 
2848.000000	65.153264 
2847.000000	65.147233 
2846.000000	65.142297 
2845.000000	65.138769 
2844.000000	65.136647 
2843.000000	65.135645 
2842.000000	65.135121 
2841.000000	65.134048 
2840.000000	65.131378 
2839.000000	65.126276 
2838.000000	65.118598 
2837.000000	65.108942 
2836.000000	65.098571 
2835.000000	65.089035 
2834.000000	65.081906 
2833.000000	65.078258 
2832.000000	65.078449 
2831.000000	65.081787 
2830.000000	65.086889 
2829.000000	65.091967 
2828.000000	65.095472 
2827.000000	65.096497 
2826.000000	65.095162 
2825.000000	65.092396 
2824.000000	65.089702 
2823.000000	65.088582 
2822.000000	65.090107 
2821.000000	65.094423 
2820.000000	65.100693 
2819.000000	65.107274 
2818.000000	65.112257 
2817.000000	65.113806 
2816.000000	65.110659 
2815.000000	65.102601 
2814.000000	65.090322 
2813.000000	65.075635 
2812.000000	65.061068 
2811.000000	65.049457 
2810.000000	65.043330 
2809.000000	65.044426 
2808.000000	65.053343 
2807.000000	65.069293 
2806.000000	65.090298 
2805.000000	65.113401 
2804.000000	65.135335 
2803.000000	65.153193 
2802.000000	65.164780 
2801.000000	65.169310 
2800.000000	65.167164 
2799.000000	65.160036 
2798.000000	65.150237 
2797.000000	65.140175 
2796.000000	65.132021 
2795.000000	65.127301 
2794.000000	65.126442 
2793.000000	65.129303 
2792.000000	65.135025 
2791.000000	65.142536 
2790.000000	65.150761 
2789.000000	65.158748 
2788.000000	65.165805 
2787.000000	65.171313 
2786.000000	65.174865 
2785.000000	65.176200 
2784.000000	65.175366 
2783.000000	65.172433 
2782.000000	65.167880 
2781.000000	65.162324 
2780.000000	65.156555 
2779.000000	65.151286 
2778.000000	65.147113 
2777.000000	65.144133 
2776.000000	65.142130 
2775.000000	65.140509 
2774.000000	65.138578 
2773.000000	65.136027 
2772.000000	65.132784 
2771.000000	65.129327 
2770.000000	65.126299 
2769.000000	65.124273 
2768.000000	65.123581 
2767.000000	65.124177 
2766.000000	65.125513 
2765.000000	65.126633 
2764.000000	65.126609 
2763.000000	65.124726 
2762.000000	65.120649 
2761.000000	65.114283 
2760.000000	65.105962 
2759.000000	65.096211 
2758.000000	65.085768 
2757.000000	65.075373 
2756.000000	65.065717 
2755.000000	65.057325 
2754.000000	65.050721 
2753.000000	65.046238 
2752.000000	65.043878 
2751.000000	65.043354 
2750.000000	65.044021 
2749.000000	65.045022 
2748.000000	65.045309 
2747.000000	65.044188 
2746.000000	65.041422 
2745.000000	65.037608 
2744.000000	65.034055 
2743.000000	65.032839 
2742.000000	65.036249 
2741.000000	65.046143 
2740.000000	65.063548 
2739.000000	65.088200 
2738.000000	65.118575 
2737.000000	65.152144 
2736.000000	65.185618 
2735.000000	65.215945 
2734.000000	65.240621 
2733.000000	65.258312 
2732.000000	65.268874 
2731.000000	65.273022 
2730.000000	65.271854 
2729.000000	65.266752 
2728.000000	65.258765 
2727.000000	65.248489 
2726.000000	65.236043 
2725.000000	65.221667 
2724.000000	65.205597 
2723.000000	65.188670 
2722.000000	65.172004 
2721.000000	65.157151 
2720.000000	65.145444 
2719.000000	65.137791 
2718.000000	65.134143 
2717.000000	65.133428 
2716.000000	65.133714 
2715.000000	65.132546 
2714.000000	65.127515 
2713.000000	65.117049 
2712.000000	65.100765 
2711.000000	65.079927 
2710.000000	65.056991 
2709.000000	65.035438 
2708.000000	65.019130 
2707.000000	65.011382 
2706.000000	65.014338 
2705.000000	65.028429 
2704.000000	65.052580 
2703.000000	65.084099 
2702.000000	65.119194 
2701.000000	65.153694 
2700.000000	65.183711 
2699.000000	65.206265 
2698.000000	65.219545 
2697.000000	65.223073 
2696.000000	65.217685 
2695.000000	65.205264 
2694.000000	65.188455 
2693.000000	65.170025 
2692.000000	65.152478 
2691.000000	65.137720 
2690.000000	65.127086 
2689.000000	65.120935 
2688.000000	65.118908 
2687.000000	65.120053 
2686.000000	65.123224 
2685.000000	65.127205 
2684.000000	65.131020 
2683.000000	65.133905 
2682.000000	65.135502 
2681.000000	65.135788 
2680.000000	65.134930 
2679.000000	65.133190 
2678.000000	65.130686 
2677.000000	65.127444 
2676.000000	65.123343 
2675.000000	65.118241 
2674.000000	65.111899 
2673.000000	65.104246 
2672.000000	65.095567 
2671.000000	65.086174 
2670.000000	65.076828 
2669.000000	65.068483 
2668.000000	65.062093 
2667.000000	65.058469 
2666.000000	65.058135 
2665.000000	65.061235 
2664.000000	65.067267 
2663.000000	65.075302 
2662.000000	65.083861 
2661.000000	65.091395 
2660.000000	65.096306 
2659.000000	65.097570 
2658.000000	65.094614 
2657.000000	65.087556 
2656.000000	65.077280 
2655.000000	65.065097 
2654.000000	65.052652 
2653.000000	65.041446 
2652.000000	65.032577 
2651.000000	65.026617 
2650.000000	65.023422 
2649.000000	65.022563 
2648.000000	65.023112 
2647.000000	65.024399 
2646.000000	65.026116 
2645.000000	65.028405 
2644.000000	65.031909 
2643.000000	65.037417 
2642.000000	65.045571 
2641.000000	65.056586 
2640.000000	65.069937 
2639.000000	65.084505 
2638.000000	65.098667 
2637.000000	65.110707 
2636.000000	65.119194 
2635.000000	65.123271 
2634.000000	65.122985 
2633.000000	65.119194 
2632.000000	65.113162 
2631.000000	65.106296 
2630.000000	65.099668 
2629.000000	65.093851 
2628.000000	65.088582 
2627.000000	65.083074 
2626.000000	65.076231 
2625.000000	65.067124 
2624.000000	65.055298 
2623.000000	65.040898 
2622.000000	65.024948 
2621.000000	65.008854 
2620.000000	64.994597 
2619.000000	64.983916 
2618.000000	64.978289 
2617.000000	64.978480 
2616.000000	64.984440 
2615.000000	64.995145 
2614.000000	65.008759 
2613.000000	65.023040 
2612.000000	65.035462 
2611.000000	65.043807 
2610.000000	65.046405 
2609.000000	65.042495 
2608.000000	65.032339 
2607.000000	65.017247 
2606.000000	64.999294 
2605.000000	64.980983 
2604.000000	64.964890 
2603.000000	64.953327 
2602.000000	64.947819 
2601.000000	64.949083 
2600.000000	64.956927 
2599.000000	64.970397 
2598.000000	64.988017 
2597.000000	65.008163 
2596.000000	65.028762 
2595.000000	65.047860 
2594.000000	65.063786 
2593.000000	65.075302 
2592.000000	65.081715 
2591.000000	65.083146 
2590.000000	65.080380 
2589.000000	65.074682 
2588.000000	65.067839 
2587.000000	65.061306 
2586.000000	65.056562 
2585.000000	65.054273 
2584.000000	65.054583 
2583.000000	65.056800 
2582.000000	65.059876 
2581.000000	65.062427 
2580.000000	65.063238 
2579.000000	65.061283 
2578.000000	65.056014 
2577.000000	65.047407 
2576.000000	65.036034 
2575.000000	65.022778 
2574.000000	65.009117 
2573.000000	64.996790 
2572.000000	64.987659 
2571.000000	64.983797 
2570.000000	64.986538 
2569.000000	64.996790 
2568.000000	65.014123 
2567.000000	65.037059 
2566.000000	65.063118 
2565.000000	65.088820 
2564.000000	65.110754 
2563.000000	65.125775 
2562.000000	65.131783 
2561.000000	65.128421 
2560.000000	65.116691 
2559.000000	65.099048 
2558.000000	65.078592 
2557.000000	65.058326 
2556.000000	65.040564 
2555.000000	65.026593 
2554.000000	65.016651 
2553.000000	65.010166 
2552.000000	65.006208 
2551.000000	65.003919 
2550.000000	65.002846 
2549.000000	65.002799 
2548.000000	65.003871 
2547.000000	65.006160 
2546.000000	65.009665 
2545.000000	65.014243 
2544.000000	65.019512 
2543.000000	65.025067 
2542.000000	65.030670 
2541.000000	65.036392 
2540.000000	65.042424 
2539.000000	65.049529 
2538.000000	65.058469 
2537.000000	65.069818 
2536.000000	65.083813 
2535.000000	65.100049 
2534.000000	65.117359 
2533.000000	65.134191 
2532.000000	65.148615 
2531.000000	65.158939 
2530.000000	65.164017 
2529.000000	65.163588 
2528.000000	65.158367 
2527.000000	65.149784 
2526.000000	65.139746 
2525.000000	65.130257 
2524.000000	65.122985 
2523.000000	65.118741 
2522.000000	65.117597 
2521.000000	65.118980 
2520.000000	65.121746 
2519.000000	65.124750 
2518.000000	65.126895 
2517.000000	65.127611 
2516.000000	65.126848 
2515.000000	65.125012 
2514.000000	65.122795 
2513.000000	65.120887 
2512.000000	65.119624 
2511.000000	65.118885 
2510.000000	65.118098 
2509.000000	65.116405 
2508.000000	65.112614 
2507.000000	65.105938 
2506.000000	65.095758 
2505.000000	65.082192 
2504.000000	65.065884 
2503.000000	65.048003 
2502.000000	65.029954 
2501.000000	65.013241 
2500.000000	64.999103 
2499.000000	64.988541 
2498.000000	64.982151 
2497.000000	64.980268 
2496.000000	64.982724 
2495.000000	64.989161 
2494.000000	64.998817 
2493.000000	65.010809 
2492.000000	65.023946 
2491.000000	65.036988 
2490.000000	65.048456 
2489.000000	65.057110 
2488.000000	65.061998 
2487.000000	65.062761 
2486.000000	65.059661 
2485.000000	65.053629 
2484.000000	65.046048 
2483.000000	65.038633 
2482.000000	65.033078 
2481.000000	65.030622 
2480.000000	65.031790 
2479.000000	65.036344 
2478.000000	65.043306 
2477.000000	65.051341 
2476.000000	65.059065 
2475.000000	65.065431 
2474.000000	65.070033 
2473.000000	65.073370 
2472.000000	65.076661 
2471.000000	65.081357 
2470.000000	65.088796 
2469.000000	65.099453 
2468.000000	65.112614 
2467.000000	65.126419 
2466.000000	65.138006 
2465.000000	65.144276 
2464.000000	65.142750 
2463.000000	65.132188 
2462.000000	65.113210 
2461.000000	65.088152 
2460.000000	65.060758 
2459.000000	65.035462 
2458.000000	65.016317 
2457.000000	65.006375 
2456.000000	65.006804 
2455.000000	65.017056 
2454.000000	65.034699 
2453.000000	65.056276 
2452.000000	65.077781 
2451.000000	65.095734 
2450.000000	65.107488 
2449.000000	65.111613 
2448.000000	65.107941 
2447.000000	65.097260 
2446.000000	65.081167 
2445.000000	65.061545 
2444.000000	65.040278 
2443.000000	65.018939 
2442.000000	64.998555 
2441.000000	64.979743 
2440.000000	64.962649 
2439.000000	64.947199 
2438.000000	64.933180 
2437.000000	64.920592 
2436.000000	64.909458 
2435.000000	64.900088 
2434.000000	64.892673 
2433.000000	64.887690 
2432.000000	64.885067 
2431.000000	64.885067 
2430.000000	64.887642 
2429.000000	64.892959 
2428.000000	64.900994 
2427.000000	64.911890 
2426.000000	64.925575 
2425.000000	64.941763 
2424.000000	64.959740 
2423.000000	64.978599 
2422.000000	64.996981 
2421.000000	65.013742 
2420.000000	65.027856 
2419.000000	65.039086 
2418.000000	65.047955 
2417.000000	65.055751 
2416.000000	65.064024 
2415.000000	65.074157 
2414.000000	65.086722 
2413.000000	65.101361 
2412.000000	65.116691 
2411.000000	65.130567 
2410.000000	65.140604 
2409.000000	65.145182 
2408.000000	65.143465 
2407.000000	65.135669 
2406.000000	65.122842 
2405.000000	65.106773 
2404.000000	65.089130 
2403.000000	65.071249 
2402.000000	65.053701 
2401.000000	65.036582 
2400.000000	65.019512 
2399.000000	65.002489 
2398.000000	64.985775 
2397.000000	64.970350 
2396.000000	64.957594 
2395.000000	64.949107 
2394.000000	64.946198 
2393.000000	64.949250 
2392.000000	64.957666 
2391.000000	64.969873 
2390.000000	64.983487 
2389.000000	64.995956 
2388.000000	65.005159 
2387.000000	65.009999 
2386.000000	65.010380 
2385.000000	65.007543 
2384.000000	65.003561 
2383.000000	65.000987 
2382.000000	65.002202 
2381.000000	65.008735 
2380.000000	65.021109 
2379.000000	65.038371 
2378.000000	65.058588 
2377.000000	65.078926 
2376.000000	65.096187 
2375.000000	65.107583 
2374.000000	65.111184 
2373.000000	65.106296 
2372.000000	65.093708 
2371.000000	65.075802 
2370.000000	65.055847 
2369.000000	65.037679 
2368.000000	65.024757 
2367.000000	65.019798 
2366.000000	65.024089 
2365.000000	65.037322 
2364.000000	65.057826 
2363.000000	65.082693 
2362.000000	65.108609 
2361.000000	65.132188 
2360.000000	65.150713 
2359.000000	65.162467 
2358.000000	65.166807 
2357.000000	65.164589 
2356.000000	65.157318 
2355.000000	65.147256 
2354.000000	65.136551 
2353.000000	65.127253 
2352.000000	65.120625 
2351.000000	65.117192 
2350.000000	65.116500 
2349.000000	65.117502 
2348.000000	65.118503 
2347.000000	65.117931 
2346.000000	65.114355 
2345.000000	65.107107 
2344.000000	65.096116 
2343.000000	65.082192 
2342.000000	65.066385 
2341.000000	65.049934 
2340.000000	65.033769 
2339.000000	65.018630 
2338.000000	65.004873 
2337.000000	64.992594 
2336.000000	64.981985 
2335.000000	64.973378 
2334.000000	64.967370 
2333.000000	64.964389 
2332.000000	64.964723 
2331.000000	64.968132 
2330.000000	64.973831 
2329.000000	64.980554 
2328.000000	64.986586 
2327.000000	64.990139 
2326.000000	64.989972 
2325.000000	64.985513 
2324.000000	64.977025 
2323.000000	64.965796 
2322.000000	64.953517 
2321.000000	64.942336 
2320.000000	64.934110 
2319.000000	64.930248 
2318.000000	64.931488 
2317.000000	64.938139 
2316.000000	64.949703 
2315.000000	64.965295 
2314.000000	64.983582 
2313.000000	65.002965 
2312.000000	65.021824 
2311.000000	65.038633 
2310.000000	65.052151 
2309.000000	65.061616 
2308.000000	65.066599 
2307.000000	65.067124 
2306.000000	65.063381 
2305.000000	65.055847 
2304.000000	65.044927 
2303.000000	65.031218 
2302.000000	65.015172 
2301.000000	64.997482 
2300.000000	64.978933 
2299.000000	64.960432 
2298.000000	64.943122 
2297.000000	64.928197 
2296.000000	64.916729 
2295.000000	64.909529 
2294.000000	64.907169 
2293.000000	64.909577 
2292.000000	64.916419 
2291.000000	64.926815 
2290.000000	64.939832 
2289.000000	64.954304 
2288.000000	64.969182 
2287.000000	64.983534 
2286.000000	64.996528 
2285.000000	65.007472 
2284.000000	65.015792 
2283.000000	65.021061 
2282.000000	65.022969 
2281.000000	65.021538 
2280.000000	65.016913 
2279.000000	65.009617 
2278.000000	65.000462 
2277.000000	64.990496 
2276.000000	64.981007 
2275.000000	64.973306 
2274.000000	64.968562 
2273.000000	64.967441 
2272.000000	64.970111 
2271.000000	64.976215 
2270.000000	64.984798 
2269.000000	64.994645 
2268.000000	65.004539 
2267.000000	65.013623 
2266.000000	65.021276 
2265.000000	65.027356 
2264.000000	65.031981 
2263.000000	65.035533 
2262.000000	65.038204 
2261.000000	65.040206 
2260.000000	65.041732 
2259.000000	65.042972 
2258.000000	65.044236 
2257.000000	65.045976 
2256.000000	65.048909 
2255.000000	65.053606 
2254.000000	65.060377 
2253.000000	65.068936 
2252.000000	65.078425 
2251.000000	65.087318 
2250.000000	65.093779 
2249.000000	65.096116 
2248.000000	65.093135 
2247.000000	65.084648 
2246.000000	65.071296 
2245.000000	65.054512 
2244.000000	65.035915 
2243.000000	65.017199 
2242.000000	64.999556 
2241.000000	64.983391 
2240.000000	64.968514 
2239.000000	64.954423 
2238.000000	64.940595 
2237.000000	64.926838 
2236.000000	64.913511 
2235.000000	64.901399 
2234.000000	64.891529 
2233.000000	64.884901 
2232.000000	64.881968 
2231.000000	64.882469 
2230.000000	64.885544 
2229.000000	64.889788 
2228.000000	64.893698 
2227.000000	64.896130 
2226.000000	64.896559 
2225.000000	64.895296 
2224.000000	64.893269 
2223.000000	64.891719 
2222.000000	64.892005 
2221.000000	64.895081 
2220.000000	64.901280 
2219.000000	64.910268 
2218.000000	64.921236 
2217.000000	64.933085 
2216.000000	64.944815 
2215.000000	64.955401 
2214.000000	64.964413 
2213.000000	64.971590 
2212.000000	64.977002 
2211.000000	64.980769 
2210.000000	64.983105 
2209.000000	64.984035 
2208.000000	64.983797 
2207.000000	64.982414 
2206.000000	64.980053 
2205.000000	64.976716 
2204.000000	64.972615 
2203.000000	64.967679 
2202.000000	64.961791 
2201.000000	64.954781 
2200.000000	64.946532 
2199.000000	64.937210 
2198.000000	64.927196 
2197.000000	64.917278 
2196.000000	64.908432 
2195.000000	64.901661 
2194.000000	64.897704 
2193.000000	64.896702 
2192.000000	64.898180 
2191.000000	64.901280 
2190.000000	64.904713 
2189.000000	64.906978 
2188.000000	64.906883 
2187.000000	64.903831 
2186.000000	64.897918 
2185.000000	64.889526 
2184.000000	64.879679 
2183.000000	64.869570 
2182.000000	64.860582 
2181.000000	64.853811 
2180.000000	64.850163 
2179.000000	64.850306 
2178.000000	64.854669 
2177.000000	64.863300 
2176.000000	64.876031 
2175.000000	64.892339 
2174.000000	64.911270 
2173.000000	64.931702 
2172.000000	64.952540 
2171.000000	64.972710 
2170.000000	64.991474 
2169.000000	65.008211 
2168.000000	65.022444 
2167.000000	65.033340 
2166.000000	65.040206 
2165.000000	65.041923 
2164.000000	65.037322 
2163.000000	65.025234 
2162.000000	65.005302 
2161.000000	64.977812 
2160.000000	64.944314 
2159.000000	64.907073 
2158.000000	64.869189 
2157.000000	64.833879 
2156.000000	64.803957 
2155.000000	64.781236 
2154.000000	64.766240 
2153.000000	64.758396 
2152.000000	64.755940 
2151.000000	64.756655 
2150.000000	64.758324 
2149.000000	64.759016 
2148.000000	64.757585 
2147.000000	64.753532 
2146.000000	64.747214 
2145.000000	64.739775 
2144.000000	64.732789 
2143.000000	64.728188 
2142.000000	64.727807 
2141.000000	64.732980 
2140.000000	64.744615 
2139.000000	64.762616 
2138.000000	64.785885 
2137.000000	64.812612 
2136.000000	64.840435 
2135.000000	64.866709 
2134.000000	64.889097 
2133.000000	64.905881 
2132.000000	64.916205 
2131.000000	64.920234 
2130.000000	64.919042 
2129.000000	64.914226 
2128.000000	64.907765 
2127.000000	64.901614 
2126.000000	64.897370 
2125.000000	64.895963 
2124.000000	64.897775 
2123.000000	64.902663 
2122.000000	64.909982 
2121.000000	64.918947 
2120.000000	64.928650 
2119.000000	64.938306 
2118.000000	64.947152 
2117.000000	64.954662 
2116.000000	64.960384 
2115.000000	64.963960 
2114.000000	64.965009 
2113.000000	64.963126 
2112.000000	64.958143 
2111.000000	64.950084 
2110.000000	64.939260 
2109.000000	64.926171 
2108.000000	64.911651 
2107.000000	64.896655 
2106.000000	64.882445 
2105.000000	64.870190 
2104.000000	64.860582 
2103.000000	64.854025 
2102.000000	64.850521 
2101.000000	64.849686 
2100.000000	64.850735 
2099.000000	64.852738 
2098.000000	64.854955 
2097.000000	64.857006 
2096.000000	64.858865 
2095.000000	64.860939 
2094.000000	64.863801 
2093.000000	64.868092 
2092.000000	64.874339 
2091.000000	64.882802 
2090.000000	64.893531 
2089.000000	64.906215 
2088.000000	64.920282 
2087.000000	64.935278 
2086.000000	64.950680 
2085.000000	64.966106 
2084.000000	64.981031 
2083.000000	64.994692 
2082.000000	65.006089 
2081.000000	65.014123 
2080.000000	65.017342 
2079.000000	65.014624 
2078.000000	65.005111 
2077.000000	64.988732 
2076.000000	64.966249 
2075.000000	64.939332 
2074.000000	64.910197 
2073.000000	64.881515 
2072.000000	64.855980 
2071.000000	64.835929 
2070.000000	64.822864 
2069.000000	64.817452 
2068.000000	64.819335 
2067.000000	64.827156 
2066.000000	64.838838 
2065.000000	64.851784 
2064.000000	64.863419 
2063.000000	64.871597 
2062.000000	64.874792 
2061.000000	64.872574 
2060.000000	64.865541 
2059.000000	64.855432 
2058.000000	64.844655 
2057.000000	64.836049 
2056.000000	64.832329 
2055.000000	64.835524 
2054.000000	64.846658 
2053.000000	64.865159 
2052.000000	64.889335 
2051.000000	64.916086 
2050.000000	64.941716 
2049.000000	64.962387 
2048.000000	64.974975 
2047.000000	64.977526 
2046.000000	64.969778 
2045.000000	64.953017 
2044.000000	64.929962 
2043.000000	64.904260 
2042.000000	64.879798 
2041.000000	64.859938 
2040.000000	64.846968 
2039.000000	64.841842 
2038.000000	64.844322 
2037.000000	64.853119 
2036.000000	64.866256 
2035.000000	64.881706 
2034.000000	64.897727 
2033.000000	64.913058 
2032.000000	64.927029 
2031.000000	64.939498 
2030.000000	64.950370 
2029.000000	64.959836 
2028.000000	64.967775 
2027.000000	64.973902 
2026.000000	64.977765 
2025.000000	64.978766 
2024.000000	64.976477 
2023.000000	64.970660 
2022.000000	64.961552 
2021.000000	64.949965 
2020.000000	64.937090 
2019.000000	64.924359 
2018.000000	64.913177 
2017.000000	64.904642 
2016.000000	64.899396 
2015.000000	64.897370 
2014.000000	64.898037 
2013.000000	64.900541 
2012.000000	64.903903 
2011.000000	64.907503 
2010.000000	64.910912 
2009.000000	64.914035 
2008.000000	64.917159 
2007.000000	64.920568 
2006.000000	64.924311 
2005.000000	64.928030 
2004.000000	64.931082 
2003.000000	64.932274 
2002.000000	64.930653 
2001.000000	64.925456 
2000.000000	64.916467 
1999.000000	64.904069 
1998.000000	64.889216 
1997.000000	64.873266 
1996.000000	64.857673 
1995.000000	64.843702 
1994.000000	64.832377 
1993.000000	64.824032 
1992.000000	64.818620 
1991.000000	64.815425 
1990.000000	64.813446 
1989.000000	64.811539 
1988.000000	64.808630 
1987.000000	64.803981 
1986.000000	64.797496 
1985.000000	64.789700 
1984.000000	64.781594 
1983.000000	64.774560 
1982.000000	64.770054 
1981.000000	64.769148 
1980.000000	64.772391 
1979.000000	64.779615 
1978.000000	64.790010 
1977.000000	64.802384 
1976.000000	64.815473 
1975.000000	64.828324 
1974.000000	64.840555 
1973.000000	64.852309 
1972.000000	64.864230 
1971.000000	64.877009 
1970.000000	64.891099 
1969.000000	64.906263 
1968.000000	64.921665 
1967.000000	64.935827 
1966.000000	64.947104 
1965.000000	64.954113 
1964.000000	64.955949 
1963.000000	64.952611 
1962.000000	64.944911 
1961.000000	64.934420 
1960.000000	64.923071 
1959.000000	64.912605 
1958.000000	64.904356 
1957.000000	64.898896 
1956.000000	64.896130 
1955.000000	64.895391 
1954.000000	64.895749 
1953.000000	64.896368 
1952.000000	64.896440 
1951.000000	64.895653 
1950.000000	64.894080 
1949.000000	64.891958 
1948.000000	64.889645 
1947.000000	64.887309 
1946.000000	64.885044 
1945.000000	64.882755 
1944.000000	64.880347 
1943.000000	64.877796 
1942.000000	64.875149 
1941.000000	64.872765 
1940.000000	64.871215 
1939.000000	64.871168 
1938.000000	64.873194 
1937.000000	64.877486 
1936.000000	64.883971 
1935.000000	64.892005 
1934.000000	64.900422 
1933.000000	64.907693 
1932.000000	64.912319 
1931.000000	64.912915 
1930.000000	64.908719 
1929.000000	64.899849 
1928.000000	64.887309 
1927.000000	64.872956 
1926.000000	64.859199 
1925.000000	64.848589 
1924.000000	64.843320 
1923.000000	64.844942 
1922.000000	64.853906 
1921.000000	64.869356 
1920.000000	64.889550 
1919.000000	64.911913 
1918.000000	64.933824 
1917.000000	64.952874 
1916.000000	64.967274 
1915.000000	64.976263 
1914.000000	64.979743 
1913.000000	64.978361 
1912.000000	64.973068 
1911.000000	64.964842 
1910.000000	64.954519 
1909.000000	64.942717 
1908.000000	64.929771 
1907.000000	64.915966 
1906.000000	64.901518 
1905.000000	64.886784 
1904.000000	64.872264 
1903.000000	64.858675 
1902.000000	64.846897 
1901.000000	64.838123 
1900.000000	64.833521 
1899.000000	64.834356 
1898.000000	64.841508 
1897.000000	64.855504 
1896.000000	64.876127 
1895.000000	64.902210 
1894.000000	64.931702 
1893.000000	64.961743 
1892.000000	64.988803 
1891.000000	65.009450 
1890.000000	65.020799 
1889.000000	65.021085 
1888.000000	65.009975 
1887.000000	64.988613 
1886.000000	64.959621 
1885.000000	64.926576 
1884.000000	64.893317 
1883.000000	64.863371 
1882.000000	64.839434 
1881.000000	64.823079 
1880.000000	64.814853 
1879.000000	64.813971 
1878.000000	64.818906 
1877.000000	64.827585 
1876.000000	64.838099 
1875.000000	64.848899 
1874.000000	64.858913 
1873.000000	64.867615 
1872.000000	64.874815 
1871.000000	64.880299 
1870.000000	64.883494 
1869.000000	64.883494 
1868.000000	64.879059 
1867.000000	64.869046 
1866.000000	64.852571 
1865.000000	64.829611 
1864.000000	64.801192 
1863.000000	64.769530 
1862.000000	64.737725 
1861.000000	64.709162 
1860.000000	64.687085 
1859.000000	64.674019 
1858.000000	64.671397 
1857.000000	64.679050 
1856.000000	64.695811 
1855.000000	64.719557 
1854.000000	64.747810 
1853.000000	64.778041 
1852.000000	64.808034 
1851.000000	64.835906 
1850.000000	64.860224 
1849.000000	64.879965 
1848.000000	64.894604 
1847.000000	64.903879 
1846.000000	64.908075 
1845.000000	64.907789 
1844.000000	64.903879 
1843.000000	64.897084 
1842.000000	64.888262 
1841.000000	64.877915 
1840.000000	64.866638 
1839.000000	64.854788 
1838.000000	64.842915 
1837.000000	64.831328 
1836.000000	64.820671 
1835.000000	64.811348 
1834.000000	64.803743 
1833.000000	64.797973 
1832.000000	64.793848 
1831.000000	64.790844 
1830.000000	64.788246 
1829.000000	64.785289 
1828.000000	64.781188 
1827.000000	64.775586 
1826.000000	64.768409 
1825.000000	64.760303 
1824.000000	64.752483 
1823.000000	64.746308 
1822.000000	64.743280 
1821.000000	64.744520 
1820.000000	64.750576 
1819.000000	64.761161 
1818.000000	64.775109 
1817.000000	64.790749 
1816.000000	64.805984 
1815.000000	64.818692 
1814.000000	64.827251 
1813.000000	64.830660 
1812.000000	64.828824 
1811.000000	64.822506 
1810.000000	64.813065 
1809.000000	64.802336 
1808.000000	64.791965 
1807.000000	64.783573 
1806.000000	64.778184 
1805.000000	64.776182 
1804.000000	64.777374 
1803.000000	64.781141 
1802.000000	64.786648 
1801.000000	64.792966 
1800.000000	64.799380 
1799.000000	64.805436 
1798.000000	64.811110 
1797.000000	64.816474 
1796.000000	64.821958 
1795.000000	64.827799 
1794.000000	64.833998 
1793.000000	64.840340 
1792.000000	64.846181 
1791.000000	64.850592 
1790.000000	64.852452 
1789.000000	64.850664 
1788.000000	64.844441 
1787.000000	64.833474 
1786.000000	64.818263 
1785.000000	64.800214 
1784.000000	64.781332 
1783.000000	64.763975 
1782.000000	64.750671 
1781.000000	64.743494 
1780.000000	64.743614 
1779.000000	64.751052 
1778.000000	64.764904 
1777.000000	64.783143 
1776.000000	64.803051 
1775.000000	64.821720 
1774.000000	64.836525 
1773.000000	64.845514 
1772.000000	64.847636 
1771.000000	64.842939 
1770.000000	64.832568 
1769.000000	64.818310 
1768.000000	64.802169 
1767.000000	64.786100 
1766.000000	64.771485 
1765.000000	64.759135 
1764.000000	64.749264 
1763.000000	64.741611 
1762.000000	64.735794 
1761.000000	64.731478 
1760.000000	64.728474 
1759.000000	64.726853 
1758.000000	64.726662 
1757.000000	64.727830 
1756.000000	64.729690 
1755.000000	64.731144 
1754.000000	64.730572 
1753.000000	64.726448 
1752.000000	64.717435 
1751.000000	64.702963 
1750.000000	64.683389 
1749.000000	64.660358 
1748.000000	64.636039 
1747.000000	64.613032 
1746.000000	64.593625 
1745.000000	64.579224 
1744.000000	64.570546 
1743.000000	64.567399 
1742.000000	64.568996 
1741.000000	64.574170 
1740.000000	64.581561 
1739.000000	64.589929 
1738.000000	64.598202 
1737.000000	64.605474 
1736.000000	64.610886 
1735.000000	64.613699 
1734.000000	64.613389 
1733.000000	64.609956 
1732.000000	64.603495 
1731.000000	64.594602 
1730.000000	64.584445 
1729.000000	64.574718 
1728.000000	64.567089 
1727.000000	64.563441 
1726.000000	64.565038 
1725.000000	64.572787 
1724.000000	64.586782 
1723.000000	64.606475 
1722.000000	64.630270 
1721.000000	64.655876 
1720.000000	64.680528 
1719.000000	64.701414 
1718.000000	64.716076 
1717.000000	64.723110 
1716.000000	64.722371 
1715.000000	64.715266 
1714.000000	64.704537 
1713.000000	64.693570 
1712.000000	64.685750 
1711.000000	64.683938 
1710.000000	64.689850 
1709.000000	64.704155 
1708.000000	64.726352 
1707.000000	64.755320 
1706.000000	64.789462 
1705.000000	64.827156 
1704.000000	64.866423 
1703.000000	64.905238 
1702.000000	64.941000 
1701.000000	64.970827 
1700.000000	64.991450 
1699.000000	64.999890 
1698.000000	64.994001 
1697.000000	64.973378 
1696.000000	64.939618 
1695.000000	64.896678 
1694.000000	64.849805 
1693.000000	64.805006 
1692.000000	64.767503 
1691.000000	64.740920 
1690.000000	64.726591 
1689.000000	64.723658 
1688.000000	64.729452 
1687.000000	64.740347 
1686.000000	64.752936 
1685.000000	64.764809 
1684.000000	64.774870 
1683.000000	64.783310 
1682.000000	64.791202 
1681.000000	64.799785 
1680.000000	64.809751 
1679.000000	64.820790 
1678.000000	64.831495 
1677.000000	64.839577 
1676.000000	64.842605 
1675.000000	64.838504 
1674.000000	64.826631 
1673.000000	64.807629 
1672.000000	64.783453 
1671.000000	64.756917 
1670.000000	64.731264 
1669.000000	64.709305 
1668.000000	64.692997 
1667.000000	64.683151 
1666.000000	64.679598 
1665.000000	64.681673 
1664.000000	64.688301 
1663.000000	64.698719 
1662.000000	64.712285 
1661.000000	64.728546 
1660.000000	64.747142 
1659.000000	64.767217 
1658.000000	64.787340 
1657.000000	64.805507 
1656.000000	64.819502 
1655.000000	64.827370 
1654.000000	64.827823 
1653.000000	64.820837 
1652.000000	64.807224 
1651.000000	64.788937 
1650.000000	64.768314 
1649.000000	64.747738 
1648.000000	64.729332 
1647.000000	64.714622 
1646.000000	64.704465 
1645.000000	64.699387 
1644.000000	64.699506 
1643.000000	64.704680 
1642.000000	64.714455 
1641.000000	64.728116 
1640.000000	64.744353 
1639.000000	64.761281 
1638.000000	64.776563 
1637.000000	64.787888 
1636.000000	64.793348 
1635.000000	64.791846 
1634.000000	64.783501 
1633.000000	64.769673 
1632.000000	64.752578 
1631.000000	64.734888 
1630.000000	64.718961 
1629.000000	64.706492 
1628.000000	64.698266 
1627.000000	64.694094 
1626.000000	64.693069 
1625.000000	64.693951 
1624.000000	64.695405 
1623.000000	64.696121 
1622.000000	64.695143 
1621.000000	64.691948 
1620.000000	64.686226 
1619.000000	64.678287 
1618.000000	64.668583 
1617.000000	64.658045 
1616.000000	64.647722 
1615.000000	64.638829 
1614.000000	64.632511 
1613.000000	64.629769 
1612.000000	64.631056 
1611.000000	64.636278 
1610.000000	64.644694 
1609.000000	64.655184 
1608.000000	64.666390 
1607.000000	64.677166 
1606.000000	64.686536 
1605.000000	64.694046 
1604.000000	64.699482 
1603.000000	64.703059 
1602.000000	64.705085 
1601.000000	64.706039 
1600.000000	64.706325 
1599.000000	64.706397 
1598.000000	64.706468 
1597.000000	64.706540 
1596.000000	64.706182 
1595.000000	64.704895 
1594.000000	64.701938 
1593.000000	64.696788 
1592.000000	64.689135 
1591.000000	64.679336 
1590.000000	64.667987 
1589.000000	64.655971 
1588.000000	64.644289 
1587.000000	64.633750 
1586.000000	64.625072 
1585.000000	64.618659 
1584.000000	64.614677 
1583.000000	64.613032 
1582.000000	64.613413 
1581.000000	64.615416 
1580.000000	64.618468 
1579.000000	64.621853 
1578.000000	64.624881 
1577.000000	64.627099 
1576.000000	64.628171 
1575.000000	64.628028 
1574.000000	64.626669 
1573.000000	64.624404 
1572.000000	64.621710 
1571.000000	64.619207 
1570.000000	64.617705 
1569.000000	64.618277 
1568.000000	64.621829 
1567.000000	64.629292 
1566.000000	64.641308 
1565.000000	64.658117 
1564.000000	64.679265 
1563.000000	64.703631 
1562.000000	64.729475 
1561.000000	64.754557 
1560.000000	64.776515 
1559.000000	64.793038 
1558.000000	64.802217 
1557.000000	64.802813 
1556.000000	64.794683 
1555.000000	64.778590 
1554.000000	64.756131 
1553.000000	64.729690 
1552.000000	64.702248 
1551.000000	64.676952 
1550.000000	64.656710 
1549.000000	64.643859 
1548.000000	64.639806 
1547.000000	64.644789 
1546.000000	64.657616 
1545.000000	64.675807 
1544.000000	64.695882 
1543.000000	64.713740 
1542.000000	64.725589 
1541.000000	64.728140 
1540.000000	64.719796 
1539.000000	64.700698 
1538.000000	64.672923 
1537.000000	64.639973 
1536.000000	64.606332 
1535.000000	64.576411 
1534.000000	64.554023 
1533.000000	64.541459 
1532.000000	64.539456 
1531.000000	64.547300 
1530.000000	64.563083 
1529.000000	64.584302 
1528.000000	64.608263 
1527.000000	64.632463 
1526.000000	64.654994 
1525.000000	64.674401 
1524.000000	64.689970 
1523.000000	64.701318 
1522.000000	64.708590 
1521.000000	64.712309 
1520.000000	64.713001 
1519.000000	64.711236 
1518.000000	64.707827 
1517.000000	64.703345 
1516.000000	64.698433 
1515.000000	64.693307 
1514.000000	64.688277 
1513.000000	64.683318 
1512.000000	64.678573 
1511.000000	64.673924 
1510.000000	64.669251 
1509.000000	64.664506 
1508.000000	64.659595 
1507.000000	64.654493 
1506.000000	64.649391 
1505.000000	64.644742 
1504.000000	64.641356 
1503.000000	64.640212 
1502.000000	64.642381 
1501.000000	64.648652 
1500.000000	64.659214 
1499.000000	64.673304 
1498.000000	64.689207 
1497.000000	64.704847 
1496.000000	64.718127 
1495.000000	64.727210 
1494.000000	64.731073 
1493.000000	64.729785 
1492.000000	64.724254 
1491.000000	64.716243 
1490.000000	64.707446 
1489.000000	64.699387 
1488.000000	64.692807 
1487.000000	64.687824 
1486.000000	64.683842 
1485.000000	64.680218 
1484.000000	64.676475 
1483.000000	64.672636 
1482.000000	64.669179 
1481.000000	64.666819 
1480.000000	64.666199 
1479.000000	64.667606 
1478.000000	64.670610 
1477.000000	64.673995 
1476.000000	64.675974 
1475.000000	64.674568 
1474.000000	64.667940 
1473.000000	64.654636 
1472.000000	64.634060 
1471.000000	64.606738 
1470.000000	64.574360 
1469.000000	64.539742 
1468.000000	64.506411 
1467.000000	64.478445 
1466.000000	64.459705 
1465.000000	64.453244 
1464.000000	64.460682 
1463.000000	64.481687 
1462.000000	64.513731 
1461.000000	64.552736 
1460.000000	64.593076 
1459.000000	64.629173 
1458.000000	64.656209 
1457.000000	64.671516 
1456.000000	64.674568 
1455.000000	64.667582 
1454.000000	64.654374 
1453.000000	64.639925 
1452.000000	64.628982 
1451.000000	64.625048 
1450.000000	64.629793 
1449.000000	64.642786 
1448.000000	64.662146 
1447.000000	64.684796 
1446.000000	64.707589 
1445.000000	64.727687 
1444.000000	64.743351 
1443.000000	64.753723 
1442.000000	64.758825 
1441.000000	64.759087 
1440.000000	64.755058 
1439.000000	64.747571 
1438.000000	64.737224 
1437.000000	64.725112 
1436.000000	64.711761 
1435.000000	64.697909 
1434.000000	64.683914 
1433.000000	64.669847 
1432.000000	64.655780 
1431.000000	64.641714 
1430.000000	64.628052 
1429.000000	64.615297 
1428.000000	64.604640 
1427.000000	64.597606 
1426.000000	64.595818 
1425.000000	64.600419 
1424.000000	64.611911 
1423.000000	64.629721 
1422.000000	64.652419 
1421.000000	64.677524 
1420.000000	64.702105 
1419.000000	64.723229 
1418.000000	64.738368 
1417.000000	64.745616 
1416.000000	64.743971 
1415.000000	64.733362 
1414.000000	64.714360 
1413.000000	64.688158 
1412.000000	64.656519 
1411.000000	64.621782 
1410.000000	64.586615 
1409.000000	64.553856 
1408.000000	64.526271 
1407.000000	64.506101 
1406.000000	64.494681 
1405.000000	64.492249 
1404.000000	64.497542 
1403.000000	64.508104 
1402.000000	64.520740 
1401.000000	64.532375 
1400.000000	64.540266 
1399.000000	64.543080 
1398.000000	64.540767 
1397.000000	64.534592 
1396.000000	64.526391 
1395.000000	64.518213 
1394.000000	64.511561 
1393.000000	64.507102 
1392.000000	64.504623 
1391.000000	64.503049 
1390.000000	64.500927 
1389.000000	64.496827 
1388.000000	64.489889 
1387.000000	64.479780 
1386.000000	64.466905 
1385.000000	64.452385 
1384.000000	64.437794 
1383.000000	64.424729 
1382.000000	64.414811 
1381.000000	64.409232 
1380.000000	64.408779 
1379.000000	64.413642 
1378.000000	64.423584 
1377.000000	64.437770 
1376.000000	64.454913 
1375.000000	64.473605 
1374.000000	64.492559 
1373.000000	64.510679 
1372.000000	64.527201 
1371.000000	64.541864 
1370.000000	64.554572 
1369.000000	64.565372 
1368.000000	64.574074 
1367.000000	64.580273 
1366.000000	64.583301 
1365.000000	64.582538 
1364.000000	64.577436 
1363.000000	64.568114 
1362.000000	64.555215 
1361.000000	64.540028 
1360.000000	64.524197 
1359.000000	64.509510 
1358.000000	64.497447 
1357.000000	64.488863 
1356.000000	64.484024 
1355.000000	64.482522 
1354.000000	64.483428 
1353.000000	64.485859 
1352.000000	64.489102 
1351.000000	64.493012 
1350.000000	64.497637 
1349.000000	64.503383 
1348.000000	64.510560 
1347.000000	64.519405 
1346.000000	64.529514 
1345.000000	64.540195 
1344.000000	64.550328 
1343.000000	64.558672 
1342.000000	64.564204 
1341.000000	64.566111 
1340.000000	64.563989 
1339.000000	64.557862 
1338.000000	64.548206 
1337.000000	64.535522 
1336.000000	64.520406 
1335.000000	64.503407 
1334.000000	64.485120 
1333.000000	64.466166 
1332.000000	64.447474 
1331.000000	64.429879 
1330.000000	64.414429 
1329.000000	64.402008 
1328.000000	64.393544 
1327.000000	64.389657 
1326.000000	64.390802 
1325.000000	64.396929 
1324.000000	64.407634 
1323.000000	64.422035 
1322.000000	64.439058 
1321.000000	64.457345 
1320.000000	64.475393 
1319.000000	64.492034 
1318.000000	64.506268 
1317.000000	64.517378 
1316.000000	64.524841 
1315.000000	64.528465 
1314.000000	64.528155 
1313.000000	64.523959 
1312.000000	64.516282 
1311.000000	64.505887 
1310.000000	64.493894 
1309.000000	64.481759 
1308.000000	64.471197 
1307.000000	64.463806 
1306.000000	64.460730 
1305.000000	64.462494 
1304.000000	64.468574 
1303.000000	64.477658 
1302.000000	64.487791 
1301.000000	64.496850 
1300.000000	64.503002 
1299.000000	64.505124 
1298.000000	64.503216 
1297.000000	64.498138 
1296.000000	64.491367 
1295.000000	64.484500 
1294.000000	64.478826 
1293.000000	64.474940 
1292.000000	64.472508 
1291.000000	64.470338 
1290.000000	64.466857 
1289.000000	64.460515 
1288.000000	64.450263 
1287.000000	64.435791 
1286.000000	64.417862 
1285.000000	64.398026 
1284.000000	64.378333 
1283.000000	64.360880 
1282.000000	64.347386 
1281.000000	64.338755 
1280.000000	64.335012 
1279.000000	64.335417 
1278.000000	64.338660 
1277.000000	64.343261 
1276.000000	64.347934 
1275.000000	64.351701 
1274.000000	64.354205 
1273.000000	64.355397 
1272.000000	64.355635 
1271.000000	64.355230 
1270.000000	64.354634 
1269.000000	64.354133 
1268.000000	64.353823 
1267.000000	64.353919 
1266.000000	64.354538 
1265.000000	64.355945 
1264.000000	64.358353 
1263.000000	64.362001 
1262.000000	64.367032 
1261.000000	64.373278 
1260.000000	64.380407 
1259.000000	64.387845 
1258.000000	64.394783 
1257.000000	64.400434 
1256.000000	64.404010 
1255.000000	64.404940 
1254.000000	64.402747 
1253.000000	64.397263 
1252.000000	64.388489 
1251.000000	64.376759 
1250.000000	64.362859 
1249.000000	64.348030 
1248.000000	64.333963 
1247.000000	64.322566 
1246.000000	64.315557 
1245.000000	64.314103 
1244.000000	64.318656 
1243.000000	64.328694 
1242.000000	64.343023 
1241.000000	64.359760 
1240.000000	64.376664 
1239.000000	64.391446 
1238.000000	64.402341 
1237.000000	64.408063 
1236.000000	64.408087 
1235.000000	64.402723 
1234.000000	64.393043 
1233.000000	64.380717 
1232.000000	64.367675 
1231.000000	64.355778 
1230.000000	64.346385 
1229.000000	64.340114 
1228.000000	64.336705 
1227.000000	64.335179 
1226.000000	64.334321 
1225.000000	64.332795 
1224.000000	64.329981 
1223.000000	64.326190 
1222.000000	64.322996 
1221.000000	64.322781 
1220.000000	64.327979 
1219.000000	64.340734 
1218.000000	64.361691 
1217.000000	64.389920 
1216.000000	64.422440 
1215.000000	64.455223 
1214.000000	64.483785 
1213.000000	64.504075 
1212.000000	64.513540 
1211.000000	64.511847 
1210.000000	64.500808 
1209.000000	64.483785 
1208.000000	64.465069 
1207.000000	64.449071 
1206.000000	64.439105 
1205.000000	64.436769 
1204.000000	64.441704 
1203.000000	64.451885 
1202.000000	64.464187 
1201.000000	64.475297 
1200.000000	64.482045 
1199.000000	64.482450 
1198.000000	64.475774 
1197.000000	64.462709 
1196.000000	64.444804 
1195.000000	64.424300 
1194.000000	64.403629 
1193.000000	64.384794 
1192.000000	64.369082 
1191.000000	64.356660 
1190.000000	64.347028 
1189.000000	64.338922 
1188.000000	64.330720 
1187.000000	64.320802 
1186.000000	64.307856 
1185.000000	64.291143 
1184.000000	64.270734 
1183.000000	64.247417 
1182.000000	64.222359 
1181.000000	64.197206 
1180.000000	64.173889 
1179.000000	64.154267 
1178.000000	64.139771 
1177.000000	64.131236 
1176.000000	64.128565 
1175.000000	64.131236 
1174.000000	64.138126 
1173.000000	64.147901 
1172.000000	64.159488 
1171.000000	64.172101 
1170.000000	64.185667 
1169.000000	64.200377 
1168.000000	64.216685 
1167.000000	64.234924 
1166.000000	64.255023 
1165.000000	64.276409 
1164.000000	64.297747 
1163.000000	64.317727 
1162.000000	64.334750 
1161.000000	64.347481 
1160.000000	64.354801 
1159.000000	64.356493 
1158.000000	64.352798 
1157.000000	64.344477 
1156.000000	64.332509 
1155.000000	64.318013 
1154.000000	64.302086 
1153.000000	64.285731 
1152.000000	64.269804 
1151.000000	64.255166 
1150.000000	64.242911 
1149.000000	64.234280 
1148.000000	64.230585 
1147.000000	64.232945 
1146.000000	64.242029 
1145.000000	64.257884 
1144.000000	64.279508 
1143.000000	64.305186 
1142.000000	64.332532 
1141.000000	64.359331 
1140.000000	64.383316 
1139.000000	64.403152 
1138.000000	64.418363 
1137.000000	64.429473 
1136.000000	64.437699 
1135.000000	64.444470 
1134.000000	64.451313 
1133.000000	64.459061 
1132.000000	64.468002 
1131.000000	64.477515 
1130.000000	64.486551 
1129.000000	64.493656 
1128.000000	64.497470 
1127.000000	64.496707 
1126.000000	64.490389 
1125.000000	64.477992 
1124.000000	64.459800 
1123.000000	64.436793 
1122.000000	64.410424 
1121.000000	64.382767 
1120.000000	64.356255 
1119.000000	64.333081 
1118.000000	64.314818 
1117.000000	64.301943 
1116.000000	64.293956 
1115.000000	64.289307 
1114.000000	64.286017 
1113.000000	64.281988 
1112.000000	64.275860 
1111.000000	64.267110 
1110.000000	64.256310 
1109.000000	64.244771 
1108.000000	64.234447 
1107.000000	64.227175 
1106.000000	64.224648 
1105.000000	64.227366 
1104.000000	64.235424 
1103.000000	64.248156 
1102.000000	64.264869 
1101.000000	64.284849 
1100.000000	64.308190 
1099.000000	64.335656 
1098.000000	64.368152 
1097.000000	64.406156 
1096.000000	64.448833 
1095.000000	64.493823 
1094.000000	64.536881 
1093.000000	64.572834 
1092.000000	64.596796 
1091.000000	64.605593 
1090.000000	64.598846 
1089.000000	64.579319 
1088.000000	64.552354 
1087.000000	64.524817 
1086.000000	64.503502 
1085.000000	64.493417 
1084.000000	64.496755 
1083.000000	64.512228 
1082.000000	64.536094 
1081.000000	64.562726 
1080.000000	64.586377 
1079.000000	64.601969 
1078.000000	64.606595 
1077.000000	64.599132 
1076.000000	64.580368 
1075.000000	64.552235 
1074.000000	64.517021 
1073.000000	64.476919 
1072.000000	64.434099 
1071.000000	64.390254 
1070.000000	64.347076 
1069.000000	64.305925 
1068.000000	64.268064 
1067.000000	64.234161 
1066.000000	64.204573 
1065.000000	64.179205 
1064.000000	64.157938 
1063.000000	64.140462 
1062.000000	64.126753 
1061.000000	64.117121 
1060.000000	64.112210 
1059.000000	64.112830 
1058.000000	64.119672 
1057.000000	64.132952 
1056.000000	64.152121 
1055.000000	64.175891 
1054.000000	64.201736 
1053.000000	64.226460 
1052.000000	64.246368 
1051.000000	64.258146 
1050.000000	64.259457 
1049.000000	64.249324 
1048.000000	64.228630 
1047.000000	64.200162 
1046.000000	64.168024 
1045.000000	64.136981 
1044.000000	64.111661 
1043.000000	64.095568 
1042.000000	64.090275 
1041.000000	64.095282 
1040.000000	64.108014 
1039.000000	64.124631 
1038.000000	64.141130 
1037.000000	64.154171 
1036.000000	64.162135 
1035.000000	64.165282 
1034.000000	64.165592 
1033.000000	64.165925 
1032.000000	64.169120 
1031.000000	64.177131 
1030.000000	64.190340 
1029.000000	64.207458 
1028.000000	64.225983 
1027.000000	64.242815 
1026.000000	64.255261 
1025.000000	64.262032 
1024.000000	64.263391 
1023.000000	64.261364 
1022.000000	64.259171 
1021.000000	64.260363 
1020.000000	64.267587 
1019.000000	64.281988 
1018.000000	64.302730 
1017.000000	64.327025 
1016.000000	64.350748 
1015.000000	64.369368 
1014.000000	64.378929 
1013.000000	64.377117 
1012.000000	64.363765 
1011.000000	64.340972 
1010.000000	64.312601 
1009.000000	64.283347 
1008.000000	64.257836 
1007.000000	64.239525 
1006.000000	64.229893 
1005.000000	64.228272 
1004.000000	64.232254 
1003.000000	64.238786 
1002.000000	64.244580 
1001.000000	64.247465 
1000.000000	64.246487 
999.000000	 64.242053 
998.000000	 64.235520 
997.000000	 64.228534 
996.000000	 64.222550 
995.000000	 64.218235 
994.000000	 64.215493 
993.000000	 64.213514 
992.000000	 64.210963 
991.000000	 64.206624 
990.000000	 64.199781 
989.000000	 64.190459 
988.000000	 64.179611 
987.000000	 64.168620 
986.000000	 64.159393 
985.000000	 64.153623 
984.000000	 64.152574 
983.000000	 64.156937 
982.000000	 64.166569 
981.000000	 64.180612 
980.000000	 64.197731 
979.000000	 64.216351 
978.000000	 64.234781 
977.000000	 64.251732 
976.000000	 64.266300 
975.000000	 64.278173 
974.000000	 64.287567 
973.000000	 64.295125 
972.000000	 64.301562 
971.000000	 64.307594 
970.000000	 64.313817 
969.000000	 64.320588 
968.000000	 64.328193 
967.000000	 64.336752 
966.000000	 64.346313 
965.000000	 64.356851 
964.000000	 64.368200 
963.000000	 64.379954 
962.000000	 64.391446 
961.000000	 64.402103 
960.000000	 64.411330 
959.000000	 64.418888 
958.000000	 64.424705 
957.000000	 64.429163 
956.000000	 64.432787 
955.000000	 64.436149 
954.000000	 64.439392 
953.000000	 64.441919 
952.000000	 64.442491 
951.000000	 64.439201 
950.000000	 64.430284 
949.000000	 64.414572 
948.000000	 64.392161 
947.000000	 64.364624 
946.000000	 64.334964 
945.000000	 64.307141 
944.000000	 64.285182 
943.000000	 64.272332 
942.000000	 64.270138 
941.000000	 64.278268 
940.000000	 64.294385 
939.000000	 64.314746 
938.000000	 64.334774 
937.000000	 64.350295 
936.000000	 64.358043 
935.000000	 64.356327 
934.000000	 64.345216 
933.000000	 64.326119 
932.000000	 64.301538 
931.000000	 64.274477 
930.000000	 64.247870 
929.000000	 64.224171 
928.000000	 64.205241 
927.000000	 64.192104 
926.000000	 64.185142 
925.000000	 64.183998 
924.000000	 64.187812 
923.000000	 64.195561 
922.000000	 64.205932 
921.000000	 64.217972 
920.000000	 64.230847 
919.000000	 64.243960 
918.000000	 64.256954 
917.000000	 64.269542 
916.000000	 64.281535 
915.000000	 64.292502 
914.000000	 64.301872 
913.000000	 64.309096 
912.000000	 64.313507 
911.000000	 64.314770 
910.000000	 64.313054 
909.000000	 64.309144 
908.000000	 64.304256 
907.000000	 64.300036 
906.000000	 64.297938 
905.000000	 64.299178 
904.000000	 64.304232 
903.000000	 64.312648 
902.000000	 64.323234 
901.000000	 64.334321 
900.000000	 64.344048 
899.000000	 64.350628 
898.000000	 64.352869 
897.000000	 64.350366 
896.000000	 64.343833 
895.000000	 64.335107 
894.000000	 64.326667 
893.000000	 64.321327 
892.000000	 64.321279 
891.000000	 64.327979 
890.000000	 64.341020 
889.000000	 64.358592 
888.000000	 64.377140 
887.000000	 64.392280 
886.000000	 64.399528 
885.000000	 64.395403 
884.000000	 64.378380 
883.000000	 64.349341 
882.000000	 64.311623 
881.000000	 64.270496 
880.000000	 64.231896 
879.000000	 64.201045 
878.000000	 64.181566 
877.000000	 64.174842 
876.000000	 64.179968 
875.000000	 64.194059 
874.000000	 64.213299 
873.000000	 64.233684 
872.000000	 64.251518 
871.000000	 64.264178 
870.000000	 64.269781 
869.000000	 64.267492 
868.000000	 64.257359 
867.000000	 64.240264 
866.000000	 64.217686 
865.000000	 64.191770 
864.000000	 64.165329 
863.000000	 64.141488 
862.000000	 64.123296 
861.000000	 64.113450 
860.000000	 64.113521 
859.000000	 64.123916 
858.000000	 64.143443 
857.000000	 64.170122 
856.000000	 64.201521 
855.000000	 64.235377 
854.000000	 64.269852 
853.000000	 64.303731 
852.000000	 64.336299 
851.000000	 64.366936 
850.000000	 64.394974 
849.000000	 64.419460 
848.000000	 64.439129 
847.000000	 64.452791 
846.000000	 64.459419 
845.000000	 64.458751 
844.000000	 64.451169 
843.000000	 64.437890 
842.000000	 64.420604 
841.000000	 64.401292 
840.000000	 64.381670 
839.000000	 64.363074 
838.000000	 64.345955 
837.000000	 64.330434 
836.000000	 64.315795 
835.000000	 64.301133 
834.000000	 64.285397 
833.000000	 64.267349 
832.000000	 64.246177 
831.000000	 64.221334 
830.000000	 64.193511 
829.000000	 64.164590 
828.000000	 64.137625 
827.000000	 64.116168 
826.000000	 64.103341 
825.000000	 64.100837 
824.000000	 64.108037 
823.000000	 64.121770 
822.000000	 64.137125 
821.000000	 64.148473 
820.000000	 64.150834 
819.000000	 64.141178 
818.000000	 64.119100 
817.000000	 64.087224 
816.000000	 64.050364 
815.000000	 64.014935 
814.000000	 63.987231 
813.000000	 63.972377 
812.000000	 63.973355 
811.000000	 63.990187 
810.000000	 64.020013 
809.000000	 64.057493 
808.000000	 64.096474 
807.000000	 64.130878 
806.000000	 64.155745 
805.000000	 64.168524 
804.000000	 64.169073 
803.000000	 64.159584 
802.000000	 64.143705 
801.000000	 64.125514 
800.000000	 64.108610 
799.000000	 64.095306 
798.000000	 64.086246 
797.000000	 64.080691 
796.000000	 64.077138 
795.000000	 64.074039 
794.000000	 64.070606 
793.000000	 64.067316 
792.000000	 64.065694 
791.000000	 64.067816 
790.000000	 64.075708 
789.000000	 64.090299 
788.000000	 64.111208 
787.000000	 64.136958 
786.000000	 64.165115 
785.000000	 64.193201 
784.000000	 64.218950 
783.000000	 64.241075 
782.000000	 64.259266 
781.000000	 64.274048 
780.000000	 64.286446 
779.000000	 64.297556 
778.000000	 64.307641 
777.000000	 64.316177 
776.000000	 64.321255 
775.000000	 64.320564 
774.000000	 64.311504 
773.000000	 64.292168 
772.000000	 64.261889 
771.000000	 64.221978 
770.000000	 64.175534 
769.000000	 64.127254 
768.000000	 64.082384 
767.000000	 64.045739 
766.000000	 64.020657 
765.000000	 64.008259 
764.000000	 64.007329 
763.000000	 64.014744 
762.000000	 64.026331 
761.000000	 64.037942 
760.000000	 64.046406 
759.000000	 64.050173 
758.000000	 64.049625 
757.000000	 64.046239 
756.000000	 64.041686 
755.000000	 64.036989 
754.000000	 64.031958 
753.000000	 64.024972 
752.000000	 64.013814 
751.000000	 63.996386 
750.000000	 63.971734 
749.000000	 63.940691 
748.000000	 63.906168 
747.000000	 63.872337 
746.000000	 63.844013 
745.000000	 63.824939 
744.000000	 63.817071 
743.000000	 63.819599 
742.000000	 63.829445 
741.000000	 63.841843 
740.000000	 63.851976 
739.000000	 63.855981 
738.000000	 63.852548 
737.000000	 63.843154 
736.000000	 63.832020 
735.000000	 63.824868 
734.000000	 63.827610 
733.000000	 63.844656 
732.000000	 63.877749 
731.000000	 63.925528 
730.000000	 63.983464 
729.000000	 64.045166 
728.000000	 64.103388 
727.000000	 64.151740 
726.000000	 64.185762 
725.000000	 64.203619 
724.000000	 64.206337 
723.000000	 64.197254 
722.000000	 64.180898 
721.000000	 64.162039 
720.000000	 64.144659 
719.000000	 64.131426 
718.000000	 64.123392 
717.000000	 64.120221 
716.000000	 64.120531 
715.000000	 64.122390 
714.000000	 64.123630 
713.000000	 64.122176 
712.000000	 64.116358 
711.000000	 64.105105 
710.000000	 64.088129 
709.000000	 64.065980 
708.000000	 64.039921 
707.000000	 64.011883 
706.000000	 63.984084 
705.000000	 63.958644 
704.000000	 63.937354 
703.000000	 63.921523 
702.000000	 63.911366 
701.000000	 63.906836 
700.000000	 63.907289 
699.000000	 63.912105 
698.000000	 63.920521 
697.000000	 63.931703 
696.000000	 63.944721 
695.000000	 63.958191 
694.000000	 63.970255 
693.000000	 63.978528 
692.000000	 63.980340 
691.000000	 63.973546 
690.000000	 63.957071 
689.000000	 63.931679 
688.000000	 63.900017 
687.000000	 63.866281 
686.000000	 63.835287 
685.000000	 63.811540 
684.000000	 63.798522 
683.000000	 63.797593 
682.000000	 63.808083 
681.000000	 63.827276 
680.000000	 63.851666 
679.000000	 63.877415 
678.000000	 63.901877 
677.000000	 63.923573 
676.000000	 63.943266 
675.000000	 63.962769 
674.000000	 63.985085 
673.000000	 64.012885 
672.000000	 64.047718 
671.000000	 64.089465 
670.000000	 64.135909 
669.000000	 64.183259 
668.000000	 64.226746 
667.000000	 64.261889 
666.000000	 64.285230 
665.000000	 64.295339 
664.000000	 64.293169 
663.000000	 64.281845 
662.000000	 64.266037 
661.000000	 64.250898 
660.000000	 64.240932 
659.000000	 64.238882 
658.000000	 64.245462 
657.000000	 64.259147 
656.000000	 64.276790 
655.000000	 64.294219 
654.000000	 64.307403 
653.000000	 64.313316 
652.000000	 64.310693 
651.000000	 64.300107 
650.000000	 64.283704 
649.000000	 64.264202 
648.000000	 64.244341 
647.000000	 64.225816 
646.000000	 64.209198 
645.000000	 64.193606 
644.000000	 64.177799 
643.000000	 64.160060 
642.000000	 64.139151 
641.000000	 64.114522 
640.000000	 64.086651 
639.000000	 64.056968 
638.000000	 64.027428 
637.000000	 64.000988 
636.000000	 63.980603 
635.000000	 63.969659 
634.000000	 63.970947 
633.000000	 63.985466 
632.000000	 64.011740 
631.000000	 64.045763 
630.000000	 64.081358 
629.000000	 64.110875 
628.000000	 64.126992 
627.000000	 64.123964 
626.000000	 64.099860 
625.000000	 64.057135 
624.000000	 64.002823 
623.000000	 63.946962 
622.000000	 63.900566 
621.000000	 63.873410 
620.000000	 63.871073 
619.000000	 63.894033 
618.000000	 63.937020 
617.000000	 63.990378 
616.000000	 64.042615 
615.000000	 64.082646 
614.000000	 64.103746 
613.000000	 64.104175 
612.000000	 64.089155 
611.000000	 64.068627 
610.000000	 64.056563 
609.000000	 64.066576 
608.000000	 64.109683 
607.000000	 64.190673 
606.000000	 64.306712 
605.000000	 64.447164 
604.000000	 64.595556 
603.000000	 64.732623 
602.000000	 64.840030 
601.000000	 64.904308 
600.000000	 64.919137 
599.000000	 64.886307 
598.000000	 64.815378 
597.000000	 64.720487 
596.000000	 64.617729 
595.000000	 64.520883 
594.000000	 64.439940 
593.000000	 64.378523 
592.000000	 64.335799 
591.000000	 64.306759 
590.000000	 64.285564 
589.000000	 64.267373 
588.000000	 64.249753 
587.000000	 64.233803 
586.000000	 64.223003 
585.000000	 64.221978 
584.000000	 64.233279 
583.000000	 64.257907 
582.000000	 64.294028 
581.000000	 64.336991 
580.000000	 64.380097 
579.000000	 64.416837 
578.000000	 64.442110 
577.000000	 64.453005 
576.000000	 64.448952 
575.000000	 64.431428 
574.000000	 64.403319 
573.000000	 64.367794 
572.000000	 64.327836 
571.000000	 64.286494 
570.000000	 64.246225 
569.000000	 64.209818 
568.000000	 64.179277 
567.000000	 64.156270 
566.000000	 64.141178 
565.000000	 64.133977 
564.000000	 64.132618 
563.000000	 64.132595 
562.000000	 64.128327 
561.000000	 64.115166 
560.000000	 64.088964 
559.000000	 64.046597 
558.000000	 63.986635 
557.000000	 63.910150 
556.000000	 63.819646 
555.000000	 63.718843 
554.000000	 63.611960 
553.000000	 63.503265 
552.000000	 63.397550 
551.000000	 63.299965 
550.000000	 63.216400 
549.000000	 63.152933 
548.000000	 63.114857 
547.000000	 63.105845 
546.000000	 63.126444 
545.000000	 63.174271 
544.000000	 63.242411 
543.000000	 63.322758 
542.000000	 63.403868 
541.000000	 63.478231 
540.000000	 63.542580 
539.000000	 63.601255 
538.000000	 63.662719 
537.000000	 63.739681 
536.000000	 63.845515 
535.000000	 63.989186 
534.000000	 64.172387 
533.000000	 64.385795 
532.000000	 64.610838 
531.000000	 64.821767 
530.000000	 64.992547 
529.000000	 65.099787 
528.000000	 65.128755 
527.000000	 65.077018 
526.000000	 64.955759 
525.000000	 64.789795 
524.000000	 64.612650 
523.000000	 64.461398 
522.000000	 64.367556 
521.000000	 64.351844 
520.000000	 64.417171 
519.000000	 64.550089 
518.000000	 64.719820 
517.000000	 64.887166 
516.000000	 65.008759 
515.000000	 65.047502 
514.000000	 64.977502 
513.000000	 64.786577 
512.000000	 64.481592 
511.000000	 64.083385 
510.000000	 63.629913 
509.000000	 63.168072 
508.000000	 62.750625 
507.000000	 62.427687 
506.000000	 62.238454 
505.000000	 62.205410 
504.000000	 62.327218 
503.000000	 62.578797 
502.000000	 62.914276 
501.000000	 63.275456 
500.000000	 63.600492 
499.000000	 63.835144 
498.000000	 63.944101 
497.000000	 63.916349 
496.000000	 63.765120 
495.000000	 63.523149 
494.000000	 63.234353 
493.000000	 62.943530 
492.000000	 62.688636 
491.000000	 62.494087 
490.000000	 62.369394 
489.000000	 62.311220 
488.000000	 62.310314 
487.000000	 62.355780 
486.000000	 62.438178 
485.000000	 62.552928 
484.000000	 62.696933 
483.000000	 62.869453 
482.000000	 63.066363 
481.000000	 63.280177 
480.000000	 63.497352 
479.000000	 63.700127 
478.000000	 63.868761 
477.000000	 63.985562 
476.000000	 64.040589 
475.000000	 64.029312 
474.000000	 63.953781 
473.000000	 63.822460 
472.000000	 63.649296 
471.000000	 63.450646 
470.000000	 63.243699 
469.000000	 63.045120 
468.000000	 62.869906 
467.000000	 62.729597 
466.000000	 62.633228 
465.000000	 62.585139 
464.000000	 62.587809 
463.000000	 62.642407 
462.000000	 62.748742 
461.000000	 62.905263 
460.000000	 63.105177 
459.000000	 63.334035 
458.000000	 63.569903 
457.000000	 63.783431 
456.000000	 63.944792 
455.000000	 64.029169 
454.000000	 64.023494 
453.000000	 63.928604 
452.000000	 63.763213 
451.000000	 63.561511 
450.000000	 63.365578 
449.000000	 63.215923 
448.000000	 63.145542 
447.000000	 63.173413 
446.000000	 63.301730 
445.000000	 63.516426 
444.000000	 63.792991 
443.000000	 64.101386 
442.000000	 64.411973 
441.000000	 64.698958 
440.000000	 64.940237 
439.000000	 65.119314 
438.000000	 65.223360 
437.000000	 65.246367 
436.000000	 65.190243 
435.000000	 65.064883 
434.000000	 64.894723 
433.000000	 64.706683 
432.000000	 64.526271 
431.000000	 64.368629 
430.000000	 64.245414 
429.000000	 64.151167 
428.000000	 64.065599 
427.000000	 63.959622 
426.000000	 63.805794 
425.000000	 63.585805 
424.000000	 63.298773 
423.000000	 62.959671 
422.000000	 62.593030 
421.000000	 62.236452 
420.000000	 61.933064 
419.000000	 61.717009 
418.000000	 61.604595 
417.000000	 61.597919 
416.000000	 61.683368 
415.000000	 61.832571 
414.000000	 62.008857 
413.000000	 62.166690 
412.000000	 62.268304 
411.000000	 62.283492 
410.000000	 62.213492 
409.000000	 62.077522 
408.000000	 61.936068 
407.000000	 61.875438 
406.000000	 62.003946 
405.000000	 62.425899 
404.000000	 63.215422 
403.000000	 64.399385 
402.000000	 65.927171 
401.000000	 67.690896 
400.000000	 69.503450 
399.000000	 71.136903 
398.000000	 72.347450 
397.000000	 72.941780 
396.000000	 72.781205 
395.000000	 71.812891 
394.000000	 70.088076 
393.000000	 67.753481 
392.000000	 65.058422 
391.000000	 62.335443 
390.000000	 59.833359 
389.000000	 57.701349 
388.000000	 56.118035 
387.000000	 55.207753 
386.000000	 55.230379 
385.000000	 56.446361 
384.000000	 58.302903 
383.000000	 60.067367 
382.000000	 61.293625 
381.000000	 61.840653 
380.000000	 62.965130 
379.000000	 65.780663 
378.000000	 70.286941 
377.000000	 75.638270 
376.000000	 78.621315 
375.000000	 76.799798 
374.000000	 70.234894 
373.000000	 60.876584 
372.000000	 54.682207 
371.000000	 55.297136 
370.000000	 61.659550 

