PE IR       SPECTRUM    SPECTRUM    ASCII       PEDS        1.60        
  -1
BZBC70~1.ASC
17/04/07
23:06:50.00
17/04/07
23:06:50.00
tln
$BZ1503107-1_t0120$<tbV0>[-10.4,13.0,8.0,0.0,27,1,0]
370.000000
64









2002,4.07    
MIRTGS : RIGHTBACK : INTERNAL 2
MIR : ON : INTERNAL 2
OPTKBR

0.200000
8
8.000000
FILLER
RATIO
SPECTRUM
UNLOCKED 256

DOUBLE
64
COMBINED
1
0
0


1.000000
RATIO


1
0
TRUE
51149
0
LEFT NOT FITTED RIGHT NOT FITTED 0
NONE
NONE
15600
12.000000
4.427000
51148
TRUE
1 0 8 72 0 0 0 0 

15798.010000






#HDR
-1
-1
#GR
CM-1
%T
0.00002384185791015625
0.0
5000.000000
-1.000000
4631
8
70.460510
50.779151
#DATA
5000.000000	66.820359 
4999.000000	66.434550 
4998.000000	66.076231 
4997.000000	65.779590 
4996.000000	65.568661 
4995.000000	65.457296 
4994.000000	65.447211 
4993.000000	65.529155 
4992.000000	65.684461 
4991.000000	65.886831 
4990.000000	66.106772 
4989.000000	66.314840 
4988.000000	66.484022 
4987.000000	66.592383 
4986.000000	66.623044 
4985.000000	66.565108 
4984.000000	66.414785 
4983.000000	66.176509 
4982.000000	65.861940 
4981.000000	65.490365 
4980.000000	65.089416 
4979.000000	64.693355 
4978.000000	64.337539 
4977.000000	64.055490 
4976.000000	63.876342 
4975.000000	63.819789 
4974.000000	63.888978 
4973.000000	64.072465 
4972.000000	64.343738 
4971.000000	64.668893 
4970.000000	65.008163 
4969.000000	65.327978 
4968.000000	65.601229 
4967.000000	65.816593 
4966.000000	65.976929 
4965.000000	66.097140 
4964.000000	66.196894 
4963.000000	66.293883 
4962.000000	66.400051 
4961.000000	66.512966 
4960.000000	66.618156 
4959.000000	66.691112 
4958.000000	66.706275 
4957.000000	66.644406 
4956.000000	66.500306 
4955.000000	66.285252 
4954.000000	66.025114 
4953.000000	65.752959 
4952.000000	65.500712 
4951.000000	65.290951 
4950.000000	65.132427 
4949.000000	65.018653 
4948.000000	64.933180 
4947.000000	64.856767 
4946.000000	64.775681 
4945.000000	64.685273 
4944.000000	64.594459 
4943.000000	64.519834 
4942.000000	64.484000 
4941.000000	64.504933 
4940.000000	64.593672 
4939.000000	64.745903 
4938.000000	64.946675 
4937.000000	65.173816 
4936.000000	65.401959 
4935.000000	65.608406 
4934.000000	65.775990 
4933.000000	65.896081 
4932.000000	65.966320 
4931.000000	65.988850 
4930.000000	65.969300 
4929.000000	65.914559 
4928.000000	65.832877 
4927.000000	65.732502 
4926.000000	65.621495 
4925.000000	65.506720 
4924.000000	65.394306 
4923.000000	65.289115 
4922.000000	65.193295 
4921.000000	65.107607 
4920.000000	65.032005 
4919.000000	64.967298 
4918.000000	64.914345 
4917.000000	64.876079 
4916.000000	64.856338 
4915.000000	64.859008 
4914.000000	64.886021 
4913.000000	64.936280 
4912.000000	65.003824 
4911.000000	65.079331 
4910.000000	65.151476 
4909.000000	65.208816 
4908.000000	65.242266 
4907.000000	65.245962 
4906.000000	65.218448 
4905.000000	65.162110 
4904.000000	65.082263 
4903.000000	64.987874 
4902.000000	64.890050 
4901.000000	64.800858 
4900.000000	64.731049 
4899.000000	64.688754 
4898.000000	64.677762 
4897.000000	64.696574 
4896.000000	64.738726 
4895.000000	64.793586 
4894.000000	64.849090 
4893.000000	64.893960 
4892.000000	64.920783 
4891.000000	64.926648 
4890.000000	64.913821 
4889.000000	64.888763 
4888.000000	64.859843 
4887.000000	64.834117 
4886.000000	64.816045 
4885.000000	64.806175 
4884.000000	64.802122 
4883.000000	64.799666 
4882.000000	64.795207 
4881.000000	64.787745 
4880.000000	64.779210 
4879.000000	64.774060 
4878.000000	64.777231 
4877.000000	64.792227 
4876.000000	64.819216 
4875.000000	64.854335 
4874.000000	64.890480 
4873.000000	64.918899 
4872.000000	64.931344 
4871.000000	64.922428 
4870.000000	64.891672 
4869.000000	64.843320 
4868.000000	64.785361 
4867.000000	64.727258 
4866.000000	64.677691 
4865.000000	64.642596 
4864.000000	64.624142 
4863.000000	64.621162 
4862.000000	64.629507 
4861.000000	64.644551 
4860.000000	64.663076 
4859.000000	64.683961 
4858.000000	64.707779 
4857.000000	64.736652 
4856.000000	64.772415 
4855.000000	64.815926 
4854.000000	64.865374 
4853.000000	64.917325 
4852.000000	64.966869 
4851.000000	65.009498 
4850.000000	65.042233 
4849.000000	65.064358 
4848.000000	65.077447 
4847.000000	65.084719 
4846.000000	65.089726 
4845.000000	65.095353 
4844.000000	65.102505 
4843.000000	65.110206 
4842.000000	65.115404 
4841.000000	65.114665 
4840.000000	65.104436 
4839.000000	65.083003 
4838.000000	65.049886 
4837.000000	65.006422 
4836.000000	64.954829 
4835.000000	64.897894 
4834.000000	64.838290 
4833.000000	64.777755 
4832.000000	64.717698 
4831.000000	64.659357 
4830.000000	64.604330 
4829.000000	64.554643 
4828.000000	64.513134 
4827.000000	64.482641 
4826.000000	64.466214 
4825.000000	64.466118 
4824.000000	64.482927 
4823.000000	64.514732 
4822.000000	64.557027 
4821.000000	64.603114 
4820.000000	64.644551 
4819.000000	64.672994 
4818.000000	64.682245 
4817.000000	64.669752 
4816.000000	64.636993 
4815.000000	64.589381 
4814.000000	64.535474 
4813.000000	64.485025 
4812.000000	64.446926 
4811.000000	64.427423 
4810.000000	64.429235 
4809.000000	64.451217 
4808.000000	64.489293 
4807.000000	64.537739 
4806.000000	64.590597 
4805.000000	64.642691 
4804.000000	64.690589 
4803.000000	64.732480 
4802.000000	64.767384 
4801.000000	64.794993 
4800.000000	64.814853 
4799.000000	64.826345 
4798.000000	64.828515 
4797.000000	64.820861 
4796.000000	64.804077 
4795.000000	64.778876 
4794.000000	64.746117 
4793.000000	64.706683 
4792.000000	64.661407 
4791.000000	64.610457 
4790.000000	64.553713 
4789.000000	64.491343 
4788.000000	64.424490 
4787.000000	64.355301 
4786.000000	64.287567 
4785.000000	64.226007 
4784.000000	64.175724 
4783.000000	64.141082 
4782.000000	64.124536 
4781.000000	64.126229 
4780.000000	64.143371 
4779.000000	64.170026 
4778.000000	64.198708 
4777.000000	64.221382 
4776.000000	64.231729 
4775.000000	64.226078 
4774.000000	64.205288 
4773.000000	64.173316 
4772.000000	64.138293 
4771.000000	64.110231 
4770.000000	64.099550 
4769.000000	64.114522 
4768.000000	64.159822 
4767.000000	64.235234 
4766.000000	64.335775 
4765.000000	64.452600 
4764.000000	64.575004 
4763.000000	64.692282 
4762.000000	64.795589 
4761.000000	64.879417 
4760.000000	64.941406 
4759.000000	64.982843 
4758.000000	65.007519 
4757.000000	65.020871 
4756.000000	65.029287 
4755.000000	65.038037 
4754.000000	65.052175 
4753.000000	65.073561 
4752.000000	65.102386 
4751.000000	65.135169 
4750.000000	65.166759 
4749.000000	65.190505 
4748.000000	65.200042 
4747.000000	65.191173 
4746.000000	65.162706 
4745.000000	65.118002 
4744.000000	65.064287 
4743.000000	65.011382 
4742.000000	64.969444 
4741.000000	64.946341 
4740.000000	64.945530 
4739.000000	64.965057 
4738.000000	64.998078 
4737.000000	65.034770 
4736.000000	65.064978 
4735.000000	65.080881 
4734.000000	65.078878 
4733.000000	65.060448 
4732.000000	65.030598 
4731.000000	64.995980 
4730.000000	64.962267 
4729.000000	64.932894 
4728.000000	64.907503 
4727.000000	64.882636 
4726.000000	64.853096 
4725.000000	64.814662 
4724.000000	64.765620 
4723.000000	64.707922 
4722.000000	64.647126 
4721.000000	64.591169 
4720.000000	64.548230 
4719.000000	64.523792 
4718.000000	64.520001 
4717.000000	64.534759 
4716.000000	64.562582 
4715.000000	64.596199 
4714.000000	64.628887 
4713.000000	64.656352 
4712.000000	64.677667 
4711.000000	64.695239 
4710.000000	64.713621 
4709.000000	64.737796 
4708.000000	64.771628 
4707.000000	64.815998 
4706.000000	64.868664 
4705.000000	64.924025 
4704.000000	64.975428 
4703.000000	65.015244 
4702.000000	65.037512 
4701.000000	65.038013 
4700.000000	65.015983 
4699.000000	64.973235 
4698.000000	64.913463 
4697.000000	64.841699 
4696.000000	64.763736 
4695.000000	64.685297 
4694.000000	64.611577 
4693.000000	64.546799 
4692.000000	64.494633 
4691.000000	64.457225 
4690.000000	64.435100 
4689.000000	64.427256 
4688.000000	64.431190 
4687.000000	64.443135 
4686.000000	64.458703 
4685.000000	64.473628 
4684.000000	64.484596 
4683.000000	64.489650 
4682.000000	64.488768 
4681.000000	64.483404 
4680.000000	64.476513 
4679.000000	64.471387 
4678.000000	64.471507 
4677.000000	64.479565 
4676.000000	64.497041 
4675.000000	64.524149 
4674.000000	64.559602 
4673.000000	64.600968 
4672.000000	64.645147 
4671.000000	64.688754 
4670.000000	64.728927 
4669.000000	64.763307 
4668.000000	64.791011 
4667.000000	64.812397 
4666.000000	64.828944 
4665.000000	64.843273 
4664.000000	64.857721 
4663.000000	64.873886 
4662.000000	64.892196 
4661.000000	64.911937 
4660.000000	64.931535 
4659.000000	64.949369 
4658.000000	64.964318 
4657.000000	64.976286 
4656.000000	64.986777 
4655.000000	64.998269 
4654.000000	65.013742 
4653.000000	65.035629 
4652.000000	65.064978 
4651.000000	65.101099 
4650.000000	65.141701 
4649.000000	65.183043 
4648.000000	65.221190 
4647.000000	65.252494 
4646.000000	65.274667 
4645.000000	65.286827 
4644.000000	65.289163 
4643.000000	65.283060 
4642.000000	65.270161 
4641.000000	65.252566 
4640.000000	65.232801 
4639.000000	65.213179 
4638.000000	65.195870 
4637.000000	65.182018 
4636.000000	65.171980 
4635.000000	65.164160 
4634.000000	65.155720 
4633.000000	65.142750 
4632.000000	65.121674 
4631.000000	65.090155 
4630.000000	65.048360 
4629.000000	64.999580 
4628.000000	64.950060 
4627.000000	64.907693 
4626.000000	64.880228 
4625.000000	64.873361 
4624.000000	64.889335 
4623.000000	64.925861 
4622.000000	64.976716 
4621.000000	65.033292 
4620.000000	65.086412 
4619.000000	65.128922 
4618.000000	65.156650 
4617.000000	65.168786 
4616.000000	65.167427 
4615.000000	65.156316 
4614.000000	65.139341 
4613.000000	65.119361 
4612.000000	65.097498 
4611.000000	65.073466 
4610.000000	65.046024 
4609.000000	65.014314 
4608.000000	64.978575 
4607.000000	64.941024 
4606.000000	64.904999 
4605.000000	64.874458 
4604.000000	64.852571 
4603.000000	64.840936 
4602.000000	64.838814 
4601.000000	64.843535 
4600.000000	64.850640 
4599.000000	64.855790 
4598.000000	64.855766 
4597.000000	64.850187 
4596.000000	64.840984 
4595.000000	64.833068 
4594.000000	64.832615 
4593.000000	64.845991 
4592.000000	64.877891 
4591.000000	64.929842 
4590.000000	64.999914 
4589.000000	65.082144 
4588.000000	65.168118 
4587.000000	65.248036 
4586.000000	65.312814 
4585.000000	65.355753 
4584.000000	65.373802 
4583.000000	65.368366 
4582.000000	65.344762 
4581.000000	65.311145 
4580.000000	65.276575 
4579.000000	65.248513 
4578.000000	65.231180 
4577.000000	65.224838 
4576.000000	65.225958 
4575.000000	65.228319 
4574.000000	65.224885 
4573.000000	65.210270 
4572.000000	65.182161 
4571.000000	65.141487 
4570.000000	65.092873 
4569.000000	65.042734 
4568.000000	64.998722 
4567.000000	64.967751 
4566.000000	64.955258 
4565.000000	64.963746 
4564.000000	64.992928 
4563.000000	65.040302 
4562.000000	65.101051 
4561.000000	65.169262 
4560.000000	65.238261 
4559.000000	65.301251 
4558.000000	65.352082 
4557.000000	65.385437 
4556.000000	65.398001 
4555.000000	65.389108 
4554.000000	65.360808 
4553.000000	65.317726 
4552.000000	65.266489 
4551.000000	65.214848 
4550.000000	65.170407 
4549.000000	65.139412 
4548.000000	65.126466 
4547.000000	65.133619 
4546.000000	65.160489 
4545.000000	65.203905 
4544.000000	65.257906 
4543.000000	65.314745 
4542.000000	65.365624 
4541.000000	65.402984 
4540.000000	65.421366 
4539.000000	65.419077 
4538.000000	65.398478 
4537.000000	65.365219 
4536.000000	65.327000 
4535.000000	65.291452 
4534.000000	65.264725 
4533.000000	65.250086 
4532.000000	65.248131 
4531.000000	65.256571 
4530.000000	65.271735 
4529.000000	65.289330 
4528.000000	65.306210 
4527.000000	65.319895 
4526.000000	65.328812 
4525.000000	65.332126 
4524.000000	65.329527 
4523.000000	65.320444 
4522.000000	65.304398 
4521.000000	65.281629 
4520.000000	65.253448 
4519.000000	65.222859 
4518.000000	65.194153 
4517.000000	65.172457 
4516.000000	65.162110 
4515.000000	65.165662 
4514.000000	65.182685 
4513.000000	65.209579 
4512.000000	65.239930 
4511.000000	65.266156 
4510.000000	65.281224 
4509.000000	65.280365 
4508.000000	65.262126 
4507.000000	65.228939 
4506.000000	65.185809 
4505.000000	65.138840 
4504.000000	65.093660 
4503.000000	65.054535 
4502.000000	65.022611 
4501.000000	64.995694 
4500.000000	64.970207 
4499.000000	64.942812 
4498.000000	64.911103 
4497.000000	64.874362 
4496.000000	64.834237 
4495.000000	64.794135 
4494.000000	64.756488 
4493.000000	64.722490 
4492.000000	64.691591 
4491.000000	64.662480 
4490.000000	64.633202 
4489.000000	64.603209 
4488.000000	64.574742 
4487.000000	64.552545 
4486.000000	64.542341 
4485.000000	64.549708 
4484.000000	64.575958 
4483.000000	64.620184 
4482.000000	64.678502 
4481.000000	64.746427 
4480.000000	64.818072 
4479.000000	64.890313 
4478.000000	64.963006 
4477.000000	65.039372 
4476.000000	65.122032 
4475.000000	65.216970 
4474.000000	65.332555 
4473.000000	65.473747 
4472.000000	65.638661 
4471.000000	65.822553 
4470.000000	66.019177 
4469.000000	66.217279 
4468.000000	66.403532 
4467.000000	66.572618 
4466.000000	66.726779 
4465.000000	66.874027 
4464.000000	67.023348 
4463.000000	67.182612 
4462.000000	67.350649 
4461.000000	67.519640 
4460.000000	67.670059 
4459.000000	67.773246 
4458.000000	67.798113 
4457.000000	67.724061 
4456.000000	67.543220 
4455.000000	67.270708 
4454.000000	66.933107 
4453.000000	66.572785 
4452.000000	66.220760 
4451.000000	65.892696 
4450.000000	65.575599 
4449.000000	65.238213 
4448.000000	64.829635 
4447.000000	64.298510 
4446.000000	63.603973 
4445.000000	62.733674 
4444.000000	61.694860 
4443.000000	60.516905 
4442.000000	59.241557 
4441.000000	57.921814 
4440.000000	56.613802 
4439.000000	55.381870 
4438.000000	54.293918 
4437.000000	53.425741 
4436.000000	52.855086 
4435.000000	52.651286 
4434.000000	52.855324 
4433.000000	53.466606 
4432.000000	54.422140 
4431.000000	55.610728 
4430.000000	56.869173 
4429.000000	58.034157 
4428.000000	58.960819 
4427.000000	59.569644 
4426.000000	59.853506 
4425.000000	59.883737 
4424.000000	59.780693 
4423.000000	59.687495 
4422.000000	59.728884 
4421.000000	59.986853 
4420.000000	60.483789 
4419.000000	61.188077 
4418.000000	62.033104 
4417.000000	62.930798 
4416.000000	63.796925 
4415.000000	64.566540 
4414.000000	65.204763 
4413.000000	65.698313 
4412.000000	66.052174 
4411.000000	66.282606 
4410.000000	66.410303 
4409.000000	66.456127 
4408.000000	66.437840 
4407.000000	66.384458 
4406.000000	66.322708 
4405.000000	66.280889 
4404.000000	66.277194 
4403.000000	66.321444 
4402.000000	66.408610 
4401.000000	66.524839 
4400.000000	66.646981 
4399.000000	66.749167 
4398.000000	66.808772 
4397.000000	66.815686 
4396.000000	66.768312 
4395.000000	66.670775 
4394.000000	66.535639 
4393.000000	66.380667 
4392.000000	66.224431 
4391.000000	66.082620 
4390.000000	65.966892 
4389.000000	65.883708 
4388.000000	65.833425 
4387.000000	65.810918 
4386.000000	65.808701 
4385.000000	65.818333 
4384.000000	65.827226 
4383.000000	65.822744 
4382.000000	65.796542 
4381.000000	65.745997 
4380.000000	65.672755 
4379.000000	65.583252 
4378.000000	65.487146 
4377.000000	65.394783 
4376.000000	65.314221 
4375.000000	65.250205 
4374.000000	65.203499 
4373.000000	65.171599 
4372.000000	65.150332 
4371.000000	65.135288 
4370.000000	65.122771 
4369.000000	65.111327 
4368.000000	65.101003 
4367.000000	65.093970 
4366.000000	65.093183 
4365.000000	65.101623 
4364.000000	65.120744 
4363.000000	65.149974 
4362.000000	65.186214 
4361.000000	65.225005 
4360.000000	65.261411 
4359.000000	65.290641 
4358.000000	65.309262 
4357.000000	65.316295 
4356.000000	65.313315 
4355.000000	65.303969 
4354.000000	65.292811 
4353.000000	65.284705 
4352.000000	65.282988 
4351.000000	65.289044 
4350.000000	65.301728 
4349.000000	65.318083 
4348.000000	65.334200 
4347.000000	65.346455 
4346.000000	65.352606 
4345.000000	65.352630 
4344.000000	65.348577 
4343.000000	65.343523 
4342.000000	65.340781 
4341.000000	65.342831 
4340.000000	65.350675 
4339.000000	65.363526 
4338.000000	65.379095 
4337.000000	65.394353 
4336.000000	65.406107 
4335.000000	65.412116 
4334.000000	65.411114 
4333.000000	65.403103 
4332.000000	65.389013 
4331.000000	65.370297 
4330.000000	65.348696 
4329.000000	65.325546 
4328.000000	65.301871 
4327.000000	65.278124 
4326.000000	65.254497 
4325.000000	65.231108 
4324.000000	65.208101 
4323.000000	65.185761 
4322.000000	65.164470 
4321.000000	65.144705 
4320.000000	65.126895 
4319.000000	65.111327 
4318.000000	65.098237 
4317.000000	65.087676 
4316.000000	65.079689 
4315.000000	65.073966 
4314.000000	65.069842 
4313.000000	65.066289 
4312.000000	65.061974 
4311.000000	65.055489 
4310.000000	65.045475 
4309.000000	65.031456 
4308.000000	65.014243 
4307.000000	64.996218 
4306.000000	64.980983 
4305.000000	64.973330 
4304.000000	64.978098 
4303.000000	64.999103 
4302.000000	65.037775 
4301.000000	65.092706 
4300.000000	65.159344 
4299.000000	65.230798 
4298.000000	65.299034 
4297.000000	65.356302 
4296.000000	65.397238 
4295.000000	65.419602 
4294.000000	65.425252 
4293.000000	65.419077 
4292.000000	65.407848 
4291.000000	65.398573 
4290.000000	65.396142 
4289.000000	65.402555 
4288.000000	65.415835 
4287.000000	65.431356 
4286.000000	65.442705 
4285.000000	65.444016 
4284.000000	65.431356 
4283.000000	65.404129 
4282.000000	65.365123 
4281.000000	65.319633 
4280.000000	65.274000 
4279.000000	65.233826 
4278.000000	65.203094 
4277.000000	65.183234 
4276.000000	65.173077 
4275.000000	65.169668 
4274.000000	65.169668 
4273.000000	65.170145 
4272.000000	65.169358 
4271.000000	65.166783 
4270.000000	65.162992 
4269.000000	65.158915 
4268.000000	65.154647 
4267.000000	65.149402 
4266.000000	65.141510 
4265.000000	65.128755 
4264.000000	65.109014 
4263.000000	65.081191 
4262.000000	65.046000 
4261.000000	65.006017 
4260.000000	64.965438 
4259.000000	64.929318 
4258.000000	64.902400 
4257.000000	64.888191 
4256.000000	64.887952 
4255.000000	64.900112 
4254.000000	64.920520 
4253.000000	64.943146 
4252.000000	64.961338 
4251.000000	64.968585 
4250.000000	64.960145 
4249.000000	64.934062 
4248.000000	64.891767 
4247.000000	64.837217 
4246.000000	64.776659 
4245.000000	64.717459 
4244.000000	64.666795 
4243.000000	64.630198 
4242.000000	64.610743 
4241.000000	64.608597 
4240.000000	64.621400 
4239.000000	64.644742 
4238.000000	64.673328 
4237.000000	64.702057 
4236.000000	64.726948 
4235.000000	64.745259 
4234.000000	64.756202 
4233.000000	64.760160 
4232.000000	64.758682 
4231.000000	64.753389 
4230.000000	64.746117 
4229.000000	64.738321 
4228.000000	64.731454 
4227.000000	64.726805 
4226.000000	64.725947 
4225.000000	64.730787 
4224.000000	64.743280 
4223.000000	64.765119 
4222.000000	64.797163 
4221.000000	64.838910 
4220.000000	64.888262 
4219.000000	64.941740 
4218.000000	64.994359 
4217.000000	65.040922 
4216.000000	65.076732 
4215.000000	65.098571 
4214.000000	65.105342 
4213.000000	65.098381 
4212.000000	65.080857 
4211.000000	65.057253 
4210.000000	65.032720 
4209.000000	65.011668 
4208.000000	64.997386 
4207.000000	64.991116 
4206.000000	64.992499 
4205.000000	64.999604 
4204.000000	65.009951 
4203.000000	65.020799 
4202.000000	65.030002 
4201.000000	65.036153 
4200.000000	65.038776 
4199.000000	65.038228 
4198.000000	65.035271 
4197.000000	65.030288 
4196.000000	65.022921 
4195.000000	65.012288 
4194.000000	64.996647 
4193.000000	64.974212 
4192.000000	64.943289 
4191.000000	64.903235 
4190.000000	64.854598 
4189.000000	64.799523 
4188.000000	64.741730 
4187.000000	64.685678 
4186.000000	64.636111 
4185.000000	64.597320 
4184.000000	64.572024 
4183.000000	64.560961 
4182.000000	64.562654 
4181.000000	64.573478 
4180.000000	64.588832 
4179.000000	64.603471 
4178.000000	64.613556 
4177.000000	64.617109 
4176.000000	64.614868 
4175.000000	64.609861 
4174.000000	64.606809 
4173.000000	64.610886 
4172.000000	64.626216 
4171.000000	64.654421 
4170.000000	64.694261 
4169.000000	64.741563 
4168.000000	64.790320 
4167.000000	64.833998 
4166.000000	64.866924 
4165.000000	64.885783 
4164.000000	64.890456 
4163.000000	64.883971 
4162.000000	64.871573 
4161.000000	64.859271 
4160.000000	64.852809 
4159.000000	64.855575 
4158.000000	64.868330 
4157.000000	64.888501 
4156.000000	64.911961 
4155.000000	64.933156 
4154.000000	64.947080 
4153.000000	64.949989 
4152.000000	64.940595 
4151.000000	64.919614 
4150.000000	64.889407 
4149.000000	64.853215 
4148.000000	64.814233 
4147.000000	64.775037 
4146.000000	64.737391 
4145.000000	64.702486 
4144.000000	64.671254 
4143.000000	64.644837 
4142.000000	64.624857 
4141.000000	64.612936 
4140.000000	64.610743 
4139.000000	64.619016 
4138.000000	64.637541 
4137.000000	64.664077 
4136.000000	64.695215 
4135.000000	64.726781 
4134.000000	64.754605 
4133.000000	64.775276 
4132.000000	64.786767 
4131.000000	64.789104 
4130.000000	64.783692 
4129.000000	64.773011 
4128.000000	64.759612 
4127.000000	64.745545 
4126.000000	64.731812 
4125.000000	64.718389 
4124.000000	64.704990 
4123.000000	64.691567 
4122.000000	64.679002 
4121.000000	64.669108 
4120.000000	64.664149 
4119.000000	64.666366 
4118.000000	64.677143 
4117.000000	64.696574 
4116.000000	64.723086 
4115.000000	64.753651 
4114.000000	64.784717 
4113.000000	64.812827 
4112.000000	64.834928 
4111.000000	64.848947 
4110.000000	64.854001 
4109.000000	64.850521 
4108.000000	64.839577 
4107.000000	64.822697 
4106.000000	64.801859 
4105.000000	64.778804 
4104.000000	64.755439 
4103.000000	64.733052 
4102.000000	64.712715 
4101.000000	64.694643 
4100.000000	64.678573 
4099.000000	64.663696 
4098.000000	64.648842 
4097.000000	64.633393 
4096.000000	64.617514 
4095.000000	64.602565 
4094.000000	64.590716 
4093.000000	64.584636 
4092.000000	64.586758 
4091.000000	64.598226 
4090.000000	64.618778 
4089.000000	64.646697 
4088.000000	64.679384 
4087.000000	64.713907 
4086.000000	64.747953 
4085.000000	64.780330 
4084.000000	64.811277 
4083.000000	64.841771 
4082.000000	64.873075 
4081.000000	64.905738 
4080.000000	64.939188 
4079.000000	64.971423 
4078.000000	64.999485 
4077.000000	65.020728 
4076.000000	65.032911 
4075.000000	65.035867 
4074.000000	65.030670 
4073.000000	65.019822 
4072.000000	65.006089 
4071.000000	64.991950 
4070.000000	64.978933 
4069.000000	64.967489 
4068.000000	64.957022 
4067.000000	64.946746 
4066.000000	64.935874 
4065.000000	64.924120 
4064.000000	64.911866 
4063.000000	64.900159 
4062.000000	64.890146 
4061.000000	64.882874 
4060.000000	64.878702 
4059.000000	64.877510 
4058.000000	64.878892 
4057.000000	64.882230 
4056.000000	64.886927 
4055.000000	64.892292 
4054.000000	64.897823 
4053.000000	64.902830 
4052.000000	64.906263 
4051.000000	64.906740 
4050.000000	64.902663 
4049.000000	64.892959 
4048.000000	64.877223 
4047.000000	64.856195 
4046.000000	64.831519 
4045.000000	64.805626 
4044.000000	64.781451 
4043.000000	64.761734 
4042.000000	64.748382 
4041.000000	64.742326 
4040.000000	64.743208 
4039.000000	64.749836 
4038.000000	64.760208 
4037.000000	64.772248 
4036.000000	64.784026 
4035.000000	64.793848 
4034.000000	64.800214 
4033.000000	64.801716 
4032.000000	64.797043 
4031.000000	64.785099 
4030.000000	64.765548 
4029.000000	64.738678 
4028.000000	64.706015 
4027.000000	64.670300 
4026.000000	64.635539 
4025.000000	64.606428 
4024.000000	64.587926 
4023.000000	64.584517 
4022.000000	64.599370 
4021.000000	64.633417 
4020.000000	64.685130 
4019.000000	64.750313 
4018.000000	64.822769 
4017.000000	64.895009 
4016.000000	64.959549 
4015.000000	65.009856 
4014.000000	65.042018 
4013.000000	65.055155 
4012.000000	65.051174 
4011.000000	65.034103 
4010.000000	65.009188 
4009.000000	64.981460 
4008.000000	64.954209 
4007.000000	64.928340 
4006.000000	64.902567 
4005.000000	64.874386 
4004.000000	64.841365 
4003.000000	64.802289 
4002.000000	64.758539 
4001.000000	64.713835 
4000.000000	64.673638 
3999.000000	64.643597 
3998.000000	64.627695 
3997.000000	64.627051 
3996.000000	64.639139 
3995.000000	64.658498 
3994.000000	64.677715 
3993.000000	64.690065 
3992.000000	64.690995 
3991.000000	64.680051 
3990.000000	64.660596 
3989.000000	64.639401 
3988.000000	64.624333 
3987.000000	64.622378 
3986.000000	64.637374 
3985.000000	64.669489 
3984.000000	64.715051 
3983.000000	64.767670 
3982.000000	64.820027 
3981.000000	64.865875 
3980.000000	64.901494 
3979.000000	64.926147 
3978.000000	64.941740 
3977.000000	64.951610 
3976.000000	64.959096 
3975.000000	64.966535 
3974.000000	64.974284 
3973.000000	64.980816 
3972.000000	64.983105 
3971.000000	64.978456 
3970.000000	64.964866 
3969.000000	64.941978 
3968.000000	64.911389 
3967.000000	64.876341 
3966.000000	64.841413 
3965.000000	64.811468 
3964.000000	64.790844 
3963.000000	64.782738 
3962.000000	64.788460 
3961.000000	64.807462 
3960.000000	64.837145 
3959.000000	64.873337 
3958.000000	64.910554 
3957.000000	64.943194 
3956.000000	64.966058 
3955.000000	64.975357 
3954.000000	64.969253 
3953.000000	64.948344 
3952.000000	64.915585 
3951.000000	64.875769 
3950.000000	64.835047 
3949.000000	64.799523 
3948.000000	64.774012 
3947.000000	64.761185 
3946.000000	64.761185 
3945.000000	64.771509 
3944.000000	64.787840 
3943.000000	64.805102 
3942.000000	64.818477 
3941.000000	64.824819 
3940.000000	64.822769 
3939.000000	64.813590 
3938.000000	64.800262 
3937.000000	64.787125 
3936.000000	64.778327 
3935.000000	64.777183 
3934.000000	64.785194 
3933.000000	64.802026 
3932.000000	64.825820 
3931.000000	64.853811 
3930.000000	64.883041 
3929.000000	64.910864 
3928.000000	64.935588 
3927.000000	64.956307 
3926.000000	64.972805 
3925.000000	64.985132 
3924.000000	64.993429 
3923.000000	64.998078 
3922.000000	64.999365 
3921.000000	64.998078 
3920.000000	64.994907 
3919.000000	64.990448 
3918.000000	64.984750 
3917.000000	64.978003 
3916.000000	64.969778 
3915.000000	64.959120 
3914.000000	64.945125 
3913.000000	64.927530 
3912.000000	64.906692 
3911.000000	64.883828 
3910.000000	64.860701 
3909.000000	64.839529 
3908.000000	64.822173 
3907.000000	64.809727 
3906.000000	64.802312 
3905.000000	64.798998 
3904.000000	64.798188 
3903.000000	64.798164 
3902.000000	64.797449 
3901.000000	64.795064 
3900.000000	64.790654 
3899.000000	64.784455 
3898.000000	64.776563 
3897.000000	64.766979 
3896.000000	64.755582 
3895.000000	64.742660 
3894.000000	64.728784 
3893.000000	64.715600 
3892.000000	64.705681 
3891.000000	64.702773 
3890.000000	64.710664 
3889.000000	64.732646 
3888.000000	64.770317 
3887.000000	64.823317 
3886.000000	64.888405 
3885.000000	64.960455 
3884.000000	65.033030 
3883.000000	65.099644 
3882.000000	65.154933 
3881.000000	65.195393 
3880.000000	65.219926 
3879.000000	65.229344 
3878.000000	65.226078 
3877.000000	65.212726 
3876.000000	65.191817 
3875.000000	65.165257 
3874.000000	65.134501 
3873.000000	65.100884 
3872.000000	65.066051 
3871.000000	65.032386 
3870.000000	65.002870 
3869.000000	64.980554 
3868.000000	64.967918 
3867.000000	64.966058 
3866.000000	64.974498 
3865.000000	64.990758 
3864.000000	65.010952 
3863.000000	65.030598 
3862.000000	65.045356 
3861.000000	65.051984 
3860.000000	65.048623 
3859.000000	65.034937 
3858.000000	65.011930 
3857.000000	64.981365 
3856.000000	64.945459 
3855.000000	64.906311 
3854.000000	64.866185 
3853.000000	64.827656 
3852.000000	64.793372 
3851.000000	64.765954 
3850.000000	64.747548 
3849.000000	64.739727 
3848.000000	64.742612 
3847.000000	64.754939 
3846.000000	64.774513 
3845.000000	64.798641 
3844.000000	64.824962 
3843.000000	64.851832 
3842.000000	64.878416 
3841.000000	64.904975 
3840.000000	64.932203 
3839.000000	64.960718 
3838.000000	64.990186 
3837.000000	65.019202 
3836.000000	65.045881 
3835.000000	65.067934 
3834.000000	65.083408 
3833.000000	65.091037 
3832.000000	65.091204 
3831.000000	65.085196 
3830.000000	65.075206 
3829.000000	65.063333 
3828.000000	65.051221 
3827.000000	65.039873 
3826.000000	65.029811 
3825.000000	65.021014 
3824.000000	65.013456 
3823.000000	65.006875 
3822.000000	65.000963 
3821.000000	64.995026 
3820.000000	64.988279 
3819.000000	64.979791 
3818.000000	64.969062 
3817.000000	64.955925 
3816.000000	64.941501 
3815.000000	64.928245 
3814.000000	64.919877 
3813.000000	64.920568 
3812.000000	64.934372 
3811.000000	64.964151 
3810.000000	65.010762 
3809.000000	65.072178 
3808.000000	65.143656 
3807.000000	65.218448 
3806.000000	65.288782 
3805.000000	65.347218 
3804.000000	65.387821 
3803.000000	65.407085 
3802.000000	65.404343 
3801.000000	65.381741 
3800.000000	65.343546 
3799.000000	65.295219 
3798.000000	65.242552 
3797.000000	65.190792 
3796.000000	65.143728 
3795.000000	65.103697 
3794.000000	65.071225 
3793.000000	65.045690 
3792.000000	65.025472 
3791.000000	65.008735 
3790.000000	64.993596 
3789.000000	64.978957 
3788.000000	64.964127 
3787.000000	64.949440 
3786.000000	64.935612 
3785.000000	64.923954 
3784.000000	64.915609 
3783.000000	64.911699 
3782.000000	64.912891 
3781.000000	64.919543 
3780.000000	64.931368 
3779.000000	64.947795 
3778.000000	64.967942 
3777.000000	64.990592 
3776.000000	65.014219 
3775.000000	65.036773 
3774.000000	65.055775 
3773.000000	65.068578 
3772.000000	65.072965 
3771.000000	65.067124 
3770.000000	65.050363 
3769.000000	65.023303 
3768.000000	64.988183 
3767.000000	64.948654 
3766.000000	64.909410 
3765.000000	64.875483 
3764.000000	64.851117 
3763.000000	64.839506 
3762.000000	64.841818 
3761.000000	64.857077 
3760.000000	64.882540 
3759.000000	64.913988 
3758.000000	64.947295 
3757.000000	64.978718 
3756.000000	65.006518 
3755.000000	65.030360 
3754.000000	65.051913 
3753.000000	65.073728 
3752.000000	65.098261 
3751.000000	65.127182 
3750.000000	65.159964 
3749.000000	65.194034 
3748.000000	65.224766 
3747.000000	65.246820 
3746.000000	65.255045 
3745.000000	65.246343 
3744.000000	65.220022 
3743.000000	65.178465 
3742.000000	65.126466 
3741.000000	65.070462 
3740.000000	65.017056 
3739.000000	64.971733 
3738.000000	64.938163 
3737.000000	64.917635 
3736.000000	64.909648 
3735.000000	64.912080 
3734.000000	64.921975 
3733.000000	64.936208 
3732.000000	64.951944 
3731.000000	64.967036 
3730.000000	64.979648 
3729.000000	64.988923 
3728.000000	64.994072 
3727.000000	64.994978 
3726.000000	64.992356 
3725.000000	64.987516 
3724.000000	64.982318 
3723.000000	64.978551 
3722.000000	64.977788 
3721.000000	64.980411 
3720.000000	64.985871 
3719.000000	64.992046 
3718.000000	64.995789 
3717.000000	64.993715 
3716.000000	64.982986 
3715.000000	64.962339 
3714.000000	64.932751 
3713.000000	64.897322 
3712.000000	64.860820 
3711.000000	64.828729 
3710.000000	64.806032 
3709.000000	64.796233 
3708.000000	64.800620 
3707.000000	64.817857 
3706.000000	64.844202 
3705.000000	64.874720 
3704.000000	64.903736 
3703.000000	64.925861 
3702.000000	64.937305 
3701.000000	64.935779 
3700.000000	64.921855 
3699.000000	64.898395 
3698.000000	64.870643 
3697.000000	64.844918 
3696.000000	64.827823 
3695.000000	64.825010 
3694.000000	64.839816 
3693.000000	64.872670 
3692.000000	64.920520 
3691.000000	64.977622 
3690.000000	65.036177 
3689.000000	65.088319 
3688.000000	65.127372 
3687.000000	65.149307 
3686.000000	65.153312 
3685.000000	65.141820 
3684.000000	65.119743 
3683.000000	65.093016 
3682.000000	65.067386 
3681.000000	65.047144 
3680.000000	65.034842 
3679.000000	65.030717 
3678.000000	65.033841 
3677.000000	65.041828 
3676.000000	65.052366 
3675.000000	65.063095 
3674.000000	65.071964 
3673.000000	65.077280 
3672.000000	65.077805 
3671.000000	65.072798 
3670.000000	65.061855 
3669.000000	65.045332 
3668.000000	65.024185 
3667.000000	65.000367 
3666.000000	64.976668 
3665.000000	64.956283 
3664.000000	64.941978 
3663.000000	64.935708 
3662.000000	64.938116 
3661.000000	64.948201 
3660.000000	64.963436 
3659.000000	64.980149 
3658.000000	64.994478 
3657.000000	65.003013 
3656.000000	65.003776 
3655.000000	64.996027 
3654.000000	64.980435 
3653.000000	64.958643 
3652.000000	64.932680 
3651.000000	64.904546 
3650.000000	64.875721 
3649.000000	64.846944 
3648.000000	64.818978 
3647.000000	64.792561 
3646.000000	64.769172 
3645.000000	64.750742 
3644.000000	64.739942 
3643.000000	64.739274 
3642.000000	64.750862 
3641.000000	64.775300 
3640.000000	64.811682 
3639.000000	64.856982 
3638.000000	64.906835 
3637.000000	64.956235 
3636.000000	65.000486 
3635.000000	65.035867 
3634.000000	65.060472 
3633.000000	65.074229 
3632.000000	65.078783 
3631.000000	65.076637 
3630.000000	65.070581 
3629.000000	65.062689 
3628.000000	65.054273 
3627.000000	65.045595 
3626.000000	65.036201 
3625.000000	65.025115 
3624.000000	65.011787 
3623.000000	64.996266 
3622.000000	64.979434 
3621.000000	64.962887 
3620.000000	64.948534 
3619.000000	64.938330 
3618.000000	64.933586 
3617.000000	64.934778 
3616.000000	64.941287 
3615.000000	64.951062 
3614.000000	64.961266 
3613.000000	64.968228 
3612.000000	64.968395 
3611.000000	64.958786 
3610.000000	64.937615 
3609.000000	64.904785 
3608.000000	64.861917 
3607.000000	64.812517 
3606.000000	64.761376 
3605.000000	64.714002 
3604.000000	64.675569 
3603.000000	64.650392 
3602.000000	64.641237 
3601.000000	64.648771 
3600.000000	64.671492 
3599.000000	64.706039 
3598.000000	64.747834 
3597.000000	64.791488 
3596.000000	64.831900 
3595.000000	64.864420 
3594.000000	64.885807 
3593.000000	64.894104 
3592.000000	64.889264 
3591.000000	64.872598 
3590.000000	64.846897 
3589.000000	64.815902 
3588.000000	64.783787 
3587.000000	64.754557 
3586.000000	64.731431 
3585.000000	64.716625 
3584.000000	64.711022 
3583.000000	64.714097 
3582.000000	64.724349 
3581.000000	64.739441 
3580.000000	64.756941 
3579.000000	64.774703 
3578.000000	64.791250 
3577.000000	64.805984 
3576.000000	64.819097 
3575.000000	64.831233 
3574.000000	64.843559 
3573.000000	64.857006 
3572.000000	64.871907 
3571.000000	64.887785 
3570.000000	64.903736 
3569.000000	64.918231 
3568.000000	64.929962 
3567.000000	64.937806 
3566.000000	64.941358 
3565.000000	64.940667 
3564.000000	64.936709 
3563.000000	64.930605 
3562.000000	64.923596 
3561.000000	64.916181 
3560.000000	64.908552 
3559.000000	64.900231 
3558.000000	64.890646 
3557.000000	64.879131 
3556.000000	64.865446 
3555.000000	64.850020 
3554.000000	64.834189 
3553.000000	64.819693 
3552.000000	64.808344 
3551.000000	64.801692 
3550.000000	64.800691 
3549.000000	64.805555 
3548.000000	64.815878 
3547.000000	64.830660 
3546.000000	64.848423 
3545.000000	64.867520 
3544.000000	64.886236 
3543.000000	64.902877 
3542.000000	64.915943 
3541.000000	64.923954 
3540.000000	64.925909 
3539.000000	64.921236 
3538.000000	64.910125 
3537.000000	64.893627 
3536.000000	64.873600 
3535.000000	64.852452 
3534.000000	64.832711 
3533.000000	64.816784 
3532.000000	64.806365 
3531.000000	64.802336 
3530.000000	64.804553 
3529.000000	64.812231 
3528.000000	64.824128 
3527.000000	64.838814 
3526.000000	64.854669 
3525.000000	64.870119 
3524.000000	64.883637 
3523.000000	64.893984 
3522.000000	64.900064 
3521.000000	64.901208 
3520.000000	64.897394 
3519.000000	64.889335 
3518.000000	64.878463 
3517.000000	64.866614 
3516.000000	64.855766 
3515.000000	64.847564 
3514.000000	64.842748 
3513.000000	64.841032 
3512.000000	64.841341 
3511.000000	64.841842 
3510.000000	64.840793 
3509.000000	64.836955 
3508.000000	64.829874 
3507.000000	64.819955 
3506.000000	64.807987 
3505.000000	64.795064 
3504.000000	64.782047 
3503.000000	64.769768 
3502.000000	64.758753 
3501.000000	64.749908 
3500.000000	64.744377 
3499.000000	64.743733 
3498.000000	64.749670 
3497.000000	64.763426 
3496.000000	64.785480 
3495.000000	64.814805 
3494.000000	64.848995 
3493.000000	64.884376 
3492.000000	64.916682 
3491.000000	64.942193 
3490.000000	64.958524 
3489.000000	64.965152 
3488.000000	64.963269 
3487.000000	64.955615 
3486.000000	64.945316 
3485.000000	64.935326 
3484.000000	64.927673 
3483.000000	64.923238 
3482.000000	64.921951 
3481.000000	64.923334 
3480.000000	64.926767 
3479.000000	64.931821 
3478.000000	64.938330 
3477.000000	64.946341 
3476.000000	64.955806 
3475.000000	64.966344 
3474.000000	64.977097 
3473.000000	64.986801 
3472.000000	64.994215 
3471.000000	64.998245 
3470.000000	64.998507 
3469.000000	64.995241 
3468.000000	64.989233 
3467.000000	64.981460 
3466.000000	64.972734 
3465.000000	64.963340 
3464.000000	64.953279 
3463.000000	64.942121 
3462.000000	64.929437 
3461.000000	64.915204 
3460.000000	64.900016 
3459.000000	64.884972 
3458.000000	64.871454 
3457.000000	64.861035 
3456.000000	64.855051 
3455.000000	64.854478 
3454.000000	64.859318 
3453.000000	64.868807 
3452.000000	64.881610 
3451.000000	64.896249 
3450.000000	64.911103 
3449.000000	64.924907 
3448.000000	64.936852 
3447.000000	64.946627 
3446.000000	64.954185 
3445.000000	64.959669 
3444.000000	64.963293 
3443.000000	64.965271 
3442.000000	64.965820 
3441.000000	64.965319 
3440.000000	64.964532 
3439.000000	64.964580 
3438.000000	64.966893 
3437.000000	64.973235 
3436.000000	64.985013 
3435.000000	65.003156 
3434.000000	65.026998 
3433.000000	65.054607 
3432.000000	65.082240 
3431.000000	65.105390 
3430.000000	65.119361 
3429.000000	65.120363 
3428.000000	65.106439 
3427.000000	65.078401 
3426.000000	65.039443 
3425.000000	64.994716 
3424.000000	64.950346 
3423.000000	64.912295 
3422.000000	64.885115 
3421.000000	64.871335 
3420.000000	64.871096 
3419.000000	64.882445 
3418.000000	64.902138 
3417.000000	64.926457 
3416.000000	64.951729 
3415.000000	64.974904 
3414.000000	64.993739 
3413.000000	65.006828 
3412.000000	65.013170 
3411.000000	65.012073 
3410.000000	65.003395 
3409.000000	64.987349 
3408.000000	64.964985 
3407.000000	64.937996 
3406.000000	64.908981 
3405.000000	64.881157 
3404.000000	64.857554 
3403.000000	64.841175 
3402.000000	64.834117 
3401.000000	64.837408 
3400.000000	64.850735 
3399.000000	64.872479 
3398.000000	64.900135 
3397.000000	64.930510 
3396.000000	64.960265 
3395.000000	64.986276 
3394.000000	65.006065 
3393.000000	65.018033 
3392.000000	65.021681 
3391.000000	65.017652 
3390.000000	65.007448 
3389.000000	64.993286 
3388.000000	64.977669 
3387.000000	64.962935 
3386.000000	64.950799 
3385.000000	64.942145 
3384.000000	64.936709 
3383.000000	64.933562 
3382.000000	64.931035 
3381.000000	64.927482 
3380.000000	64.921712 
3379.000000	64.913225 
3378.000000	64.902400 
3377.000000	64.890289 
3376.000000	64.878487 
3375.000000	64.868640 
3374.000000	64.861941 
3373.000000	64.858984 
3372.000000	64.859414 
3371.000000	64.862418 
3370.000000	64.866709 
3369.000000	64.871048 
3368.000000	64.874458 
3367.000000	64.876365 
3366.000000	64.876651 
3365.000000	64.875483 
3364.000000	64.873266 
3363.000000	64.870595 
3362.000000	64.868092 
3361.000000	64.866304 
3360.000000	64.866328 
3359.000000	64.869427 
3358.000000	64.877176 
3357.000000	64.890956 
3356.000000	64.911651 
3355.000000	64.938926 
3354.000000	64.971303 
3353.000000	65.005683 
3352.000000	65.037965 
3351.000000	65.063309 
3350.000000	65.077257 
3349.000000	65.076541 
3348.000000	65.059971 
3347.000000	65.028572 
3346.000000	64.985704 
3345.000000	64.936518 
3344.000000	64.887261 
3343.000000	64.844083 
3342.000000	64.812064 
3341.000000	64.794397 
3340.000000	64.792156 
3339.000000	64.804053 
3338.000000	64.826750 
3337.000000	64.855647 
3336.000000	64.885807 
3335.000000	64.912652 
3334.000000	64.932680 
3333.000000	64.944052 
3332.000000	64.946675 
3331.000000	64.942073 
3330.000000	64.932608 
3329.000000	64.921092 
3328.000000	64.909863 
3327.000000	64.900517 
3326.000000	64.893579 
3325.000000	64.888763 
3324.000000	64.885067 
3323.000000	64.881420 
3322.000000	64.876914 
3321.000000	64.871239 
3320.000000	64.864373 
3319.000000	64.856719 
3318.000000	64.848518 
3317.000000	64.839839 
3316.000000	64.830064 
3315.000000	64.818334 
3314.000000	64.803385 
3313.000000	64.784026 
3312.000000	64.759731 
3311.000000	64.731073 
3310.000000	64.699912 
3309.000000	64.669084 
3308.000000	64.642143 
3307.000000	64.622735 
3306.000000	64.613747 
3305.000000	64.616775 
3304.000000	64.631676 
3303.000000	64.656591 
3302.000000	64.688491 
3301.000000	64.723634 
3300.000000	64.758276 
3299.000000	64.789366 
3298.000000	64.814615 
3297.000000	64.832854 
3296.000000	64.843869 
3295.000000	64.848279 
3294.000000	64.847254 
3293.000000	64.842200 
3292.000000	64.834856 
3291.000000	64.826774 
3290.000000	64.819622 
3289.000000	64.814519 
3288.000000	64.812493 
3287.000000	64.813876 
3286.000000	64.818429 
3285.000000	64.825344 
3284.000000	64.833450 
3283.000000	64.841628 
3282.000000	64.848947 
3281.000000	64.855074 
3280.000000	64.860224 
3279.000000	64.865112 
3278.000000	64.870905 
3277.000000	64.878726 
3276.000000	64.889311 
3275.000000	64.902925 
3274.000000	64.919018 
3273.000000	64.936685 
3272.000000	64.954352 
3271.000000	64.970564 
3270.000000	64.983844 
3269.000000	64.993047 
3268.000000	64.997434 
3267.000000	64.997148 
3266.000000	64.992833 
3265.000000	64.985585 
3264.000000	64.976644 
3263.000000	64.967417 
3262.000000	64.958930 
3261.000000	64.951801 
3260.000000	64.945721 
3259.000000	64.939808 
3258.000000	64.932465 
3257.000000	64.921855 
3256.000000	64.906287 
3255.000000	64.884662 
3254.000000	64.856982 
3253.000000	64.824461 
3252.000000	64.789533 
3251.000000	64.755392 
3250.000000	64.725327 
3249.000000	64.702200 
3248.000000	64.687800 
3247.000000	64.682531 
3246.000000	64.685225 
3245.000000	64.693593 
3244.000000	64.704728 
3243.000000	64.715814 
3242.000000	64.724636 
3241.000000	64.730143 
3240.000000	64.732241 
3239.000000	64.731955 
3238.000000	64.730477 
3237.000000	64.729046 
3236.000000	64.728236 
3235.000000	64.727997 
3234.000000	64.727592 
3233.000000	64.726543 
3232.000000	64.724731 
3231.000000	64.722967 
3230.000000	64.722990 
3229.000000	64.727044 
3228.000000	64.737105 
3227.000000	64.754366 
3226.000000	64.778518 
3225.000000	64.807486 
3224.000000	64.837551 
3223.000000	64.864492 
3222.000000	64.884281 
3221.000000	64.893817 
3220.000000	64.891934 
3219.000000	64.879631 
3218.000000	64.859986 
3217.000000	64.837408 
3216.000000	64.816784 
3215.000000	64.802527 
3214.000000	64.797568 
3213.000000	64.802908 
3212.000000	64.817309 
3211.000000	64.837908 
3210.000000	64.860486 
3209.000000	64.880633 
3208.000000	64.894437 
3207.000000	64.899253 
3206.000000	64.894175 
3205.000000	64.879989 
3204.000000	64.859390 
3203.000000	64.835953 
3202.000000	64.814019 
3201.000000	64.797687 
3200.000000	64.790272 
3199.000000	64.793872 
3198.000000	64.808988 
3197.000000	64.834475 
3196.000000	64.867639 
3195.000000	64.904785 
3194.000000	64.941668 
3193.000000	64.974164 
3192.000000	64.998698 
3191.000000	65.012979 
3190.000000	65.016245 
3189.000000	65.009379 
3188.000000	64.994621 
3187.000000	64.974999 
3186.000000	64.953827 
3185.000000	64.933824 
3184.000000	64.917135 
3183.000000	64.904499 
3182.000000	64.895629 
3181.000000	64.889240 
3180.000000	64.883637 
3179.000000	64.877343 
3178.000000	64.869546 
3177.000000	64.860248 
3176.000000	64.850115 
3175.000000	64.840722 
3174.000000	64.833927 
3173.000000	64.831376 
3172.000000	64.834070 
3171.000000	64.842224 
3170.000000	64.854907 
3169.000000	64.870238 
3168.000000	64.885854 
3167.000000	64.899158 
3166.000000	64.907932 
3165.000000	64.910578 
3164.000000	64.906597 
3163.000000	64.896488 
3162.000000	64.881849 
3161.000000	64.864587 
3160.000000	64.847111 
3159.000000	64.831686 
3158.000000	64.820122 
3157.000000	64.813542 
3156.000000	64.812040 
3155.000000	64.814805 
3154.000000	64.820241 
3153.000000	64.826440 
3152.000000	64.831447 
3151.000000	64.833688 
3150.000000	64.832353 
3149.000000	64.827489 
3148.000000	64.819836 
3147.000000	64.810681 
3146.000000	64.801430 
3145.000000	64.793515 
3144.000000	64.787912 
3143.000000	64.785385 
3142.000000	64.786267 
3141.000000	64.790606 
3140.000000	64.798331 
3139.000000	64.809060 
3138.000000	64.822077 
3137.000000	64.836335 
3136.000000	64.850497 
3135.000000	64.863061 
3134.000000	64.872407 
3133.000000	64.877319 
3132.000000	64.877438 
3131.000000	64.873147 
3130.000000	64.865803 
3129.000000	64.857316 
3128.000000	64.849781 
3127.000000	64.844655 
3126.000000	64.842700 
3125.000000	64.843702 
3124.000000	64.846611 
3123.000000	64.849996 
3122.000000	64.852547 
3121.000000	64.853835 
3120.000000	64.854264 
3119.000000	64.855146 
3118.000000	64.858174 
3117.000000	64.864540 
3116.000000	64.874267 
3115.000000	64.886164 
3114.000000	64.897775 
3113.000000	64.905929 
3112.000000	64.907526 
3111.000000	64.900565 
3110.000000	64.884591 
3109.000000	64.860820 
3108.000000	64.831709 
3107.000000	64.800524 
3106.000000	64.770579 
3105.000000	64.744710 
3104.000000	64.724826 
3103.000000	64.711689 
3102.000000	64.705014 
3101.000000	64.704132 
3100.000000	64.707779 
3099.000000	64.714622 
3098.000000	64.723300 
3097.000000	64.732575 
3096.000000	64.741468 
3095.000000	64.749264 
3094.000000	64.755868 
3093.000000	64.761781 
3092.000000	64.768075 
3091.000000	64.776229 
3090.000000	64.787673 
3089.000000	64.803290 
3088.000000	64.823007 
3087.000000	64.845633 
3086.000000	64.869141 
3085.000000	64.890885 
3084.000000	64.908480 
3083.000000	64.920067 
3082.000000	64.924979 
3081.000000	64.923381 
3080.000000	64.916491 
3079.000000	64.905667 
3078.000000	64.892101 
3077.000000	64.876294 
3076.000000	64.858222 
3075.000000	64.837455 
3074.000000	64.813446 
3073.000000	64.786410 
3072.000000	64.757561 
3071.000000	64.729046 
3070.000000	64.703655 
3069.000000	64.684128 
3068.000000	64.672613 
3067.000000	64.670133 
3066.000000	64.676332 
3065.000000	64.689707 
3064.000000	64.707803 
3063.000000	64.727950 
3062.000000	64.747619 
3061.000000	64.764928 
3060.000000	64.778757 
3059.000000	64.788722 
3058.000000	64.794826 
3057.000000	64.797258 
3056.000000	64.796137 
3055.000000	64.791607 
3054.000000	64.783668 
3053.000000	64.772415 
3052.000000	64.758205 
3051.000000	64.741849 
3050.000000	64.724421 
3049.000000	64.707326 
3048.000000	64.691829 
3047.000000	64.678978 
3046.000000	64.669442 
3045.000000	64.663529 
3044.000000	64.661026 
3043.000000	64.661478 
3042.000000	64.664411 
3041.000000	64.669179 
3040.000000	64.675545 
3039.000000	64.683341 
3038.000000	64.692497 
3037.000000	64.703059 
3036.000000	64.715170 
3035.000000	64.728856 
3034.000000	64.743995 
3033.000000	64.760351 
3032.000000	64.777517 
3031.000000	64.794850 
3030.000000	64.811444 
3029.000000	64.826130 
3028.000000	64.837670 
3027.000000	64.844775 
3026.000000	64.846563 
3025.000000	64.842462 
3024.000000	64.832973 
3023.000000	64.819073 
3022.000000	64.802694 
3021.000000	64.785861 
3020.000000	64.770579 
3019.000000	64.758324 
3018.000000	64.749717 
3017.000000	64.744520 
3016.000000	64.741826 
3015.000000	64.740371 
3014.000000	64.738917 
3013.000000	64.736580 
3012.000000	64.733171 
3011.000000	64.728951 
3010.000000	64.724707 
3009.000000	64.721441 
3008.000000	64.719891 
3007.000000	64.720535 
3006.000000	64.723253 
3005.000000	64.727449 
3004.000000	64.732289 
3003.000000	64.736890 
3002.000000	64.740395 
3001.000000	64.742279 
3000.000000	64.742445 
2999.000000	64.740920 
2998.000000	64.738130 
2997.000000	64.734721 
2996.000000	64.731097 
2995.000000	64.727592 
2994.000000	64.723896 
2993.000000	64.719271 
2992.000000	64.712572 
2991.000000	64.702630 
2990.000000	64.688587 
2989.000000	64.670419 
2988.000000	64.649128 
2987.000000	64.626717 
2986.000000	64.605927 
2985.000000	64.589571 
2984.000000	64.580011 
2983.000000	64.578461 
2982.000000	64.584803 
2981.000000	64.597535 
2980.000000	64.614105 
2979.000000	64.631652 
2978.000000	64.647650 
2977.000000	64.660406 
2976.000000	64.669322 
2975.000000	64.674830 
2974.000000	64.677667 
2973.000000	64.678812 
2972.000000	64.678812 
2971.000000	64.677643 
2970.000000	64.674878 
2969.000000	64.669966 
2968.000000	64.662814 
2967.000000	64.653754 
2966.000000	64.643764 
2965.000000	64.634132 
2964.000000	64.626193 
2963.000000	64.621019 
2962.000000	64.618945 
2961.000000	64.619755 
2960.000000	64.622569 
2959.000000	64.626431 
2958.000000	64.630627 
2957.000000	64.634847 
2956.000000	64.639186 
2955.000000	64.643931 
2954.000000	64.649176 
2953.000000	64.654564 
2952.000000	64.659285 
2951.000000	64.662194 
2950.000000	64.662313 
2949.000000	64.659094 
2948.000000	64.652872 
2947.000000	64.645171 
2946.000000	64.638209 
2945.000000	64.634537 
2944.000000	64.636301 
2943.000000	64.644622 
2942.000000	64.659404 
2941.000000	64.679026 
2940.000000	64.700531 
2939.000000	64.720606 
2938.000000	64.735817 
2937.000000	64.743638 
2936.000000	64.742541 
2935.000000	64.732432 
2934.000000	64.714407 
2933.000000	64.690375 
2932.000000	64.662742 
2931.000000	64.633822 
2930.000000	64.605736 
2929.000000	64.580202 
2928.000000	64.558339 
2927.000000	64.540553 
2926.000000	64.526939 
2925.000000	64.517235 
2924.000000	64.510822 
2923.000000	64.507055 
2922.000000	64.505100 
2921.000000	64.504075 
2920.000000	64.503288 
2919.000000	64.501976 
2918.000000	64.499688 
2917.000000	64.495921 
2916.000000	64.490199 
2915.000000	64.482307 
2914.000000	64.472079 
2913.000000	64.459657 
2912.000000	64.445400 
2911.000000	64.430046 
2910.000000	64.414525 
2909.000000	64.400005 
2908.000000	64.387679 
2907.000000	64.378643 
2906.000000	64.373683 
2905.000000	64.373373 
2904.000000	64.378142 
2903.000000	64.388275 
2902.000000	64.403963 
2901.000000	64.425182 
2900.000000	64.451432 
2899.000000	64.481997 
2898.000000	64.515590 
2897.000000	64.550209 
2896.000000	64.583444 
2895.000000	64.612698 
2894.000000	64.635610 
2893.000000	64.650559 
2892.000000	64.656734 
2891.000000	64.654779 
2890.000000	64.646315 
2889.000000	64.633679 
2888.000000	64.619421 
2887.000000	64.606022 
2886.000000	64.594984 
2885.000000	64.587044 
2884.000000	64.581751 
2883.000000	64.578199 
2882.000000	64.575099 
2881.000000	64.571213 
2880.000000	64.565873 
2879.000000	64.559078 
2878.000000	64.551520 
2877.000000	64.544439 
2876.000000	64.539194 
2875.000000	64.536857 
2874.000000	64.538025 
2873.000000	64.542460 
2872.000000	64.549231 
2871.000000	64.556908 
2870.000000	64.563918 
2869.000000	64.569067 
2868.000000	64.571452 
2867.000000	64.571046 
2866.000000	64.568591 
2865.000000	64.565634 
2864.000000	64.563655 
2863.000000	64.564180 
2862.000000	64.568305 
2861.000000	64.576363 
2860.000000	64.587879 
2859.000000	64.602017 
2858.000000	64.617490 
2857.000000	64.633011 
2856.000000	64.647793 
2855.000000	64.661431 
2854.000000	64.673924 
2853.000000	64.685559 
2852.000000	64.696741 
2851.000000	64.707875 
2850.000000	64.719057 
2849.000000	64.730000 
2848.000000	64.740109 
2847.000000	64.748525 
2846.000000	64.754176 
2845.000000	64.756107 
2844.000000	64.753484 
2843.000000	64.745831 
2842.000000	64.732933 
2841.000000	64.715170 
2840.000000	64.693307 
2839.000000	64.668393 
2838.000000	64.641666 
2837.000000	64.614629 
2836.000000	64.588665 
2835.000000	64.565014 
2834.000000	64.544677 
2833.000000	64.528417 
2832.000000	64.516544 
2831.000000	64.508986 
2830.000000	64.505219 
2829.000000	64.504384 
2828.000000	64.505410 
2827.000000	64.507055 
2826.000000	64.508032 
2825.000000	64.507126 
2824.000000	64.503479 
2823.000000	64.496779 
2822.000000	64.487314 
2821.000000	64.475703 
2820.000000	64.463114 
2819.000000	64.451050 
2818.000000	64.440989 
2817.000000	64.434146 
2816.000000	64.431452 
2815.000000	64.433336 
2814.000000	64.439749 
2813.000000	64.450287 
2812.000000	64.464139 
2811.000000	64.480447 
2810.000000	64.498209 
2809.000000	64.516615 
2808.000000	64.534926 
2807.000000	64.552521 
2806.000000	64.569020 
2805.000000	64.583730 
2804.000000	64.595842 
2803.000000	64.604330 
2802.000000	64.608216 
2801.000000	64.606738 
2800.000000	64.599490 
2799.000000	64.586782 
2798.000000	64.569759 
2797.000000	64.550185 
2796.000000	64.530181 
2795.000000	64.511871 
2794.000000	64.497089 
2793.000000	64.487099 
2792.000000	64.482593 
2791.000000	64.483594 
2790.000000	64.489698 
2789.000000	64.499950 
2788.000000	64.513325 
2787.000000	64.528632 
2786.000000	64.544606 
2785.000000	64.559984 
2784.000000	64.573764 
2783.000000	64.584636 
2782.000000	64.591956 
2781.000000	64.595246 
2780.000000	64.594650 
2779.000000	64.590668 
2778.000000	64.584326 
2777.000000	64.577126 
2776.000000	64.570617 
2775.000000	64.566254 
2774.000000	64.565086 
2773.000000	64.567685 
2772.000000	64.573884 
2771.000000	64.582991 
2770.000000	64.593720 
2769.000000	64.604353 
2768.000000	64.613246 
2767.000000	64.618968 
2766.000000	64.620685 
2765.000000	64.618086 
2764.000000	64.611601 
2763.000000	64.602303 
2762.000000	64.591741 
2761.000000	64.581418 
2760.000000	64.572834 
2759.000000	64.566946 
2758.000000	64.564013 
2757.000000	64.563703 
2756.000000	64.564990 
2755.000000	64.566683 
2754.000000	64.567542 
2753.000000	64.566850 
2752.000000	64.564204 
2751.000000	64.559984 
2750.000000	64.554882 
2749.000000	64.550161 
2748.000000	64.547038 
2747.000000	64.546513 
2746.000000	64.549422 
2745.000000	64.556050 
2744.000000	64.566373 
2743.000000	64.579868 
2742.000000	64.595675 
2741.000000	64.612507 
2740.000000	64.628887 
2739.000000	64.643287 
2738.000000	64.654421 
2737.000000	64.661240 
2736.000000	64.663243 
2735.000000	64.660763 
2734.000000	64.654731 
2733.000000	64.646649 
2732.000000	64.638233 
2731.000000	64.630985 
2730.000000	64.625954 
2729.000000	64.623403 
2728.000000	64.622998 
2727.000000	64.623761 
2726.000000	64.624691 
2725.000000	64.624905 
2724.000000	64.624238 
2723.000000	64.623165 
2722.000000	64.622759 
2721.000000	64.624285 
2720.000000	64.628863 
2719.000000	64.636945 
2718.000000	64.648056 
2717.000000	64.660859 
2716.000000	64.673352 
2715.000000	64.683318 
2714.000000	64.688730 
2713.000000	64.688277 
2712.000000	64.681673 
2711.000000	64.669680 
2710.000000	64.653658 
2709.000000	64.635419 
2708.000000	64.616942 
2707.000000	64.599967 
2706.000000	64.585804 
2705.000000	64.575028 
2704.000000	64.567971 
2703.000000	64.564371 
2702.000000	64.563822 
2701.000000	64.565539 
2700.000000	64.568448 
2699.000000	64.571404 
2698.000000	64.573073 
2697.000000	64.572668 
2696.000000	64.569616 
2695.000000	64.564347 
2694.000000	64.557909 
2693.000000	64.552116 
2692.000000	64.548850 
2691.000000	64.549827 
2690.000000	64.555978 
2689.000000	64.567041 
2688.000000	64.581465 
2687.000000	64.596557 
2686.000000	64.608860 
2685.000000	64.614820 
2684.000000	64.611625 
2683.000000	64.597606 
2682.000000	64.572763 
2681.000000	64.538717 
2680.000000	64.498543 
2679.000000	64.456200 
2678.000000	64.416050 
2677.000000	64.381980 
2676.000000	64.356923 
2675.000000	64.342737 
2674.000000	64.339709 
2673.000000	64.346647 
2672.000000	64.361405 
2671.000000	64.381051 
2670.000000	64.402770 
2669.000000	64.424252 
2668.000000	64.444136 
2667.000000	64.461708 
2666.000000	64.477133 
2665.000000	64.490628 
2664.000000	64.502239 
2663.000000	64.511656 
2662.000000	64.518094 
2661.000000	64.520478 
2660.000000	64.517974 
2659.000000	64.510393 
2658.000000	64.498209 
2657.000000	64.482665 
2656.000000	64.465665 
2655.000000	64.449286 
2654.000000	64.435410 
2653.000000	64.425420 
2652.000000	64.419865 
2651.000000	64.418673 
2650.000000	64.420986 
2649.000000	64.425659 
2648.000000	64.431738 
2647.000000	64.438176 
2646.000000	64.444112 
2645.000000	64.448857 
2644.000000	64.451956 
2643.000000	64.453172 
2642.000000	64.452481 
2641.000000	64.450168 
2640.000000	64.446878 
2639.000000	64.443564 
2638.000000	64.441275 
2637.000000	64.440989 
2636.000000	64.443206 
2635.000000	64.448046 
2634.000000	64.455175 
2633.000000	64.463686 
2632.000000	64.472413 
2631.000000	64.480018 
2630.000000	64.485311 
2629.000000	64.487552 
2628.000000	64.486432 
2627.000000	64.482283 
2626.000000	64.475917 
2625.000000	64.468646 
2624.000000	64.461755 
2623.000000	64.456391 
2622.000000	64.453434 
2621.000000	64.453220 
2620.000000	64.455533 
2619.000000	64.459538 
2618.000000	64.464354 
2617.000000	64.468884 
2616.000000	64.472556 
2615.000000	64.475417 
2614.000000	64.478135 
2613.000000	64.481806 
2612.000000	64.487624 
2611.000000	64.496302 
2610.000000	64.507794 
2609.000000	64.521288 
2608.000000	64.535164 
2607.000000	64.547681 
2606.000000	64.557385 
2605.000000	64.563512 
2604.000000	64.566040 
2603.000000	64.565706 
2602.000000	64.563727 
2601.000000	64.561176 
2600.000000	64.558839 
2599.000000	64.556884 
2598.000000	64.554858 
2597.000000	64.552140 
2596.000000	64.548206 
2595.000000	64.543032 
2594.000000	64.537215 
2593.000000	64.531779 
2592.000000	64.527893 
2591.000000	64.526605 
2590.000000	64.528203 
2589.000000	64.532351 
2588.000000	64.538073 
2587.000000	64.544224 
2586.000000	64.549636 
2585.000000	64.553666 
2584.000000	64.556264 
2583.000000	64.557838 
2582.000000	64.559125 
2581.000000	64.561104 
2580.000000	64.564538 
2579.000000	64.569878 
2578.000000	64.577174 
2577.000000	64.585947 
2576.000000	64.595317 
2575.000000	64.604330 
2574.000000	64.611959 
2573.000000	64.617466 
2572.000000	64.620375 
2571.000000	64.620447 
2570.000000	64.617705 
2569.000000	64.612030 
2568.000000	64.603233 
2567.000000	64.591383 
2566.000000	64.576482 
2565.000000	64.558863 
2564.000000	64.539265 
2563.000000	64.518880 
2562.000000	64.499115 
2561.000000	64.481472 
2560.000000	64.467024 
2559.000000	64.456391 
2558.000000	64.449381 
2557.000000	64.445400 
2556.000000	64.443540 
2555.000000	64.442777 
2554.000000	64.442443 
2553.000000	64.442372 
2552.000000	64.442706 
2551.000000	64.443922 
2550.000000	64.446163 
2549.000000	64.449238 
2548.000000	64.452314 
2547.000000	64.454293 
2546.000000	64.454030 
2545.000000	64.451146 
2544.000000	64.445996 
2543.000000	64.440107 
2542.000000	64.436054 
2541.000000	64.436554 
2540.000000	64.444255 
2539.000000	64.460301 
2538.000000	64.484286 
2537.000000	64.513778 
2536.000000	64.544916 
2535.000000	64.572930 
2534.000000	64.593100 
2533.000000	64.601969 
2532.000000	64.598107 
2531.000000	64.582443 
2530.000000	64.557933 
2529.000000	64.529109 
2528.000000	64.501023 
2527.000000	64.478230 
2526.000000	64.464044 
2525.000000	64.459800 
2524.000000	64.464735 
2523.000000	64.476227 
2522.000000	64.490461 
2521.000000	64.502978 
2520.000000	64.509892 
2519.000000	64.508605 
2518.000000	64.498353 
2517.000000	64.480066 
2516.000000	64.456272 
2515.000000	64.430093 
2514.000000	64.405012 
2513.000000	64.383769 
2512.000000	64.368319 
2511.000000	64.359641 
2510.000000	64.357852 
2509.000000	64.362645 
2508.000000	64.373207 
2507.000000	64.388489 
2506.000000	64.407157 
2505.000000	64.427566 
2504.000000	64.447951 
2503.000000	64.466214 
2502.000000	64.480280 
2501.000000	64.488530 
2500.000000	64.489936 
2499.000000	64.484333 
2498.000000	64.472532 
2497.000000	64.456272 
2496.000000	64.437603 
2495.000000	64.418506 
2494.000000	64.400553 
2493.000000	64.384651 
2492.000000	64.371109 
2491.000000	64.359641 
2490.000000	64.349818 
2489.000000	64.341020 
2488.000000	64.332938 
2487.000000	64.325714 
2486.000000	64.319539 
2485.000000	64.315080 
2484.000000	64.313101 
2483.000000	64.314484 
2482.000000	64.320015 
2481.000000	64.330363 
2480.000000	64.345812 
2479.000000	64.366078 
2478.000000	64.390444 
2477.000000	64.417457 
2476.000000	64.445424 
2475.000000	64.472293 
2474.000000	64.495944 
2473.000000	64.514708 
2472.000000	64.527487 
2471.000000	64.533805 
2470.000000	64.533996 
2469.000000	64.528965 
2468.000000	64.519882 
2467.000000	64.508056 
2466.000000	64.494681 
2465.000000	64.480853 
2464.000000	64.467501 
2463.000000	64.455366 
2462.000000	64.445281 
2461.000000	64.438080 
2460.000000	64.434337 
2459.000000	64.434409 
2458.000000	64.438247 
2457.000000	64.445376 
2456.000000	64.454746 
2455.000000	64.464783 
2454.000000	64.473795 
2453.000000	64.480233 
2452.000000	64.482855 
2451.000000	64.481186 
2450.000000	64.475536 
2449.000000	64.466953 
2448.000000	64.457201 
2447.000000	64.448142 
2446.000000	64.441752 
2445.000000	64.439606 
2444.000000	64.442491 
2443.000000	64.450097 
2442.000000	64.461159 
2441.000000	64.473414 
2440.000000	64.484071 
2439.000000	64.490365 
2438.000000	64.490056 
2437.000000	64.482140 
2436.000000	64.467096 
2435.000000	64.446520 
2434.000000	64.423012 
2433.000000	64.399194 
2432.000000	64.377427 
2431.000000	64.359068 
2430.000000	64.344263 
2429.000000	64.332151 
2428.000000	64.321327 
2427.000000	64.310407 
2426.000000	64.298677 
2425.000000	64.286351 
2424.000000	64.274549 
2423.000000	64.264893 
2422.000000	64.258837 
2421.000000	64.257192 
2420.000000	64.259552 
2419.000000	64.264655 
2418.000000	64.270567 
2417.000000	64.275312 
2416.000000	64.277577 
2415.000000	64.276885 
2414.000000	64.273858 
2413.000000	64.269804 
2412.000000	64.266562 
2411.000000	64.265894 
2410.000000	64.269113 
2409.000000	64.276766 
2408.000000	64.288473 
2407.000000	64.303326 
2406.000000	64.319872 
2405.000000	64.336848 
2404.000000	64.353036 
2403.000000	64.367508 
2402.000000	64.379668 
2401.000000	64.389419 
2400.000000	64.396929 
2399.000000	64.402580 
2398.000000	64.406752 
2397.000000	64.410209 
2396.000000	64.413309 
2395.000000	64.416265 
2394.000000	64.419031 
2393.000000	64.421415 
2392.000000	64.422893 
2391.000000	64.422893 
2390.000000	64.420843 
2389.000000	64.416265 
2388.000000	64.408779 
2387.000000	64.398145 
2386.000000	64.384055 
2385.000000	64.366507 
2384.000000	64.345669 
2383.000000	64.322161 
2382.000000	64.297199 
2381.000000	64.272451 
2380.000000	64.250421 
2379.000000	64.233613 
2378.000000	64.224529 
2377.000000	64.224696 
2376.000000	64.234447 
2375.000000	64.252662 
2374.000000	64.276552 
2373.000000	64.302754 
2372.000000	64.327645 
2371.000000	64.348530 
2370.000000	64.363837 
2369.000000	64.373493 
2368.000000	64.378738 
2367.000000	64.381504 
2366.000000	64.383625 
2365.000000	64.386463 
2364.000000	64.390373 
2363.000000	64.394950 
2362.000000	64.399051 
2361.000000	64.401435 
2360.000000	64.401197 
2359.000000	64.397954 
2358.000000	64.392018 
2357.000000	64.384126 
2356.000000	64.375138 
2355.000000	64.365744 
2354.000000	64.356589 
2353.000000	64.348053 
2352.000000	64.340400 
2351.000000	64.334177 
2350.000000	64.329767 
2349.000000	64.327502 
2348.000000	64.327478 
2347.000000	64.329242 
2346.000000	64.332008 
2345.000000	64.334511 
2344.000000	64.335536 
2343.000000	64.334058 
2342.000000	64.329528 
2341.000000	64.321947 
2340.000000	64.311861 
2339.000000	64.300251 
2338.000000	64.288091 
2337.000000	64.276385 
2336.000000	64.265823 
2335.000000	64.256787 
2334.000000	64.249396 
2333.000000	64.243555 
2332.000000	64.239263 
2331.000000	64.236474 
2330.000000	64.235210 
2329.000000	64.235353 
2328.000000	64.236664 
2327.000000	64.238572 
2326.000000	64.240336 
2325.000000	64.241051 
2324.000000	64.239859 
2323.000000	64.236187 
2322.000000	64.229750 
2321.000000	64.220857 
2320.000000	64.210104 
2319.000000	64.198827 
2318.000000	64.188623 
2317.000000	64.181280 
2316.000000	64.178395 
2315.000000	64.181137 
2314.000000	64.189767 
2313.000000	64.203858 
2312.000000	64.222025 
2311.000000	64.242196 
2310.000000	64.262127 
2309.000000	64.279794 
2308.000000	64.293742 
2307.000000	64.303445 
2306.000000	64.309239 
2305.000000	64.312219 
2304.000000	64.314079 
2303.000000	64.316439 
2302.000000	64.320468 
2301.000000	64.326858 
2300.000000	64.335274 
2299.000000	64.344835 
2298.000000	64.353966 
2297.000000	64.361143 
2296.000000	64.364981 
2295.000000	64.364504 
2294.000000	64.359617 
2293.000000	64.350867 
2292.000000	64.339542 
2291.000000	64.327454 
2290.000000	64.316463 
2289.000000	64.308333 
2288.000000	64.304232 
2287.000000	64.304637 
2286.000000	64.309191 
2285.000000	64.316630 
2284.000000	64.325261 
2283.000000	64.333176 
2282.000000	64.338684 
2281.000000	64.340567 
2280.000000	64.338517 
2279.000000	64.333057 
2278.000000	64.325404 
2277.000000	64.317035 
2276.000000	64.309215 
2275.000000	64.302802 
2274.000000	64.297842 
2273.000000	64.293766 
2272.000000	64.289689 
2271.000000	64.284729 
2270.000000	64.278531 
2269.000000	64.271640 
2268.000000	64.265203 
2267.000000	64.260911 
2266.000000	64.260482 
2265.000000	64.264917 
2264.000000	64.274239 
2263.000000	64.287042 
2262.000000	64.300918 
2261.000000	64.312839 
2260.000000	64.319849 
2259.000000	64.319849 
2258.000000	64.312124 
2257.000000	64.297318 
2256.000000	64.277267 
2255.000000	64.254546 
2254.000000	64.231801 
2253.000000	64.211463 
2252.000000	64.195132 
2251.000000	64.183592 
2250.000000	64.176988 
2249.000000	64.175009 
2248.000000	64.177155 
2247.000000	64.182782 
2246.000000	64.191508 
2245.000000	64.202666 
2244.000000	64.215612 
2243.000000	64.229440 
2242.000000	64.243006 
2241.000000	64.255023 
2240.000000	64.264416 
2239.000000	64.270377 
2238.000000	64.272570 
2237.000000	64.271187 
2236.000000	64.266920 
2235.000000	64.260840 
2234.000000	64.254140 
2233.000000	64.247894 
2232.000000	64.242815 
2231.000000	64.239454 
2230.000000	64.237809 
2229.000000	64.237523 
2228.000000	64.237809 
2227.000000	64.237809 
2226.000000	64.236712 
2225.000000	64.233827 
2224.000000	64.228749 
2223.000000	64.221453 
2222.000000	64.212369 
2221.000000	64.202260 
2220.000000	64.192318 
2219.000000	64.183783 
2218.000000	64.177775 
2217.000000	64.175128 
2216.000000	64.176201 
2215.000000	64.180612 
2214.000000	64.187455 
2213.000000	64.195466 
2212.000000	64.203023 
2211.000000	64.208912 
2210.000000	64.212226 
2209.000000	64.212989 
2208.000000	64.211797 
2207.000000	64.209961 
2206.000000	64.209008 
2205.000000	64.210295 
2204.000000	64.214682 
2203.000000	64.222145 
2202.000000	64.231729 
2201.000000	64.241719 
2200.000000	64.250016 
2199.000000	64.254450 
2198.000000	64.253211 
2197.000000	64.245510 
2196.000000	64.231586 
2195.000000	64.212751 
2194.000000	64.191246 
2193.000000	64.169788 
2192.000000	64.150905 
2191.000000	64.136838 
2190.000000	64.128828 
2189.000000	64.127182 
2188.000000	64.131331 
2187.000000	64.139842 
2186.000000	64.150953 
2185.000000	64.162826 
2184.000000	64.173913 
2183.000000	64.182972 
2182.000000	64.189219 
2181.000000	64.192199 
2180.000000	64.191842 
2179.000000	64.188265 
2178.000000	64.181804 
2177.000000	64.173126 
2176.000000	64.163231 
2175.000000	64.153337 
2174.000000	64.145016 
2173.000000	64.139819 
2172.000000	64.138841 
2171.000000	64.142632 
2170.000000	64.150762 
2169.000000	64.162015 
2168.000000	64.174532 
2167.000000	64.186096 
2166.000000	64.194631 
2165.000000	64.198923 
2164.000000	64.198637 
2163.000000	64.194440 
2162.000000	64.187717 
2161.000000	64.180350 
2160.000000	64.173865 
2159.000000	64.169406 
2158.000000	64.167404 
2157.000000	64.167666 
2156.000000	64.169621 
2155.000000	64.172816 
2154.000000	64.176940 
2153.000000	64.182090 
2152.000000	64.188599 
2151.000000	64.196920 
2150.000000	64.207077 
2149.000000	64.218497 
2148.000000	64.230132 
2147.000000	64.240527 
2146.000000	64.248228 
2145.000000	64.252138 
2144.000000	64.251899 
2143.000000	64.247989 
2142.000000	64.241552 
2141.000000	64.234066 
2140.000000	64.226913 
2139.000000	64.220881 
2138.000000	64.216041 
2137.000000	64.211916 
2136.000000	64.207601 
2135.000000	64.202427 
2134.000000	64.196085 
2133.000000	64.189076 
2132.000000	64.182543 
2131.000000	64.177918 
2130.000000	64.176487 
2129.000000	64.178943 
2128.000000	64.185118 
2127.000000	64.193797 
2126.000000	64.203166 
2125.000000	64.211320 
2124.000000	64.216780 
2123.000000	64.218711 
2122.000000	64.217376 
2121.000000	64.213728 
2120.000000	64.209175 
2119.000000	64.205026 
2118.000000	64.202070 
2117.000000	64.200377 
2116.000000	64.199304 
2115.000000	64.197754 
2114.000000	64.194464 
2113.000000	64.188408 
2112.000000	64.179229 
2111.000000	64.167165 
2110.000000	64.152932 
2109.000000	64.137721 
2108.000000	64.122581 
2107.000000	64.108586 
2106.000000	64.096450 
2105.000000	64.086556 
2104.000000	64.079141 
2103.000000	64.074134 
2102.000000	64.071226 
2101.000000	64.069890 
2100.000000	64.069461 
2099.000000	64.069294 
2098.000000	64.068818 
2097.000000	64.067840 
2096.000000	64.066338 
2095.000000	64.064502 
2094.000000	64.062738 
2093.000000	64.061450 
2092.000000	64.060831 
2091.000000	64.061021 
2090.000000	64.061999 
2089.000000	64.063668 
2088.000000	64.065814 
2087.000000	64.068126 
2086.000000	64.070272 
2085.000000	64.071917 
2084.000000	64.073014 
2083.000000	64.073586 
2082.000000	64.074015 
2081.000000	64.074945 
2080.000000	64.077115 
2079.000000	64.081192 
2078.000000	64.087581 
2077.000000	64.096212 
2076.000000	64.106464 
2075.000000	64.117360 
2074.000000	64.127397 
2073.000000	64.135146 
2072.000000	64.139175 
2071.000000	64.138674 
2070.000000	64.133191 
2069.000000	64.123010 
2068.000000	64.108920 
2067.000000	64.092278 
2066.000000	64.074683 
2065.000000	64.057755 
2064.000000	64.042997 
2063.000000	64.031624 
2062.000000	64.024662 
2061.000000	64.022564 
2060.000000	64.025473 
2059.000000	64.033055 
2058.000000	64.044570 
2057.000000	64.058804 
2056.000000	64.074087 
2055.000000	64.088487 
2054.000000	64.100050 
2053.000000	64.107108 
2052.000000	64.108586 
2051.000000	64.103937 
2050.000000	64.093756 
2049.000000	64.079189 
2048.000000	64.061880 
2047.000000	64.043354 
2046.000000	64.025044 
2045.000000	64.007925 
2044.000000	63.992357 
2043.000000	63.978481 
2042.000000	63.966226 
2041.000000	63.955616 
2040.000000	63.946986 
2039.000000	63.940787 
2038.000000	63.937568 
2037.000000	63.937640 
2036.000000	63.940930 
2035.000000	63.946580 
2034.000000	63.953232 
2033.000000	63.959217 
2032.000000	63.962864 
2031.000000	63.963007 
2030.000000	63.959312 
2029.000000	63.952326 
2028.000000	63.943552 
2027.000000	63.934850 
2026.000000	63.928389 
2025.000000	63.925862 
2024.000000	63.928318 
2023.000000	63.935828 
2022.000000	63.947486 
2021.000000	63.961887 
2020.000000	63.977169 
2019.000000	63.991665 
2018.000000	64.004182 
2017.000000	64.014053 
2016.000000	64.021229 
2015.000000	64.026093 
2014.000000	64.029049 
2013.000000	64.030432 
2012.000000	64.030170 
2011.000000	64.027786 
2010.000000	64.022421 
2009.000000	64.013242 
2008.000000	63.999676 
2007.000000	63.981914 
2006.000000	63.961052 
2005.000000	63.938975 
2004.000000	63.918304 
2003.000000	63.901829 
2002.000000	63.891792 
2001.000000	63.889455 
2000.000000	63.894653 
1999.000000	63.905906 
1998.000000	63.920497 
1997.000000	63.935375 
1996.000000	63.947367 
1995.000000	63.954114 
1994.000000	63.954210 
1993.000000	63.947582 
1992.000000	63.935041 
1991.000000	63.918232 
1990.000000	63.899040 
1989.000000	63.879394 
1988.000000	63.860797 
1987.000000	63.844299 
1986.000000	63.830685 
1985.000000	63.820338 
1984.000000	63.813591 
1983.000000	63.810729 
1982.000000	63.812279 
1981.000000	63.818454 
1980.000000	63.829374 
1979.000000	63.844490 
1978.000000	63.862776 
1977.000000	63.882565 
1976.000000	63.901972 
1975.000000	63.919091 
1974.000000	63.932394 
1973.000000	63.940930 
1972.000000	63.944554 
1971.000000	63.943719 
1970.000000	63.939189 
1969.000000	63.931918 
1968.000000	63.922762 
1967.000000	63.912415 
1966.000000	63.901305 
1965.000000	63.889837 
1964.000000	63.878297 
1963.000000	63.867211 
1962.000000	63.857102 
1961.000000	63.848638 
1960.000000	63.842153 
1959.000000	63.837647 
1958.000000	63.834714 
1957.000000	63.832712 
1956.000000	63.830876 
1955.000000	63.828539 
1954.000000	63.825559 
1953.000000	63.822126 
1952.000000	63.818836 
1951.000000	63.816404 
1950.000000	63.815331 
1949.000000	63.815808 
1948.000000	63.817620 
1947.000000	63.820385 
1946.000000	63.823628 
1945.000000	63.826942 
1944.000000	63.830280 
1943.000000	63.833832 
1942.000000	63.838052 
1941.000000	63.843345 
1940.000000	63.849687 
1939.000000	63.856792 
1938.000000	63.863897 
1937.000000	63.869881 
1936.000000	63.873410 
1935.000000	63.873529 
1934.000000	63.869857 
1933.000000	63.862824 
1932.000000	63.853454 
1931.000000	63.843321 
1930.000000	63.834023 
1929.000000	63.826727 
1928.000000	63.821911 
1927.000000	63.819217 
1926.000000	63.817572 
1925.000000	63.815498 
1924.000000	63.811588 
1923.000000	63.804817 
1922.000000	63.795018 
1921.000000	63.782835 
1920.000000	63.769745 
1919.000000	63.757395 
1918.000000	63.747668 
1917.000000	63.742041 
1916.000000	63.741731 
1915.000000	63.747096 
1914.000000	63.758158 
1913.000000	63.774442 
1912.000000	63.795113 
1911.000000	63.819098 
1910.000000	63.844823 
1909.000000	63.870501 
1908.000000	63.893890 
1907.000000	63.912677 
1906.000000	63.924860 
1905.000000	63.929128 
1904.000000	63.925099 
1903.000000	63.913583 
1902.000000	63.896369 
1901.000000	63.875913 
1900.000000	63.854861 
1899.000000	63.835525 
1898.000000	63.819646 
1897.000000	63.807797 
1896.000000	63.800001 
1895.000000	63.795447 
1894.000000	63.793182 
1893.000000	63.792228 
1892.000000	63.791823 
1891.000000	63.791680 
1890.000000	63.791728 
1889.000000	63.792419 
1888.000000	63.793826 
1887.000000	63.796353 
1886.000000	63.800096 
1885.000000	63.805103 
1884.000000	63.811302 
1883.000000	63.818192 
1882.000000	63.825297 
1881.000000	63.831830 
1880.000000	63.836836 
1879.000000	63.839483 
1878.000000	63.839149 
1877.000000	63.835644 
1876.000000	63.829088 
1875.000000	63.820290 
1874.000000	63.810372 
1873.000000	63.800501 
1872.000000	63.791751 
1871.000000	63.785004 
1870.000000	63.780665 
1869.000000	63.778758 
1868.000000	63.778901 
1867.000000	63.780474 
1866.000000	63.782620 
1865.000000	63.784670 
1864.000000	63.785862 
1863.000000	63.785552 
1862.000000	63.783288 
1861.000000	63.778662 
1860.000000	63.771772 
1859.000000	63.762974 
1858.000000	63.753199 
1857.000000	63.743662 
1856.000000	63.735842 
1855.000000	63.730907 
1854.000000	63.729572 
1853.000000	63.731956 
1852.000000	63.737344 
1851.000000	63.744425 
1850.000000	63.751626 
1849.000000	63.757300 
1848.000000	63.760399 
1847.000000	63.760423 
1846.000000	63.757777 
1845.000000	63.753271 
1844.000000	63.748097 
1843.000000	63.743352 
1842.000000	63.739824 
1841.000000	63.737845 
1840.000000	63.737320 
1839.000000	63.737726 
1838.000000	63.738536 
1837.000000	63.739299 
1836.000000	63.739895 
1835.000000	63.740491 
1834.000000	63.741397 
1833.000000	63.743090 
1832.000000	63.745927 
1831.000000	63.750123 
1830.000000	63.755679 
1829.000000	63.762331 
1828.000000	63.769865 
1827.000000	63.777875 
1826.000000	63.785958 
1825.000000	63.793683 
1824.000000	63.800525 
1823.000000	63.805842 
1822.000000	63.808941 
1821.000000	63.809370 
1820.000000	63.806986 
1819.000000	63.802194 
1818.000000	63.795685 
1817.000000	63.788771 
1816.000000	63.782811 
1815.000000	63.778924 
1814.000000	63.777852 
1813.000000	63.779616 
1812.000000	63.783431 
1811.000000	63.788008 
1810.000000	63.791632 
1809.000000	63.792634 
1808.000000	63.789510 
1807.000000	63.781476 
1806.000000	63.768482 
1805.000000	63.751220 
1804.000000	63.731002 
1803.000000	63.709521 
1802.000000	63.688468 
1801.000000	63.669323 
1800.000000	63.653063 
1799.000000	63.640141 
1798.000000	63.630294 
1797.000000	63.622856 
1796.000000	63.616752 
1795.000000	63.610816 
1794.000000	63.604187 
1793.000000	63.596439 
1792.000000	63.587784 
1791.000000	63.578915 
1790.000000	63.570952 
1789.000000	63.565182 
1788.000000	63.562750 
1787.000000	63.564348 
1786.000000	63.570070 
1785.000000	63.579559 
1784.000000	63.591980 
1783.000000	63.606214 
1782.000000	63.621068 
1781.000000	63.635492 
1780.000000	63.648629 
1779.000000	63.660001 
1778.000000	63.669276 
1777.000000	63.676309 
1776.000000	63.680958 
1775.000000	63.683128 
1774.000000	63.682889 
1773.000000	63.680195 
1772.000000	63.675355 
1771.000000	63.668727 
1770.000000	63.660812 
1769.000000	63.652229 
1768.000000	63.643479 
1767.000000	63.634872 
1766.000000	63.626575 
1765.000000	63.618397 
1764.000000	63.610100 
1763.000000	63.601398 
1762.000000	63.592433 
1761.000000	63.583707 
1760.000000	63.575983 
1759.000000	63.570332 
1758.000000	63.567876 
1757.000000	63.569378 
1756.000000	63.574886 
1755.000000	63.583803 
1754.000000	63.594508 
1753.000000	63.604807 
1752.000000	63.612008 
1751.000000	63.613677 
1750.000000	63.607716 
1749.000000	63.593125 
1748.000000	63.570022 
1747.000000	63.539934 
1746.000000	63.505291 
1745.000000	63.469195 
1744.000000	63.434624 
1743.000000	63.403964 
1742.000000	63.378787 
1741.000000	63.359451 
1740.000000	63.345336 
1739.000000	63.335251 
1738.000000	63.327836 
1737.000000	63.322257 
1736.000000	63.317942 
1735.000000	63.315296 
1734.000000	63.314962 
1733.000000	63.317847 
1732.000000	63.324427 
1731.000000	63.334918 
1730.000000	63.348507 
1729.000000	63.364219 
1728.000000	63.380622 
1727.000000	63.396573 
1726.000000	63.411355 
1725.000000	63.424658 
1724.000000	63.436746 
1723.000000	63.447976 
1722.000000	63.458704 
1721.000000	63.469004 
1720.000000	63.478589 
1719.000000	63.486957 
1718.000000	63.493466 
1717.000000	63.497710 
1716.000000	63.499784 
1715.000000	63.500261 
1714.000000	63.500261 
1713.000000	63.501143 
1712.000000	63.504195 
1711.000000	63.510251 
1710.000000	63.519406 
1709.000000	63.530945 
1708.000000	63.543391 
1707.000000	63.554978 
1706.000000	63.563656 
1705.000000	63.568043 
1704.000000	63.567256 
1703.000000	63.561391 
1702.000000	63.551259 
1701.000000	63.538551 
1700.000000	63.525009 
1699.000000	63.512516 
1698.000000	63.502430 
1697.000000	63.495683 
1696.000000	63.492488 
1695.000000	63.492465 
1694.000000	63.494825 
1693.000000	63.498854 
1692.000000	63.503837 
1691.000000	63.509154 
1690.000000	63.514208 
1689.000000	63.518404 
1688.000000	63.521003 
1687.000000	63.521170 
1686.000000	63.518214 
1685.000000	63.511848 
1684.000000	63.502240 
1683.000000	63.490033 
1682.000000	63.476610 
1681.000000	63.463711 
1680.000000	63.453030 
1679.000000	63.445806 
1678.000000	63.442826 
1677.000000	63.444066 
1676.000000	63.448762 
1675.000000	63.455581 
1674.000000	63.462901 
1673.000000	63.469243 
1672.000000	63.473343 
1671.000000	63.474678 
1670.000000	63.473343 
1669.000000	63.470125 
1668.000000	63.466167 
1667.000000	63.462924 
1666.000000	63.461542 
1665.000000	63.463091 
1664.000000	63.468003 
1663.000000	63.476133 
1662.000000	63.486719 
1661.000000	63.498497 
1660.000000	63.509702 
1659.000000	63.518261 
1658.000000	63.522195 
1657.000000	63.519716 
1656.000000	63.509845 
1655.000000	63.492631 
1654.000000	63.469505 
1653.000000	63.442969 
1652.000000	63.416409 
1651.000000	63.393497 
1650.000000	63.377404 
1649.000000	63.370347 
1648.000000	63.373017 
1647.000000	63.384366 
1646.000000	63.401985 
1645.000000	63.422465 
1644.000000	63.442134 
1643.000000	63.457965 
1642.000000	63.468027 
1641.000000	63.471579 
1640.000000	63.469243 
1639.000000	63.462805 
1638.000000	63.454604 
1637.000000	63.446974 
1636.000000	63.441896 
1635.000000	63.440680 
1634.000000	63.443803 
1633.000000	63.450908 
1632.000000	63.460540 
1631.000000	63.470482 
1630.000000	63.477993 
1629.000000	63.480472 
1628.000000	63.475918 
1627.000000	63.463401 
1626.000000	63.443636 
1625.000000	63.418555 
1624.000000	63.391327 
1623.000000	63.365459 
1622.000000	63.344407 
1621.000000	63.330268 
1620.000000	63.323497 
1619.000000	63.322687 
1618.000000	63.325071 
1617.000000	63.327217 
1616.000000	63.325643 
1615.000000	63.318181 
1614.000000	63.303971 
1613.000000	63.284158 
1612.000000	63.261389 
1611.000000	63.239264 
1610.000000	63.221192 
1609.000000	63.210129 
1608.000000	63.207602 
1607.000000	63.213777 
1606.000000	63.227486 
1605.000000	63.246321 
1604.000000	63.267374 
1603.000000	63.287687 
1602.000000	63.304948 
1601.000000	63.317751 
1600.000000	63.325905 
1599.000000	63.330268 
1598.000000	63.332533 
1597.000000	63.334894 
1596.000000	63.339471 
1595.000000	63.347959 
1594.000000	63.361048 
1593.000000	63.378190 
1592.000000	63.397598 
1591.000000	63.416814 
1590.000000	63.432812 
1589.000000	63.442754 
1588.000000	63.444638 
1587.000000	63.437676 
1586.000000	63.422465 
1585.000000	63.400697 
1584.000000	63.374972 
1583.000000	63.348245 
1582.000000	63.323354 
1581.000000	63.302707 
1580.000000	63.287949 
1579.000000	63.279819 
1578.000000	63.278198 
1577.000000	63.282275 
1576.000000	63.290715 
1575.000000	63.301968 
1574.000000	63.314533 
1573.000000	63.327431 
1572.000000	63.339781 
1571.000000	63.351154 
1570.000000	63.361287 
1569.000000	63.370084 
1568.000000	63.377332 
1567.000000	63.382768 
1566.000000	63.385987 
1565.000000	63.386631 
1564.000000	63.384628 
1563.000000	63.380241 
1562.000000	63.374257 
1561.000000	63.367795 
1560.000000	63.362240 
1559.000000	63.358759 
1558.000000	63.358116 
1557.000000	63.360333 
1556.000000	63.364648 
1555.000000	63.369607 
1554.000000	63.373184 
1553.000000	63.373398 
1552.000000	63.368725 
1551.000000	63.358163 
1550.000000	63.341522 
1549.000000	63.319444 
1548.000000	63.293433 
1547.000000	63.265585 
1546.000000	63.238406 
1545.000000	63.214349 
1544.000000	63.195657 
1543.000000	63.184046 
1542.000000	63.180565 
1541.000000	63.185191 
1540.000000	63.197159 
1539.000000	63.214659 
1538.000000	63.235640 
1537.000000	63.257408 
1536.000000	63.277816 
1535.000000	63.295030 
1534.000000	63.308215 
1533.000000	63.317418 
1532.000000	63.323545 
1531.000000	63.327980 
1530.000000	63.332438 
1529.000000	63.338446 
1528.000000	63.347029 
1527.000000	63.358497 
1526.000000	63.372492 
1525.000000	63.387894 
1524.000000	63.403272 
1523.000000	63.416886 
1522.000000	63.427162 
1521.000000	63.432884 
1520.000000	63.433384 
1519.000000	63.428616 
1518.000000	63.419389 
1517.000000	63.406920 
1516.000000	63.392925 
1515.000000	63.379192 
1514.000000	63.367605 
1513.000000	63.359403 
1512.000000	63.355422 
1511.000000	63.355803 
1510.000000	63.360023 
1509.000000	63.367176 
1508.000000	63.376331 
1507.000000	63.386535 
1506.000000	63.396954 
1505.000000	63.406825 
1504.000000	63.415741 
1503.000000	63.423132 
1502.000000	63.428258 
1501.000000	63.430285 
1500.000000	63.428425 
1499.000000	63.422155 
1498.000000	63.411521 
1497.000000	63.397216 
1496.000000	63.380455 
1495.000000	63.363051 
1494.000000	63.346958 
1493.000000	63.333606 
1492.000000	63.323736 
1491.000000	63.317131 
1490.000000	63.312697 
1489.000000	63.309144 
1488.000000	63.305068 
1487.000000	63.299655 
1486.000000	63.292551 
1485.000000	63.283967 
1484.000000	63.274240 
1483.000000	63.263702 
1482.000000	63.252544 
1481.000000	63.240838 
1480.000000	63.228392 
1479.000000	63.215184 
1478.000000	63.201189 
1477.000000	63.186717 
1476.000000	63.172245 
1475.000000	63.158369 
1474.000000	63.145923 
1473.000000	63.135886 
1472.000000	63.129281 
1471.000000	63.126969 
1470.000000	63.129472 
1469.000000	63.136768 
1468.000000	63.148212 
1467.000000	63.162589 
1466.000000	63.178014 
1465.000000	63.192534 
1464.000000	63.204312 
1463.000000	63.212203 
1462.000000	63.215875 
1461.000000	63.215827 
1460.000000	63.213324 
1459.000000	63.210010 
1458.000000	63.207197 
1457.000000	63.205552 
1456.000000	63.204956 
1455.000000	63.204383 
1454.000000	63.202476 
1453.000000	63.197946 
1452.000000	63.190269 
1451.000000	63.179731 
1450.000000	63.167738 
1449.000000	63.156247 
1448.000000	63.147425 
1447.000000	63.143014 
1446.000000	63.144016 
1445.000000	63.150310 
1444.000000	63.160896 
1443.000000	63.174057 
1442.000000	63.188052 
1441.000000	63.201379 
1440.000000	63.213181 
1439.000000	63.223099 
1438.000000	63.231325 
1437.000000	63.238167 
1436.000000	63.243722 
1435.000000	63.247871 
1434.000000	63.250160 
1433.000000	63.249921 
1432.000000	63.246345 
1431.000000	63.239049 
1430.000000	63.228011 
1429.000000	63.213658 
1428.000000	63.196897 
1427.000000	63.179016 
1426.000000	63.161444 
1425.000000	63.145494 
1424.000000	63.132309 
1423.000000	63.122653 
1422.000000	63.116884 
1421.000000	63.114881 
1420.000000	63.116121 
1419.000000	63.119888 
1418.000000	63.125157 
1417.000000	63.130903 
1416.000000	63.136267 
1415.000000	63.140845 
1414.000000	63.144612 
1413.000000	63.147926 
1412.000000	63.151431 
1411.000000	63.155746 
1410.000000	63.161444 
1409.000000	63.168334 
1408.000000	63.175845 
1407.000000	63.182711 
1406.000000	63.187432 
1405.000000	63.188338 
1404.000000	63.184213 
1403.000000	63.174438 
1402.000000	63.159322 
1401.000000	63.140130 
1400.000000	63.118886 
1399.000000	63.098073 
1398.000000	63.080120 
1397.000000	63.066983 
1396.000000	63.059711 
1395.000000	63.058209 
1394.000000	63.061451 
1393.000000	63.067507 
1392.000000	63.073945 
1391.000000	63.078403 
1390.000000	63.079047 
1389.000000	63.074970 
1388.000000	63.066411 
1387.000000	63.054442 
1386.000000	63.040995 
1385.000000	63.028073 
1384.000000	63.017606 
1383.000000	63.010692 
1382.000000	63.007712 
1381.000000	63.008260 
1380.000000	63.011360 
1379.000000	63.015866 
1378.000000	63.020634 
1377.000000	63.025093 
1376.000000	63.028860 
1375.000000	63.032031 
1374.000000	63.034844 
1373.000000	63.037419 
1372.000000	63.039970 
1371.000000	63.042402 
1370.000000	63.044619 
1369.000000	63.046717 
1368.000000	63.049125 
1367.000000	63.052606 
1366.000000	63.057923 
1365.000000	63.065814 
1364.000000	63.076639 
1363.000000	63.090109 
1362.000000	63.105273 
1361.000000	63.120698 
1360.000000	63.134765 
1359.000000	63.145852 
1358.000000	63.152813 
1357.000000	63.155102 
1356.000000	63.152933 
1355.000000	63.147187 
1354.000000	63.139176 
1353.000000	63.130640 
1352.000000	63.123083 
1351.000000	63.118147 
1350.000000	63.117003 
1349.000000	63.120436 
1348.000000	63.128709 
1347.000000	63.141250 
1346.000000	63.156700 
1345.000000	63.173055 
1344.000000	63.187837 
1343.000000	63.198590 
1342.000000	63.203263 
1341.000000	63.200712 
1340.000000	63.190841 
1339.000000	63.174724 
1338.000000	63.154363 
1337.000000	63.132286 
1336.000000	63.111042 
1335.000000	63.092875 
1334.000000	63.079500 
1333.000000	63.071918 
1332.000000	63.070249 
1331.000000	63.074159 
1330.000000	63.082599 
1329.000000	63.094115 
1328.000000	63.106679 
1327.000000	63.117933 
1326.000000	63.125300 
1325.000000	63.126301 
1324.000000	63.119053 
1323.000000	63.103103 
1322.000000	63.079547 
1321.000000	63.051104 
1320.000000	63.021492 
1319.000000	62.994933 
1318.000000	62.975144 
1317.000000	62.964367 
1316.000000	62.963056 
1315.000000	62.969875 
1314.000000	62.981963 
1313.000000	62.995862 
1312.000000	63.007998 
1311.000000	63.015890 
1310.000000	63.018155 
1309.000000	63.014936 
1308.000000	63.007783 
1307.000000	62.999033 
1306.000000	62.991380 
1305.000000	62.987184 
1304.000000	62.987947 
1303.000000	62.993979 
1302.000000	63.004636 
1301.000000	63.018035 
1300.000000	63.031864 
1299.000000	63.043260 
1298.000000	63.049840 
1297.000000	63.049602 
1296.000000	63.041567 
1295.000000	63.025784 
1294.000000	63.003230 
1293.000000	62.975716 
1292.000000	62.945747 
1291.000000	62.916064 
1290.000000	62.889361 
1289.000000	62.868070 
1288.000000	62.853860 
1287.000000	62.847805 
1286.000000	62.850213 
1285.000000	62.860655 
1284.000000	62.877988 
1283.000000	62.900519 
1282.000000	62.926054 
1281.000000	62.952184 
1280.000000	62.976598 
1279.000000	62.997126 
1278.000000	63.012170 
1277.000000	63.020706 
1276.000000	63.022613 
1275.000000	63.018655 
1274.000000	63.010048 
1273.000000	62.998294 
1272.000000	62.984585 
1271.000000	62.969827 
1270.000000	62.954306 
1269.000000	62.937903 
1268.000000	62.920355 
1267.000000	62.901449 
1266.000000	62.881517 
1265.000000	62.861633 
1264.000000	62.843585 
1263.000000	62.829637 
1262.000000	62.821793 
1261.000000	62.821245 
1260.000000	62.828040 
1259.000000	62.840843 
1258.000000	62.857103 
1257.000000	62.873435 
1256.000000	62.886500 
1255.000000	62.893724 
1254.000000	62.893748 
1253.000000	62.886714 
1252.000000	62.874221 
1251.000000	62.858843 
1250.000000	62.843823 
1249.000000	62.832069 
1248.000000	62.825775 
1247.000000	62.825489 
1246.000000	62.830185 
1245.000000	62.837171 
1244.000000	62.842965 
1243.000000	62.844061 
1242.000000	62.837982 
1241.000000	62.824058 
1240.000000	62.803649 
1239.000000	62.780261 
1238.000000	62.758255 
1237.000000	62.742185 
1236.000000	62.735414 
1235.000000	62.739372 
1234.000000	62.753224 
1233.000000	62.774181 
1232.000000	62.798213 
1231.000000	62.821245 
1230.000000	62.840223 
1229.000000	62.853693 
1228.000000	62.861990 
1227.000000	62.866711 
1226.000000	62.869858 
1225.000000	62.873101 
1224.000000	62.877011 
1223.000000	62.881112 
1222.000000	62.883877 
1221.000000	62.883830 
1220.000000	62.879896 
1219.000000	62.872171 
1218.000000	62.861895 
1217.000000	62.851357 
1216.000000	62.843012 
1215.000000	62.838888 
1214.000000	62.839579 
1213.000000	62.844443 
1212.000000	62.851238 
1211.000000	62.857174 
1210.000000	62.859344 
1209.000000	62.855815 
1208.000000	62.845849 
1207.000000	62.830185 
1206.000000	62.810683 
1205.000000	62.789988 
1204.000000	62.770962 
1203.000000	62.756299 
1202.000000	62.747883 
1201.000000	62.746596 
1200.000000	62.752485 
1199.000000	62.764716 
1198.000000	62.781524 
1197.000000	62.800502 
1196.000000	62.818932 
1195.000000	62.834191 
1194.000000	62.844157 
1193.000000	62.847423 
1192.000000	62.843632 
1191.000000	62.833619 
1190.000000	62.819433 
1189.000000	62.803554 
1188.000000	62.788534 
1187.000000	62.776422 
1186.000000	62.768316 
1185.000000	62.764334 
1184.000000	62.763643 
1183.000000	62.764835 
1182.000000	62.766385 
1181.000000	62.766861 
1180.000000	62.765336 
1179.000000	62.761116 
1178.000000	62.753987 
1177.000000	62.743830 
1176.000000	62.730669 
1175.000000	62.714600 
1174.000000	62.695908 
1173.000000	62.675094 
1172.000000	62.652921 
1171.000000	62.630724 
1170.000000	62.610363 
1169.000000	62.593889 
1168.000000	62.583374 
1167.000000	62.580609 
1166.000000	62.586569 
1165.000000	62.601351 
1164.000000	62.623858 
1163.000000	62.651920 
1162.000000	62.682414 
1161.000000	62.711787 
1160.000000	62.736368 
1159.000000	62.753176 
1158.000000	62.760090 
1157.000000	62.756371 
1156.000000	62.742638 
1155.000000	62.720751 
1154.000000	62.693667 
1153.000000	62.664723 
1152.000000	62.637114 
1151.000000	62.613534 
1150.000000	62.595725 
1149.000000	62.584567 
1148.000000	62.579917 
1147.000000	62.581062 
1146.000000	62.586927 
1145.000000	62.596321 
1144.000000	62.608194 
1143.000000	62.621569 
1142.000000	62.635684 
1141.000000	62.649965 
1140.000000	62.663674 
1139.000000	62.676262 
1138.000000	62.687063 
1137.000000	62.695765 
1136.000000	62.702274 
1135.000000	62.706756 
1134.000000	62.709784 
1133.000000	62.711763 
1132.000000	62.713146 
1131.000000	62.713766 
1130.000000	62.713408 
1129.000000	62.711405 
1128.000000	62.706875 
1127.000000	62.699341 
1126.000000	62.688994 
1125.000000	62.677001 
1124.000000	62.665247 
1123.000000	62.656235 
1122.000000	62.652468 
1121.000000	62.655687 
1120.000000	62.666463 
1119.000000	62.683606 
1118.000000	62.704277 
1117.000000	62.724304 
1116.000000	62.739324 
1115.000000	62.745380 
1114.000000	62.740159 
1113.000000	62.723445 
1112.000000	62.697196 
1111.000000	62.665176 
1110.000000	62.632179 
1109.000000	62.602853 
1108.000000	62.580704 
1107.000000	62.567639 
1106.000000	62.563323 
1105.000000	62.565684 
1104.000000	62.571310 
1103.000000	62.576603 
1102.000000	62.578415 
1101.000000	62.574768 
1100.000000	62.564969 
1099.000000	62.549734 
1098.000000	62.530636 
1097.000000	62.509703 
1096.000000	62.488794 
1095.000000	62.469244 
1094.000000	62.451767 
1093.000000	62.436532 
1092.000000	62.423205 
1091.000000	62.411284 
1090.000000	62.400436 
1089.000000	62.390899 
1088.000000	62.383699 
1087.000000	62.380695 
1086.000000	62.383890 
1085.000000	62.395143 
1084.000000	62.415242 
1083.000000	62.443447 
1082.000000	62.477397 
1081.000000	62.513136 
1080.000000	62.546110 
1079.000000	62.571978 
1078.000000	62.587618 
1077.000000	62.591934 
1076.000000	62.585711 
1075.000000	62.571811 
1074.000000	62.554287 
1073.000000	62.537693 
1072.000000	62.526178 
1071.000000	62.522673 
1070.000000	62.528443 
1069.000000	62.543058 
1068.000000	62.564730 
1067.000000	62.590694 
1066.000000	62.617731 
1065.000000	62.642550 
1064.000000	62.662315 
1063.000000	62.674832 
1062.000000	62.678837 
1061.000000	62.673878 
1060.000000	62.660527 
1059.000000	62.640261 
1058.000000	62.615418 
1057.000000	62.588787 
1056.000000	62.563467 
1055.000000	62.542486 
1054.000000	62.528443 
1053.000000	62.522959 
1052.000000	62.526869 
1051.000000	62.539649 
1050.000000	62.559700 
1049.000000	62.584662 
1048.000000	62.611460 
1047.000000	62.636661 
1046.000000	62.656784 
1045.000000	62.668800 
1044.000000	62.670612 
1043.000000	62.661027 
1042.000000	62.640285 
1041.000000	62.609863 
1040.000000	62.572717 
1039.000000	62.532806 
1038.000000	62.494635 
1037.000000	62.462449 
1036.000000	62.439727 
1035.000000	62.428498 
1034.000000	62.429261 
1033.000000	62.440991 
1032.000000	62.461256 
1031.000000	62.486696 
1030.000000	62.513875 
1029.000000	62.539505 
1028.000000	62.561106 
1027.000000	62.576603 
1026.000000	62.584805 
1025.000000	62.585043 
1024.000000	62.577080 
1023.000000	62.560868 
1022.000000	62.536740 
1021.000000	62.505412 
1020.000000	62.468433 
1019.000000	62.428092 
1018.000000	62.387585 
1017.000000	62.350630 
1016.000000	62.321043 
1015.000000	62.302160 
1014.000000	62.296128 
1013.000000	62.303638 
1012.000000	62.323713 
1011.000000	62.353801 
1010.000000	62.390255 
1009.000000	62.429070 
1008.000000	62.466502 
1007.000000	62.499451 
1006.000000	62.525868 
1005.000000	62.544775 
1004.000000	62.556099 
1003.000000	62.560129 
1002.000000	62.557435 
1001.000000	62.548732 
1000.000000	62.534737 
999.000000	 62.516689 
998.000000	 62.495803 
997.000000	 62.474036 
996.000000	 62.453389 
995.000000	 62.435770 
994.000000	 62.422752 
993.000000	 62.415146 
992.000000	 62.413334 
991.000000	 62.417054 
990.000000	 62.425971 
989.000000	 62.439513 
988.000000	 62.457418 
987.000000	 62.479305 
986.000000	 62.504720 
985.000000	 62.532854 
984.000000	 62.562203 
983.000000	 62.590551 
982.000000	 62.615370 
981.000000	 62.634181 
980.000000	 62.645053 
979.000000	 62.647199 
978.000000	 62.641119 
977.000000	 62.628698 
976.000000	 62.613105 
975.000000	 62.597942 
974.000000	 62.586569 
973.000000	 62.581133 
972.000000	 62.582778 
971.000000	 62.590765 
970.000000	 62.603449 
969.000000	 62.617778 
968.000000	 62.630605 
967.000000	 62.638854 
966.000000	 62.640380 
965.000000	 62.634086 
964.000000	 62.619876 
963.000000	 62.599015 
962.000000	 62.573575 
961.000000	 62.546348 
960.000000	 62.520360 
959.000000	 62.498617 
958.000000	 62.483525 
957.000000	 62.476730 
956.000000	 62.478876 
955.000000	 62.489366 
954.000000	 62.506175 
953.000000	 62.526249 
952.000000	 62.546205 
951.000000	 62.562227 
950.000000	 62.571120 
949.000000	 62.570738 
948.000000	 62.560582 
947.000000	 62.541365 
946.000000	 62.515449 
945.000000	 62.486219 
944.000000	 62.457561 
943.000000	 62.433314 
942.000000	 62.416696 
941.000000	 62.409734 
940.000000	 62.413096 
939.000000	 62.426280 
938.000000	 62.447476 
937.000000	 62.474107 
936.000000	 62.502956 
935.000000	 62.530612 
934.000000	 62.553739 
933.000000	 62.569379 
932.000000	 62.575292 
931.000000	 62.570333 
930.000000	 62.554502 
929.000000	 62.529039 
928.000000	 62.496423 
927.000000	 62.459826 
926.000000	 62.422609 
925.000000	 62.387442 
924.000000	 62.356305 
923.000000	 62.330055 
922.000000	 62.308502 
921.000000	 62.291002 
920.000000	 62.276554 
919.000000	 62.264704 
918.000000	 62.255597 
917.000000	 62.250232 
916.000000	 62.249684 
915.000000	 62.255072 
914.000000	 62.266612 
913.000000	 62.283825 
912.000000	 62.305092 
911.000000	 62.328481 
910.000000	 62.351965 
909.000000	 62.374210 
908.000000	 62.394642 
907.000000	 62.413239 
906.000000	 62.430429 
905.000000	 62.446355 
904.000000	 62.460660 
903.000000	 62.472558 
902.000000	 62.481117 
901.000000	 62.485790 
900.000000	 62.486577 
899.000000	 62.484598 
898.000000	 62.481617 
897.000000	 62.479901 
896.000000	 62.481451 
895.000000	 62.487125 
894.000000	 62.496352 
893.000000	 62.507295 
892.000000	 62.517166 
891.000000	 62.523102 
890.000000	 62.522768 
889.000000	 62.515544 
888.000000	 62.502098 
887.000000	 62.484264 
886.000000	 62.464570 
885.000000	 62.445425 
884.000000	 62.428545 
883.000000	 62.414646 
882.000000	 62.403559 
881.000000	 62.394571 
880.000000	 62.386941 
879.000000	 62.380528 
878.000000	 62.375473 
877.000000	 62.372350 
876.000000	 62.371945 
875.000000	 62.374830 
874.000000	 62.380909 
873.000000	 62.389230 
872.000000	 62.398290 
871.000000	 62.406301 
870.000000	 62.411570 
869.000000	 62.412786 
868.000000	 62.409257 
867.000000	 62.401175 
866.000000	 62.389183 
865.000000	 62.374782 
864.000000	 62.359857 
863.000000	 62.346696 
862.000000	 62.337946 
861.000000	 62.336158 
860.000000	 62.343430 
859.000000	 62.360835 
858.000000	 62.388253 
857.000000	 62.423729 
856.000000	 62.463879 
855.000000	 62.503838 
854.000000	 62.538242 
853.000000	 62.562084 
852.000000	 62.571549 
851.000000	 62.565135 
850.000000	 62.543773 
849.000000	 62.510633 
848.000000	 62.470459 
847.000000	 62.428569 
846.000000	 62.389802 
845.000000	 62.357473 
844.000000	 62.333035 
843.000000	 62.315964 
842.000000	 62.304663 
841.000000	 62.297129 
840.000000	 62.292003 
839.000000	 62.288761 
838.000000	 62.288451 
837.000000	 62.293171 
836.000000	 62.305378 
835.000000	 62.326860 
834.000000	 62.357592 
833.000000	 62.395334 
832.000000	 62.435412 
831.000000	 62.471723 
830.000000	 62.497711 
829.000000	 62.507867 
828.000000	 62.499094 
827.000000	 62.471485 
826.000000	 62.428617 
825.000000	 62.376880 
824.000000	 62.324380 
823.000000	 62.279319 
822.000000	 62.248635 
821.000000	 62.236762 
820.000000	 62.244915 
819.000000	 62.270951 
818.000000	 62.310028 
817.000000	 62.355494 
816.000000	 62.399911 
815.000000	 62.436413 
814.000000	 62.459278 
813.000000	 62.465143 
812.000000	 62.452769 
811.000000	 62.424254 
810.000000	 62.384271 
809.000000	 62.339687 
808.000000	 62.298345 
807.000000	 62.267518 
806.000000	 62.252783 
805.000000	 62.256622 
804.000000	 62.278127 
803.000000	 62.313246 
802.000000	 62.355971 
801.000000	 62.399649 
800.000000	 62.438225 
799.000000	 62.467360 
798.000000	 62.484908 
797.000000	 62.490725 
796.000000	 62.486004 
795.000000	 62.472844 
794.000000	 62.453413 
793.000000	 62.429809 
792.000000	 62.403774 
791.000000	 62.376761 
790.000000	 62.349724 
789.000000	 62.323975 
788.000000	 62.300467 
787.000000	 62.279963 
786.000000	 62.262463 
785.000000	 62.246990 
784.000000	 62.232065 
783.000000	 62.215948 
782.000000	 62.197422 
781.000000	 62.175917 
780.000000	 62.152242 
779.000000	 62.128138 
778.000000	 62.106347 
777.000000	 62.089657 
776.000000	 62.080287 
775.000000	 62.079191 
774.000000	 62.085604 
773.000000	 62.097239 
772.000000	 62.110638 
771.000000	 62.121987 
770.000000	 62.127709 
769.000000	 62.125468 
768.000000	 62.114787 
767.000000	 62.097120 
766.000000	 62.075471 
765.000000	 62.053728 
764.000000	 62.035775 
763.000000	 62.024617 
762.000000	 62.021732 
761.000000	 62.026691 
760.000000	 62.037467 
759.000000	 62.050890 
758.000000	 62.063622 
757.000000	 62.072873 
756.000000	 62.077021 
755.000000	 62.075996 
754.000000	 62.071204 
753.000000	 62.065124 
752.000000	 62.060403 
751.000000	 62.059092 
750.000000	 62.062311 
749.000000	 62.069416 
748.000000	 62.078332 
747.000000	 62.085819 
746.000000	 62.088584 
745.000000	 62.084054 
744.000000	 62.071156 
743.000000	 62.050509 
742.000000	 62.024474 
741.000000	 61.996269 
740.000000	 61.969208 
739.000000	 61.945676 
738.000000	 61.926651 
737.000000	 61.911630 
736.000000	 61.899018 
735.000000	 61.886835 
734.000000	 61.873483 
733.000000	 61.858224 
732.000000	 61.841702 
731.000000	 61.825513 
730.000000	 61.812162 
729.000000	 61.804175 
728.000000	 61.803650 
727.000000	 61.811470 
726.000000	 61.827301 
725.000000	 61.849617 
724.000000	 61.875939 
723.000000	 61.903333 
722.000000	 61.928892 
721.000000	 61.950230 
720.000000	 61.965680 
719.000000	 61.974310 
718.000000	 61.976027 
717.000000	 61.971044 
716.000000	 61.959958 
715.000000	 61.943554 
714.000000	 61.922860 
713.000000	 61.899042 
712.000000	 61.873531 
711.000000	 61.847925 
710.000000	 61.823630 
709.000000	 61.801862 
708.000000	 61.783409 
707.000000	 61.768817 
706.000000	 61.758232 
705.000000	 61.751604 
704.000000	 61.748600 
703.000000	 61.748814 
702.000000	 61.751627 
701.000000	 61.756634 
700.000000	 61.762905 
699.000000	 61.769652 
698.000000	 61.776351 
697.000000	 61.782693 
696.000000	 61.788558 
695.000000	 61.793732 
694.000000	 61.797833 
693.000000	 61.799955 
692.000000	 61.798715 
691.000000	 61.792612 
690.000000	 61.780357 
689.000000	 61.761355 
688.000000	 61.735939 
687.000000	 61.705470 
686.000000	 61.672139 
685.000000	 61.638879 
684.000000	 61.608672 
683.000000	 61.583757 
682.000000	 61.565065 
681.000000	 61.552453 
680.000000	 61.544466 
679.000000	 61.538529 
678.000000	 61.531400 
677.000000	 61.520075 
676.000000	 61.502313 
675.000000	 61.476969 
674.000000	 61.444616 
673.000000	 61.407256 
672.000000	 61.368274 
671.000000	 61.331558 
670.000000	 61.300778 
669.000000	 61.278867 
668.000000	 61.267089 
667.000000	 61.264944 
666.000000	 61.270022 
665.000000	 61.278462 
664.000000	 61.285924 
663.000000	 61.288642 
662.000000	 61.284708 
661.000000	 61.274647 
660.000000	 61.262249 
659.000000	 61.253619 
658.000000	 61.256217 
657.000000	 61.276531 
656.000000	 61.318707 
655.000000	 61.382389 
654.000000	 61.462283 
653.000000	 61.548852 
652.000000	 61.630415 
651.000000	 61.695718 
650.000000	 61.736559 
649.000000	 61.749720 
648.000000	 61.737608 
647.000000	 61.707377 
646.000000	 61.669898 
645.000000	 61.635756 
644.000000	 61.612582 
643.000000	 61.603212 
642.000000	 61.605978 
641.000000	 61.615037 
640.000000	 61.622929 
639.000000	 61.622905 
638.000000	 61.611342 
637.000000	 61.588954 
636.000000	 61.560630 
635.000000	 61.533546 
634.000000	 61.514377 
633.000000	 61.507558 
632.000000	 61.513209 
631.000000	 61.526894 
630.000000	 61.540126 
629.000000	 61.542010 
628.000000	 61.522316 
627.000000	 61.473441 
626.000000	 61.394000 
625.000000	 61.288952 
624.000000	 61.171030 
623.000000	 61.056399 
622.000000	 60.964274 
621.000000	 60.913038 
620.000000	 60.916900 
619.000000	 60.982298 
618.000000	 61.106705 
617.000000	 61.280202 
616.000000	 61.484384 
615.000000	 61.696076 
614.000000	 61.889362 
613.000000	 62.040138 
612.000000	 62.129163 
611.000000	 62.144804 
610.000000	 62.086057 
609.000000	 61.962199 
608.000000	 61.792612 
607.000000	 61.603236 
606.000000	 61.422467 
605.000000	 61.275601 
604.000000	 61.181735 
603.000000	 61.149597 
602.000000	 61.176609 
601.000000	 61.248993 
600.000000	 61.346936 
599.000000	 61.447095 
598.000000	 61.526417 
597.000000	 61.566424 
596.000000	 61.556291 
595.000000	 61.493778 
594.000000	 61.384010 
593.000000	 61.237430 
592.000000	 61.067605 
591.000000	 60.887479 
590.000000	 60.707449 
589.000000	 60.534024 
588.000000	 60.370826 
587.000000	 60.219573 
586.000000	 60.082316 
585.000000	 59.962320 
584.000000	 59.864044 
583.000000	 59.793519 
582.000000	 59.756970 
581.000000	 59.757995 
580.000000	 59.795999 
579.000000	 59.866476 
578.000000	 59.962224 
577.000000	 60.074901 
576.000000	 60.198259 
575.000000	 60.329890 
574.000000	 60.472106 
573.000000	 60.631680 
572.000000	 60.815882 
571.000000	 61.027622 
570.000000	 61.262202 
569.000000	 61.507225 
568.000000	 61.742615 
567.000000	 61.944723 
566.000000	 62.090706 
565.000000	 62.166285 
564.000000	 62.166547 
563.000000	 62.099432 
562.000000	 61.981678 
561.000000	 61.836767 
560.000000	 61.687970 
559.000000	 61.554527 
558.000000	 61.447811 
557.000000	 61.371254 
556.000000	 61.321210 
555.000000	 61.290812 
554.000000	 61.272501 
553.000000	 61.261391 
552.000000	 61.255311 
551.000000	 61.255812 
550.000000	 61.265110 
549.000000	 61.286377 
548.000000	 61.322188 
547.000000	 61.375451 
546.000000	 61.447715 
545.000000	 61.540460 
544.000000	 61.656069 
543.000000	 61.795783 
542.000000	 61.958622 
541.000000	 62.138628 
540.000000	 62.326312 
539.000000	 62.505817 
538.000000	 62.658500 
537.000000	 62.763237 
536.000000	 62.803196 
535.000000	 62.766075 
534.000000	 62.649083 
533.000000	 62.457847 
532.000000	 62.207102 
531.000000	 61.917686 
530.000000	 61.614298 
529.000000	 61.321496 
528.000000	 61.060762 
527.000000	 60.849666 
526.000000	 60.700368 
525.000000	 60.617351 
524.000000	 60.597658 
523.000000	 60.631370 
522.000000	 60.703754 
521.000000	 60.795927 
520.000000	 60.889077 
519.000000	 60.965657 
518.000000	 61.013770 
517.000000	 61.026811 
516.000000	 61.006021 
515.000000	 60.957884 
514.000000	 60.893154 
513.000000	 60.825061 
512.000000	 60.764956 
511.000000	 60.720014 
510.000000	 60.691761 
509.000000	 60.677552 
508.000000	 60.671067 
507.000000	 60.664272 
506.000000	 60.652017 
505.000000	 60.633563 
504.000000	 60.614252 
503.000000	 60.603404 
502.000000	 60.613465 
501.000000	 60.655760 
500.000000	 60.738611 
499.000000	 60.864615 
498.000000	 61.028337 
497.000000	 61.216998 
496.000000	 61.414885 
495.000000	 61.606502 
494.000000	 61.780238 
493.000000	 61.929154 
492.000000	 62.052679 
491.000000	 62.152647 
490.000000	 62.231898 
489.000000	 62.289571 
488.000000	 62.320518 
487.000000	 62.315177 
486.000000	 62.265038 
485.000000	 62.163448 
484.000000	 62.012553 
483.000000	 61.820602 
482.000000	 61.603212 
481.000000	 61.378908 
480.000000	 61.166024 
479.000000	 60.979366 
478.000000	 60.827398 
477.000000	 60.713386 
476.000000	 60.635590 
475.000000	 60.592579 
474.000000	 60.585045 
473.000000	 60.616254 
472.000000	 60.690069 
471.000000	 60.808658 
470.000000	 60.968732 
469.000000	 61.158299 
468.000000	 61.356186 
467.000000	 61.534380 
466.000000	 61.662793 
465.000000	 61.716580 
464.000000	 61.681127 
463.000000	 61.555385 
462.000000	 61.352896 
461.000000	 61.099863 
460.000000	 60.830283 
459.000000	 60.579657 
458.000000	 60.378408 
457.000000	 60.248637 
456.000000	 60.198879 
455.000000	 60.225558 
454.000000	 60.312199 
453.000000	 60.435175 
452.000000	 60.565614 
451.000000	 60.675191 
450.000000	 60.739731 
449.000000	 60.742497 
448.000000	 60.676693 
447.000000	 60.545086 
446.000000	 60.361385 
445.000000	 60.147690 
444.000000	 59.932398 
443.000000	 59.746098 
442.000000	 59.617018 
441.000000	 59.567594 
440.000000	 59.612679 
439.000000	 59.757709 
438.000000	 59.996199 
437.000000	 60.311627 
436.000000	 60.680794 
435.000000	 61.075901 
434.000000	 61.465525 
433.000000	 61.819744 
432.000000	 62.115406 
431.000000	 62.335801 
430.000000	 62.472558 
429.000000	 62.523961 
428.000000	 62.493658 
427.000000	 62.390828 
426.000000	 62.233018 
425.000000	 62.039971 
424.000000	 61.832094 
423.000000	 61.630773 
422.000000	 61.460089 
421.000000	 61.337327 
420.000000	 61.270499 
419.000000	 61.258912 
418.000000	 61.294174 
417.000000	 61.355471 
416.000000	 61.414122 
415.000000	 61.443352 
414.000000	 61.422276 
413.000000	 61.341428 
412.000000	 61.201238 
411.000000	 61.007094 
410.000000	 60.765147 
409.000000	 60.487985 
408.000000	 60.185241 
407.000000	 59.851527 
406.000000	 59.481072 
405.000000	 59.071755 
404.000000	 58.639216 
403.000000	 58.212685 
402.000000	 57.846379 
401.000000	 57.600760 
400.000000	 57.544994 
399.000000	 57.740902 
398.000000	 58.222699 
397.000000	 58.972358 
396.000000	 59.938311 
395.000000	 61.035680 
394.000000	 62.183165 
393.000000	 63.318347 
392.000000	 64.408540 
391.000000	 65.444374 
390.000000	 66.449356 
389.000000	 67.447328 
388.000000	 68.437552 
387.000000	 69.359588 
386.000000	 70.093250 
385.000000	 70.460510 
384.000000	 70.267248 
383.000000	 69.349956 
382.000000	 67.630743 
381.000000	 65.159606 
380.000000	 62.135982 
379.000000	 58.888101 
378.000000	 55.781340 
377.000000	 53.210043 
376.000000	 51.463937 
375.000000	 50.779151 
374.000000	 51.323795 
373.000000	 53.150510 
372.000000	 56.216478 
371.000000	 60.287308 
370.000000	 64.946174 

